subj,sex,age,language,english,french,native_lang,date,practice,block,trial,stim,pitch,stretch,response,rt
8734529389,f,24,english,5,4,english,2024-01-25 10:58:53.516161,True,0,0,sounds\french\audio/french_539.wav,"[[  0.          48.58834425]
 [  0.1        -56.64619482]
 [  0.2         12.72257351]
 [  0.3         14.57779112]
 [  0.4        -53.79115146]
 [  0.5         -9.39809755]
 [  0.6         67.43376648]
 [  0.7        -72.51273076]
 [  0.8          3.43276355]
 [  0.9         40.14425687]
 [  1.          54.85231258]
 [  1.1        -17.29716808]
 [  1.14141667  36.80649937]]","[[0.         0.55713702]
 [0.1        0.83408519]
 [0.2        0.22105139]
 [0.3        1.24631237]
 [0.4        1.80108834]
 [0.5        0.10826692]
 [0.6        1.35746598]
 [0.7        0.14156413]
 [0.8        0.59340931]
 [0.9        0.46199534]
 [1.         1.89990392]
 [1.1        0.79928212]
 [1.14141667 0.04454349]]",0,19.847
8734529389,f,24,english,5,4,english,2024-01-25 10:58:53.516161,True,0,1,sounds\french\audio/french_328.wav,"[[  0.          70.39281279]
 [  0.1        -62.4365066 ]
 [  0.2         74.18889281]
 [  0.3          6.08253947]
 [  0.4         14.94897536]
 [  0.5        -45.91689169]
 [  0.6         51.00614237]
 [  0.7        -68.53703239]
 [  0.8         93.58528924]
 [  0.9         51.46046525]
 [  1.         -77.58470521]
 [  1.1        -72.45732105]
 [  1.14141667 -40.05577785]]","[[0.         1.11868874]
 [0.1        1.7831523 ]
 [0.2        0.37694606]
 [0.3        0.30173154]
 [0.4        1.08259473]
 [0.5        0.83879107]
 [0.6        0.64036349]
 [0.7        1.67880376]
 [0.8        1.29419858]
 [0.9        0.63702013]
 [1.         0.88742502]
 [1.1        0.08384723]
 [1.14141667 0.80959776]]",1,4.774
8734529389,f,24,english,5,4,english,2024-01-25 10:58:53.516161,True,0,2,sounds\french\audio/french_41.wav,"[[  0.         -77.45792826]
 [  0.1        -76.73008719]
 [  0.2         67.62637109]
 [  0.3        -25.44073719]
 [  0.4         62.7898726 ]
 [  0.5         48.38061814]
 [  0.6         27.42076403]
 [  0.7         51.49896077]
 [  0.8         56.60209014]
 [  0.9         21.23653766]
 [  1.         -50.41834938]
 [  1.1          9.60830124]
 [  1.14141667  24.16174925]]","[[0.         1.32725749]
 [0.1        0.86869005]
 [0.2        0.89538939]
 [0.3        0.38265383]
 [0.4        0.99213748]
 [0.5        1.78775931]
 [0.6        0.02692299]
 [0.7        1.16567079]
 [0.8        0.37909692]
 [0.9        0.53149131]
 [1.         0.19881118]
 [1.1        1.41835069]
 [1.14141667 1.88839295]]",1,1.303
8734529389,f,24,english,5,4,english,2024-01-25 10:58:53.516161,False,1,3,sounds\french\audio/french_938.wav,"[[  0.          78.88220732]
 [  0.1         -3.22217582]
 [  0.2         31.59313942]
 [  0.3        -87.34103223]
 [  0.4         26.56163826]
 [  0.5        -64.307528  ]
 [  0.6         85.8718617 ]
 [  0.7         60.41522049]
 [  0.8        -50.06881787]
 [  0.9         82.85214722]
 [  1.         -75.67548959]
 [  1.1         30.15245277]
 [  1.14141667 -12.395703  ]]","[[0.         0.57815616]
 [0.1        1.18097533]
 [0.2        0.53220918]
 [0.3        0.09451103]
 [0.4        1.66363874]
 [0.5        0.16302061]
 [0.6        0.92582254]
 [0.7        1.59975108]
 [0.8        0.43386097]
 [0.9        1.25868971]
 [1.         0.54585511]
 [1.1        1.6315762 ]
 [1.14141667 1.60331722]]",1,0.77
8734529389,f,24,english,5,4,english,2024-01-25 10:58:53.516161,False,1,4,sounds\french\audio/french_340.wav,"[[  0.          48.26419712]
 [  0.1        -47.83724463]
 [  0.2        -59.94167293]
 [  0.3         -2.10646815]
 [  0.4         56.22787301]
 [  0.5          3.63875835]
 [  0.6         68.19322982]
 [  0.7        -66.226353  ]
 [  0.8         25.57175498]
 [  0.9        -56.45976612]
 [  1.         -49.28125995]
 [  1.1         72.50645078]
 [  1.14141667  -9.1064747 ]]","[[0.         1.63856122]
 [0.1        0.51084521]
 [0.2        0.1611518 ]
 [0.3        1.89193476]
 [0.4        0.23206424]
 [0.5        1.58271765]
 [0.6        1.2112833 ]
 [0.7        0.17687379]
 [0.8        1.37975362]
 [0.9        1.62884382]
 [1.         0.75620984]
 [1.1        0.70269726]
 [1.14141667 1.66380659]]",0,0.192
8734529389,f,24,english,5,4,english,2024-01-25 10:58:53.516161,False,1,5,sounds\french\audio/french_820.wav,"[[  0.           2.20805213]
 [  0.1        -90.51492195]
 [  0.2         14.37438706]
 [  0.3         48.7691056 ]
 [  0.4        -26.19278003]
 [  0.5         18.08357323]
 [  0.6         82.28583292]
 [  0.7         69.03631189]
 [  0.8         27.35509958]
 [  0.9         27.52320107]
 [  1.          -3.99788557]
 [  1.1         54.09103587]
 [  1.14141667  22.53021971]]","[[0.         0.81178605]
 [0.1        0.34105584]
 [0.2        1.03419156]
 [0.3        1.3222317 ]
 [0.4        0.6377532 ]
 [0.5        1.39628768]
 [0.6        1.53457958]
 [0.7        1.68460853]
 [0.8        1.6036494 ]
 [0.9        1.49572357]
 [1.         0.7318371 ]
 [1.1        0.77038849]
 [1.14141667 0.80738652]]",0,1.957
8734529389,f,24,english,5,4,english,2024-01-25 10:58:53.516161,False,1,6,sounds\french\audio/french_66.wav,"[[  0.         -98.32760245]
 [  0.1        -62.26266621]
 [  0.2         89.72937552]
 [  0.3         56.77934236]
 [  0.4        -42.45776165]
 [  0.5        -59.91789644]
 [  0.6         -9.4669158 ]
 [  0.7         65.23523517]
 [  0.8        -82.94194698]
 [  0.9        -10.04050412]
 [  1.          69.7789537 ]
 [  1.1         65.31837891]
 [  1.14141667  -9.82207776]]","[[0.         0.76752471]
 [0.1        1.09885532]
 [0.2        0.15772662]
 [0.3        0.75379746]
 [0.4        0.86935584]
 [0.5        0.32743409]
 [0.6        0.75398911]
 [0.7        1.26665279]
 [0.8        1.24326808]
 [0.9        1.27187404]
 [1.         1.72227413]
 [1.1        1.95483723]
 [1.14141667 0.94632212]]",0,0.54
8734529389,f,24,english,5,4,english,2024-01-25 10:58:53.516161,False,1,7,sounds\french\audio/french_539.wav,"[[  0.          48.58834425]
 [  0.1        -56.64619482]
 [  0.2         12.72257351]
 [  0.3         14.57779112]
 [  0.4        -53.79115146]
 [  0.5         -9.39809755]
 [  0.6         67.43376648]
 [  0.7        -72.51273076]
 [  0.8          3.43276355]
 [  0.9         40.14425687]
 [  1.          54.85231258]
 [  1.1        -17.29716808]
 [  1.14141667  36.80649937]]","[[0.         0.55713702]
 [0.1        0.83408519]
 [0.2        0.22105139]
 [0.3        1.24631237]
 [0.4        1.80108834]
 [0.5        0.10826692]
 [0.6        1.35746598]
 [0.7        0.14156413]
 [0.8        0.59340931]
 [0.9        0.46199534]
 [1.         1.89990392]
 [1.1        0.79928212]
 [1.14141667 0.04454349]]",1,0.449
8734529389,f,24,english,5,4,english,2024-01-25 10:58:53.516161,False,1,8,sounds\french\audio/french_873.wav,"[[  0.          72.03003954]
 [  0.1        -23.30621714]
 [  0.2        -35.89141319]
 [  0.3         67.68024677]
 [  0.4         21.20717598]
 [  0.5        -50.70040168]
 [  0.6        -71.51050021]
 [  0.7         34.37852202]
 [  0.8         30.83728681]
 [  0.9        -76.87739592]
 [  1.          42.37175398]
 [  1.1         70.77163958]
 [  1.14141667  15.85245945]]","[[0.         1.83410118]
 [0.1        1.9626168 ]
 [0.2        0.81420051]
 [0.3        1.63047329]
 [0.4        1.57956601]
 [0.5        1.84719914]
 [0.6        0.36709049]
 [0.7        0.904759  ]
 [0.8        1.75590546]
 [0.9        1.02149993]
 [1.         0.76391448]
 [1.1        0.00404813]
 [1.14141667 0.16931054]]",0,0.406
8734529389,f,24,english,5,4,english,2024-01-25 10:58:53.516161,False,1,9,sounds\french\audio/french_367.wav,"[[  0.         -19.33050099]
 [  0.1         -1.29300582]
 [  0.2        -53.6628535 ]
 [  0.3        -26.30205028]
 [  0.4        -63.4363173 ]
 [  0.5          6.39307262]
 [  0.6        -64.6682597 ]
 [  0.7         29.77195728]
 [  0.8         57.14519673]
 [  0.9         -3.13638169]
 [  1.          29.03856774]
 [  1.1        -14.77542226]
 [  1.14141667 -39.4710146 ]]","[[0.         0.32588684]
 [0.1        1.20079268]
 [0.2        1.68961812]
 [0.3        0.18361897]
 [0.4        0.97466933]
 [0.5        1.38512788]
 [0.6        0.02274579]
 [0.7        0.18668815]
 [0.8        0.42667984]
 [0.9        0.48752638]
 [1.         0.21358708]
 [1.1        0.34158708]
 [1.14141667 1.96821169]]",1,0.897
8734529389,f,24,english,5,4,english,2024-01-25 10:58:53.516161,False,1,10,sounds\french\audio/french_989.wav,"[[  0.         -44.41097931]
 [  0.1         66.6460462 ]
 [  0.2        -12.00930919]
 [  0.3         18.31928104]
 [  0.4         42.84827908]
 [  0.5         39.43988164]
 [  0.6         98.0897031 ]
 [  0.7         73.07759931]
 [  0.8         88.83528455]
 [  0.9        -62.07438452]
 [  1.          95.3416321 ]
 [  1.1         72.09965955]
 [  1.14141667  32.11352747]]","[[0.         1.1786245 ]
 [0.1        1.67818399]
 [0.2        1.77767188]
 [0.3        0.42466345]
 [0.4        1.98594194]
 [0.5        0.94788839]
 [0.6        0.65021646]
 [0.7        1.41735588]
 [0.8        0.23014767]
 [0.9        0.393141  ]
 [1.         1.54796878]
 [1.1        0.59500938]
 [1.14141667 0.56774679]]",1,0.423
8734529389,f,24,english,5,4,english,2024-01-25 10:58:53.516161,False,1,11,sounds\french\audio/french_662.wav,"[[  0.         -58.41769523]
 [  0.1          9.57990173]
 [  0.2        -12.85613497]
 [  0.3         -2.492249  ]
 [  0.4         81.85022743]
 [  0.5        -44.9453707 ]
 [  0.6        -31.2400428 ]
 [  0.7         -0.32495302]
 [  0.8         83.47890741]
 [  0.9         -3.56204298]
 [  1.         -31.28236846]
 [  1.1         29.38972981]
 [  1.14141667  56.83170874]]","[[0.         0.17249004]
 [0.1        0.24251521]
 [0.2        0.0442616 ]
 [0.3        0.45328164]
 [0.4        0.52406405]
 [0.5        0.36675154]
 [0.6        0.00343123]
 [0.7        0.95062338]
 [0.8        1.83377113]
 [0.9        0.58479333]
 [1.         0.06647959]
 [1.1        0.47496869]
 [1.14141667 1.46968119]]",1,4.473
8734529389,f,24,english,5,4,english,2024-01-25 10:58:53.516161,False,1,12,sounds\french\audio/french_290.wav,"[[  0.          51.79529481]
 [  0.1        -44.96208288]
 [  0.2         -8.40336913]
 [  0.3        -33.79266006]
 [  0.4        -16.62160995]
 [  0.5        -47.44959741]
 [  0.6         35.7383964 ]
 [  0.7         75.70793439]
 [  0.8        -73.28364488]
 [  0.9         86.89485551]
 [  1.         -78.42663164]
 [  1.1        -66.68243358]
 [  1.14141667 -12.30663823]]","[[0.         1.3540835 ]
 [0.1        1.67127724]
 [0.2        1.47048536]
 [0.3        1.6703547 ]
 [0.4        1.62049275]
 [0.5        1.23154079]
 [0.6        0.29540954]
 [0.7        1.03665221]
 [0.8        0.51418573]
 [0.9        0.34642395]
 [1.         1.30745758]
 [1.1        0.53814921]
 [1.14141667 0.82648066]]",1,0.697
8734529389,f,24,english,5,4,english,2024-01-25 10:58:53.516161,False,1,13,sounds\french\audio/french_499.wav,"[[  0.          46.36032418]
 [  0.1        -46.60169096]
 [  0.2        -44.64435546]
 [  0.3         58.45397876]
 [  0.4        -85.48224087]
 [  0.5         32.740238  ]
 [  0.6         41.02068671]
 [  0.7        -17.47927701]
 [  0.8        -42.8013025 ]
 [  0.9         24.39191536]
 [  1.           7.64839567]
 [  1.1        -20.78399586]
 [  1.14141667 -72.74453454]]","[[0.         1.15673236]
 [0.1        1.00449513]
 [0.2        1.22972272]
 [0.3        1.93385814]
 [0.4        0.72285847]
 [0.5        1.06540141]
 [0.6        1.32864033]
 [0.7        0.41428775]
 [0.8        1.26797028]
 [0.9        0.4617835 ]
 [1.         1.17377315]
 [1.1        0.12304897]
 [1.14141667 1.98091911]]",0,0.109
8734529389,f,24,english,5,4,english,2024-01-25 10:58:53.516161,False,1,14,sounds\french\audio/french_682.wav,"[[  0.         -49.14718886]
 [  0.1        -40.83830255]
 [  0.2        -50.11270538]
 [  0.3         -9.39281425]
 [  0.4         32.70333526]
 [  0.5         30.26185855]
 [  0.6         50.24643648]
 [  0.7         20.1372188 ]
 [  0.8          8.99982871]
 [  0.9        -50.5310939 ]
 [  1.          43.59766176]
 [  1.1          9.63593845]
 [  1.14141667  65.38682914]]","[[0.         0.39494833]
 [0.1        1.11469071]
 [0.2        1.45079191]
 [0.3        1.42143537]
 [0.4        0.63727406]
 [0.5        1.95529652]
 [0.6        1.27379672]
 [0.7        0.99071874]
 [0.8        1.53456964]
 [0.9        0.13541683]
 [1.         0.68811152]
 [1.1        1.74660873]
 [1.14141667 1.18702659]]",1,1.137
8734529389,f,24,english,5,4,english,2024-01-25 10:58:53.516161,False,1,15,sounds\french\audio/french_782.wav,"[[  0.          81.9355603 ]
 [  0.1        -71.71419263]
 [  0.2         22.51011958]
 [  0.3        -99.72950063]
 [  0.4         49.841831  ]
 [  0.5        -23.89351414]
 [  0.6        -24.36460831]
 [  0.7         -7.07228543]
 [  0.8        -45.49814783]
 [  0.9        -73.69355256]
 [  1.         -98.73636383]
 [  1.1         43.00492329]
 [  1.14141667  11.2297133 ]]","[[0.         0.28913279]
 [0.1        1.21962887]
 [0.2        0.54555181]
 [0.3        1.17137312]
 [0.4        1.42537033]
 [0.5        1.15969032]
 [0.6        1.55365219]
 [0.7        1.32611995]
 [0.8        1.19252175]
 [0.9        1.12992737]
 [1.         1.10307244]
 [1.1        0.98390362]
 [1.14141667 0.54655988]]",0,0.256
8734529389,f,24,english,5,4,english,2024-01-25 10:58:53.516161,False,1,16,sounds\french\audio/french_606.wav,"[[  0.          29.70975547]
 [  0.1         28.42644231]
 [  0.2         21.59399465]
 [  0.3        -85.78360108]
 [  0.4        -86.96471331]
 [  0.5        -42.98154559]
 [  0.6        -24.40718185]
 [  0.7         40.30920649]
 [  0.8         60.29967336]
 [  0.9        -28.97197282]
 [  1.          20.58306705]
 [  1.1         36.82833662]
 [  1.14141667 -96.86148063]]","[[0.         1.48129541]
 [0.1        1.50796462]
 [0.2        1.95094467]
 [0.3        1.21516633]
 [0.4        1.69229455]
 [0.5        1.09993922]
 [0.6        1.7732578 ]
 [0.7        0.96640662]
 [0.8        1.55948905]
 [0.9        0.42676263]
 [1.         1.41137434]
 [1.1        1.11539435]
 [1.14141667 1.96267589]]",1,0.079
8734529389,f,24,english,5,4,english,2024-01-25 10:58:53.516161,False,1,17,sounds\french\audio/french_526.wav,"[[  0.          -3.34213948]
 [  0.1        -38.63024981]
 [  0.2         93.21737658]
 [  0.3        -71.56714532]
 [  0.4         55.55298997]
 [  0.5        -90.65516394]
 [  0.6         67.30065147]
 [  0.7        -92.19460914]
 [  0.8        -61.42846186]
 [  0.9        -71.57092401]
 [  1.          -1.13377121]
 [  1.1         79.13585044]
 [  1.14141667 -60.54584427]]","[[0.         0.40974575]
 [0.1        0.80270001]
 [0.2        0.74121325]
 [0.3        1.50939527]
 [0.4        0.92463097]
 [0.5        1.64741989]
 [0.6        0.25308429]
 [0.7        0.31675775]
 [0.8        1.60624507]
 [0.9        1.37847828]
 [1.         1.26755978]
 [1.1        1.65811532]
 [1.14141667 1.5361609 ]]",0,0.012
8734529389,f,24,english,5,4,english,2024-01-25 10:58:53.516161,False,1,18,sounds\french\audio/french_139.wav,"[[  0.          60.33474426]
 [  0.1         38.93323401]
 [  0.2         81.82892201]
 [  0.3         -5.35389096]
 [  0.4         45.79202167]
 [  0.5         20.55887317]
 [  0.6         -5.88389044]
 [  0.7          6.48301447]
 [  0.8        -23.77186576]
 [  0.9         60.18530023]
 [  1.         -12.64152594]
 [  1.1        -31.65464666]
 [  1.14141667 -84.45306184]]","[[0.         0.98524205]
 [0.1        0.78117712]
 [0.2        0.61752243]
 [0.3        0.38397535]
 [0.4        0.60652717]
 [0.5        1.09559489]
 [0.6        0.26955055]
 [0.7        0.35792528]
 [0.8        1.46618843]
 [0.9        1.78162027]
 [1.         0.37213787]
 [1.1        1.38195712]
 [1.14141667 1.42802916]]",0,1.027
8734529389,f,24,english,5,4,english,2024-01-25 10:58:53.516161,False,1,19,sounds\french\audio/french_299.wav,"[[  0.          27.54732084]
 [  0.1        -69.85328148]
 [  0.2        -76.72380053]
 [  0.3         47.28957329]
 [  0.4        -83.86181977]
 [  0.5        -72.7131884 ]
 [  0.6         98.49149533]
 [  0.7        -90.50824012]
 [  0.8         93.42930075]
 [  0.9        -60.07863719]
 [  1.          43.55049774]
 [  1.1        -22.12934446]
 [  1.14141667  64.41922014]]","[[0.         1.70636753]
 [0.1        0.18445739]
 [0.2        1.50695547]
 [0.3        1.3381099 ]
 [0.4        0.55272236]
 [0.5        1.90662602]
 [0.6        0.61695475]
 [0.7        0.26303516]
 [0.8        0.95948634]
 [0.9        1.69088339]
 [1.         0.19447203]
 [1.1        1.08186888]
 [1.14141667 0.10179094]]",1,0.285
8734529389,f,24,english,5,4,english,2024-01-25 10:58:53.516161,False,1,20,sounds\french\audio/french_442.wav,"[[  0.          59.89348182]
 [  0.1        -90.19745983]
 [  0.2         34.97525188]
 [  0.3        -60.10498495]
 [  0.4        -52.20535883]
 [  0.5         33.32923329]
 [  0.6        -72.02089693]
 [  0.7         15.91732192]
 [  0.8         49.50947125]
 [  0.9        -96.72595223]
 [  1.          12.6942829 ]
 [  1.1        -57.11899111]
 [  1.14141667  36.89213251]]","[[0.         1.93338354]
 [0.1        0.1221368 ]
 [0.2        1.40375233]
 [0.3        0.23715052]
 [0.4        0.86935067]
 [0.5        1.40007492]
 [0.6        1.87875592]
 [0.7        1.15703728]
 [0.8        1.45583236]
 [0.9        0.52053121]
 [1.         0.18849311]
 [1.1        1.67578542]
 [1.14141667 0.36635536]]",0,0.498
8734529389,f,24,english,5,4,english,2024-01-25 10:58:53.516161,False,1,21,sounds\french\audio/french_658.wav,"[[  0.          10.15329959]
 [  0.1         -2.25799009]
 [  0.2         95.54246656]
 [  0.3        -42.72793441]
 [  0.4         31.54335156]
 [  0.5         98.96594256]
 [  0.6        -84.1258939 ]
 [  0.7         43.16144361]
 [  0.8        -83.17428282]
 [  0.9        -91.85603593]
 [  1.         -89.27922851]
 [  1.1        -52.24216867]
 [  1.14141667 -52.27227189]]","[[0.         0.58920679]
 [0.1        0.54215255]
 [0.2        1.07341669]
 [0.3        1.09847262]
 [0.4        0.76322591]
 [0.5        0.79502103]
 [0.6        1.48142632]
 [0.7        1.54503995]
 [0.8        0.0050502 ]
 [0.9        1.89552016]
 [1.         1.66920702]
 [1.1        1.87668144]
 [1.14141667 1.50609359]]",1,1.061
8734529389,f,24,english,5,4,english,2024-01-25 10:58:53.516161,False,1,22,sounds\french\audio/french_522.wav,"[[  0.          42.17654984]
 [  0.1         35.32154358]
 [  0.2         41.16735521]
 [  0.3         19.52368749]
 [  0.4        -54.39246122]
 [  0.5         94.98899794]
 [  0.6        -27.72769651]
 [  0.7        -89.66079505]
 [  0.8        -43.87277896]
 [  0.9         80.86671181]
 [  1.         -94.11337917]
 [  1.1         18.06516358]
 [  1.14141667 -14.64977402]]","[[0.         0.43845661]
 [0.1        1.47394763]
 [0.2        1.4513676 ]
 [0.3        0.36689019]
 [0.4        0.57240118]
 [0.5        0.88025618]
 [0.6        0.50479501]
 [0.7        0.37869223]
 [0.8        1.44108388]
 [0.9        0.14120379]
 [1.         1.05720845]
 [1.1        1.99017269]
 [1.14141667 0.84262259]]",1,1.265
8734529389,f,24,english,5,4,english,2024-01-25 10:58:53.516161,False,1,23,sounds\french\audio/french_459.wav,"[[  0.           4.61060923]
 [  0.1         56.90661814]
 [  0.2        -64.88787295]
 [  0.3         60.80306931]
 [  0.4        -72.51163358]
 [  0.5        -58.97655872]
 [  0.6        -57.13693888]
 [  0.7         91.43327587]
 [  0.8         27.92334317]
 [  0.9        -16.1495518 ]
 [  1.         -49.8689815 ]
 [  1.1         77.63620877]
 [  1.14141667  -4.58738982]]","[[0.         0.63045471]
 [0.1        0.25838891]
 [0.2        1.34944263]
 [0.3        0.3412609 ]
 [0.4        0.8026416 ]
 [0.5        0.15800619]
 [0.6        1.38177294]
 [0.7        1.01516397]
 [0.8        0.04958646]
 [0.9        0.060326  ]
 [1.         1.65536428]
 [1.1        0.43368978]
 [1.14141667 1.3723531 ]]",0,0.818
8734529389,f,24,english,5,4,english,2024-01-25 10:58:53.516161,False,1,24,sounds\french\audio/french_458.wav,"[[  0.          -9.50766831]
 [  0.1         42.93423473]
 [  0.2        -35.25099644]
 [  0.3        -21.12424967]
 [  0.4         88.8263871 ]
 [  0.5        -40.0858464 ]
 [  0.6         47.86966009]
 [  0.7          4.01017738]
 [  0.8         39.64619026]
 [  0.9        -44.5526031 ]
 [  1.          99.06586971]
 [  1.1        -77.88778656]
 [  1.14141667 -50.98752312]]","[[0.         1.22883205]
 [0.1        1.97283167]
 [0.2        0.2630832 ]
 [0.3        1.57587361]
 [0.4        1.57260938]
 [0.5        1.32200512]
 [0.6        0.7357165 ]
 [0.7        0.40421915]
 [0.8        0.89504993]
 [0.9        1.47670046]
 [1.         0.22243202]
 [1.1        0.95591191]
 [1.14141667 0.35484095]]",1,0.403
8734529389,f,24,english,5,4,english,2024-01-25 10:58:53.516161,False,1,25,sounds\french\audio/french_401.wav,"[[  0.          -7.60998306]
 [  0.1         49.24268399]
 [  0.2        -14.79637539]
 [  0.3         72.88593464]
 [  0.4        -98.49561517]
 [  0.5        -60.8939001 ]
 [  0.6         32.63233263]
 [  0.7        -55.97134542]
 [  0.8         39.70722097]
 [  0.9         68.29525005]
 [  1.          56.75484748]
 [  1.1        -66.7261144 ]
 [  1.14141667  62.31424057]]","[[0.         0.15669588]
 [0.1        1.26966849]
 [0.2        1.70141129]
 [0.3        0.39327529]
 [0.4        1.22367072]
 [0.5        1.1170169 ]
 [0.6        1.5139571 ]
 [0.7        1.3547448 ]
 [0.8        0.57513348]
 [0.9        1.18430789]
 [1.         0.55199782]
 [1.1        0.76232347]
 [1.14141667 0.18818323]]",0,0.453
8734529389,f,24,english,5,4,english,2024-01-25 10:58:53.516161,False,1,26,sounds\french\audio/french_933.wav,"[[  0.         -37.43352781]
 [  0.1         15.82558876]
 [  0.2         11.44233804]
 [  0.3         86.94047545]
 [  0.4         37.92501629]
 [  0.5        -35.56187113]
 [  0.6         59.84524001]
 [  0.7         24.35368068]
 [  0.8         67.82444353]
 [  0.9        -52.71000344]
 [  1.         -54.70339119]
 [  1.1        -41.48635512]
 [  1.14141667  11.82766033]]","[[0.         0.98661175]
 [0.1        1.72794901]
 [0.2        1.10536982]
 [0.3        1.85590912]
 [0.4        1.60290293]
 [0.5        0.81732851]
 [0.6        1.28262622]
 [0.7        1.01556076]
 [0.8        0.86505333]
 [0.9        1.28433396]
 [1.         0.40007403]
 [1.1        0.04539202]
 [1.14141667 0.17405222]]",1,0.383
8734529389,f,24,english,5,4,english,2024-01-25 10:58:53.516161,False,1,27,sounds\french\audio/french_722.wav,"[[  0.          33.60432941]
 [  0.1        -11.93537629]
 [  0.2        -88.14292606]
 [  0.3         63.03464746]
 [  0.4         22.71231254]
 [  0.5         16.47127626]
 [  0.6        -84.57391125]
 [  0.7        -10.08636896]
 [  0.8         29.84658458]
 [  0.9        -34.50712381]
 [  1.          48.55411412]
 [  1.1         22.41705079]
 [  1.14141667 -36.09101224]]","[[0.         1.8577899 ]
 [0.1        0.16730472]
 [0.2        1.51968538]
 [0.3        1.10766377]
 [0.4        0.03649714]
 [0.5        0.86655357]
 [0.6        1.9734912 ]
 [0.7        1.42286059]
 [0.8        0.4534392 ]
 [0.9        0.31083088]
 [1.         0.20534641]
 [1.1        1.4074105 ]
 [1.14141667 0.81493516]]",1,1.668
8734529389,f,24,english,5,4,english,2024-01-25 10:58:53.516161,False,1,28,sounds\french\audio/french_335.wav,"[[  0.          -1.23441229]
 [  0.1         22.83840399]
 [  0.2         -2.77833846]
 [  0.3         -3.63205213]
 [  0.4        -20.59895043]
 [  0.5         49.39784304]
 [  0.6          8.12013332]
 [  0.7         57.63446104]
 [  0.8        -94.70893042]
 [  0.9         64.23871008]
 [  1.          -7.65003971]
 [  1.1        -58.83724635]
 [  1.14141667   8.11130653]]","[[0.         1.3052868 ]
 [0.1        0.44658399]
 [0.2        1.47211238]
 [0.3        0.59811057]
 [0.4        1.0196801 ]
 [0.5        0.49963991]
 [0.6        0.56054827]
 [0.7        0.07354225]
 [0.8        1.41084779]
 [0.9        0.84836821]
 [1.         1.33963143]
 [1.1        1.16454675]
 [1.14141667 1.41914206]]",0,0.231
8734529389,f,24,english,5,4,english,2024-01-25 10:58:53.516161,False,1,29,sounds\french\audio/french_425.wav,"[[  0.          40.80708737]
 [  0.1         60.39772417]
 [  0.2        -30.92752134]
 [  0.3          2.68286726]
 [  0.4         17.39949018]
 [  0.5         51.6498397 ]
 [  0.6         89.07176273]
 [  0.7        -59.50926562]
 [  0.8         44.57255827]
 [  0.9         18.71725485]
 [  1.         -67.0298998 ]
 [  1.1        -15.30442624]
 [  1.14141667  69.53078356]]","[[0.         1.41087106]
 [0.1        1.65745633]
 [0.2        0.45777505]
 [0.3        1.01895972]
 [0.4        1.013591  ]
 [0.5        1.16516661]
 [0.6        0.74158204]
 [0.7        0.74893466]
 [0.8        0.322155  ]
 [0.9        0.8403819 ]
 [1.         0.41738082]
 [1.1        0.70327016]
 [1.14141667 1.53973882]]",1,0.218
8734529389,f,24,english,5,4,english,2024-01-25 10:58:53.516161,False,1,30,sounds\french\audio/french_270.wav,"[[  0.         -97.04983101]
 [  0.1         60.00565708]
 [  0.2         76.40876054]
 [  0.3         -1.09114821]
 [  0.4        -55.42967624]
 [  0.5         76.10190696]
 [  0.6        -14.49000559]
 [  0.7        -18.39436764]
 [  0.8          6.68432626]
 [  0.9         44.25222183]
 [  1.         -22.5745957 ]
 [  1.1         89.38743266]
 [  1.14141667  34.53807187]]","[[0.         1.00266553]
 [0.1        1.57824115]
 [0.2        0.26882086]
 [0.3        1.94280474]
 [0.4        0.12401985]
 [0.5        0.90937014]
 [0.6        1.06197606]
 [0.7        0.84568666]
 [0.8        1.76648668]
 [0.9        1.73433415]
 [1.         1.92314935]
 [1.1        1.47806691]
 [1.14141667 0.01067189]]",0,0.067
8734529389,f,24,english,5,4,english,2024-01-25 10:58:53.516161,False,1,31,sounds\french\audio/french_63.wav,"[[  0.         -22.87702245]
 [  0.1         25.58321535]
 [  0.2         70.04495031]
 [  0.3         20.19201819]
 [  0.4        -45.12603624]
 [  0.5        -29.85961331]
 [  0.6        -58.72052907]
 [  0.7         85.0092298 ]
 [  0.8         -1.09258045]
 [  0.9         12.39348581]
 [  1.          70.37713288]
 [  1.1        -46.49648461]
 [  1.14141667 -33.49578267]]","[[0.         0.65309266]
 [0.1        1.04568697]
 [0.2        1.71369829]
 [0.3        1.23026691]
 [0.4        0.56779808]
 [0.5        1.23876582]
 [0.6        1.94602329]
 [0.7        1.94372655]
 [0.8        0.0560987 ]
 [0.9        1.80482043]
 [1.         0.77176162]
 [1.1        1.59463619]
 [1.14141667 1.37881471]]",0,0.492
8734529389,f,24,english,5,4,english,2024-01-25 10:58:53.516161,False,1,32,sounds\french\audio/french_43.wav,"[[  0.         -89.50101467]
 [  0.1        -82.78687698]
 [  0.2        -41.64789476]
 [  0.3        -56.19351183]
 [  0.4        -32.72606631]
 [  0.5        -24.9923926 ]
 [  0.6         29.61438439]
 [  0.7         44.94046319]
 [  0.8        -97.22263443]
 [  0.9          1.45082334]
 [  1.          -5.82604962]
 [  1.1         95.81487386]
 [  1.14141667 -91.26895404]]","[[0.         1.67740663]
 [0.1        1.50626995]
 [0.2        0.25237326]
 [0.3        0.46519309]
 [0.4        1.32327819]
 [0.5        0.98582586]
 [0.6        0.41062286]
 [0.7        0.85370095]
 [0.8        0.70305009]
 [0.9        1.831208  ]
 [1.         1.1101714 ]
 [1.1        0.61453497]
 [1.14141667 1.16560772]]",1,1.01
8734529389,f,24,english,5,4,english,2024-01-25 10:58:53.516161,False,1,33,sounds\french\audio/french_72.wav,"[[  0.          28.80890163]
 [  0.1          1.83594253]
 [  0.2        -49.19445344]
 [  0.3        -70.77665619]
 [  0.4         -7.07365357]
 [  0.5         -3.71167603]
 [  0.6         -5.89788173]
 [  0.7         -8.85470239]
 [  0.8        -41.07718235]
 [  0.9         74.79866108]
 [  1.          67.9411898 ]
 [  1.1        -68.57372393]
 [  1.14141667   4.6478635 ]]","[[0.         0.00807448]
 [0.1        1.18328739]
 [0.2        0.21319227]
 [0.3        1.3297124 ]
 [0.4        0.54545246]
 [0.5        1.13976731]
 [0.6        1.92534018]
 [0.7        1.58910715]
 [0.8        0.82088611]
 [0.9        1.16352624]
 [1.         0.62223628]
 [1.1        1.92120245]
 [1.14141667 0.9834755 ]]",1,1.985
8734529389,f,24,english,5,4,english,2024-01-25 10:58:53.516161,False,1,34,sounds\french\audio/french_574.wav,"[[  0.         -70.27206827]
 [  0.1         79.03184004]
 [  0.2         -7.45610831]
 [  0.3        -37.5952025 ]
 [  0.4         67.58070924]
 [  0.5         33.5013186 ]
 [  0.6        -12.38920111]
 [  0.7         60.45977081]
 [  0.8          4.82144721]
 [  0.9         48.33539146]
 [  1.         -97.26495544]
 [  1.1          7.9684304 ]
 [  1.14141667   4.54337772]]","[[0.         0.12235794]
 [0.1        1.66668596]
 [0.2        1.56236788]
 [0.3        0.48577393]
 [0.4        1.30880337]
 [0.5        1.46959025]
 [0.6        0.79712868]
 [0.7        0.82183766]
 [0.8        0.50261658]
 [0.9        0.33988811]
 [1.         0.3335818 ]
 [1.1        1.49826501]
 [1.14141667 0.3985417 ]]",1,0.459
8734529389,f,24,english,5,4,english,2024-01-25 10:58:53.516161,False,1,35,sounds\french\audio/french_64.wav,"[[  0.          81.21142121]
 [  0.1         52.51696492]
 [  0.2        -39.17561774]
 [  0.3         -2.55926089]
 [  0.4        -19.82016782]
 [  0.5        -96.27205137]
 [  0.6        -91.08602274]
 [  0.7         21.95313621]
 [  0.8        -83.87757175]
 [  0.9        -15.46224959]
 [  1.          99.28922275]
 [  1.1        -34.89576086]
 [  1.14141667 -88.74649368]]","[[0.         1.90047577]
 [0.1        0.82684284]
 [0.2        1.63922719]
 [0.3        1.09796892]
 [0.4        1.84824586]
 [0.5        0.08398419]
 [0.6        1.68744275]
 [0.7        1.11317645]
 [0.8        0.69266869]
 [0.9        1.31844382]
 [1.         1.05971477]
 [1.1        1.50408115]
 [1.14141667 0.80519135]]",0,0.095
8734529389,f,24,english,5,4,english,2024-01-25 10:58:53.516161,False,1,36,sounds\french\audio/french_200.wav,"[[  0.          10.66473812]
 [  0.1        -23.10865754]
 [  0.2        -26.94851482]
 [  0.3        -33.10340519]
 [  0.4         49.54751917]
 [  0.5        -36.16101415]
 [  0.6         69.93456636]
 [  0.7        -11.46588409]
 [  0.8        -34.69840246]
 [  0.9         30.23959847]
 [  1.         -25.32995204]
 [  1.1         23.48875346]
 [  1.14141667 -45.42969725]]","[[0.         1.15832736]
 [0.1        0.48233726]
 [0.2        0.16521916]
 [0.3        0.50966441]
 [0.4        0.60857897]
 [0.5        0.8415653 ]
 [0.6        1.89309681]
 [0.7        1.76792236]
 [0.8        0.32179511]
 [0.9        1.57618572]
 [1.         1.69305609]
 [1.1        0.93398883]
 [1.14141667 0.80903223]]",1,0.662
8734529389,f,24,english,5,4,english,2024-01-25 10:58:53.516161,False,1,37,sounds\french\audio/french_357.wav,"[[  0.          86.82276174]
 [  0.1         61.01952575]
 [  0.2        -60.75226359]
 [  0.3         85.98471719]
 [  0.4        -69.86147068]
 [  0.5          9.94695166]
 [  0.6         18.79769535]
 [  0.7         32.56379866]
 [  0.8        -63.36176939]
 [  0.9        -52.11840686]
 [  1.         -62.81838888]
 [  1.1        -46.10611579]
 [  1.14141667  30.76289331]]","[[0.         1.92268893]
 [0.1        0.3802524 ]
 [0.2        0.64366911]
 [0.3        0.42839795]
 [0.4        0.00748054]
 [0.5        1.08678504]
 [0.6        1.81857945]
 [0.7        0.88876944]
 [0.8        0.00755284]
 [0.9        1.32717317]
 [1.         1.11144187]
 [1.1        1.48923739]
 [1.14141667 0.80153076]]",0,0.209
8734529389,f,24,english,5,4,english,2024-01-25 10:58:53.516161,False,1,38,sounds\french\audio/french_950.wav,"[[  0.         -50.85402978]
 [  0.1         15.87357898]
 [  0.2         66.25100226]
 [  0.3         11.62218315]
 [  0.4         61.49883516]
 [  0.5         59.30890592]
 [  0.6        -94.55512167]
 [  0.7        -47.72487457]
 [  0.8        -24.06820859]
 [  0.9         37.00201055]
 [  1.          24.38983398]
 [  1.1         25.31833065]
 [  1.14141667  25.86165668]]","[[0.         1.28407017]
 [0.1        1.13515201]
 [0.2        1.57125495]
 [0.3        1.24153692]
 [0.4        1.62386347]
 [0.5        1.41668173]
 [0.6        0.60916392]
 [0.7        1.03982307]
 [0.8        1.97560568]
 [0.9        0.3630601 ]
 [1.         1.89790561]
 [1.1        0.70938122]
 [1.14141667 1.71148268]]",1,0.182
8734529389,f,24,english,5,4,english,2024-01-25 10:58:53.516161,False,1,39,sounds\french\audio/french_161.wav,"[[  0.          20.36137567]
 [  0.1        -60.33746522]
 [  0.2          5.99231257]
 [  0.3        -36.52776351]
 [  0.4        -35.132175  ]
 [  0.5        -92.90011583]
 [  0.6         25.07982142]
 [  0.7         68.5675729 ]
 [  0.8         44.30497553]
 [  0.9         57.9688208 ]
 [  1.         -46.18143755]
 [  1.1          9.49457581]
 [  1.14141667   2.50045969]]","[[0.         1.69975886]
 [0.1        1.26867411]
 [0.2        1.18100414]
 [0.3        0.01673519]
 [0.4        0.32582412]
 [0.5        1.37385836]
 [0.6        1.12187003]
 [0.7        1.16788277]
 [0.8        0.06503182]
 [0.9        1.93558319]
 [1.         0.57803806]
 [1.1        1.95933902]
 [1.14141667 0.75547905]]",0,0.159
8734529389,f,24,english,5,4,english,2024-01-25 10:58:53.516161,False,1,40,sounds\french\audio/french_599.wav,"[[  0.          74.66292845]
 [  0.1         55.47744892]
 [  0.2         25.18058214]
 [  0.3        -20.41180146]
 [  0.4         65.05582465]
 [  0.5         49.70299421]
 [  0.6         43.15373281]
 [  0.7         29.05436358]
 [  0.8        -73.56464831]
 [  0.9        -31.94852447]
 [  1.         -16.65001138]
 [  1.1         76.01210747]
 [  1.14141667 -17.42786697]]","[[0.         0.15491799]
 [0.1        1.92619011]
 [0.2        0.72781992]
 [0.3        0.5459496 ]
 [0.4        1.65791523]
 [0.5        1.8109323 ]
 [0.6        1.66408753]
 [0.7        0.68381857]
 [0.8        0.62280676]
 [0.9        1.60467555]
 [1.         0.48527104]
 [1.1        0.27394506]
 [1.14141667 1.89431481]]",0,0.313
8734529389,f,24,english,5,4,english,2024-01-25 10:58:53.516161,False,1,41,sounds\french\audio/french_337.wav,"[[  0.         -54.36724897]
 [  0.1         47.20909077]
 [  0.2        -38.31746159]
 [  0.3        -61.13963937]
 [  0.4         13.36429747]
 [  0.5         11.60122819]
 [  0.6        -37.13411098]
 [  0.7         16.0551706 ]
 [  0.8        -76.84632417]
 [  0.9          7.55549957]
 [  1.          -1.43284295]
 [  1.1         70.59581093]
 [  1.14141667 -22.88982384]]","[[0.         1.61515364]
 [0.1        1.4185112 ]
 [0.2        0.32887669]
 [0.3        0.02610503]
 [0.4        0.46832004]
 [0.5        0.11209332]
 [0.6        1.89414481]
 [0.7        0.78679118]
 [0.8        0.16086144]
 [0.9        1.28761221]
 [1.         0.94282924]
 [1.1        0.25063138]
 [1.14141667 0.65987502]]",1,0.097
8734529389,f,24,english,5,4,english,2024-01-25 10:58:53.516161,False,1,42,sounds\french\audio/french_821.wav,"[[  0.          29.40484442]
 [  0.1        -82.9706924 ]
 [  0.2        -20.36055848]
 [  0.3         70.67916019]
 [  0.4         97.39088207]
 [  0.5        -30.70591252]
 [  0.6         -3.37730477]
 [  0.7         -0.47603145]
 [  0.8        -91.88596282]
 [  0.9         98.16537349]
 [  1.         -18.87996809]
 [  1.1        -47.32913681]
 [  1.14141667 -49.13726548]]","[[0.         0.95426299]
 [0.1        1.5819304 ]
 [0.2        0.87869467]
 [0.3        1.08099797]
 [0.4        0.67073914]
 [0.5        0.41474844]
 [0.6        1.79777915]
 [0.7        0.30685212]
 [0.8        1.93131035]
 [0.9        0.96154714]
 [1.         1.35337515]
 [1.1        1.56630163]
 [1.14141667 0.77030274]]",1,2.676
8734529389,f,24,english,5,4,english,2024-01-25 10:58:53.516161,False,1,43,sounds\french\audio/french_758.wav,"[[  0.          41.40251797]
 [  0.1         83.22068517]
 [  0.2        -17.02894859]
 [  0.3        -57.78871378]
 [  0.4        -26.28467223]
 [  0.5          1.34940172]
 [  0.6         73.49827232]
 [  0.7        -10.43882846]
 [  0.8        -36.52394931]
 [  0.9        -31.42286667]
 [  1.         -59.6641431 ]
 [  1.1         39.4290765 ]
 [  1.14141667 -44.19004616]]","[[0.         0.56085544]
 [0.1        0.97554237]
 [0.2        0.01004143]
 [0.3        1.03626599]
 [0.4        0.33244231]
 [0.5        1.08481581]
 [0.6        0.0829296 ]
 [0.7        1.10238348]
 [0.8        1.35072621]
 [0.9        1.63267541]
 [1.         0.28303542]
 [1.1        0.53687214]
 [1.14141667 0.94196396]]",0,0.475
8734529389,f,24,english,5,4,english,2024-01-25 10:58:53.516161,False,1,44,sounds\french\audio/french_734.wav,"[[  0.         -32.93654262]
 [  0.1         72.79608102]
 [  0.2        -50.40071999]
 [  0.3         90.69974695]
 [  0.4         37.06775667]
 [  0.5         49.52329957]
 [  0.6         -9.85142624]
 [  0.7        -27.6925888 ]
 [  0.8        -15.44600324]
 [  0.9         89.85582039]
 [  1.          80.64551884]
 [  1.1        -45.93519871]
 [  1.14141667 -39.52142082]]","[[0.         0.60836272]
 [0.1        0.03991841]
 [0.2        1.2364671 ]
 [0.3        0.40854822]
 [0.4        0.42768432]
 [0.5        0.67619941]
 [0.6        0.85456146]
 [0.7        0.80405121]
 [0.8        0.97354212]
 [0.9        0.56230459]
 [1.         0.25036131]
 [1.1        0.00393516]
 [1.14141667 1.59555679]]",1,0.566
8734529389,f,24,english,5,4,english,2024-01-25 10:58:53.516161,False,1,45,sounds\french\audio/french_452.wav,"[[  0.         -65.13304523]
 [  0.1         91.34871159]
 [  0.2        -53.78564445]
 [  0.3        -10.05929492]
 [  0.4         47.92385069]
 [  0.5        -15.4646629 ]
 [  0.6         67.64656442]
 [  0.7         70.11175977]
 [  0.8         14.66379349]
 [  0.9        -29.42655143]
 [  1.         -94.24598391]
 [  1.1         -5.14208276]
 [  1.14141667 -20.66516361]]","[[0.         1.10727473]
 [0.1        0.36749155]
 [0.2        1.21292776]
 [0.3        1.33310916]
 [0.4        0.35628751]
 [0.5        1.12575771]
 [0.6        1.51128562]
 [0.7        0.50973205]
 [0.8        0.76730337]
 [0.9        0.80900056]
 [1.         1.56347286]
 [1.1        0.95168615]
 [1.14141667 1.45096679]]",0,0.486
8734529389,f,24,english,5,4,english,2024-01-25 10:58:53.516161,False,1,46,sounds\french\audio/french_712.wav,"[[  0.         -95.66069785]
 [  0.1         -6.05322415]
 [  0.2        -14.42781433]
 [  0.3         32.58463251]
 [  0.4        -88.6066963 ]
 [  0.5        -30.98319164]
 [  0.6         76.39467543]
 [  0.7        -64.68968395]
 [  0.8        -71.89558722]
 [  0.9         67.69667977]
 [  1.          18.20955726]
 [  1.1        -31.46092163]
 [  1.14141667  29.12914815]]","[[0.         1.85127754]
 [0.1        1.47951206]
 [0.2        1.70422178]
 [0.3        1.42320081]
 [0.4        1.1647441 ]
 [0.5        1.7308951 ]
 [0.6        0.03424579]
 [0.7        0.15973474]
 [0.8        1.61824192]
 [0.9        0.80414017]
 [1.         1.37598527]
 [1.1        0.55072858]
 [1.14141667 1.89981007]]",0,0.365
8734529389,f,24,english,5,4,english,2024-01-25 10:58:53.516161,False,1,47,sounds\french\audio/french_371.wav,"[[  0.         -75.96996294]
 [  0.1         69.05651355]
 [  0.2         76.11598769]
 [  0.3        -26.62332123]
 [  0.4         72.54551649]
 [  0.5         53.7325728 ]
 [  0.6        -19.80627641]
 [  0.7         82.18897373]
 [  0.8        -85.15711276]
 [  0.9         -1.67928374]
 [  1.          86.86600087]
 [  1.1        -45.24707116]
 [  1.14141667 -10.42210917]]","[[0.         1.06184039]
 [0.1        0.65404497]
 [0.2        0.87875816]
 [0.3        0.8766699 ]
 [0.4        1.48996037]
 [0.5        0.08423874]
 [0.6        0.50933238]
 [0.7        0.11206157]
 [0.8        1.01075883]
 [0.9        0.86359737]
 [1.         0.79020798]
 [1.1        1.73708944]
 [1.14141667 1.6745319 ]]",0,1.248
8734529389,f,24,english,5,4,english,2024-01-25 10:58:53.516161,False,1,48,sounds\french\audio/french_626.wav,"[[  0.          10.19360292]
 [  0.1         82.13961964]
 [  0.2        -91.88565353]
 [  0.3        -30.24557652]
 [  0.4        -43.59153267]
 [  0.5        -15.21775232]
 [  0.6         37.21649368]
 [  0.7         57.1809589 ]
 [  0.8        -44.2684999 ]
 [  0.9         16.56515744]
 [  1.         -45.54877222]
 [  1.1         41.50051327]
 [  1.14141667 -53.34907956]]","[[0.         0.93552428]
 [0.1        1.5639108 ]
 [0.2        0.54149797]
 [0.3        1.77619129]
 [0.4        1.46344574]
 [0.5        0.20286753]
 [0.6        1.6090377 ]
 [0.7        1.90666988]
 [0.8        1.70214312]
 [0.9        0.19372922]
 [1.         0.55446441]
 [1.1        0.42094173]
 [1.14141667 1.23447696]]",1,1.307
8734529389,f,24,english,5,4,english,2024-01-25 10:58:53.516161,False,1,49,sounds\french\audio/french_241.wav,"[[  0.          98.04166171]
 [  0.1          6.16764543]
 [  0.2        -42.8608234 ]
 [  0.3         54.21216242]
 [  0.4         -1.78367985]
 [  0.5         -5.66820407]
 [  0.6         54.13943684]
 [  0.7        -80.00679133]
 [  0.8        -44.25002722]
 [  0.9        -63.06102871]
 [  1.          80.68342045]
 [  1.1          4.33426609]
 [  1.14141667  89.08058854]]","[[0.         0.32485673]
 [0.1        1.24402989]
 [0.2        0.94649821]
 [0.3        1.15369043]
 [0.4        0.47784039]
 [0.5        0.56378862]
 [0.6        0.47159963]
 [0.7        1.76255958]
 [0.8        0.64662376]
 [0.9        1.1795317 ]
 [1.         1.4030233 ]
 [1.1        0.53258498]
 [1.14141667 0.85759255]]",1,0.215
8734529389,f,24,english,5,4,english,2024-01-25 10:58:53.516161,False,1,50,sounds\french\audio/french_402.wav,"[[  0.          43.60306148]
 [  0.1         52.79449836]
 [  0.2        -57.92795748]
 [  0.3        -27.25508583]
 [  0.4         45.79346269]
 [  0.5        -31.74582216]
 [  0.6        -18.71060209]
 [  0.7        -34.56488139]
 [  0.8         50.02876186]
 [  0.9         46.21312355]
 [  1.         -48.79450763]
 [  1.1         41.96519938]
 [  1.14141667  21.65174679]]","[[0.         1.57150394]
 [0.1        0.87803632]
 [0.2        1.33772447]
 [0.3        0.944537  ]
 [0.4        1.04797076]
 [0.5        1.58716537]
 [0.6        0.47386777]
 [0.7        1.86309114]
 [0.8        1.98338729]
 [0.9        0.57664376]
 [1.         0.64923074]
 [1.1        1.02867805]
 [1.14141667 1.40556036]]",0,0.207
8734529389,f,24,english,5,4,english,2024-01-25 10:58:53.516161,False,1,51,sounds\french\audio/french_486.wav,"[[  0.         -98.02817501]
 [  0.1         65.33144032]
 [  0.2         61.38493925]
 [  0.3         96.45925622]
 [  0.4          5.96921881]
 [  0.5         30.65383736]
 [  0.6        -44.15981347]
 [  0.7         31.03879088]
 [  0.8         51.75647773]
 [  0.9        -98.74797635]
 [  1.          42.51271204]
 [  1.1         63.21062453]
 [  1.14141667 -77.59539186]]","[[0.         1.75569009]
 [0.1        1.7050464 ]
 [0.2        0.61683653]
 [0.3        1.35566853]
 [0.4        0.89727466]
 [0.5        1.1713147 ]
 [0.6        1.99548871]
 [0.7        0.16009728]
 [0.8        0.88389912]
 [0.9        0.14376531]
 [1.         0.54659097]
 [1.1        1.09027863]
 [1.14141667 0.71851787]]",1,0.299
8734529389,f,24,english,5,4,english,2024-01-25 10:58:53.516161,False,1,52,sounds\french\audio/french_914.wav,"[[  0.          79.95241149]
 [  0.1        -65.45578173]
 [  0.2        -34.41519325]
 [  0.3         38.48230949]
 [  0.4         64.05646687]
 [  0.5         42.76609293]
 [  0.6         43.76059306]
 [  0.7        -40.85862295]
 [  0.8         -7.68978463]
 [  0.9        -34.17758246]
 [  1.         -15.53383771]
 [  1.1         40.53193297]
 [  1.14141667  27.68989524]]","[[0.         1.70123976]
 [0.1        1.16294222]
 [0.2        1.81604524]
 [0.3        0.26183363]
 [0.4        1.16023808]
 [0.5        0.78601448]
 [0.6        0.22240252]
 [0.7        0.92550901]
 [0.8        1.56491044]
 [0.9        1.71737079]
 [1.         1.35150503]
 [1.1        0.89943186]
 [1.14141667 1.16382615]]",0,0.036
8734529389,f,24,english,5,4,english,2024-01-25 10:58:53.516161,False,1,53,sounds\french\audio/french_543.wav,"[[  0.         -44.87823344]
 [  0.1        -85.25635594]
 [  0.2         77.65163946]
 [  0.3         35.41596957]
 [  0.4         96.96992015]
 [  0.5         30.99132482]
 [  0.6         27.1908954 ]
 [  0.7        -73.42015814]
 [  0.8         72.47089611]
 [  0.9        -89.08509908]
 [  1.         -49.62569554]
 [  1.1         25.36303007]
 [  1.14141667  86.26803899]]","[[0.         1.22092405]
 [0.1        0.90741811]
 [0.2        1.977523  ]
 [0.3        1.08318728]
 [0.4        0.30163476]
 [0.5        0.77672099]
 [0.6        0.66664394]
 [0.7        1.22725994]
 [0.8        1.04026949]
 [0.9        0.57432911]
 [1.         1.03178191]
 [1.1        1.3294638 ]
 [1.14141667 1.02742546]]",0,0.406
8734529389,f,24,english,5,4,english,2024-01-25 10:58:53.516161,False,1,54,sounds\french\audio/french_588.wav,"[[  0.          80.11124336]
 [  0.1         -9.60415228]
 [  0.2        -98.33491382]
 [  0.3        -16.26514488]
 [  0.4        -90.16609663]
 [  0.5         -6.08584828]
 [  0.6        -25.80594889]
 [  0.7        -25.08652089]
 [  0.8        -98.80611815]
 [  0.9         17.08532713]
 [  1.           0.80863561]
 [  1.1        -86.5783891 ]
 [  1.14141667 -56.09457121]]","[[0.         0.91903139]
 [0.1        1.75302379]
 [0.2        1.95019279]
 [0.3        0.86486634]
 [0.4        0.04555032]
 [0.5        0.65069663]
 [0.6        0.87516436]
 [0.7        0.98178697]
 [0.8        1.45894707]
 [0.9        1.15328594]
 [1.         0.14560994]
 [1.1        1.58594883]
 [1.14141667 1.71291016]]",0,0.123
8734529389,f,24,english,5,4,english,2024-01-25 10:58:53.516161,False,1,55,sounds\french\audio/french_781.wav,"[[  0.          84.62046586]
 [  0.1          0.55273741]
 [  0.2         -1.05016656]
 [  0.3         41.05059325]
 [  0.4        -23.88970434]
 [  0.5         18.20030305]
 [  0.6        -34.06427069]
 [  0.7         84.18138225]
 [  0.8        -97.87646304]
 [  0.9        -21.72004178]
 [  1.         -28.69608989]
 [  1.1         15.6289629 ]
 [  1.14141667 -63.05770327]]","[[0.         1.11387354]
 [0.1        0.65813446]
 [0.2        0.73416939]
 [0.3        1.64191047]
 [0.4        1.21743715]
 [0.5        1.19011626]
 [0.6        0.19715844]
 [0.7        0.47727482]
 [0.8        0.30669802]
 [0.9        0.85053209]
 [1.         1.49973626]
 [1.1        1.59744838]
 [1.14141667 1.01279781]]",1,1.831
8734529389,f,24,english,5,4,english,2024-01-25 10:58:53.516161,False,1,56,sounds\french\audio/french_886.wav,"[[  0.          -3.07847079]
 [  0.1         22.70145426]
 [  0.2         32.76367051]
 [  0.3        -31.71032565]
 [  0.4        -28.18750434]
 [  0.5        -18.1748931 ]
 [  0.6        -27.03025386]
 [  0.7         12.34522068]
 [  0.8         20.95996339]
 [  0.9         17.46922546]
 [  1.         -31.18262411]
 [  1.1         16.14877288]
 [  1.14141667 -36.04372934]]","[[0.         0.23703277]
 [0.1        1.62366196]
 [0.2        0.51146608]
 [0.3        0.96426713]
 [0.4        0.43793295]
 [0.5        1.33868978]
 [0.6        0.31800764]
 [0.7        1.44789936]
 [0.8        1.67391832]
 [0.9        1.19275698]
 [1.         0.34476604]
 [1.1        1.95768513]
 [1.14141667 1.10523987]]",0,0.624
8734529389,f,24,english,5,4,english,2024-01-25 10:58:53.516161,False,1,57,sounds\french\audio/french_872.wav,"[[  0.           2.19876004]
 [  0.1        -16.2984572 ]
 [  0.2         44.28395799]
 [  0.3         68.79186239]
 [  0.4         23.95752233]
 [  0.5        -82.67226961]
 [  0.6        -19.37076915]
 [  0.7        -45.1199493 ]
 [  0.8         44.55633457]
 [  0.9        -98.88107629]
 [  1.         -37.42508294]
 [  1.1        -90.62049671]
 [  1.14141667 -57.38745573]]","[[0.         0.46410816]
 [0.1        0.5045086 ]
 [0.2        0.19071962]
 [0.3        0.93182485]
 [0.4        1.89135345]
 [0.5        0.19504501]
 [0.6        0.68749833]
 [0.7        1.72623495]
 [0.8        0.60263364]
 [0.9        1.41115138]
 [1.         0.80513214]
 [1.1        0.91253729]
 [1.14141667 1.53911211]]",0,0.177
8734529389,f,24,english,5,4,english,2024-01-25 10:58:53.516161,False,1,58,sounds\french\audio/french_818.wav,"[[  0.         -64.54705195]
 [  0.1        -91.61229029]
 [  0.2        -35.88082764]
 [  0.3         32.95002598]
 [  0.4         96.16696272]
 [  0.5        -48.65661003]
 [  0.6         25.73992633]
 [  0.7         -4.3414441 ]
 [  0.8        -93.84475958]
 [  0.9         -3.13234897]
 [  1.          47.01287281]
 [  1.1         59.21891233]
 [  1.14141667 -20.63650262]]","[[0.         0.40470359]
 [0.1        0.43509238]
 [0.2        1.96085692]
 [0.3        1.7784599 ]
 [0.4        0.64261238]
 [0.5        1.18267194]
 [0.6        1.67096599]
 [0.7        0.44090251]
 [0.8        0.30247145]
 [0.9        1.0976871 ]
 [1.         0.50195876]
 [1.1        0.49926872]
 [1.14141667 1.67818596]]",0,0.309
8734529389,f,24,english,5,4,english,2024-01-25 10:58:53.516161,False,1,59,sounds\french\audio/french_53.wav,"[[  0.         -28.0107555 ]
 [  0.1        -32.89623972]
 [  0.2        -30.87420046]
 [  0.3        -28.85389422]
 [  0.4        -61.04108291]
 [  0.5        -42.72827131]
 [  0.6        -39.80042832]
 [  0.7         86.61388374]
 [  0.8        -13.10870886]
 [  0.9         73.41452955]
 [  1.         -76.02339619]
 [  1.1        -99.20877843]
 [  1.14141667  -4.16419643]]","[[0.         1.07618979]
 [0.1        0.74993287]
 [0.2        0.87673017]
 [0.3        0.75649392]
 [0.4        0.57081033]
 [0.5        0.38337207]
 [0.6        1.97746459]
 [0.7        0.72612227]
 [0.8        0.61721519]
 [0.9        1.47274228]
 [1.         0.29121058]
 [1.1        0.63443115]
 [1.14141667 0.81233408]]",0,0.306
8734529389,f,24,english,5,4,english,2024-01-25 10:58:53.516161,False,1,60,sounds\french\audio/french_66.wav,"[[  0.         -98.32760245]
 [  0.1        -62.26266621]
 [  0.2         89.72937552]
 [  0.3         56.77934236]
 [  0.4        -42.45776165]
 [  0.5        -59.91789644]
 [  0.6         -9.4669158 ]
 [  0.7         65.23523517]
 [  0.8        -82.94194698]
 [  0.9        -10.04050412]
 [  1.          69.7789537 ]
 [  1.1         65.31837891]
 [  1.14141667  -9.82207776]]","[[0.         0.76752471]
 [0.1        1.09885532]
 [0.2        0.15772662]
 [0.3        0.75379746]
 [0.4        0.86935584]
 [0.5        0.32743409]
 [0.6        0.75398911]
 [0.7        1.26665279]
 [0.8        1.24326808]
 [0.9        1.27187404]
 [1.         1.72227413]
 [1.1        1.95483723]
 [1.14141667 0.94632212]]",0,0.072
8734529389,f,24,english,5,4,english,2024-01-25 10:58:53.516161,False,1,61,sounds\french\audio/french_72.wav,"[[  0.          28.80890163]
 [  0.1          1.83594253]
 [  0.2        -49.19445344]
 [  0.3        -70.77665619]
 [  0.4         -7.07365357]
 [  0.5         -3.71167603]
 [  0.6         -5.89788173]
 [  0.7         -8.85470239]
 [  0.8        -41.07718235]
 [  0.9         74.79866108]
 [  1.          67.9411898 ]
 [  1.1        -68.57372393]
 [  1.14141667   4.6478635 ]]","[[0.         0.00807448]
 [0.1        1.18328739]
 [0.2        0.21319227]
 [0.3        1.3297124 ]
 [0.4        0.54545246]
 [0.5        1.13976731]
 [0.6        1.92534018]
 [0.7        1.58910715]
 [0.8        0.82088611]
 [0.9        1.16352624]
 [1.         0.62223628]
 [1.1        1.92120245]
 [1.14141667 0.9834755 ]]",1,1.566
8734529389,f,24,english,5,4,english,2024-01-25 10:58:53.516161,False,1,62,sounds\french\audio/french_644.wav,"[[  0.          74.83214381]
 [  0.1         42.49051207]
 [  0.2         90.54799171]
 [  0.3         47.17852012]
 [  0.4          3.30263657]
 [  0.5        -34.13886535]
 [  0.6        -56.77243545]
 [  0.7         25.7362156 ]
 [  0.8        -95.08022705]
 [  0.9         77.23760269]
 [  1.         -25.42232077]
 [  1.1        -29.11552135]
 [  1.14141667 -57.8663424 ]]","[[0.         1.50126041]
 [0.1        1.8548378 ]
 [0.2        1.64493334]
 [0.3        0.77650911]
 [0.4        1.92047714]
 [0.5        0.71247883]
 [0.6        1.54632823]
 [0.7        1.62920778]
 [0.8        1.88559191]
 [0.9        0.03323224]
 [1.         1.31228193]
 [1.1        0.75255545]
 [1.14141667 1.94026239]]",1,0.602
8734529389,f,24,english,5,4,english,2024-01-25 10:58:53.516161,False,1,63,sounds\french\audio/french_105.wav,"[[  0.         -17.41639598]
 [  0.1        -51.05987978]
 [  0.2        -50.86415714]
 [  0.3         36.13678641]
 [  0.4        -44.37916814]
 [  0.5        -26.18268216]
 [  0.6         77.65644826]
 [  0.7        -48.15616173]
 [  0.8        -76.33989735]
 [  0.9        -14.96957066]
 [  1.          41.40508421]
 [  1.1        -59.17997239]
 [  1.14141667  89.00654199]]","[[0.         1.0696772 ]
 [0.1        1.85057485]
 [0.2        1.17092256]
 [0.3        1.78310138]
 [0.4        1.56265936]
 [0.5        0.85551974]
 [0.6        1.45347176]
 [0.7        1.38762172]
 [0.8        1.74923504]
 [0.9        1.36496243]
 [1.         0.66444933]
 [1.1        1.29070267]
 [1.14141667 0.50298451]]",0,0.198
8734529389,f,24,english,5,4,english,2024-01-25 10:58:53.516161,False,1,64,sounds\french\audio/french_93.wav,"[[  0.          20.12555519]
 [  0.1        -29.60221473]
 [  0.2        -87.78134606]
 [  0.3        -82.8001552 ]
 [  0.4        -57.45805653]
 [  0.5         38.45207173]
 [  0.6        -82.31024106]
 [  0.7        -81.5108822 ]
 [  0.8        -21.35638597]
 [  0.9         39.31235358]
 [  1.          19.94378015]
 [  1.1         26.49572393]
 [  1.14141667  77.06361833]]","[[0.         0.33059304]
 [0.1        0.821528  ]
 [0.2        0.89984912]
 [0.3        1.12923164]
 [0.4        1.13487329]
 [0.5        0.95181736]
 [0.6        1.68020883]
 [0.7        0.87273764]
 [0.8        1.29787472]
 [0.9        0.99595228]
 [1.         1.18578276]
 [1.1        1.21468356]
 [1.14141667 1.4676797 ]]",0,0.718
8734529389,f,24,english,5,4,english,2024-01-25 10:58:53.516161,False,1,65,sounds\french\audio/french_526.wav,"[[  0.          -3.34213948]
 [  0.1        -38.63024981]
 [  0.2         93.21737658]
 [  0.3        -71.56714532]
 [  0.4         55.55298997]
 [  0.5        -90.65516394]
 [  0.6         67.30065147]
 [  0.7        -92.19460914]
 [  0.8        -61.42846186]
 [  0.9        -71.57092401]
 [  1.          -1.13377121]
 [  1.1         79.13585044]
 [  1.14141667 -60.54584427]]","[[0.         0.40974575]
 [0.1        0.80270001]
 [0.2        0.74121325]
 [0.3        1.50939527]
 [0.4        0.92463097]
 [0.5        1.64741989]
 [0.6        0.25308429]
 [0.7        0.31675775]
 [0.8        1.60624507]
 [0.9        1.37847828]
 [1.         1.26755978]
 [1.1        1.65811532]
 [1.14141667 1.5361609 ]]",1,0.074
8734529389,f,24,english,5,4,english,2024-01-25 10:58:53.516161,False,1,66,sounds\french\audio/french_445.wav,"[[  0.         -13.69643402]
 [  0.1         36.92445062]
 [  0.2         21.43114689]
 [  0.3         24.77090101]
 [  0.4         77.265015  ]
 [  0.5         28.30807518]
 [  0.6         18.43259479]
 [  0.7        -79.61204071]
 [  0.8         80.96656343]
 [  0.9         -8.33056755]
 [  1.          -7.46638384]
 [  1.1         -0.65732392]
 [  1.14141667 -17.80379885]]","[[0.         0.73484181]
 [0.1        1.41360661]
 [0.2        0.52466555]
 [0.3        1.58726839]
 [0.4        1.42575361]
 [0.5        1.55292683]
 [0.6        0.02964328]
 [0.7        1.36780768]
 [0.8        0.02073761]
 [0.9        0.3007781 ]
 [1.         0.17343981]
 [1.1        0.65758319]
 [1.14141667 0.41522681]]",1,1.511
8734529389,f,24,english,5,4,english,2024-01-25 10:58:53.516161,False,1,67,sounds\french\audio/french_333.wav,"[[  0.         -20.77044182]
 [  0.1         26.03274788]
 [  0.2         44.25680739]
 [  0.3         54.84607734]
 [  0.4        -84.70319837]
 [  0.5         50.88930926]
 [  0.6         91.49561161]
 [  0.7        -79.27192118]
 [  0.8        -16.30652355]
 [  0.9        -46.58669152]
 [  1.          92.33152656]
 [  1.1         53.35128711]
 [  1.14141667 -31.95559671]]","[[0.         1.43629895]
 [0.1        0.14363016]
 [0.2        0.99533055]
 [0.3        1.58313255]
 [0.4        0.87601018]
 [0.5        1.3608632 ]
 [0.6        1.05674693]
 [0.7        0.56286184]
 [0.8        1.24047364]
 [0.9        0.80209834]
 [1.         0.198323  ]
 [1.1        1.38035768]
 [1.14141667 0.94952553]]",1,0.156
8734529389,f,24,english,5,4,english,2024-01-25 10:58:53.516161,False,1,68,sounds\french\audio/french_444.wav,"[[  0.          87.77909642]
 [  0.1          6.94972025]
 [  0.2         98.20857903]
 [  0.3        -35.32566364]
 [  0.4        -66.21920686]
 [  0.5        -74.00275706]
 [  0.6        -89.76463472]
 [  0.7         90.23942867]
 [  0.8        -81.90686285]
 [  0.9          5.03977492]
 [  1.          94.83681906]
 [  1.1        -46.16486493]
 [  1.14141667   7.32353635]]","[[0.         0.96730071]
 [0.1        1.64754835]
 [0.2        0.34232644]
 [0.3        0.90396438]
 [0.4        1.59193054]
 [0.5        1.69980703]
 [0.6        0.62529401]
 [0.7        0.0404836 ]
 [0.8        0.34890232]
 [0.9        1.70546998]
 [1.         1.15170641]
 [1.1        0.22788225]
 [1.14141667 1.99633075]]",0,0.333
8734529389,f,24,english,5,4,english,2024-01-25 10:58:53.516161,False,1,69,sounds\french\audio/french_422.wav,"[[  0.         -16.62309101]
 [  0.1         44.80756997]
 [  0.2        -93.80146089]
 [  0.3        -72.47193654]
 [  0.4         16.7471252 ]
 [  0.5        -92.72141855]
 [  0.6        -47.90487867]
 [  0.7        -75.7589654 ]
 [  0.8         34.26572493]
 [  0.9        -65.97357415]
 [  1.           3.77229199]
 [  1.1        -30.82396636]
 [  1.14141667 -37.60844358]]","[[0.         0.51321666]
 [0.1        0.44814263]
 [0.2        1.51316273]
 [0.3        1.60530729]
 [0.4        0.6388763 ]
 [0.5        1.31238957]
 [0.6        1.76360785]
 [0.7        1.38544073]
 [0.8        0.04882189]
 [0.9        0.84339819]
 [1.         0.68214832]
 [1.1        1.57442392]
 [1.14141667 0.61861744]]",1,1.546
8734529389,f,24,english,5,4,english,2024-01-25 10:58:53.516161,False,1,70,sounds\french\audio/french_433.wav,"[[  0.          13.65936781]
 [  0.1         59.19964003]
 [  0.2        -16.88317101]
 [  0.3        -29.25697853]
 [  0.4        -20.47261371]
 [  0.5        -95.33210222]
 [  0.6        -87.63836787]
 [  0.7        -87.59004626]
 [  0.8        -36.63017932]
 [  0.9         23.01049222]
 [  1.         -37.6607371 ]
 [  1.1        -63.45582253]
 [  1.14141667 -21.18055498]]","[[0.         1.51229861]
 [0.1        0.95952734]
 [0.2        1.86428533]
 [0.3        1.71002057]
 [0.4        1.4823254 ]
 [0.5        1.31199137]
 [0.6        1.53917366]
 [0.7        0.27400767]
 [0.8        0.2344453 ]
 [0.9        1.76474922]
 [1.         1.98224239]
 [1.1        0.32973237]
 [1.14141667 0.42672881]]",0,0.081
8734529389,f,24,english,5,4,english,2024-01-25 10:58:53.516161,False,1,71,sounds\french\audio/french_141.wav,"[[  0.          50.77854553]
 [  0.1         62.4846239 ]
 [  0.2         53.33295606]
 [  0.3        -52.02414926]
 [  0.4         10.15219449]
 [  0.5        -82.96237539]
 [  0.6         56.83251075]
 [  0.7         25.37878708]
 [  0.8        -79.56203594]
 [  0.9        -55.34997376]
 [  1.         -38.4333982 ]
 [  1.1        -50.4363817 ]
 [  1.14141667  30.17077865]]","[[0.         0.77150913]
 [0.1        0.80042086]
 [0.2        1.34936636]
 [0.3        0.44055471]
 [0.4        0.22220555]
 [0.5        1.01088521]
 [0.6        1.2821399 ]
 [0.7        0.14022379]
 [0.8        1.88106801]
 [0.9        1.82863649]
 [1.         1.4626143 ]
 [1.1        0.56183734]
 [1.14141667 1.2348867 ]]",0,0.241
8734529389,f,24,english,5,4,english,2024-01-25 10:58:53.516161,False,1,72,sounds\french\audio/french_314.wav,"[[  0.          98.47852425]
 [  0.1         -4.76765087]
 [  0.2         98.99563551]
 [  0.3        -26.02974157]
 [  0.4          3.57072729]
 [  0.5        -27.39105802]
 [  0.6        -34.46329074]
 [  0.7        -19.61563284]
 [  0.8         86.50042899]
 [  0.9        -30.62380752]
 [  1.          68.66999994]
 [  1.1         18.64968658]
 [  1.14141667  83.99037415]]","[[0.         0.84050002]
 [0.1        1.9178096 ]
 [0.2        1.48544664]
 [0.3        0.28338038]
 [0.4        1.67118839]
 [0.5        0.9666753 ]
 [0.6        0.67276738]
 [0.7        1.19975177]
 [0.8        0.06283499]
 [0.9        0.69763895]
 [1.         1.73674877]
 [1.1        1.35552755]
 [1.14141667 1.19565214]]",1,0.283
8734529389,f,24,english,5,4,english,2024-01-25 10:58:53.516161,False,1,73,sounds\french\audio/french_295.wav,"[[  0.          55.29315311]
 [  0.1        -65.75153127]
 [  0.2        -92.7192066 ]
 [  0.3        -57.6604973 ]
 [  0.4        -68.74854131]
 [  0.5         -5.17022395]
 [  0.6        -80.86026473]
 [  0.7        -29.75269048]
 [  0.8         31.25868852]
 [  0.9        -20.06781302]
 [  1.          -9.04337326]
 [  1.1        -25.31119752]
 [  1.14141667 -74.03291959]]","[[0.         1.5987636 ]
 [0.1        0.69545336]
 [0.2        0.48752791]
 [0.3        1.39957445]
 [0.4        0.76369242]
 [0.5        0.48234689]
 [0.6        1.39904034]
 [0.7        1.65941602]
 [0.8        0.9491215 ]
 [0.9        1.67220732]
 [1.         0.28641191]
 [1.1        0.37552559]
 [1.14141667 1.0716262 ]]",0,0.37
8734529389,f,24,english,5,4,english,2024-01-25 10:58:53.516161,False,1,74,sounds\french\audio/french_634.wav,"[[  0.          64.06874479]
 [  0.1         67.24749785]
 [  0.2        -83.39889731]
 [  0.3        -39.1013623 ]
 [  0.4         38.3828838 ]
 [  0.5        -52.89149747]
 [  0.6        -34.12545828]
 [  0.7        -89.61138442]
 [  0.8         88.76481388]
 [  0.9         57.94553649]
 [  1.         -30.52453111]
 [  1.1          6.61582204]
 [  1.14141667  59.70206216]]","[[0.         0.37081399]
 [0.1        1.64753425]
 [0.2        1.0417432 ]
 [0.3        1.83525457]
 [0.4        1.31000254]
 [0.5        1.65070548]
 [0.6        0.56176414]
 [0.7        1.02392424]
 [0.8        0.4527214 ]
 [0.9        0.03856416]
 [1.         1.82909297]
 [1.1        0.65416969]
 [1.14141667 1.22488916]]",1,0.655
8734529389,f,24,english,5,4,english,2024-01-25 10:58:53.516161,False,1,75,sounds\french\audio/french_84.wav,"[[  0.         -96.37151913]
 [  0.1        -51.32047359]
 [  0.2          6.16674673]
 [  0.3        -74.79812615]
 [  0.4         72.70338153]
 [  0.5         73.29646829]
 [  0.6         58.46115838]
 [  0.7        -88.22895489]
 [  0.8         96.14628935]
 [  0.9        -22.0220861 ]
 [  1.         -17.5351727 ]
 [  1.1         70.12401617]
 [  1.14141667  19.58806578]]","[[0.         0.66956982]
 [0.1        0.87788838]
 [0.2        1.80968749]
 [0.3        1.92619873]
 [0.4        0.19629773]
 [0.5        1.83630482]
 [0.6        1.73731066]
 [0.7        0.02437314]
 [0.8        0.0262643 ]
 [0.9        1.01003676]
 [1.         0.76011071]
 [1.1        1.03268267]
 [1.14141667 0.54269981]]",1,1.186
8734529389,f,24,english,5,4,english,2024-01-25 10:58:53.516161,False,1,76,sounds\french\audio/french_604.wav,"[[  0.          68.10611108]
 [  0.1         63.99388414]
 [  0.2        -77.78267876]
 [  0.3         60.87409142]
 [  0.4        -14.91542268]
 [  0.5        -77.93180804]
 [  0.6         -7.81349461]
 [  0.7        -84.16622539]
 [  0.8         35.51945386]
 [  0.9        -86.69827035]
 [  1.         -94.13173546]
 [  1.1         23.0579156 ]
 [  1.14141667  17.93273323]]","[[0.         1.35759712]
 [0.1        0.2485611 ]
 [0.2        1.02499907]
 [0.3        1.93810497]
 [0.4        1.6573055 ]
 [0.5        0.98370732]
 [0.6        1.37690628]
 [0.7        0.46296761]
 [0.8        0.51335832]
 [0.9        0.88073963]
 [1.         1.51448748]
 [1.1        1.13726211]
 [1.14141667 0.33901192]]",0,0.29
8734529389,f,24,english,5,4,english,2024-01-25 10:58:53.516161,False,1,77,sounds\french\audio/french_64.wav,"[[  0.          81.21142121]
 [  0.1         52.51696492]
 [  0.2        -39.17561774]
 [  0.3         -2.55926089]
 [  0.4        -19.82016782]
 [  0.5        -96.27205137]
 [  0.6        -91.08602274]
 [  0.7         21.95313621]
 [  0.8        -83.87757175]
 [  0.9        -15.46224959]
 [  1.          99.28922275]
 [  1.1        -34.89576086]
 [  1.14141667 -88.74649368]]","[[0.         1.90047577]
 [0.1        0.82684284]
 [0.2        1.63922719]
 [0.3        1.09796892]
 [0.4        1.84824586]
 [0.5        0.08398419]
 [0.6        1.68744275]
 [0.7        1.11317645]
 [0.8        0.69266869]
 [0.9        1.31844382]
 [1.         1.05971477]
 [1.1        1.50408115]
 [1.14141667 0.80519135]]",0,0.256
8734529389,f,24,english,5,4,english,2024-01-25 10:58:53.516161,False,1,78,sounds\french\audio/french_663.wav,"[[  0.         -14.3254762 ]
 [  0.1         19.63428116]
 [  0.2        -91.68242216]
 [  0.3        -41.82283925]
 [  0.4        -72.80326657]
 [  0.5        -12.3349336 ]
 [  0.6        -15.30280268]
 [  0.7        -15.66686259]
 [  0.8        -77.03407899]
 [  0.9        -25.15547903]
 [  1.         -56.91868761]
 [  1.1         30.52061364]
 [  1.14141667 -30.87664349]]","[[0.         0.00837881]
 [0.1        1.01490054]
 [0.2        1.87093457]
 [0.3        1.17127261]
 [0.4        1.68516013]
 [0.5        0.32760374]
 [0.6        1.68388895]
 [0.7        1.95044404]
 [0.8        0.77619086]
 [0.9        0.62272065]
 [1.         0.1392137 ]
 [1.1        1.81424778]
 [1.14141667 0.71279161]]",1,0.617
8734529389,f,24,english,5,4,english,2024-01-25 10:58:53.516161,False,1,79,sounds\french\audio/french_514.wav,"[[  0.          19.52749286]
 [  0.1        -18.57686292]
 [  0.2        -11.65218112]
 [  0.3         67.73335024]
 [  0.4          2.50414412]
 [  0.5          9.98358294]
 [  0.6        -79.6394771 ]
 [  0.7        -56.69454189]
 [  0.8        -18.40953805]
 [  0.9        -52.29201997]
 [  1.          65.08217065]
 [  1.1        -33.80106577]
 [  1.14141667  66.85973887]]","[[0.         0.20353533]
 [0.1        0.56212811]
 [0.2        1.19554763]
 [0.3        1.25373802]
 [0.4        0.49820491]
 [0.5        0.39911731]
 [0.6        1.7639196 ]
 [0.7        0.02096069]
 [0.8        1.56380325]
 [0.9        0.9626698 ]
 [1.         1.00011748]
 [1.1        1.32853589]
 [1.14141667 0.17517316]]",0,0.24
8734529389,f,24,english,5,4,english,2024-01-25 10:58:53.516161,False,1,80,sounds\french\audio/french_983.wav,"[[  0.         -58.740306  ]
 [  0.1         86.62100381]
 [  0.2         72.28686739]
 [  0.3         40.58051416]
 [  0.4        -24.25700788]
 [  0.5         71.71663195]
 [  0.6        -12.96137505]
 [  0.7        -82.1836976 ]
 [  0.8        -24.9069762 ]
 [  0.9         55.25058614]
 [  1.          73.77815743]
 [  1.1         32.70068021]
 [  1.14141667 -94.39337182]]","[[0.         1.29800401]
 [0.1        0.11364498]
 [0.2        1.04246937]
 [0.3        0.31985263]
 [0.4        0.23068067]
 [0.5        1.2336031 ]
 [0.6        1.36252466]
 [0.7        1.78793687]
 [0.8        0.590606  ]
 [0.9        0.99616144]
 [1.         0.61804154]
 [1.1        1.49661667]
 [1.14141667 0.91742292]]",0,0.451
8734529389,f,24,english,5,4,english,2024-01-25 10:58:53.516161,False,1,81,sounds\french\audio/french_275.wav,"[[  0.         -91.39287319]
 [  0.1         22.10547383]
 [  0.2        -21.22592408]
 [  0.3         72.24714003]
 [  0.4         61.38684723]
 [  0.5        -33.49357785]
 [  0.6        -22.32450075]
 [  0.7        -57.48612132]
 [  0.8        -68.59893206]
 [  0.9        -44.92566121]
 [  1.          65.4486236 ]
 [  1.1         30.92096177]
 [  1.14141667 -41.22661434]]","[[0.         1.90354156]
 [0.1        0.54315679]
 [0.2        0.64106827]
 [0.3        1.19782448]
 [0.4        0.97884644]
 [0.5        0.24795855]
 [0.6        0.94645389]
 [0.7        1.89730656]
 [0.8        1.68481666]
 [0.9        1.9522513 ]
 [1.         1.20961361]
 [1.1        0.71442014]
 [1.14141667 1.65151151]]",0,0.321
8734529389,f,24,english,5,4,english,2024-01-25 10:58:53.516161,False,1,82,sounds\french\audio/french_107.wav,"[[  0.          48.95738848]
 [  0.1        -86.21350197]
 [  0.2        -66.15605828]
 [  0.3         36.09764322]
 [  0.4         84.94348039]
 [  0.5         45.37934285]
 [  0.6        -37.42419694]
 [  0.7          9.9462813 ]
 [  0.8        -34.76810552]
 [  0.9         -2.69499058]
 [  1.         -37.67578174]
 [  1.1         10.67241344]
 [  1.14141667  78.13998046]]","[[0.         0.23520596]
 [0.1        1.35835183]
 [0.2        1.80441503]
 [0.3        1.20547982]
 [0.4        1.45019214]
 [0.5        1.82448315]
 [0.6        0.98390392]
 [0.7        1.44557172]
 [0.8        1.21843616]
 [0.9        0.65132093]
 [1.         0.48352105]
 [1.1        1.27397433]
 [1.14141667 0.78593457]]",1,0.363
8734529389,f,24,english,5,4,english,2024-01-25 10:58:53.516161,False,1,83,sounds\french\audio/french_383.wav,"[[  0.         -39.02457542]
 [  0.1        -77.49985517]
 [  0.2         50.91368445]
 [  0.3         10.63848849]
 [  0.4         47.34974353]
 [  0.5        -18.10712895]
 [  0.6        -59.13978187]
 [  0.7        -95.02289951]
 [  0.8         -1.09114116]
 [  0.9        -71.36171918]
 [  1.          15.57019989]
 [  1.1        -93.68359708]
 [  1.14141667 -46.06271285]]","[[0.         1.13235422]
 [0.1        0.41642205]
 [0.2        1.49751518]
 [0.3        0.37045866]
 [0.4        0.15272125]
 [0.5        0.11717599]
 [0.6        0.84303964]
 [0.7        1.97903491]
 [0.8        0.29246172]
 [0.9        1.45734716]
 [1.         1.94987581]
 [1.1        1.48364755]
 [1.14141667 1.01304345]]",1,2.049
8734529389,f,24,english,5,4,english,2024-01-25 10:58:53.516161,False,1,84,sounds\french\audio/french_221.wav,"[[  0.          87.596802  ]
 [  0.1         94.08080992]
 [  0.2         23.23948524]
 [  0.3         61.25075703]
 [  0.4         36.37191221]
 [  0.5         -1.25906166]
 [  0.6        -77.51503636]
 [  0.7         51.79007106]
 [  0.8         37.57137162]
 [  0.9        -17.93936658]
 [  1.          79.44743047]
 [  1.1         65.84768021]
 [  1.14141667 -95.74004892]]","[[0.00000000e+00 8.85939723e-01]
 [1.00000000e-01 1.95777695e+00]
 [2.00000000e-01 1.77610840e+00]
 [3.00000000e-01 1.30584264e-01]
 [4.00000000e-01 1.88090151e+00]
 [5.00000000e-01 1.91447985e+00]
 [6.00000000e-01 1.63435485e+00]
 [7.00000000e-01 9.69843469e-01]
 [8.00000000e-01 1.28271297e+00]
 [9.00000000e-01 1.08422600e+00]
 [1.00000000e+00 9.32336456e-01]
 [1.10000000e+00 2.49585537e-01]
 [1.14141667e+00 8.16857492e-04]]",0,0.184
8734529389,f,24,english,5,4,english,2024-01-25 10:58:53.516161,False,1,85,sounds\french\audio/french_59.wav,"[[  0.          20.14643924]
 [  0.1        -59.30511307]
 [  0.2        -36.90138171]
 [  0.3        -90.62422634]
 [  0.4         81.58991679]
 [  0.5        -52.14492004]
 [  0.6         38.69064245]
 [  0.7        -68.88870739]
 [  0.8        -78.91362722]
 [  0.9        -49.91064634]
 [  1.         -14.96747288]
 [  1.1        -61.38764873]
 [  1.14141667 -36.71502823]]","[[0.         1.64013215]
 [0.1        1.38227101]
 [0.2        1.29161714]
 [0.3        0.15011777]
 [0.4        0.54809828]
 [0.5        1.06399462]
 [0.6        1.23043118]
 [0.7        0.46411732]
 [0.8        1.50887557]
 [0.9        1.51001833]
 [1.         0.8690376 ]
 [1.1        0.30032336]
 [1.14141667 0.26110281]]",0,0.418
8734529389,f,24,english,5,4,english,2024-01-25 10:58:53.516161,False,1,86,sounds\french\audio/french_836.wav,"[[  0.         -98.99819352]
 [  0.1        -75.19453636]
 [  0.2        -64.62080883]
 [  0.3         60.55534082]
 [  0.4        -90.56866614]
 [  0.5         42.02544068]
 [  0.6         95.75892424]
 [  0.7         11.40295424]
 [  0.8         -4.00612114]
 [  0.9         -4.86106881]
 [  1.         -58.99614613]
 [  1.1        -54.09355535]
 [  1.14141667  71.69194122]]","[[0.         0.75283852]
 [0.1        1.12271703]
 [0.2        1.03950179]
 [0.3        1.75484814]
 [0.4        1.22078165]
 [0.5        1.13870982]
 [0.6        0.70777339]
 [0.7        0.47085937]
 [0.8        0.55212985]
 [0.9        0.16027773]
 [1.         0.43365065]
 [1.1        0.99941172]
 [1.14141667 1.8664191 ]]",1,0.611
8734529389,f,24,english,5,4,english,2024-01-25 10:58:53.516161,False,1,87,sounds\french\audio/french_918.wav,"[[  0.          -2.67893581]
 [  0.1        -86.66912791]
 [  0.2         13.19664365]
 [  0.3         21.91008155]
 [  0.4         45.19898324]
 [  0.5        -61.98176128]
 [  0.6        -32.0210955 ]
 [  0.7        -56.67296374]
 [  0.8        -69.82955016]
 [  0.9         71.11041844]
 [  1.         -91.16742521]
 [  1.1        -50.98363321]
 [  1.14141667  10.7461397 ]]","[[0.         1.74350248]
 [0.1        1.24019067]
 [0.2        1.00107396]
 [0.3        1.28680607]
 [0.4        0.62507084]
 [0.5        0.85364819]
 [0.6        0.7136194 ]
 [0.7        0.47996765]
 [0.8        1.02040943]
 [0.9        1.48734385]
 [1.         1.67065693]
 [1.1        0.14001191]
 [1.14141667 0.38979864]]",0,0.164
8734529389,f,24,english,5,4,english,2024-01-25 10:58:53.516161,False,1,88,sounds\french\audio/french_273.wav,"[[  0.           0.7190916 ]
 [  0.1         97.83891779]
 [  0.2         60.36727917]
 [  0.3         75.34562321]
 [  0.4        -49.29676333]
 [  0.5         66.1161099 ]
 [  0.6         47.59795939]
 [  0.7        -57.87962131]
 [  0.8         81.42088192]
 [  0.9        -40.71214973]
 [  1.          21.35486497]
 [  1.1         48.12506042]
 [  1.14141667  82.77823336]]","[[0.         0.53676655]
 [0.1        1.54358622]
 [0.2        0.47152348]
 [0.3        1.2590705 ]
 [0.4        1.86837956]
 [0.5        0.9921972 ]
 [0.6        0.68574852]
 [0.7        1.86045002]
 [0.8        1.53065292]
 [0.9        1.34276988]
 [1.         1.27786291]
 [1.1        1.11936535]
 [1.14141667 0.95547805]]",1,1.098
8734529389,f,24,english,5,4,english,2024-01-25 10:58:53.516161,False,1,89,sounds\french\audio/french_310.wav,"[[  0.          17.56598639]
 [  0.1         76.92128936]
 [  0.2        -58.20509392]
 [  0.3         83.85101429]
 [  0.4        -30.03153984]
 [  0.5         65.65347409]
 [  0.6        -31.19085718]
 [  0.7         13.20607402]
 [  0.8         67.80059658]
 [  0.9        -60.97564656]
 [  1.         -20.93273173]
 [  1.1          9.82776434]
 [  1.14141667 -83.18360608]]","[[0.         1.12956977]
 [0.1        1.00648851]
 [0.2        0.97784502]
 [0.3        1.32502708]
 [0.4        1.31992976]
 [0.5        1.69425093]
 [0.6        0.83891868]
 [0.7        0.55122583]
 [0.8        1.89433213]
 [0.9        0.44162944]
 [1.         1.30621231]
 [1.1        1.40358407]
 [1.14141667 0.62868818]]",0,0.132
8734529389,f,24,english,5,4,english,2024-01-25 10:58:53.516161,False,1,90,sounds\french\audio/french_818.wav,"[[  0.         -64.54705195]
 [  0.1        -91.61229029]
 [  0.2        -35.88082764]
 [  0.3         32.95002598]
 [  0.4         96.16696272]
 [  0.5        -48.65661003]
 [  0.6         25.73992633]
 [  0.7         -4.3414441 ]
 [  0.8        -93.84475958]
 [  0.9         -3.13234897]
 [  1.          47.01287281]
 [  1.1         59.21891233]
 [  1.14141667 -20.63650262]]","[[0.         0.40470359]
 [0.1        0.43509238]
 [0.2        1.96085692]
 [0.3        1.7784599 ]
 [0.4        0.64261238]
 [0.5        1.18267194]
 [0.6        1.67096599]
 [0.7        0.44090251]
 [0.8        0.30247145]
 [0.9        1.0976871 ]
 [1.         0.50195876]
 [1.1        0.49926872]
 [1.14141667 1.67818596]]",1,0.157
8734529389,f,24,english,5,4,english,2024-01-25 10:58:53.516161,False,1,91,sounds\french\audio/french_669.wav,"[[ 0.00000000e+00  5.39397138e+01]
 [ 1.00000000e-01 -3.65956991e+01]
 [ 2.00000000e-01 -4.31876693e+01]
 [ 3.00000000e-01 -5.39427897e+01]
 [ 4.00000000e-01 -6.57831310e+01]
 [ 5.00000000e-01  8.54446973e+00]
 [ 6.00000000e-01  2.59824510e+01]
 [ 7.00000000e-01  2.31628943e+00]
 [ 8.00000000e-01 -2.39411009e+01]
 [ 9.00000000e-01  1.17847383e+00]
 [ 1.00000000e+00 -2.07096506e-02]
 [ 1.10000000e+00  7.98727398e+01]
 [ 1.14141667e+00  4.14033753e+01]]","[[0.         0.06355711]
 [0.1        0.48004976]
 [0.2        1.03789897]
 [0.3        1.26221458]
 [0.4        0.60369974]
 [0.5        0.38242942]
 [0.6        0.77698842]
 [0.7        1.9835701 ]
 [0.8        0.74672504]
 [0.9        0.31328371]
 [1.         1.00971918]
 [1.1        0.68044343]
 [1.14141667 0.87080947]]",1,0.485
8734529389,f,24,english,5,4,english,2024-01-25 10:58:53.516161,False,1,92,sounds\french\audio/french_652.wav,"[[  0.         -64.34245078]
 [  0.1         36.64819292]
 [  0.2         94.39930996]
 [  0.3        -83.22796631]
 [  0.4        -63.44049695]
 [  0.5        -21.86417372]
 [  0.6        -52.40579631]
 [  0.7         52.60731432]
 [  0.8         82.26732634]
 [  0.9        -66.56660682]
 [  1.          93.91460513]
 [  1.1        -23.42883906]
 [  1.14141667 -61.50549834]]","[[0.         0.17219181]
 [0.1        0.49943741]
 [0.2        1.4050061 ]
 [0.3        0.74775149]
 [0.4        0.98675799]
 [0.5        0.11455054]
 [0.6        1.43554655]
 [0.7        0.71254102]
 [0.8        0.77312084]
 [0.9        0.00594099]
 [1.         0.65440972]
 [1.1        1.76783286]
 [1.14141667 1.41039415]]",1,0.442
8734529389,f,24,english,5,4,english,2024-01-25 10:58:53.516161,False,1,93,sounds\french\audio/french_208.wav,"[[  0.          22.05412131]
 [  0.1        -81.24093625]
 [  0.2        -56.8023019 ]
 [  0.3         42.11803464]
 [  0.4        -62.30011739]
 [  0.5        -54.22793596]
 [  0.6        -22.54029576]
 [  0.7          3.64260812]
 [  0.8         34.77853372]
 [  0.9        -69.5924933 ]
 [  1.         -81.19588074]
 [  1.1        -23.61160916]
 [  1.14141667  -3.35496918]]","[[0.         0.76725809]
 [0.1        1.19895138]
 [0.2        1.75036409]
 [0.3        1.11519781]
 [0.4        0.53587167]
 [0.5        0.06074171]
 [0.6        0.24306128]
 [0.7        0.45122919]
 [0.8        0.41059711]
 [0.9        0.57249987]
 [1.         1.0921966 ]
 [1.1        1.04543031]
 [1.14141667 1.92109129]]",1,0.239
8734529389,f,24,english,5,4,english,2024-01-25 10:58:53.516161,False,1,94,sounds\french\audio/french_769.wav,"[[  0.         -13.36397128]
 [  0.1        -64.48089362]
 [  0.2         58.9023119 ]
 [  0.3         61.12929075]
 [  0.4         97.98097103]
 [  0.5        -77.00062239]
 [  0.6         59.53320612]
 [  0.7        -14.37943066]
 [  0.8         75.08575961]
 [  0.9         -1.90306473]
 [  1.          35.59710513]
 [  1.1        -66.64381006]
 [  1.14141667 -84.5225479 ]]","[[0.         1.58116724]
 [0.1        1.15876737]
 [0.2        1.60731332]
 [0.3        1.39997134]
 [0.4        0.84578271]
 [0.5        1.25139679]
 [0.6        0.60224046]
 [0.7        1.04948576]
 [0.8        0.62368881]
 [0.9        1.18190657]
 [1.         0.32402268]
 [1.1        0.29640924]
 [1.14141667 1.49866135]]",0,0.598
8734529389,f,24,english,5,4,english,2024-01-25 10:58:53.516161,False,1,95,sounds\french\audio/french_545.wav,"[[  0.          11.59350968]
 [  0.1         40.81107613]
 [  0.2        -15.1904996 ]
 [  0.3         89.24451679]
 [  0.4        -35.68541546]
 [  0.5         92.69842634]
 [  0.6        -52.28509248]
 [  0.7          1.93852767]
 [  0.8        -10.33641694]
 [  0.9         34.36690201]
 [  1.         -77.64706819]
 [  1.1         76.32096038]
 [  1.14141667  40.38883179]]","[[0.         0.78726405]
 [0.1        1.79331487]
 [0.2        0.91103842]
 [0.3        1.66546006]
 [0.4        0.53464919]
 [0.5        1.51644435]
 [0.6        0.98448653]
 [0.7        1.205197  ]
 [0.8        0.28061757]
 [0.9        0.51699626]
 [1.         0.47222197]
 [1.1        0.79708902]
 [1.14141667 0.55336356]]",1,0.493
8734529389,f,24,english,5,4,english,2024-01-25 10:58:53.516161,False,1,96,sounds\french\audio/french_944.wav,"[[  0.           5.90730738]
 [  0.1         20.95549988]
 [  0.2         10.39827044]
 [  0.3        -37.75669253]
 [  0.4        -49.22667344]
 [  0.5         93.16977427]
 [  0.6        -41.75153683]
 [  0.7         76.29351329]
 [  0.8        -83.23951468]
 [  0.9         79.19877778]
 [  1.         -79.96280606]
 [  1.1        -35.90278779]
 [  1.14141667 -47.06382287]]","[[0.         0.22530641]
 [0.1        0.6742477 ]
 [0.2        1.43871072]
 [0.3        1.70419916]
 [0.4        1.47532653]
 [0.5        0.37116111]
 [0.6        1.12986992]
 [0.7        1.77142708]
 [0.8        1.06487534]
 [0.9        0.07393278]
 [1.         0.93112082]
 [1.1        0.20805406]
 [1.14141667 0.24056538]]",1,0.636
8734529389,f,24,english,5,4,english,2024-01-25 10:58:53.516161,False,1,97,sounds\french\audio/french_629.wav,"[[  0.           5.98508215]
 [  0.1         99.19738459]
 [  0.2        -25.60726918]
 [  0.3        -26.1182931 ]
 [  0.4        -54.19966731]
 [  0.5        -29.12110138]
 [  0.6         11.81276868]
 [  0.7         64.60926562]
 [  0.8        -90.82568408]
 [  0.9          1.57809304]
 [  1.         -36.67521205]
 [  1.1        -30.40407259]
 [  1.14141667 -57.84923793]]","[[0.         0.06445834]
 [0.1        1.43064101]
 [0.2        0.97062544]
 [0.3        0.94934806]
 [0.4        0.4330015 ]
 [0.5        1.79179318]
 [0.6        0.5927928 ]
 [0.7        1.92834464]
 [0.8        1.42833582]
 [0.9        1.02511423]
 [1.         1.4168199 ]
 [1.1        0.13133008]
 [1.14141667 0.89615645]]",0,0.235
8734529389,f,24,english,5,4,english,2024-01-25 10:58:53.516161,False,1,98,sounds\french\audio/french_492.wav,"[[  0.          62.67168513]
 [  0.1         94.72344934]
 [  0.2        -60.35828135]
 [  0.3        -88.06504121]
 [  0.4         -6.78932349]
 [  0.5        -47.82180806]
 [  0.6         -8.91064001]
 [  0.7        -28.60266993]
 [  0.8        -48.68723624]
 [  0.9         18.57877233]
 [  1.          39.49699981]
 [  1.1        -66.80023278]
 [  1.14141667  52.77539511]]","[[0.         0.43911588]
 [0.1        1.05025764]
 [0.2        1.43296606]
 [0.3        1.08587419]
 [0.4        1.96972539]
 [0.5        1.20621652]
 [0.6        1.316574  ]
 [0.7        0.03749259]
 [0.8        1.11329037]
 [0.9        1.67425831]
 [1.         0.64760106]
 [1.1        1.35920659]
 [1.14141667 1.38166489]]",0,0.032
8734529389,f,24,english,5,4,english,2024-01-25 10:58:53.516161,False,1,99,sounds\french\audio/french_397.wav,"[[  0.         -85.38502006]
 [  0.1         34.92223357]
 [  0.2        -71.66551154]
 [  0.3        -17.9053527 ]
 [  0.4         78.38950628]
 [  0.5         54.19336725]
 [  0.6        -11.24053552]
 [  0.7         37.03077056]
 [  0.8        -81.36815514]
 [  0.9        -30.90065257]
 [  1.         -19.65353997]
 [  1.1         -7.76524695]
 [  1.14141667  48.47655245]]","[[0.         1.9856843 ]
 [0.1        0.56062318]
 [0.2        0.42097575]
 [0.3        1.97088475]
 [0.4        0.52227494]
 [0.5        0.88329217]
 [0.6        1.60057527]
 [0.7        0.29723422]
 [0.8        0.5759232 ]
 [0.9        1.31717543]
 [1.         1.378999  ]
 [1.1        0.052171  ]
 [1.14141667 1.47911639]]",0,0.176
8734529389,f,24,english,5,4,english,2024-01-25 10:58:53.516161,False,1,100,sounds\french\audio/french_815.wav,"[[  0.          43.47811109]
 [  0.1        -39.69317674]
 [  0.2         70.70027906]
 [  0.3         -4.04220679]
 [  0.4         77.25732101]
 [  0.5        -48.82932979]
 [  0.6         14.54543285]
 [  0.7         23.58613037]
 [  0.8         11.08048431]
 [  0.9         11.05185943]
 [  1.          49.96011954]
 [  1.1        -42.44433744]
 [  1.14141667 -96.60163856]]","[[0.         1.27638717]
 [0.1        1.25031866]
 [0.2        0.78335521]
 [0.3        1.7307952 ]
 [0.4        1.69406415]
 [0.5        1.17209267]
 [0.6        1.23520838]
 [0.7        0.19395841]
 [0.8        1.25730834]
 [0.9        1.56641554]
 [1.         0.33329842]
 [1.1        1.48663226]
 [1.14141667 0.56490633]]",1,0.08
8734529389,f,24,english,5,4,english,2024-01-25 10:58:53.516161,False,1,101,sounds\french\audio/french_420.wav,"[[  0.         -18.88007076]
 [  0.1         85.38106336]
 [  0.2         93.67996173]
 [  0.3        -59.60168974]
 [  0.4        -63.09071902]
 [  0.5         -3.42049192]
 [  0.6          3.82145816]
 [  0.7        -46.57323204]
 [  0.8         43.35773063]
 [  0.9        -41.3853357 ]
 [  1.         -80.49552294]
 [  1.1         11.88219307]
 [  1.14141667 -51.63626854]]","[[0.         0.77898817]
 [0.1        0.94651873]
 [0.2        0.16609342]
 [0.3        1.88772727]
 [0.4        0.52202044]
 [0.5        0.19259521]
 [0.6        0.85413524]
 [0.7        0.3417564 ]
 [0.8        1.89293485]
 [0.9        1.49847299]
 [1.         1.43768421]
 [1.1        1.60937112]
 [1.14141667 1.40472667]]",0,1.086
8734529389,f,24,english,5,4,english,2024-01-25 10:58:53.516161,False,1,102,sounds\french\audio/french_437.wav,"[[  0.          41.80320752]
 [  0.1        -33.81764788]
 [  0.2         25.70425251]
 [  0.3         56.97339003]
 [  0.4         46.8397409 ]
 [  0.5         38.78616497]
 [  0.6        -89.22878547]
 [  0.7         80.78163583]
 [  0.8         84.46215373]
 [  0.9         17.21068764]
 [  1.          16.06336223]
 [  1.1        -52.17850038]
 [  1.14141667 -51.05005354]]","[[0.         0.30954333]
 [0.1        1.22203572]
 [0.2        0.04102161]
 [0.3        1.19854703]
 [0.4        0.8213725 ]
 [0.5        0.20494593]
 [0.6        1.63754544]
 [0.7        1.22886157]
 [0.8        0.788043  ]
 [0.9        1.05494363]
 [1.         0.71360389]
 [1.1        1.83653188]
 [1.14141667 0.63741841]]",0,0.277
8734529389,f,24,english,5,4,english,2024-01-25 10:58:53.516161,False,1,103,sounds\french\audio/french_896.wav,"[[  0.          11.47422231]
 [  0.1         46.2400026 ]
 [  0.2        -24.32057019]
 [  0.3        -87.2030855 ]
 [  0.4          5.78611761]
 [  0.5         71.23724358]
 [  0.6        -12.04646094]
 [  0.7         65.65969456]
 [  0.8        -71.55601308]
 [  0.9        -30.47071095]
 [  1.          81.31836813]
 [  1.1         59.00321501]
 [  1.14141667 -11.27294507]]","[[0.         0.82823049]
 [0.1        0.71952712]
 [0.2        0.05991654]
 [0.3        0.82758531]
 [0.4        0.66822368]
 [0.5        1.72255849]
 [0.6        0.89622967]
 [0.7        1.36132994]
 [0.8        0.74243617]
 [0.9        1.96359611]
 [1.         1.07942153]
 [1.1        0.72058173]
 [1.14141667 1.33962568]]",1,2.038
8734529389,f,24,english,5,4,english,2024-01-25 10:58:53.516161,False,1,104,sounds\french\audio/french_341.wav,"[[  0.          73.34356566]
 [  0.1         32.77796781]
 [  0.2        -15.17688107]
 [  0.3         78.83994234]
 [  0.4        -59.12519669]
 [  0.5        -87.14456519]
 [  0.6         49.18423227]
 [  0.7         65.46333382]
 [  0.8         12.37255248]
 [  0.9        -45.01455723]
 [  1.         -32.6982037 ]
 [  1.1          7.97147121]
 [  1.14141667 -25.24905662]]","[[0.         0.05237989]
 [0.1        0.70693463]
 [0.2        0.15748394]
 [0.3        1.29250601]
 [0.4        1.54348183]
 [0.5        1.39462455]
 [0.6        0.68979079]
 [0.7        0.59150684]
 [0.8        1.3961758 ]
 [0.9        0.15232918]
 [1.         0.77505127]
 [1.1        0.04371277]
 [1.14141667 0.82980002]]",0,0.267
8734529389,f,24,english,5,4,english,2024-01-25 10:58:53.516161,False,1,105,sounds\french\audio/french_391.wav,"[[  0.         -63.38951   ]
 [  0.1        -12.13737461]
 [  0.2        -38.21112995]
 [  0.3          4.18791745]
 [  0.4         11.17446833]
 [  0.5          7.29155963]
 [  0.6        -58.1710113 ]
 [  0.7         43.11353546]
 [  0.8        -94.57778997]
 [  0.9        -20.01521967]
 [  1.         -15.40965354]
 [  1.1        -78.29833341]
 [  1.14141667 -63.95688504]]","[[0.         1.14224987]
 [0.1        1.31006617]
 [0.2        0.24455102]
 [0.3        0.96567526]
 [0.4        1.67923755]
 [0.5        0.50375972]
 [0.6        0.67632761]
 [0.7        1.0182493 ]
 [0.8        1.87677108]
 [0.9        0.59083803]
 [1.         1.56157441]
 [1.1        0.23424545]
 [1.14141667 1.62713208]]",0,0.236
8734529389,f,24,english,5,4,english,2024-01-25 10:58:53.516161,False,1,106,sounds\french\audio/french_143.wav,"[[  0.         -29.3673722 ]
 [  0.1         44.40810174]
 [  0.2          9.85258544]
 [  0.3        -70.232311  ]
 [  0.4         10.18078432]
 [  0.5         54.14062098]
 [  0.6          5.91204202]
 [  0.7         41.76003801]
 [  0.8        -59.19909661]
 [  0.9        -56.68785287]
 [  1.         -72.6143152 ]
 [  1.1          5.43153154]
 [  1.14141667  73.51458945]]","[[0.         0.22996727]
 [0.1        1.64696191]
 [0.2        1.06029091]
 [0.3        0.85821425]
 [0.4        0.90927264]
 [0.5        1.46523027]
 [0.6        0.81919343]
 [0.7        1.08727783]
 [0.8        1.65258162]
 [0.9        0.26852297]
 [1.         1.68829351]
 [1.1        1.1963145 ]
 [1.14141667 1.20911613]]",1,0.173
8734529389,f,24,english,5,4,english,2024-01-25 10:58:53.516161,False,1,107,sounds\french\audio/french_924.wav,"[[  0.          72.37800689]
 [  0.1        -27.48554384]
 [  0.2         82.62685791]
 [  0.3          4.6552297 ]
 [  0.4          1.0091604 ]
 [  0.5          9.77145997]
 [  0.6        -30.30504644]
 [  0.7         18.66076105]
 [  0.8         87.54001747]
 [  0.9         69.69438749]
 [  1.         -86.17437313]
 [  1.1         50.9950292 ]
 [  1.14141667 -65.22093317]]","[[0.         0.62770252]
 [0.1        0.98346343]
 [0.2        0.08960606]
 [0.3        0.6486922 ]
 [0.4        0.42903693]
 [0.5        0.5259433 ]
 [0.6        0.95437601]
 [0.7        0.09270485]
 [0.8        1.04155974]
 [0.9        0.34754459]
 [1.         0.73375696]
 [1.1        1.64081341]
 [1.14141667 0.11736926]]",1,0.686
8734529389,f,24,english,5,4,english,2024-01-25 10:58:53.516161,False,1,108,sounds\french\audio/french_184.wav,"[[  0.         -84.92815631]
 [  0.1         -7.99207407]
 [  0.2        -18.4917418 ]
 [  0.3         31.7569672 ]
 [  0.4         73.45239684]
 [  0.5         63.78481378]
 [  0.6        -88.72210062]
 [  0.7         55.31278942]
 [  0.8         -1.21214349]
 [  0.9        -66.26493837]
 [  1.          74.70180172]
 [  1.1        -55.73297769]
 [  1.14141667 -79.54970617]]","[[0.         0.89560322]
 [0.1        1.85807804]
 [0.2        0.96896023]
 [0.3        0.91145262]
 [0.4        0.44669863]
 [0.5        1.38395144]
 [0.6        0.30460451]
 [0.7        0.9443525 ]
 [0.8        0.95985029]
 [0.9        1.97618629]
 [1.         1.42134703]
 [1.1        1.90740786]
 [1.14141667 0.4560289 ]]",0,0.588
8734529389,f,24,english,5,4,english,2024-01-25 10:58:53.516161,False,1,109,sounds\french\audio/french_271.wav,"[[  0.          -4.26084728]
 [  0.1        -66.22674374]
 [  0.2         50.59493008]
 [  0.3         93.97669366]
 [  0.4         59.96084063]
 [  0.5        -86.11772004]
 [  0.6         -2.09396449]
 [  0.7        -84.13135866]
 [  0.8         23.5667552 ]
 [  0.9        -21.96388567]
 [  1.           6.84620378]
 [  1.1        -67.33014585]
 [  1.14141667   5.99974644]]","[[0.         0.95664408]
 [0.1        1.64199905]
 [0.2        0.62402053]
 [0.3        1.98710423]
 [0.4        0.39456056]
 [0.5        1.16329707]
 [0.6        0.57946499]
 [0.7        1.05634416]
 [0.8        1.20321017]
 [0.9        0.23833217]
 [1.         0.26201816]
 [1.1        0.15969444]
 [1.14141667 1.56436883]]",1,0.293
8734529389,f,24,english,5,4,english,2024-01-25 10:58:53.516161,False,1,110,sounds\french\audio/french_433.wav,"[[  0.          13.65936781]
 [  0.1         59.19964003]
 [  0.2        -16.88317101]
 [  0.3        -29.25697853]
 [  0.4        -20.47261371]
 [  0.5        -95.33210222]
 [  0.6        -87.63836787]
 [  0.7        -87.59004626]
 [  0.8        -36.63017932]
 [  0.9         23.01049222]
 [  1.         -37.6607371 ]
 [  1.1        -63.45582253]
 [  1.14141667 -21.18055498]]","[[0.         1.51229861]
 [0.1        0.95952734]
 [0.2        1.86428533]
 [0.3        1.71002057]
 [0.4        1.4823254 ]
 [0.5        1.31199137]
 [0.6        1.53917366]
 [0.7        0.27400767]
 [0.8        0.2344453 ]
 [0.9        1.76474922]
 [1.         1.98224239]
 [1.1        0.32973237]
 [1.14141667 0.42672881]]",0,0.243
8734529389,f,24,english,5,4,english,2024-01-25 10:58:53.516161,False,1,111,sounds\french\audio/french_358.wav,"[[  0.          34.29012756]
 [  0.1        -35.48435174]
 [  0.2        -50.59229414]
 [  0.3         39.90001516]
 [  0.4         88.92181701]
 [  0.5        -72.87547056]
 [  0.6        -42.92546752]
 [  0.7        -26.49502583]
 [  0.8        -61.94486174]
 [  0.9        -97.88892453]
 [  1.           9.51760158]
 [  1.1         56.53420341]
 [  1.14141667 -75.83910057]]","[[0.         1.73708892]
 [0.1        1.26172634]
 [0.2        1.08413964]
 [0.3        0.15090374]
 [0.4        1.16341938]
 [0.5        0.75677187]
 [0.6        1.3104823 ]
 [0.7        0.21102579]
 [0.8        0.35280682]
 [0.9        0.79925635]
 [1.         0.71049545]
 [1.1        0.08224149]
 [1.14141667 1.68511416]]",0,0.329
8734529389,f,24,english,5,4,english,2024-01-25 10:58:53.516161,False,1,112,sounds\french\audio/french_880.wav,"[[  0.         -67.35692913]
 [  0.1          9.22345267]
 [  0.2         52.54105012]
 [  0.3         15.27163376]
 [  0.4        -27.32325081]
 [  0.5        -96.57236705]
 [  0.6        -52.11401853]
 [  0.7         60.68518633]
 [  0.8         75.12013331]
 [  0.9         78.01511268]
 [  1.          16.78714456]
 [  1.1         68.14454482]
 [  1.14141667 -20.22553044]]","[[0.         0.36791897]
 [0.1        1.77506302]
 [0.2        1.73468734]
 [0.3        0.75550343]
 [0.4        1.37515568]
 [0.5        1.43927044]
 [0.6        1.08444969]
 [0.7        0.8170541 ]
 [0.8        1.80955492]
 [0.9        0.10737949]
 [1.         1.29858287]
 [1.1        0.38347949]
 [1.14141667 1.87612987]]",1,0.808
8734529389,f,24,english,5,4,english,2024-01-25 10:58:53.516161,False,1,113,sounds\french\audio/french_691.wav,"[[  0.         -53.29117551]
 [  0.1        -43.12784614]
 [  0.2        -84.82989966]
 [  0.3         39.71227421]
 [  0.4         59.63865094]
 [  0.5        -32.9711098 ]
 [  0.6          1.3247472 ]
 [  0.7        -50.55695338]
 [  0.8         53.24371519]
 [  0.9         30.60584544]
 [  1.         -22.917909  ]
 [  1.1        -32.41553069]
 [  1.14141667 -51.47885944]]","[[0.         1.10181202]
 [0.1        0.28907205]
 [0.2        1.7388292 ]
 [0.3        1.78666224]
 [0.4        1.87776175]
 [0.5        1.68554567]
 [0.6        1.64523099]
 [0.7        1.0611099 ]
 [0.8        0.7419427 ]
 [0.9        1.06726815]
 [1.         1.56845074]
 [1.1        0.51496565]
 [1.14141667 1.22953203]]",1,0.08
8734529389,f,24,english,5,4,english,2024-01-25 10:58:53.516161,False,1,114,sounds\french\audio/french_748.wav,"[[  0.          21.06287569]
 [  0.1         15.36105543]
 [  0.2        -30.59586006]
 [  0.3         79.94920558]
 [  0.4        -61.07313039]
 [  0.5        -45.04655322]
 [  0.6        -50.58543561]
 [  0.7          1.01417539]
 [  0.8         -5.64267087]
 [  0.9        -45.78723347]
 [  1.         -89.41556612]
 [  1.1        -62.55272039]
 [  1.14141667 -65.25853362]]","[[0.         1.43701335]
 [0.1        1.59777978]
 [0.2        0.73016849]
 [0.3        0.61979898]
 [0.4        0.89579179]
 [0.5        0.56474332]
 [0.6        1.20782806]
 [0.7        0.1338859 ]
 [0.8        0.84409368]
 [0.9        0.94921143]
 [1.         1.42685707]
 [1.1        0.52153694]
 [1.14141667 0.03253725]]",0,0.138
8734529389,f,24,english,5,4,english,2024-01-25 10:58:53.516161,False,1,115,sounds\french\audio/french_612.wav,"[[  0.         -47.07678459]
 [  0.1          3.63425246]
 [  0.2         31.48917189]
 [  0.3         44.38742484]
 [  0.4         15.5069451 ]
 [  0.5        -51.49122096]
 [  0.6         -1.02254843]
 [  0.7         12.87739328]
 [  0.8        -63.80282001]
 [  0.9        -37.54711338]
 [  1.          40.2162033 ]
 [  1.1         -4.31624045]
 [  1.14141667  64.58566043]]","[[0.         0.11615232]
 [0.1        0.47093102]
 [0.2        0.45807262]
 [0.3        0.81161175]
 [0.4        1.0193018 ]
 [0.5        1.66697075]
 [0.6        0.50056041]
 [0.7        0.70368677]
 [0.8        1.91892506]
 [0.9        1.2931891 ]
 [1.         0.20059311]
 [1.1        0.09557344]
 [1.14141667 1.97325213]]",1,0.265
8734529389,f,24,english,5,4,english,2024-01-25 10:58:53.516161,False,1,116,sounds\french\audio/french_323.wav,"[[  0.          12.36986901]
 [  0.1         48.82190283]
 [  0.2         -1.79727253]
 [  0.3         77.63750811]
 [  0.4        -60.00496185]
 [  0.5         -2.01076709]
 [  0.6        -28.75884422]
 [  0.7         22.62115314]
 [  0.8         -2.37165969]
 [  0.9         22.55401856]
 [  1.          43.0566967 ]
 [  1.1        -33.43664636]
 [  1.14141667  52.86099482]]","[[0.         1.14236572]
 [0.1        0.38320847]
 [0.2        1.79497165]
 [0.3        1.20829329]
 [0.4        1.87271721]
 [0.5        1.08235671]
 [0.6        1.19118186]
 [0.7        1.38743172]
 [0.8        1.90987729]
 [0.9        1.29939901]
 [1.         1.04952512]
 [1.1        1.67070777]
 [1.14141667 0.91951803]]",0,0.115
8734529389,f,24,english,5,4,english,2024-01-25 10:58:53.516161,False,1,117,sounds\french\audio/french_473.wav,"[[  0.          50.01523935]
 [  0.1        -64.67579772]
 [  0.2        -31.43801134]
 [  0.3        -70.56869523]
 [  0.4        -87.96841964]
 [  0.5        -12.32804872]
 [  0.6        -23.90580861]
 [  0.7        -54.03461687]
 [  0.8         36.58781124]
 [  0.9         28.20274702]
 [  1.          41.29082623]
 [  1.1         49.67522961]
 [  1.14141667 -27.29354581]]","[[0.         1.1541721 ]
 [0.1        0.28032856]
 [0.2        1.90137308]
 [0.3        1.26174236]
 [0.4        0.63644888]
 [0.5        0.61660593]
 [0.6        0.89624074]
 [0.7        1.9990991 ]
 [0.8        1.26440243]
 [0.9        1.71390082]
 [1.         0.56419686]
 [1.1        1.08390151]
 [1.14141667 0.77008497]]",0,0.274
8734529389,f,24,english,5,4,english,2024-01-25 10:58:53.516161,False,1,118,sounds\french\audio/french_182.wav,"[[  0.          -1.80719852]
 [  0.1        -86.38296603]
 [  0.2         77.81601349]
 [  0.3        -40.76981119]
 [  0.4         96.11612161]
 [  0.5         56.13496865]
 [  0.6        -15.01612677]
 [  0.7        -25.89223892]
 [  0.8         46.38706832]
 [  0.9         22.16189173]
 [  1.         -49.34607592]
 [  1.1         16.67528468]
 [  1.14141667  51.37064107]]","[[0.         0.94118243]
 [0.1        1.59521765]
 [0.2        0.24326289]
 [0.3        0.0251898 ]
 [0.4        0.07916052]
 [0.5        0.19795199]
 [0.6        0.82804974]
 [0.7        1.07596575]
 [0.8        1.00514745]
 [0.9        1.48875396]
 [1.         0.94795205]
 [1.1        1.37410424]
 [1.14141667 0.38252784]]",0,0.447
8734529389,f,24,english,5,4,english,2024-01-25 10:58:53.516161,False,1,119,sounds\french\audio/french_143.wav,"[[  0.         -29.3673722 ]
 [  0.1         44.40810174]
 [  0.2          9.85258544]
 [  0.3        -70.232311  ]
 [  0.4         10.18078432]
 [  0.5         54.14062098]
 [  0.6          5.91204202]
 [  0.7         41.76003801]
 [  0.8        -59.19909661]
 [  0.9        -56.68785287]
 [  1.         -72.6143152 ]
 [  1.1          5.43153154]
 [  1.14141667  73.51458945]]","[[0.         0.22996727]
 [0.1        1.64696191]
 [0.2        1.06029091]
 [0.3        0.85821425]
 [0.4        0.90927264]
 [0.5        1.46523027]
 [0.6        0.81919343]
 [0.7        1.08727783]
 [0.8        1.65258162]
 [0.9        0.26852297]
 [1.         1.68829351]
 [1.1        1.1963145 ]
 [1.14141667 1.20911613]]",0,0.422
8734529389,f,24,english,5,4,english,2024-01-25 10:58:53.516161,False,1,120,sounds\french\audio/french_346.wav,"[[  0.          67.18638051]
 [  0.1        -53.72817021]
 [  0.2        -98.82675461]
 [  0.3         81.03283057]
 [  0.4         40.62024646]
 [  0.5         40.24818958]
 [  0.6         73.99457353]
 [  0.7        -37.99947694]
 [  0.8         23.54785661]
 [  0.9         84.67325281]
 [  1.          17.08617407]
 [  1.1         -3.95750505]
 [  1.14141667  -9.87393999]]","[[0.         0.75562578]
 [0.1        1.96814797]
 [0.2        0.66238493]
 [0.3        0.69352013]
 [0.4        1.9757751 ]
 [0.5        1.26469529]
 [0.6        1.9973896 ]
 [0.7        0.34186283]
 [0.8        0.20007718]
