subj,sex,age,language,english,french,native_lang,date,practice,block,trial,stim,pitch,stretch,response,rt
2,f,31,english,5,3,english,2024-02-09 13:55:12.834847,False,2,303,sounds\french\audio/french_133.wav,"[[  0.          -7.61871603]
 [  0.1         34.71331069]
 [  0.2         55.79384499]
 [  0.3         23.25377101]
 [  0.4         77.34286394]
 [  0.5          3.92318715]
 [  0.6         98.08340608]
 [  0.7        -24.38130769]
 [  0.8         35.62412421]
 [  0.9         53.54170068]
 [  1.          40.87834808]
 [  1.1         98.4604717 ]
 [  1.14141667  75.71752154]]","[[0.         1.34607476]
 [0.1        1.71757152]
 [0.2        1.76223693]
 [0.3        0.89332745]
 [0.4        0.6099967 ]
 [0.5        1.94047269]
 [0.6        1.62942383]
 [0.7        1.25566232]
 [0.8        1.87414585]
 [0.9        0.07787487]
 [1.         0.93409185]
 [1.1        1.5263652 ]
 [1.14141667 0.309992  ]]",0,2.801
2,f,31,english,5,3,english,2024-02-09 13:55:12.834847,False,2,304,sounds\french\audio/french_350.wav,"[[  0.          49.18780015]
 [  0.1         72.56599871]
 [  0.2         82.40633288]
 [  0.3        -82.3613748 ]
 [  0.4        -55.26706973]
 [  0.5         32.71718065]
 [  0.6        -77.12745481]
 [  0.7         53.19413298]
 [  0.8         63.69374639]
 [  0.9         -4.94503234]
 [  1.           8.94892579]
 [  1.1        -63.25021916]
 [  1.14141667  62.49358968]]","[[0.         1.13395449]
 [0.1        1.35674112]
 [0.2        1.64110949]
 [0.3        0.20020041]
 [0.4        1.72643687]
 [0.5        0.50546476]
 [0.6        1.03887292]
 [0.7        0.02836182]
 [0.8        1.25705859]
 [0.9        0.65948503]
 [1.         0.3253589 ]
 [1.1        1.08649671]
 [1.14141667 1.97191137]]",1,0.285
2,f,31,english,5,3,english,2024-02-09 13:55:12.834847,False,2,305,sounds\french\audio/french_241.wav,"[[  0.          98.04166171]
 [  0.1          6.16764543]
 [  0.2        -42.8608234 ]
 [  0.3         54.21216242]
 [  0.4         -1.78367985]
 [  0.5         -5.66820407]
 [  0.6         54.13943684]
 [  0.7        -80.00679133]
 [  0.8        -44.25002722]
 [  0.9        -63.06102871]
 [  1.          80.68342045]
 [  1.1          4.33426609]
 [  1.14141667  89.08058854]]","[[0.         0.32485673]
 [0.1        1.24402989]
 [0.2        0.94649821]
 [0.3        1.15369043]
 [0.4        0.47784039]
 [0.5        0.56378862]
 [0.6        0.47159963]
 [0.7        1.76255958]
 [0.8        0.64662376]
 [0.9        1.1795317 ]
 [1.         1.4030233 ]
 [1.1        0.53258498]
 [1.14141667 0.85759255]]",1,0.361
2,f,31,english,5,3,english,2024-02-09 13:55:12.834847,False,2,306,sounds\french\audio/french_312.wav,"[[  0.          69.30449707]
 [  0.1         28.8122594 ]
 [  0.2         79.52564985]
 [  0.3         23.03240233]
 [  0.4        -48.5690178 ]
 [  0.5         61.96316276]
 [  0.6        -40.84069724]
 [  0.7        -21.82800046]
 [  0.8        -77.10722565]
 [  0.9         18.67755044]
 [  1.           0.10322115]
 [  1.1         38.28305127]
 [  1.14141667  17.56298431]]","[[0.         0.68235651]
 [0.1        0.49968612]
 [0.2        0.10826386]
 [0.3        1.87669154]
 [0.4        1.01808413]
 [0.5        1.08622218]
 [0.6        0.31784093]
 [0.7        0.771822  ]
 [0.8        0.59210928]
 [0.9        0.28258662]
 [1.         0.93032185]
 [1.1        0.32298369]
 [1.14141667 1.36564277]]",1,1.788
2,f,31,english,5,3,english,2024-02-09 13:55:12.834847,False,2,307,sounds\french\audio/french_2.wav,"[[  0.         -86.87483072]
 [  0.1         30.88471   ]
 [  0.2        -63.05424844]
 [  0.3         51.55101831]
 [  0.4        -97.82970137]
 [  0.5         51.42109266]
 [  0.6        -29.2060834 ]
 [  0.7         90.68379187]
 [  0.8        -68.59815448]
 [  0.9         51.41543925]
 [  1.         -33.48006024]
 [  1.1          2.14765409]
 [  1.14141667  40.23091812]]","[[0.         0.90329499]
 [0.1        1.75440235]
 [0.2        0.77448186]
 [0.3        0.99965543]
 [0.4        0.9023396 ]
 [0.5        1.28884098]
 [0.6        1.83503208]
 [0.7        0.07032507]
 [0.8        1.25711652]
 [0.9        1.0016667 ]
 [1.         0.4903742 ]
 [1.1        1.09021934]
 [1.14141667 0.46007065]]",1,0.622
2,f,31,english,5,3,english,2024-02-09 13:55:12.834847,False,2,308,sounds\french\audio/french_103.wav,"[[  0.           2.91786926]
 [  0.1         23.30029005]
 [  0.2         28.01552046]
 [  0.3        -51.40874307]
 [  0.4        -99.21557126]
 [  0.5         19.84118939]
 [  0.6        -65.99225766]
 [  0.7         40.39751922]
 [  0.8         74.789965  ]
 [  0.9        -43.83163503]
 [  1.          57.49015739]
 [  1.1         25.73775256]
 [  1.14141667 -31.20389674]]","[[0.         0.93245286]
 [0.1        0.22329417]
 [0.2        0.96994087]
 [0.3        0.86608645]
 [0.4        1.27002085]
 [0.5        0.69713375]
 [0.6        1.27865319]
 [0.7        0.4711572 ]
 [0.8        1.04688334]
 [0.9        1.42282614]
 [1.         0.52926459]
 [1.1        0.76349625]
 [1.14141667 0.16787847]]",0,0.293
2,f,31,english,5,3,english,2024-02-09 13:55:12.834847,False,2,309,sounds\french\audio/french_268.wav,"[[  0.         -90.17309363]
 [  0.1          7.72676812]
 [  0.2        -17.47785998]
 [  0.3        -68.38186843]
 [  0.4        -68.90464699]
 [  0.5        -60.03371115]
 [  0.6         54.95042453]
 [  0.7        -61.89102348]
 [  0.8        -92.43644205]
 [  0.9        -85.74845922]
 [  1.         -67.45378327]
 [  1.1        -69.51500294]
 [  1.14141667  25.86880955]]","[[0.         1.87145696]
 [0.1        1.66378637]
 [0.2        0.26930884]
 [0.3        1.52031218]
 [0.4        0.92093983]
 [0.5        1.79094401]
 [0.6        1.54867869]
 [0.7        1.2478237 ]
 [0.8        0.54208793]
 [0.9        0.78885357]
 [1.         1.38787262]
 [1.1        1.61364817]
 [1.14141667 0.52503336]]",1,0.507
2,f,31,english,5,3,english,2024-02-09 13:55:12.834847,False,2,310,sounds\french\audio/french_209.wav,"[[  0.         -37.75432052]
 [  0.1        -41.54397479]
 [  0.2         88.65301906]
 [  0.3        -58.34566528]
 [  0.4         32.2915787 ]
 [  0.5        -42.74882162]
 [  0.6        -70.03367552]
 [  0.7        -13.67330676]
 [  0.8        -64.68428425]
 [  0.9        -46.32803613]
 [  1.         -60.50547671]
 [  1.1         74.16907005]
 [  1.14141667  -0.39288766]]","[[0.         1.2769056 ]
 [0.1        0.48875509]
 [0.2        0.27666548]
 [0.3        0.43345867]
 [0.4        0.98164386]
 [0.5        1.03792846]
 [0.6        0.41234579]
 [0.7        0.09529836]
 [0.8        1.4613373 ]
 [0.9        1.1830112 ]
 [1.         1.12513934]
 [1.1        1.39691571]
 [1.14141667 0.99758243]]",0,0.102
2,f,31,english,5,3,english,2024-02-09 13:55:12.834847,False,2,311,sounds\french\audio/french_549.wav,"[[  0.         -75.20654592]
 [  0.1        -31.46313263]
 [  0.2         63.43023055]
 [  0.3        -47.83204011]
 [  0.4        -12.06704185]
 [  0.5         21.92378147]
 [  0.6          3.15866922]
 [  0.7         77.16646097]
 [  0.8        -55.69194491]
 [  0.9         59.76392534]
 [  1.           5.24846484]
 [  1.1         17.5272775 ]
 [  1.14141667  77.18549428]]","[[0.         1.24662129]
 [0.1        0.24120097]
 [0.2        1.64296857]
 [0.3        1.68842927]
 [0.4        1.52780869]
 [0.5        1.9277995 ]
 [0.6        1.64875421]
 [0.7        0.97228607]
 [0.8        1.26011495]
 [0.9        0.74800621]
 [1.         0.89870469]
 [1.1        1.45858483]
 [1.14141667 1.898714  ]]",0,0.687
2,f,31,english,5,3,english,2024-02-09 13:55:12.834847,False,2,312,sounds\french\audio/french_308.wav,"[[  0.         -24.76470346]
 [  0.1        -75.39031031]
 [  0.2        -67.15595446]
 [  0.3         73.28346942]
 [  0.4        -63.76474969]
 [  0.5         10.17114781]
 [  0.6          4.96018727]
 [  0.7        -80.99576467]
 [  0.8          5.85848448]
 [  0.9        -81.91810292]
 [  1.         -78.18540506]
 [  1.1        -63.38399377]
 [  1.14141667  -3.56177279]]","[[0.         1.59064555]
 [0.1        1.09884897]
 [0.2        1.36958326]
 [0.3        0.49848866]
 [0.4        0.29216268]
 [0.5        0.8224921 ]
 [0.6        1.0263182 ]
 [0.7        1.21407391]
 [0.8        0.36326554]
 [0.9        1.1553967 ]
 [1.         0.19027312]
 [1.1        0.38270044]
 [1.14141667 1.55093722]]",1,0.243
2,f,31,english,5,3,english,2024-02-09 13:55:12.834847,False,2,313,sounds\french\audio/french_717.wav,"[[  0.          88.73376651]
 [  0.1        -23.7422393 ]
 [  0.2         22.24358049]
 [  0.3         26.02776154]
 [  0.4         50.50523033]
 [  0.5         45.16605907]
 [  0.6        -17.9098931 ]
 [  0.7         27.24171503]
 [  0.8         39.79598032]
 [  0.9         78.66410709]
 [  1.          -6.40706689]
 [  1.1        -55.33048838]
 [  1.14141667  93.60559785]]","[[0.         1.29630211]
 [0.1        1.17583122]
 [0.2        1.44825889]
 [0.3        1.42597369]
 [0.4        1.28997601]
 [0.5        0.7579775 ]
 [0.6        0.85921403]
 [0.7        0.93590594]
 [0.8        1.9839492 ]
 [0.9        1.89122416]
 [1.         0.26643504]
 [1.1        1.55483627]
 [1.14141667 1.84443801]]",0,0.124
2,f,31,english,5,3,english,2024-02-09 13:55:12.834847,False,2,314,sounds\french\audio/french_352.wav,"[[  0.          10.73486736]
 [  0.1         -2.13704655]
 [  0.2         28.17863461]
 [  0.3         31.31595099]
 [  0.4         78.82756463]
 [  0.5         83.48671707]
 [  0.6        -30.66584618]
 [  0.7         81.60814872]
 [  0.8          7.8464664 ]
 [  0.9        -79.02516518]
 [  1.         -33.20547634]
 [  1.1        -36.70872287]
 [  1.14141667  97.65700818]]","[[0.         0.92635418]
 [0.1        1.35141752]
 [0.2        1.44107808]
 [0.3        0.55561757]
 [0.4        1.72995487]
 [0.5        0.72311037]
 [0.6        0.44618391]
 [0.7        0.87849223]
 [0.8        1.36014926]
 [0.9        1.59973975]
 [1.         1.01580825]
 [1.1        0.8147003 ]
 [1.14141667 1.87612807]]",1,0.153
2,f,31,english,5,3,english,2024-02-09 13:55:12.834847,False,2,315,sounds\french\audio/french_617.wav,"[[  0.          41.18921531]
 [  0.1        -35.03636924]
 [  0.2        -74.98228457]
 [  0.3        -36.51435822]
 [  0.4        -95.32464294]
 [  0.5         84.01929298]
 [  0.6         32.67157622]
 [  0.7        -71.7342706 ]
 [  0.8        -45.86213667]
 [  0.9         87.19566362]
 [  1.         -47.72681817]
 [  1.1         15.937344  ]
 [  1.14141667  72.65175015]]","[[0.         0.91184006]
 [0.1        1.24340801]
 [0.2        1.94725418]
 [0.3        0.5653448 ]
 [0.4        1.52373912]
 [0.5        1.56026974]
 [0.6        0.19851572]
 [0.7        1.89713844]
 [0.8        1.81378599]
 [0.9        1.31045157]
 [1.         0.66805601]
 [1.1        0.14648847]
 [1.14141667 0.64127007]]",0,0.714
2,f,31,english,5,3,english,2024-02-09 13:55:12.834847,False,2,316,sounds\french\audio/french_50.wav,"[[  0.          -7.01386319]
 [  0.1         53.48395865]
 [  0.2        -12.28351801]
 [  0.3        -93.76617938]
 [  0.4        -12.0195374 ]
 [  0.5        -56.59793281]
 [  0.6         20.61032162]
 [  0.7         -1.26901238]
 [  0.8        -30.12626637]
 [  0.9         86.80795076]
 [  1.          21.12391045]
 [  1.1         72.85975875]
 [  1.14141667 -11.76225522]]","[[0.         1.47331584]
 [0.1        1.04351856]
 [0.2        1.7377743 ]
 [0.3        0.97170395]
 [0.4        0.90437843]
 [0.5        1.6913567 ]
 [0.6        1.252974  ]
 [0.7        0.73770227]
 [0.8        0.35408486]
 [0.9        0.05135998]
 [1.         1.97752086]
 [1.1        1.25509602]
 [1.14141667 0.5303538 ]]",0,1.125
2,f,31,english,5,3,english,2024-02-09 13:55:12.834847,False,2,317,sounds\french\audio/french_678.wav,"[[  0.          24.19483128]
 [  0.1        -47.51642543]
 [  0.2         -3.91811007]
 [  0.3         32.18517105]
 [  0.4        -21.87097974]
 [  0.5         28.51645426]
 [  0.6         52.47804835]
 [  0.7         10.55383211]
 [  0.8         89.68033024]
 [  0.9        -20.04322085]
 [  1.         -64.98612207]
 [  1.1         75.98214859]
 [  1.14141667  82.29835908]]","[[0.         0.81436077]
 [0.1        1.1125399 ]
 [0.2        1.61070048]
 [0.3        1.15077733]
 [0.4        1.20781999]
 [0.5        0.74457904]
 [0.6        1.7292018 ]
 [0.7        1.1823552 ]
 [0.8        1.55182719]
 [0.9        0.17890882]
 [1.         0.04333149]
 [1.1        1.23856993]
 [1.14141667 1.33756429]]",0,0.604
2,f,31,english,5,3,english,2024-02-09 13:55:12.834847,False,2,318,sounds\french\audio/french_76.wav,"[[  0.          65.24155803]
 [  0.1        -64.10777613]
 [  0.2        -66.43983652]
 [  0.3          9.38529777]
 [  0.4        -68.79387642]
 [  0.5         24.61155373]
 [  0.6        -11.51773882]
 [  0.7        -77.87210972]
 [  0.8         23.51580427]
 [  0.9        -41.53779425]
 [  1.         -40.31239806]
 [  1.1         79.50743198]
 [  1.14141667 -12.84080619]]","[[0.         1.51578207]
 [0.1        1.54793346]
 [0.2        1.59239598]
 [0.3        1.00112308]
 [0.4        1.06006715]
 [0.5        0.66047476]
 [0.6        0.15886587]
 [0.7        1.3402371 ]
 [0.8        1.57866238]
 [0.9        0.66862434]
 [1.         0.74779091]
 [1.1        0.1792498 ]
 [1.14141667 0.70819275]]",1,0.307
2,f,31,english,5,3,english,2024-02-09 13:55:12.834847,False,2,319,sounds\french\audio/french_300.wav,"[[  0.          94.68384182]
 [  0.1         43.67173173]
 [  0.2         83.66057135]
 [  0.3         90.66477738]
 [  0.4         33.04822767]
 [  0.5        -39.54628631]
 [  0.6         21.73649473]
 [  0.7        -66.20699618]
 [  0.8        -68.18056654]
 [  0.9         73.28930536]
 [  1.          74.75815468]
 [  1.1        -48.74741599]
 [  1.14141667  11.42157489]]","[[0.         1.20199987]
 [0.1        1.09384491]
 [0.2        1.20858856]
 [0.3        0.61005972]
 [0.4        0.0949671 ]
 [0.5        1.02227962]
 [0.6        1.2482894 ]
 [0.7        0.88228821]
 [0.8        1.15930732]
 [0.9        0.69980892]
 [1.         1.66502361]
 [1.1        1.13907369]
 [1.14141667 1.94543901]]",0,0.764
2,f,31,english,5,3,english,2024-02-09 13:55:12.834847,False,2,320,sounds\french\audio/french_284.wav,"[[  0.          16.48622703]
 [  0.1          2.26495014]
 [  0.2         18.12009667]
 [  0.3         62.57261775]
 [  0.4         38.21878831]
 [  0.5        -10.58729406]
 [  0.6        -28.71227124]
 [  0.7         33.18992905]
 [  0.8         42.51171858]
 [  0.9         -0.53891245]
 [  1.         -90.42609214]
 [  1.1         29.69063186]
 [  1.14141667  74.07567772]]","[[0.         0.51717934]
 [0.1        1.60229173]
 [0.2        1.8758053 ]
 [0.3        1.66078305]
 [0.4        0.36271544]
 [0.5        0.67338252]
 [0.6        0.95589202]
 [0.7        0.48081388]
 [0.8        1.37144398]
 [0.9        0.67164097]
 [1.         0.62108777]
 [1.1        0.42350623]
 [1.14141667 1.43401958]]",0,0.742
2,f,31,english,5,3,english,2024-02-09 13:55:12.834847,False,2,321,sounds\french\audio/french_892.wav,"[[  0.           2.48516085]
 [  0.1        -76.22143396]
 [  0.2         93.28499715]
 [  0.3         12.13691899]
 [  0.4        -69.30233484]
 [  0.5         20.86949567]
 [  0.6        -38.30390535]
 [  0.7        -51.39274588]
 [  0.8         66.90425757]
 [  0.9        -53.91373226]
 [  1.          17.61869839]
 [  1.1        -34.76358151]
 [  1.14141667  15.85772352]]","[[0.         0.58260241]
 [0.1        1.93950295]
 [0.2        0.79251677]
 [0.3        1.61878069]
 [0.4        0.35146725]
 [0.5        1.82455818]
 [0.6        1.06886099]
 [0.7        1.74424774]
 [0.8        1.75805462]
 [0.9        1.69854439]
 [1.         0.60409156]
 [1.1        0.5214224 ]
 [1.14141667 1.48692913]]",1,0.283
2,f,31,english,5,3,english,2024-02-09 13:55:12.834847,False,2,322,sounds\french\audio/french_83.wav,"[[  0.          30.44967783]
 [  0.1         32.59822127]
 [  0.2         50.8682146 ]
 [  0.3          0.11779037]
 [  0.4         16.37029834]
 [  0.5         90.79022832]
 [  0.6        -75.94380669]
 [  0.7         34.13478403]
 [  0.8        -27.50152867]
 [  0.9          9.93495342]
 [  1.          58.3619145 ]
 [  1.1         15.44979308]
 [  1.14141667  13.85594834]]","[[0.         0.42165273]
 [0.1        0.3238076 ]
 [0.2        0.37913611]
 [0.3        0.78724258]
 [0.4        1.0594663 ]
 [0.5        0.48377765]
 [0.6        0.29353951]
 [0.7        1.31767934]
 [0.8        0.23770737]
 [0.9        0.58296712]
 [1.         0.64820026]
 [1.1        0.12158815]
 [1.14141667 0.38899467]]",0,0.368
2,f,31,english,5,3,english,2024-02-09 13:55:12.834847,False,2,323,sounds\french\audio/french_753.wav,"[[  0.         -79.96563984]
 [  0.1          6.89204873]
 [  0.2        -59.04911329]
 [  0.3        -22.29334195]
 [  0.4        -31.81352244]
 [  0.5        -29.50747098]
 [  0.6         27.01274743]
 [  0.7        -52.90572089]
 [  0.8         36.79787763]
 [  0.9         57.30337613]
 [  1.         -47.90339597]
 [  1.1          6.22002638]
 [  1.14141667  84.51773888]]","[[0.         1.05198412]
 [0.1        1.47579936]
 [0.2        1.92899264]
 [0.3        1.69322   ]
 [0.4        0.27967356]
 [0.5        1.20485001]
 [0.6        1.36433783]
 [0.7        0.91134408]
 [0.8        0.73332592]
 [0.9        0.93410667]
 [1.         1.97770738]
 [1.1        0.99208876]
 [1.14141667 0.56874534]]",1,0.625
2,f,31,english,5,3,english,2024-02-09 13:55:12.834847,False,2,324,sounds\french\audio/french_541.wav,"[[  0.           2.74676595]
 [  0.1         83.23215627]
 [  0.2        -19.5310813 ]
 [  0.3        -37.06653527]
 [  0.4         10.34316696]
 [  0.5        -44.77981601]
 [  0.6        -15.46722486]
 [  0.7        -30.03274479]
 [  0.8         32.22050065]
 [  0.9        -28.45977879]
 [  1.         -97.18959003]
 [  1.1         46.93949027]
 [  1.14141667  51.98067408]]","[[0.         1.22388571]
 [0.1        0.59489091]
 [0.2        0.0302362 ]
 [0.3        1.44440055]
 [0.4        0.76671296]
 [0.5        1.21683481]
 [0.6        0.28594328]
 [0.7        1.70659675]
 [0.8        0.5056851 ]
 [0.9        1.08036446]
 [1.         1.82748837]
 [1.1        1.15452478]
 [1.14141667 0.582253  ]]",1,0.279
2,f,31,english,5,3,english,2024-02-09 13:55:12.834847,False,2,325,sounds\french\audio/french_72.wav,"[[  0.          28.80890163]
 [  0.1          1.83594253]
 [  0.2        -49.19445344]
 [  0.3        -70.77665619]
 [  0.4         -7.07365357]
 [  0.5         -3.71167603]
 [  0.6         -5.89788173]
 [  0.7         -8.85470239]
 [  0.8        -41.07718235]
 [  0.9         74.79866108]
 [  1.          67.9411898 ]
 [  1.1        -68.57372393]
 [  1.14141667   4.6478635 ]]","[[0.         0.00807448]
 [0.1        1.18328739]
 [0.2        0.21319227]
 [0.3        1.3297124 ]
 [0.4        0.54545246]
 [0.5        1.13976731]
 [0.6        1.92534018]
 [0.7        1.58910715]
 [0.8        0.82088611]
 [0.9        1.16352624]
 [1.         0.62223628]
 [1.1        1.92120245]
 [1.14141667 0.9834755 ]]",1,2.597
2,f,31,english,5,3,english,2024-02-09 13:55:12.834847,False,2,326,sounds\french\audio/french_449.wav,"[[  0.          48.07237211]
 [  0.1         10.50044698]
 [  0.2         99.10264915]
 [  0.3         44.97033086]
 [  0.4        -41.32684653]
 [  0.5        -79.7525466 ]
 [  0.6         50.40932694]
 [  0.7         52.6193965 ]
 [  0.8        -15.31474709]
 [  0.9        -28.04173939]
 [  1.           9.78914311]
 [  1.1        -78.00931625]
 [  1.14141667 -11.66917093]]","[[0.         1.574298  ]
 [0.1        0.465888  ]
 [0.2        1.49470087]
 [0.3        1.26780995]
 [0.4        0.48746737]
 [0.5        0.73531069]
 [0.6        0.94941626]
 [0.7        1.08611184]
 [0.8        0.81949253]
 [0.9        1.27162102]
 [1.         1.38692301]
 [1.1        0.89469579]
 [1.14141667 1.6806745 ]]",1,0.8
2,f,31,english,5,3,english,2024-02-09 13:55:12.834847,False,2,327,sounds\french\audio/french_370.wav,"[[  0.          94.69193791]
 [  0.1        -34.36771105]
 [  0.2         55.68663638]
 [  0.3         86.0282476 ]
 [  0.4        -27.64418732]
 [  0.5          2.79773792]
 [  0.6         23.29524749]
 [  0.7         19.50655052]
 [  0.8         27.94648957]
 [  0.9        -49.49366589]
 [  1.          76.55940537]
 [  1.1         64.74077084]
 [  1.14141667 -14.36009756]]","[[0.         1.31620058]
 [0.1        1.0910653 ]
 [0.2        1.59108786]
 [0.3        0.66651246]
 [0.4        0.77217464]
 [0.5        1.2458794 ]
 [0.6        0.78783747]
 [0.7        1.5969386 ]
 [0.8        0.07582998]
 [0.9        1.5026642 ]
 [1.         1.33889054]
 [1.1        1.0242803 ]
 [1.14141667 1.81581141]]",0,0.141
2,f,31,english,5,3,english,2024-02-09 13:55:12.834847,False,2,328,sounds\french\audio/french_652.wav,"[[  0.         -64.34245078]
 [  0.1         36.64819292]
 [  0.2         94.39930996]
 [  0.3        -83.22796631]
 [  0.4        -63.44049695]
 [  0.5        -21.86417372]
 [  0.6        -52.40579631]
 [  0.7         52.60731432]
 [  0.8         82.26732634]
 [  0.9        -66.56660682]
 [  1.          93.91460513]
 [  1.1        -23.42883906]
 [  1.14141667 -61.50549834]]","[[0.         0.17219181]
 [0.1        0.49943741]
 [0.2        1.4050061 ]
 [0.3        0.74775149]
 [0.4        0.98675799]
 [0.5        0.11455054]
 [0.6        1.43554655]
 [0.7        0.71254102]
 [0.8        0.77312084]
 [0.9        0.00594099]
 [1.         0.65440972]
 [1.1        1.76783286]
 [1.14141667 1.41039415]]",1,0.178
2,f,31,english,5,3,english,2024-02-09 13:55:12.834847,False,2,329,sounds\french\audio/french_155.wav,"[[  0.         -92.78133148]
 [  0.1         20.93258494]
 [  0.2        -47.18952132]
 [  0.3         87.6623856 ]
 [  0.4         53.55190164]
 [  0.5         73.72044222]
 [  0.6         13.17734525]
 [  0.7         33.07505579]
 [  0.8         11.21533307]
 [  0.9        -11.15187706]
 [  1.          62.83057895]
 [  1.1          5.84907356]
 [  1.14141667 -41.38043494]]","[[0.         0.96654008]
 [0.1        1.69709924]
 [0.2        1.53182227]
 [0.3        0.2401229 ]
 [0.4        0.46921424]
 [0.5        1.76971401]
 [0.6        0.8491776 ]
 [0.7        1.18179357]
 [0.8        0.90499885]
 [0.9        0.79006401]
 [1.         1.00554233]
 [1.1        1.3461564 ]
 [1.14141667 0.10111809]]",0,0.768
2,f,31,english,5,3,english,2024-02-09 13:55:12.834847,False,2,330,sounds\french\audio/french_8.wav,"[[  0.          29.87385678]
 [  0.1         -3.65385888]
 [  0.2         20.76458152]
 [  0.3        -24.72434665]
 [  0.4         94.1074102 ]
 [  0.5        -73.60935749]
 [  0.6         79.05229915]
 [  0.7        -23.70127853]
 [  0.8        -24.8003351 ]
 [  0.9        -11.25394398]
 [  1.         -86.90808114]
 [  1.1         19.56164583]
 [  1.14141667  97.75645862]]","[[0.         1.00961104]
 [0.1        0.57995768]
 [0.2        0.32179014]
 [0.3        1.30213617]
 [0.4        0.70211569]
 [0.5        1.57277834]
 [0.6        0.53451743]
 [0.7        0.94827227]
 [0.8        0.73750596]
 [0.9        1.88096631]
 [1.         1.57496214]
 [1.1        1.34018823]
 [1.14141667 0.99774717]]",1,2.166
2,f,31,english,5,3,english,2024-02-09 13:55:12.834847,False,2,331,sounds\french\audio/french_163.wav,"[[  0.         -54.18087261]
 [  0.1         16.52339616]
 [  0.2        -81.79229621]
 [  0.3        -16.22352484]
 [  0.4         58.55115093]
 [  0.5         66.43980446]
 [  0.6         70.08690973]
 [  0.7          0.21359559]
 [  0.8         -1.74176691]
 [  0.9        -18.30540854]
 [  1.         -46.68759163]
 [  1.1         -9.78920497]
 [  1.14141667  74.28807409]]","[[0.         1.1359435 ]
 [0.1        0.63765305]
 [0.2        1.13865233]
 [0.3        0.41075248]
 [0.4        1.28098279]
 [0.5        1.3514993 ]
 [0.6        1.92825974]
 [0.7        1.1981292 ]
 [0.8        0.77184811]
 [0.9        1.15917036]
 [1.         0.4764557 ]
 [1.1        0.00915949]
 [1.14141667 1.50578286]]",0,0.823
2,f,31,english,5,3,english,2024-02-09 13:55:12.834847,False,2,332,sounds\french\audio/french_941.wav,"[[  0.          12.71352542]
 [  0.1        -51.14532839]
 [  0.2         81.02604724]
 [  0.3        -13.46587663]
 [  0.4         65.75240794]
 [  0.5          7.20435309]
 [  0.6         14.75981975]
 [  0.7        -19.14841244]
 [  0.8         80.51273253]
 [  0.9        -14.36108603]
 [  1.          -1.28463364]
 [  1.1        -80.06594385]
 [  1.14141667   3.50926186]]","[[0.         1.95653793]
 [0.1        0.17041659]
 [0.2        0.4421366 ]
 [0.3        0.0592036 ]
 [0.4        0.23397067]
 [0.5        0.08731653]
 [0.6        0.00308342]
 [0.7        1.15000304]
 [0.8        1.41865084]
 [0.9        1.30569353]
 [1.         1.07408693]
 [1.1        1.69135614]
 [1.14141667 0.25602014]]",0,2.246
2,f,31,english,5,3,english,2024-02-09 13:55:12.834847,False,2,333,sounds\french\audio/french_218.wav,"[[  0.         -65.19227421]
 [  0.1         34.40906095]
 [  0.2         72.03278264]
 [  0.3        -93.25918193]
 [  0.4        -48.17760156]
 [  0.5        -59.28864978]
 [  0.6        -60.96829321]
 [  0.7        -58.25364253]
 [  0.8        -53.24962366]
 [  0.9         31.56599557]
 [  1.          -2.35908096]
 [  1.1        -37.19614485]
 [  1.14141667 -40.34637593]]","[[0.         0.61249192]
 [0.1        0.29665162]
 [0.2        1.48815427]
 [0.3        0.64038213]
 [0.4        1.87335219]
 [0.5        0.64122513]
 [0.6        0.74305484]
 [0.7        0.67858591]
 [0.8        1.61300975]
 [0.9        1.99040507]
 [1.         0.02061714]
 [1.1        1.34418041]
 [1.14141667 1.11042485]]",1,0.093
2,f,31,english,5,3,english,2024-02-09 13:55:12.834847,False,2,334,sounds\french\audio/french_244.wav,"[[  0.         -40.90857257]
 [  0.1        -23.19940354]
 [  0.2         -9.74154174]
 [  0.3         87.19522638]
 [  0.4         -7.49916647]
 [  0.5        -95.1828161 ]
 [  0.6        -18.16824401]
 [  0.7        -82.50536742]
 [  0.8        -31.01536133]
 [  0.9        -10.22104565]
 [  1.         -10.44065108]
 [  1.1        -73.85387114]
 [  1.14141667 -85.30185074]]","[[0.         1.48710022]
 [0.1        1.78796145]
 [0.2        0.48835371]
 [0.3        1.90695857]
 [0.4        0.52976083]
 [0.5        1.55056133]
 [0.6        0.52884278]
 [0.7        1.94726977]
 [0.8        1.32231376]
 [0.9        0.62488791]
 [1.         0.52375366]
 [1.1        0.61432095]
 [1.14141667 1.48327973]]",1,0.826
2,f,31,english,5,3,english,2024-02-09 13:55:12.834847,False,2,335,sounds\french\audio/french_557.wav,"[[  0.          87.75716143]
 [  0.1         75.58973606]
 [  0.2        -10.41118754]
 [  0.3        -48.91892045]
 [  0.4        -17.3468807 ]
 [  0.5         34.22726799]
 [  0.6        -77.53700308]
 [  0.7         78.68416949]
 [  0.8        -43.34644419]
 [  0.9         68.78190397]
 [  1.         -59.83661076]
 [  1.1        -25.29215861]
 [  1.14141667  62.84029703]]","[[0.         1.51726274]
 [0.1        0.82672788]
 [0.2        0.29594779]
 [0.3        1.45862429]
 [0.4        0.77182158]
 [0.5        0.29571527]
 [0.6        1.00868641]
 [0.7        0.49328713]
 [0.8        0.40883898]
 [0.9        1.05980011]
 [1.         1.00265193]
 [1.1        0.2775648 ]
 [1.14141667 0.76714815]]",0,0.673
2,f,31,english,5,3,english,2024-02-09 13:55:12.834847,False,2,336,sounds\french\audio/french_854.wav,"[[  0.         -84.34166264]
 [  0.1         84.957105  ]
 [  0.2        -75.25231073]
 [  0.3         65.5230415 ]
 [  0.4         19.1345831 ]
 [  0.5        -49.51780093]
 [  0.6        -99.22511646]
 [  0.7         68.97565422]
 [  0.8        -53.31062312]
 [  0.9          1.33468715]
 [  1.           0.86331226]
 [  1.1         43.96559109]
 [  1.14141667  26.73107262]]","[[0.         1.84057999]
 [0.1        0.73718017]
 [0.2        1.41154928]
 [0.3        1.17124469]
 [0.4        0.72588649]
 [0.5        1.4038491 ]
 [0.6        1.40303457]
 [0.7        1.27711643]
 [0.8        0.55715751]
 [0.9        1.82879395]
 [1.         1.15444978]
 [1.1        0.64968484]
 [1.14141667 0.58965928]]",1,0.08
2,f,31,english,5,3,english,2024-02-09 13:55:12.834847,False,2,337,sounds\french\audio/french_484.wav,"[[  0.           6.83265532]
 [  0.1         83.49239965]
 [  0.2         70.78725764]
 [  0.3         -5.74370192]
 [  0.4        -22.9215122 ]
 [  0.5        -48.70720534]
 [  0.6        -87.25700763]
 [  0.7         52.63394188]
 [  0.8        -28.78801854]
 [  0.9        -24.7890616 ]
 [  1.         -91.46030438]
 [  1.1        -55.41551793]
 [  1.14141667  -9.9830909 ]]","[[0.         0.52592683]
 [0.1        0.84238665]
 [0.2        0.69533335]
 [0.3        0.62368717]
 [0.4        1.93129742]
 [0.5        0.19717675]
 [0.6        1.0051103 ]
 [0.7        1.34413016]
 [0.8        0.80549785]
 [0.9        0.42644713]
 [1.         0.67801753]
 [1.1        1.05030172]
 [1.14141667 0.06913333]]",1,0.292
2,f,31,english,5,3,english,2024-02-09 13:55:12.834847,False,2,338,sounds\french\audio/french_900.wav,"[[  0.          17.12559696]
 [  0.1        -56.5671441 ]
 [  0.2         14.51884338]
 [  0.3        -18.58724125]
 [  0.4         60.24825847]
 [  0.5         37.11732505]
 [  0.6         64.67645387]
 [  0.7        -71.32739236]
 [  0.8        -29.12352211]
 [  0.9        -23.92624308]
 [  1.         -44.03405283]
 [  1.1        -24.43123867]
 [  1.14141667  85.71719888]]","[[0.         0.28086039]
 [0.1        0.25898492]
 [0.2        0.73738281]
 [0.3        0.53194872]
 [0.4        1.1731198 ]
 [0.5        1.44096814]
 [0.6        1.04426766]
 [0.7        1.30561608]
 [0.8        0.38583175]
 [0.9        1.06522554]
 [1.         1.24631605]
 [1.1        0.11257647]
 [1.14141667 1.16173008]]",1,0.662
2,f,31,english,5,3,english,2024-02-09 13:55:12.834847,False,2,339,sounds\french\audio/french_42.wav,"[[  0.         -33.44516667]
 [  0.1        -18.2362548 ]
 [  0.2         70.60331137]
 [  0.3         15.02229491]
 [  0.4         13.99889807]
 [  0.5          8.49741074]
 [  0.6        -62.69867685]
 [  0.7        -88.15009816]
 [  0.8        -56.36247825]
 [  0.9        -57.25753142]
 [  1.          79.34275566]
 [  1.1        -83.70982002]
 [  1.14141667  63.35287438]]","[[0.         1.55856446]
 [0.1        1.2097728 ]
 [0.2        0.78889557]
 [0.3        0.44641372]
 [0.4        0.084883  ]
 [0.5        0.91437331]
 [0.6        0.35744041]
 [0.7        1.68547632]
 [0.8        0.07992016]
 [0.9        0.30520065]
 [1.         1.86650183]
 [1.1        1.79164729]
 [1.14141667 0.80936933]]",1,0.407
2,f,31,english,5,3,english,2024-02-09 13:55:12.834847,False,2,340,sounds\french\audio/french_432.wav,"[[  0.         -13.91062225]
 [  0.1        -82.56051769]
 [  0.2        -16.34612815]
 [  0.3        -18.61613947]
 [  0.4         70.22209582]
 [  0.5         43.80580465]
 [  0.6        -35.51711529]
 [  0.7        -33.99307878]
 [  0.8        -14.14480715]
 [  0.9        -36.22749016]
 [  1.         -76.28241787]
 [  1.1         -7.27152662]
 [  1.14141667  98.36339336]]","[[0.         1.50688041]
 [0.1        0.64111925]
 [0.2        1.44315923]
 [0.3        0.86557463]
 [0.4        0.59561585]
 [0.5        0.12896306]
 [0.6        0.9391402 ]
 [0.7        1.13995098]
 [0.8        0.92943521]
 [0.9        0.65373022]
 [1.         0.68989301]
 [1.1        1.44596554]
 [1.14141667 0.49259364]]",0,0.144
2,f,31,english,5,3,english,2024-02-09 13:55:12.834847,False,2,341,sounds\french\audio/french_300.wav,"[[  0.          94.68384182]
 [  0.1         43.67173173]
 [  0.2         83.66057135]
 [  0.3         90.66477738]
 [  0.4         33.04822767]
 [  0.5        -39.54628631]
 [  0.6         21.73649473]
 [  0.7        -66.20699618]
 [  0.8        -68.18056654]
 [  0.9         73.28930536]
 [  1.          74.75815468]
 [  1.1        -48.74741599]
 [  1.14141667  11.42157489]]","[[0.         1.20199987]
 [0.1        1.09384491]
 [0.2        1.20858856]
 [0.3        0.61005972]
 [0.4        0.0949671 ]
 [0.5        1.02227962]
 [0.6        1.2482894 ]
 [0.7        0.88228821]
 [0.8        1.15930732]
 [0.9        0.69980892]
 [1.         1.66502361]
 [1.1        1.13907369]
 [1.14141667 1.94543901]]",0,1.405
2,f,31,english,5,3,english,2024-02-09 13:55:12.834847,False,2,342,sounds\french\audio/french_478.wav,"[[  0.         -72.19964684]
 [  0.1        -99.87964111]
 [  0.2        -63.34716388]
 [  0.3         17.36444534]
 [  0.4        -25.72550577]
 [  0.5        -48.00577525]
 [  0.6         13.9947126 ]
 [  0.7         86.77654288]
 [  0.8         16.82909399]
 [  0.9         68.75229929]
 [  1.          21.5230244 ]
 [  1.1         -9.12599625]
 [  1.14141667   8.60281387]]","[[0.         1.42839019]
 [0.1        0.90909804]
 [0.2        1.91941339]
 [0.3        0.95945943]
 [0.4        1.81046134]
 [0.5        1.06825926]
 [0.6        1.93650413]
 [0.7        0.88286461]
 [0.8        1.93073187]
 [0.9        1.69789271]
 [1.         0.43652705]
 [1.1        0.45419227]
 [1.14141667 1.80203488]]",0,0.933
2,f,31,english,5,3,english,2024-02-09 13:55:12.834847,False,2,343,sounds\french\audio/french_949.wav,"[[  0.         -19.05595024]
 [  0.1        -75.2439284 ]
 [  0.2         73.58371037]
 [  0.3         72.8422127 ]
 [  0.4         87.31483881]
 [  0.5         88.67402032]
 [  0.6         91.38706715]
 [  0.7         90.60838166]
 [  0.8        -56.24221492]
 [  0.9        -99.28918443]
 [  1.          35.48222753]
 [  1.1         31.92310883]
 [  1.14141667 -76.51594679]]","[[0.         0.68019134]
 [0.1        1.48812532]
 [0.2        1.47426358]
 [0.3        1.18227817]
 [0.4        0.74535438]
 [0.5        0.76739834]
 [0.6        0.06667957]
 [0.7        1.82416942]
 [0.8        0.37839273]
 [0.9        1.88338523]
 [1.         1.00153988]
 [1.1        0.82891918]
 [1.14141667 0.92801119]]",0,1.513
2,f,31,english,5,3,english,2024-02-09 13:55:12.834847,False,2,344,sounds\french\audio/french_635.wav,"[[  0.         -32.006425  ]
 [  0.1         98.74707192]
 [  0.2         19.43104605]
 [  0.3        -83.9130263 ]
 [  0.4        -14.55275882]
 [  0.5        -34.15529229]
 [  0.6         22.38890545]
 [  0.7        -11.42027576]
 [  0.8         88.98766127]
 [  0.9        -94.51548481]
 [  1.         -45.63563989]
 [  1.1         27.73920543]
 [  1.14141667 -59.05501484]]","[[0.         0.3460517 ]
 [0.1        1.36854871]
 [0.2        0.57268428]
 [0.3        1.65457572]
 [0.4        1.20009912]
 [0.5        0.09946247]
 [0.6        0.27678562]
 [0.7        0.68226029]
 [0.8        0.27295014]
 [0.9        1.75198478]
 [1.         0.9844266 ]
 [1.1        0.17766763]
 [1.14141667 0.29826397]]",1,0.282
2,f,31,english,5,3,english,2024-02-09 13:55:12.834847,False,2,345,sounds\french\audio/french_274.wav,"[[  0.          11.34851872]
 [  0.1         13.75361052]
 [  0.2         -0.75190247]
 [  0.3         -4.16246796]
 [  0.4         18.70806668]
 [  0.5         47.88190006]
 [  0.6        -89.77923631]
 [  0.7         -0.8025892 ]
 [  0.8        -59.16372517]
 [  0.9        -28.1266963 ]
 [  1.         -15.26675969]
 [  1.1         27.54287848]
 [  1.14141667  84.80385161]]","[[0.         0.92432066]
 [0.1        1.08642525]
 [0.2        1.84874711]
 [0.3        1.98932462]
 [0.4        0.96958415]
 [0.5        0.47164432]
 [0.6        1.74396934]
 [0.7        0.78095143]
 [0.8        1.62764069]
 [0.9        1.67337912]
 [1.         1.21050795]
 [1.1        1.43502167]
 [1.14141667 1.62747772]]",1,0.143
2,f,31,english,5,3,english,2024-02-09 13:55:12.834847,False,2,346,sounds\french\audio/french_470.wav,"[[  0.         -35.19014481]
 [  0.1        -11.1101007 ]
 [  0.2        -73.86570158]
 [  0.3         -1.44470238]
 [  0.4        -96.07839084]
 [  0.5         70.99649813]
 [  0.6         55.77361877]
 [  0.7        -22.19728159]
 [  0.8        -72.44437958]
 [  0.9         80.41886886]
 [  1.         -11.71477961]
 [  1.1        -62.42849441]
 [  1.14141667  98.36646491]]","[[0.         1.94208233]
 [0.1        1.24726807]
 [0.2        1.04117415]
 [0.3        1.14948121]
 [0.4        0.66081228]
 [0.5        0.84071929]
 [0.6        1.10459164]
 [0.7        0.42902866]
 [0.8        1.72163831]
 [0.9        1.68101907]
 [1.         0.03811178]
 [1.1        1.9717108 ]
 [1.14141667 0.38277799]]",1,0.818
2,f,31,english,5,3,english,2024-02-09 13:55:12.834847,False,2,347,sounds\french\audio/french_751.wav,"[[  0.         -53.65501636]
 [  0.1        -57.87906463]
 [  0.2         -0.82566028]
 [  0.3        -77.31457628]
 [  0.4        -35.09433893]
 [  0.5        -15.70401626]
 [  0.6        -38.79526926]
 [  0.7         67.92736975]
 [  0.8         36.51373284]
 [  0.9        -45.40608101]
 [  1.          98.20599699]
 [  1.1        -73.08267469]
 [  1.14141667  90.55001698]]","[[0.         0.39280002]
 [0.1        1.10814523]
 [0.2        1.51148642]
 [0.3        1.64295454]
 [0.4        0.27420827]
 [0.5        0.92339785]
 [0.6        1.61669488]
 [0.7        0.84098062]
 [0.8        0.94117021]
 [0.9        1.18438584]
 [1.         0.46277716]
 [1.1        1.11077822]
 [1.14141667 0.9464581 ]]",1,0.412
2,f,31,english,5,3,english,2024-02-09 13:55:12.834847,False,2,348,sounds\french\audio/french_674.wav,"[[  0.          13.4877762 ]
 [  0.1        -72.71286041]
 [  0.2         25.25285257]
 [  0.3        -18.45415803]
 [  0.4        -57.71656378]
 [  0.5        -73.49162441]
 [  0.6         -1.85504026]
 [  0.7        -87.1412738 ]
 [  0.8        -35.96348726]
 [  0.9        -95.42427093]
 [  1.         -14.54067517]
 [  1.1        -75.28735124]
 [  1.14141667 -11.45770391]]","[[0.         1.49229311]
 [0.1        0.38255489]
 [0.2        1.8939445 ]
 [0.3        1.35404975]
 [0.4        1.2879641 ]
 [0.5        1.75487552]
 [0.6        0.89488389]
 [0.7        0.66012514]
 [0.8        0.42860271]
 [0.9        0.95081491]
 [1.         1.48593936]
 [1.1        0.17038498]
 [1.14141667 1.04908179]]",1,0.489
2,f,31,english,5,3,english,2024-02-09 13:55:12.834847,False,2,349,sounds\french\audio/french_518.wav,"[[  0.          27.38004062]
 [  0.1        -45.86745423]
 [  0.2         78.3464934 ]
 [  0.3        -70.29897964]
 [  0.4         86.14880636]
 [  0.5         23.29865709]
 [  0.6         -3.75390224]
 [  0.7         83.8158198 ]
 [  0.8        -21.16138564]
 [  0.9         34.2611002 ]
 [  1.          41.52159769]
 [  1.1          4.93006595]
 [  1.14141667  78.89452488]]","[[0.         1.68655308]
 [0.1        0.51451051]
 [0.2        1.5831582 ]
 [0.3        1.25854148]
 [0.4        0.9585938 ]
 [0.5        1.97703797]
 [0.6        0.56549826]
 [0.7        0.40821292]
 [0.8        1.37304062]
 [0.9        0.76155801]
 [1.         0.54635275]
 [1.1        1.0861576 ]
 [1.14141667 1.48497475]]",0,0.061
2,f,31,english,5,3,english,2024-02-09 13:55:12.834847,False,2,350,sounds\french\audio/french_473.wav,"[[  0.          50.01523935]
 [  0.1        -64.67579772]
 [  0.2        -31.43801134]
 [  0.3        -70.56869523]
 [  0.4        -87.96841964]
 [  0.5        -12.32804872]
 [  0.6        -23.90580861]
 [  0.7        -54.03461687]
 [  0.8         36.58781124]
 [  0.9         28.20274702]
 [  1.          41.29082623]
 [  1.1         49.67522961]
 [  1.14141667 -27.29354581]]","[[0.         1.1541721 ]
 [0.1        0.28032856]
 [0.2        1.90137308]
 [0.3        1.26174236]
 [0.4        0.63644888]
 [0.5        0.61660593]
 [0.6        0.89624074]
 [0.7        1.9990991 ]
 [0.8        1.26440243]
 [0.9        1.71390082]
 [1.         0.56419686]
 [1.1        1.08390151]
 [1.14141667 0.77008497]]",0,0.394
2,f,31,english,5,3,english,2024-02-09 13:55:12.834847,False,2,351,sounds\french\audio/french_336.wav,"[[  0.          -3.49855302]
 [  0.1         77.11244702]
 [  0.2         49.3584771 ]
 [  0.3         99.07893896]
 [  0.4         80.33145926]
 [  0.5        -72.33983633]
 [  0.6        -12.14115992]
 [  0.7         19.51190225]
 [  0.8        -68.21572205]
 [  0.9         31.67720139]
 [  1.           3.5194692 ]
 [  1.1         24.82934542]
 [  1.14141667 -15.89202508]]","[[0.         0.87245658]
 [0.1        0.41744938]
 [0.2        0.20457178]
 [0.3        0.55253263]
 [0.4        1.25203629]
 [0.5        1.71356084]
 [0.6        0.2889277 ]
 [0.7        0.30300203]
 [0.8        0.49317088]
 [0.9        1.98398172]
 [1.         0.93143584]
 [1.1        1.56744208]
 [1.14141667 0.9198954 ]]",1,0.199
2,f,31,english,5,3,english,2024-02-09 13:55:12.834847,False,2,352,sounds\french\audio/french_994.wav,"[[  0.         -13.19223039]
 [  0.1         22.42894848]
 [  0.2         96.57225016]
 [  0.3        -92.26156685]
 [  0.4         38.37731984]
 [  0.5         55.45251126]
 [  0.6         83.22524274]
 [  0.7         -6.38918762]
 [  0.8         -9.25087615]
 [  0.9          1.142834  ]
 [  1.         -14.25336243]
 [  1.1         83.86992227]
 [  1.14141667  46.80314452]]","[[0.         1.28697486]
 [0.1        1.16353002]
 [0.2        1.32994967]
 [0.3        1.53348662]
 [0.4        1.83809634]
 [0.5        1.30657224]
 [0.6        1.54447693]
 [0.7        1.7500677 ]
 [0.8        0.96606125]
 [0.9        0.23131782]
 [1.         0.54073787]
 [1.1        0.44425687]
 [1.14141667 0.67978189]]",0,0.599
2,f,31,english,5,3,english,2024-02-09 13:55:12.834847,False,2,353,sounds\french\audio/french_886.wav,"[[  0.          -3.07847079]
 [  0.1         22.70145426]
 [  0.2         32.76367051]
 [  0.3        -31.71032565]
 [  0.4        -28.18750434]
 [  0.5        -18.1748931 ]
 [  0.6        -27.03025386]
 [  0.7         12.34522068]
 [  0.8         20.95996339]
 [  0.9         17.46922546]
 [  1.         -31.18262411]
 [  1.1         16.14877288]
 [  1.14141667 -36.04372934]]","[[0.         0.23703277]
 [0.1        1.62366196]
 [0.2        0.51146608]
 [0.3        0.96426713]
 [0.4        0.43793295]
 [0.5        1.33868978]
 [0.6        0.31800764]
 [0.7        1.44789936]
 [0.8        1.67391832]
 [0.9        1.19275698]
 [1.         0.34476604]
 [1.1        1.95768513]
 [1.14141667 1.10523987]]",0,0.237
2,f,31,english,5,3,english,2024-02-09 13:55:12.834847,False,2,354,sounds\french\audio/french_733.wav,"[[  0.         -28.30259207]
 [  0.1        -20.51655877]
 [  0.2         32.67834183]
 [  0.3          6.62547625]
 [  0.4        -74.88223305]
 [  0.5         78.7904108 ]
 [  0.6         92.741833  ]
 [  0.7        -51.74379755]
 [  0.8          0.26100759]
 [  0.9         80.00528442]
 [  1.         -20.98835091]
 [  1.1        -67.79194344]
 [  1.14141667  20.39044297]]","[[0.         0.49045242]
 [0.1        0.41105181]
 [0.2        0.51992236]
 [0.3        0.5442563 ]
 [0.4        1.50191258]
 [0.5        0.7960124 ]
 [0.6        1.55647812]
 [0.7        0.75813018]
 [0.8        1.97775979]
 [0.9        1.24266335]
 [1.         0.70545845]
 [1.1        0.86751529]
 [1.14141667 1.05140742]]",1,0.184
2,f,31,english,5,3,english,2024-02-09 13:55:12.834847,False,2,355,sounds\french\audio/french_324.wav,"[[  0.          29.48435579]
 [  0.1        -12.86077023]
 [  0.2         46.37578497]
 [  0.3        -59.94288497]
 [  0.4        -53.99559511]
 [  0.5         45.88563697]
 [  0.6        -44.14854504]
 [  0.7        -61.31230077]
 [  0.8         44.45043245]
 [  0.9         -5.57853866]
 [  1.          59.99037779]
 [  1.1        -49.32219251]
 [  1.14141667  81.26576792]]","[[0.         0.24977075]
 [0.1        0.60660691]
 [0.2        0.99456154]
 [0.3        0.72384829]
 [0.4        1.72248011]
 [0.5        1.3825471 ]
 [0.6        1.83694132]
 [0.7        1.25302686]
 [0.8        0.61220659]
 [0.9        1.12870649]
 [1.         1.29442933]
 [1.1        1.14424628]
 [1.14141667 1.85932034]]",1,0.109
2,f,31,english,5,3,english,2024-02-09 13:55:12.834847,False,2,356,sounds\french\audio/french_434.wav,"[[  0.          83.22064209]
 [  0.1         25.82279266]
 [  0.2        -83.78660265]
 [  0.3        -88.71037445]
 [  0.4        -25.11946458]
 [  0.5        -32.29289083]
 [  0.6         -5.66379258]
 [  0.7         19.8755327 ]
 [  0.8        -77.8746618 ]
 [  0.9         37.7335618 ]
 [  1.         -45.35644981]
 [  1.1          5.10747421]
 [  1.14141667  68.71172413]]","[[0.         0.35182135]
 [0.1        1.40300106]
 [0.2        0.21446129]
 [0.3        1.56833652]
 [0.4        0.50116285]
 [0.5        0.47629771]
 [0.6        1.62608898]
 [0.7        0.55661978]
 [0.8        0.6727298 ]
 [0.9        1.74274249]
 [1.         0.39098492]
 [1.1        1.6393156 ]
 [1.14141667 1.24158376]]",1,0.25
2,f,31,english,5,3,english,2024-02-09 13:55:12.834847,False,2,357,sounds\french\audio/french_442.wav,"[[  0.          59.89348182]
 [  0.1        -90.19745983]
 [  0.2         34.97525188]
 [  0.3        -60.10498495]
 [  0.4        -52.20535883]
 [  0.5         33.32923329]
 [  0.6        -72.02089693]
 [  0.7         15.91732192]
 [  0.8         49.50947125]
 [  0.9        -96.72595223]
 [  1.          12.6942829 ]
 [  1.1        -57.11899111]
 [  1.14141667  36.89213251]]","[[0.         1.93338354]
 [0.1        0.1221368 ]
 [0.2        1.40375233]
 [0.3        0.23715052]
 [0.4        0.86935067]
 [0.5        1.40007492]
 [0.6        1.87875592]
 [0.7        1.15703728]
 [0.8        1.45583236]
 [0.9        0.52053121]
 [1.         0.18849311]
 [1.1        1.67578542]
 [1.14141667 0.36635536]]",0,0.182
2,f,31,english,5,3,english,2024-02-09 13:55:12.834847,False,2,358,sounds\french\audio/french_649.wav,"[[  0.         -14.63575946]
 [  0.1         87.90447506]
 [  0.2         16.67284582]
 [  0.3         66.15245768]
 [  0.4        -20.15560471]
 [  0.5        -60.0326813 ]
 [  0.6         31.72800587]
 [  0.7        -60.07829106]
 [  0.8         15.50516257]
 [  0.9        -42.6229878 ]
 [  1.          78.15416518]
 [  1.1         46.83392995]
 [  1.14141667  39.79631616]]","[[0.         1.48016251]
 [0.1        1.99171813]
 [0.2        0.37897864]
 [0.3        1.28017908]
 [0.4        0.5887237 ]
 [0.5        1.90797715]
 [0.6        0.19529448]
 [0.7        1.64301184]
 [0.8        1.80534623]
 [0.9        0.7062957 ]
 [1.         1.55899311]
 [1.1        1.39425951]
 [1.14141667 1.94277347]]",1,0.025
2,f,31,english,5,3,english,2024-02-09 13:55:12.834847,False,2,359,sounds\french\audio/french_983.wav,"[[  0.         -58.740306  ]
 [  0.1         86.62100381]
 [  0.2         72.28686739]
 [  0.3         40.58051416]
 [  0.4        -24.25700788]
 [  0.5         71.71663195]
 [  0.6        -12.96137505]
 [  0.7        -82.1836976 ]
 [  0.8        -24.9069762 ]
 [  0.9         55.25058614]
 [  1.          73.77815743]
 [  1.1         32.70068021]
 [  1.14141667 -94.39337182]]","[[0.         1.29800401]
 [0.1        0.11364498]
 [0.2        1.04246937]
 [0.3        0.31985263]
 [0.4        0.23068067]
 [0.5        1.2336031 ]
 [0.6        1.36252466]
 [0.7        1.78793687]
 [0.8        0.590606  ]
 [0.9        0.99616144]
 [1.         0.61804154]
 [1.1        1.49661667]
 [1.14141667 0.91742292]]",1,0.763
2,f,31,english,5,3,english,2024-02-09 13:55:12.834847,False,2,360,sounds\french\audio/french_618.wav,"[[  0.          20.05983972]
 [  0.1         58.91310592]
 [  0.2          6.72731042]
 [  0.3        -78.89679785]
 [  0.4         -8.33733298]
 [  0.5         65.10342581]
 [  0.6        -94.00807668]
 [  0.7         82.41977933]
 [  0.8         21.24581957]
 [  0.9         66.30338575]
 [  1.          35.04204865]
 [  1.1          4.02018466]
 [  1.14141667 -34.41646074]]","[[0.         0.17568044]
 [0.1        0.80933432]
 [0.2        1.75957191]
 [0.3        1.21569199]
 [0.4        0.08695144]
 [0.5        0.71252573]
 [0.6        1.00569246]
 [0.7        1.1966004 ]
 [0.8        1.80975739]
 [0.9        1.67881476]
 [1.         1.40354146]
 [1.1        1.74539239]
 [1.14141667 1.86292193]]",1,0.226
2,f,31,english,5,3,english,2024-02-09 13:55:12.834847,False,2,361,sounds\french\audio/french_864.wav,"[[  0.          86.44994592]
 [  0.1          7.63178802]
 [  0.2        -68.95019939]
 [  0.3        -19.25414858]
 [  0.4          5.39546389]
 [  0.5         20.19612144]
 [  0.6         88.15131552]
 [  0.7         84.05133241]
 [  0.8         18.28772813]
 [  0.9         -3.11882385]
 [  1.          81.34502304]
 [  1.1         18.48433462]
 [  1.14141667 -13.70994255]]","[[0.         1.69194736]
 [0.1        0.83872638]
 [0.2        0.55238716]
 [0.3        1.64450662]
 [0.4        0.91876663]
 [0.5        0.91460909]
 [0.6        0.72746198]
 [0.7        1.17210229]
 [0.8        0.48759889]
 [0.9        0.4590784 ]
 [1.         1.36208331]
 [1.1        1.07205194]
 [1.14141667 1.11587149]]",0,0.164
2,f,31,english,5,3,english,2024-02-09 13:55:12.834847,False,2,362,sounds\french\audio/french_832.wav,"[[  0.          91.0527066 ]
 [  0.1         81.34489264]
 [  0.2        -86.56561318]
 [  0.3        -43.6384995 ]
 [  0.4         -3.86140287]
 [  0.5        -46.47584724]
 [  0.6         26.21054023]
 [  0.7         -7.97620619]
 [  0.8        -44.06854856]
 [  0.9         67.56057024]
 [  1.          18.72374301]
 [  1.1         63.82788243]
 [  1.14141667  39.42882806]]","[[0.         0.72562781]
 [0.1        1.2636831 ]
 [0.2        1.27276517]
 [0.3        1.32313041]
 [0.4        0.50543619]
 [0.5        1.67911748]
 [0.6        0.57077104]
 [0.7        0.53964491]
 [0.8        0.54391344]
 [0.9        0.84820335]
 [1.         0.25451187]
 [1.1        0.43623373]
 [1.14141667 1.51526849]]",0,1.49
2,f,31,english,5,3,english,2024-02-09 13:55:12.834847,False,2,363,sounds\french\audio/french_770.wav,"[[  0.          -6.4888623 ]
 [  0.1         10.25935382]
 [  0.2        -98.41393192]
 [  0.3        -40.92801907]
 [  0.4         66.22295087]
 [  0.5        -30.24910195]
 [  0.6         47.10720128]
 [  0.7          4.7507049 ]
 [  0.8        -40.48688364]
 [  0.9        -47.0079054 ]
 [  1.           2.83601634]
 [  1.1         10.67776144]
 [  1.14141667  45.53025902]]","[[0.         1.58204947]
 [0.1        0.75621705]
 [0.2        0.6737112 ]
 [0.3        1.47717622]
 [0.4        1.33888104]
 [0.5        0.77255852]
 [0.6        1.63339195]
 [0.7        1.91064047]
 [0.8        1.54599539]
 [0.9        0.48737493]
 [1.         1.73547944]
 [1.1        0.45897774]
 [1.14141667 0.90041339]]",1,0.087
2,f,31,english,5,3,english,2024-02-09 13:55:12.834847,False,2,364,sounds\french\audio/french_28.wav,"[[  0.         -56.10420343]
 [  0.1        -31.69596583]
 [  0.2         10.77640338]
 [  0.3        -20.69274199]
 [  0.4          6.95136345]
 [  0.5         48.14792065]
 [  0.6         97.62552183]
 [  0.7        -10.73890428]
 [  0.8         38.69981846]
 [  0.9        -67.7986679 ]
 [  1.          42.50924299]
 [  1.1         18.11663107]
 [  1.14141667 -94.85686725]]","[[0.         1.70315994]
 [0.1        1.28626693]
 [0.2        1.2824792 ]
 [0.3        1.46430812]
 [0.4        1.88063004]
 [0.5        1.08025973]
 [0.6        0.53911676]
 [0.7        1.61562015]
 [0.8        1.07570603]
 [0.9        1.41027786]
 [1.         0.45518513]
 [1.1        0.65531755]
 [1.14141667 1.88116662]]",1,0.452
2,f,31,english,5,3,english,2024-02-09 13:55:12.834847,False,2,365,sounds\french\audio/french_32.wav,"[[  0.          25.64245336]
 [  0.1         74.46490303]
 [  0.2         75.42714506]
 [  0.3         12.14071868]
 [  0.4         40.77039563]
 [  0.5        -20.80438468]
 [  0.6        -71.68231008]
 [  0.7         16.12247882]
 [  0.8         87.68485785]
 [  0.9         79.73964285]
 [  1.         -38.91547588]
 [  1.1          4.83585376]
 [  1.14141667  27.36294356]]","[[0.         0.9376555 ]
 [0.1        0.0194653 ]
 [0.2        0.91939121]
 [0.3        1.08230627]
 [0.4        0.82408412]
 [0.5        1.20505809]
 [0.6        0.63983348]
 [0.7        0.90304415]
 [0.8        1.79212791]
 [0.9        1.47515702]
 [1.         1.77574617]
 [1.1        0.71542026]
 [1.14141667 0.90843464]]",0,0.545
2,f,31,english,5,3,english,2024-02-09 13:55:12.834847,False,2,366,sounds\french\audio/french_870.wav,"[[  0.         -88.96740787]
 [  0.1        -50.96029621]
 [  0.2          2.1117913 ]
 [  0.3        -81.18211333]
 [  0.4        -58.4942148 ]
 [  0.5        -13.37177011]
 [  0.6        -37.03727431]
 [  0.7        -57.85889347]
 [  0.8         48.98723654]
 [  0.9        -94.37943157]
 [  1.          69.59846396]
 [  1.1        -59.83952506]
 [  1.14141667 -63.76620066]]","[[0.         1.80140046]
 [0.1        1.62081264]
 [0.2        0.89623291]
 [0.3        0.00838819]
 [0.4        0.46507357]
 [0.5        0.81411287]
 [0.6        0.59433311]
 [0.7        0.68578062]
 [0.8        0.1849314 ]
 [0.9        1.96861475]
 [1.         0.87798497]
 [1.1        1.18748939]
 [1.14141667 1.53716958]]",1,0.122
2,f,31,english,5,3,english,2024-02-09 13:55:12.834847,False,2,367,sounds\french\audio/french_656.wav,"[[  0.          99.97670879]
 [  0.1         13.13237691]
 [  0.2        -29.82427587]
 [  0.3        -97.19078199]
 [  0.4         16.61433788]
 [  0.5        -11.63206152]
 [  0.6         44.22844334]
 [  0.7        -21.12174608]
 [  0.8         94.81438705]
 [  0.9        -76.66102524]
 [  1.          -7.93989674]
 [  1.1         30.36688089]
 [  1.14141667  -7.90018331]]","[[0.         0.59239102]
 [0.1        0.22261498]
 [0.2        0.70596369]
 [0.3        0.83357548]
 [0.4        1.93544912]
 [0.5        0.95748116]
 [0.6        0.57513986]
 [0.7        0.75814333]
 [0.8        1.21721037]
 [0.9        0.36719178]
 [1.         1.2783526 ]
 [1.1        0.57717313]
 [1.14141667 1.25999286]]",1,0.494
2,f,31,english,5,3,english,2024-02-09 13:55:12.834847,False,2,368,sounds\french\audio/french_317.wav,"[[  0.          40.8685805 ]
 [  0.1        -18.25010816]
 [  0.2         21.38431057]
 [  0.3         95.9205375 ]
 [  0.4         38.32089871]
 [  0.5        -21.23529277]
 [  0.6         77.91728969]
 [  0.7         80.74208796]
 [  0.8          7.4329056 ]
 [  0.9         43.55624299]
 [  1.          -3.0789023 ]
 [  1.1         53.49310135]
 [  1.14141667  20.73152809]]","[[0.         0.12762298]
 [0.1        0.46117381]
 [0.2        0.51489794]
 [0.3        0.84411481]
 [0.4        0.32765242]
 [0.5        0.79138261]
 [0.6        0.47375235]
 [0.7        0.7422914 ]
 [0.8        0.34355832]
 [0.9        0.04625658]
 [1.         1.28889799]
 [1.1        1.94514932]
 [1.14141667 0.29763753]]",1,0.383
2,f,31,english,5,3,english,2024-02-09 13:55:12.834847,False,2,369,sounds\french\audio/french_919.wav,"[[  0.          -1.20086157]
 [  0.1         23.70683085]
 [  0.2         57.81380223]
 [  0.3        -35.3373876 ]
 [  0.4        -47.40127712]
 [  0.5         30.8485682 ]
 [  0.6        -65.35395561]
 [  0.7         85.95532588]
 [  0.8         92.08322147]
 [  0.9        -41.94331802]
 [  1.          52.33310805]
 [  1.1        -64.04027042]
 [  1.14141667 -13.37988962]]","[[0.         1.82372542]
 [0.1        1.2747469 ]
 [0.2        1.5717064 ]
 [0.3        0.75801577]
 [0.4        0.41520743]
 [0.5        0.28163439]
 [0.6        0.64408251]
 [0.7        0.95994637]
 [0.8        0.70005391]
 [0.9        0.9468388 ]
 [1.         0.21391183]
 [1.1        1.54895117]
 [1.14141667 0.55798758]]",0,0.276
2,f,31,english,5,3,english,2024-02-09 13:55:12.834847,False,2,370,sounds\french\audio/french_664.wav,"[[  0.         -91.74200012]
 [  0.1         67.3163071 ]
 [  0.2        -14.92110663]
 [  0.3        -15.00532605]
 [  0.4        -71.83608899]
 [  0.5         60.19723794]
 [  0.6        -88.50711363]
 [  0.7         29.2172503 ]
 [  0.8         46.83116703]
 [  0.9        -16.00706746]
 [  1.           0.77059242]
 [  1.1        -11.58487906]
 [  1.14141667 -15.46228134]]","[[0.         1.5436769 ]
 [0.1        1.28396624]
 [0.2        0.86320374]
 [0.3        1.18530683]
 [0.4        0.7104349 ]
 [0.5        0.80286179]
 [0.6        0.79382779]
 [0.7        0.16919782]
 [0.8        1.5381824 ]
 [0.9        1.94367969]
 [1.         1.56397286]
 [1.1        0.83434339]
 [1.14141667 1.77198089]]",0,0.295
2,f,31,english,5,3,english,2024-02-09 13:55:12.834847,False,2,371,sounds\french\audio/french_513.wav,"[[  0.          65.19779345]
 [  0.1        -53.85269578]
 [  0.2         82.41545201]
 [  0.3         50.60713048]
 [  0.4          7.11945043]
 [  0.5         91.42493583]
 [  0.6        -85.42924685]
 [  0.7         -8.28829678]
 [  0.8         14.83211799]
 [  0.9         76.72765657]
 [  1.         -52.57682729]
 [  1.1        -94.50783694]
 [  1.14141667 -21.60549074]]","[[0.         0.10751353]
 [0.1        1.47062647]
 [0.2        1.29367767]
 [0.3        1.84832062]
 [0.4        1.72946214]
 [0.5        0.50039447]
 [0.6        0.46361625]
 [0.7        0.32923248]
 [0.8        1.36965494]
 [0.9        0.90778718]
 [1.         1.26672765]
 [1.1        0.74549941]
 [1.14141667 0.4783076 ]]",1,0.162
2,f,31,english,5,3,english,2024-02-09 13:55:12.834847,False,2,372,sounds\french\audio/french_778.wav,"[[  0.         -35.48786366]
 [  0.1         20.95778916]
 [  0.2         62.15303642]
 [  0.3         90.70594658]
 [  0.4        -91.65456069]
 [  0.5         51.13487531]
 [  0.6        -71.75851132]
 [  0.7         75.8077585 ]
 [  0.8         55.46081372]
 [  0.9        -65.5842371 ]
 [  1.         -78.54616608]
 [  1.1         28.288087  ]
 [  1.14141667 -82.62675802]]","[[0.         0.49504086]
 [0.1        1.47718928]
 [0.2        1.37622644]
 [0.3        1.090534  ]
 [0.4        1.77275196]
 [0.5        0.71177308]
 [0.6        1.53575502]
 [0.7        1.84732491]
 [0.8        1.36043897]
 [0.9        0.49785511]
 [1.         0.675821  ]
 [1.1        0.82554017]
 [1.14141667 1.54903202]]",1,1.679
2,f,31,english,5,3,english,2024-02-09 13:55:12.834847,False,2,373,sounds\french\audio/french_546.wav,"[[  0.         -13.20812947]
 [  0.1         -8.37020236]
 [  0.2         57.48789341]
 [  0.3        -11.78127808]
 [  0.4        -26.00594078]
 [  0.5         -3.33648258]
 [  0.6         -1.73835095]
 [  0.7         17.1570367 ]
 [  0.8         37.36365726]
 [  0.9          8.15656678]
 [  1.          -8.08158861]
 [  1.1          5.60886703]
 [  1.14141667 -59.33959304]]","[[0.         0.61614772]
 [0.1        1.06411131]
 [0.2        1.60441563]
 [0.3        0.66409069]
 [0.4        1.03544668]
 [0.5        0.99289071]
 [0.6        0.28199712]
 [0.7        0.98444234]
 [0.8        0.65105351]
 [0.9        1.40961932]
 [1.         1.13622797]
 [1.1        0.04199534]
 [1.14141667 1.17471858]]",0,0.432
2,f,31,english,5,3,english,2024-02-09 13:55:12.834847,False,2,374,sounds\french\audio/french_625.wav,"[[  0.         -52.31869124]
 [  0.1        -25.23577265]
 [  0.2        -60.75977445]
 [  0.3         -3.59619095]
 [  0.4        -51.44020573]
 [  0.5        -56.50890025]
 [  0.6        -33.258937  ]
 [  0.7         60.17412763]
 [  0.8        -83.80517284]
 [  0.9         51.66221663]
 [  1.         -48.90750727]
 [  1.1        -44.74068411]
 [  1.14141667  69.22661346]]","[[0.         1.63379894]
 [0.1        0.38535148]
 [0.2        1.4410786 ]
 [0.3        0.29355574]
 [0.4        1.40834543]
 [0.5        1.57997293]
 [0.6        0.14193207]
 [0.7        1.60873566]
 [0.8        1.9133151 ]
 [0.9        1.29537879]
 [1.         1.20151545]
 [1.1        0.64392762]
 [1.14141667 1.24366186]]",1,0.423
2,f,31,english,5,3,english,2024-02-09 13:55:12.834847,False,2,375,sounds\french\audio/french_570.wav,"[[  0.         -45.3917955 ]
 [  0.1        -10.85306862]
 [  0.2         -2.66303486]
 [  0.3        -32.59962556]
 [  0.4         -5.49643311]
 [  0.5         28.02198877]
 [  0.6        -36.20109348]
 [  0.7        -12.58953364]
 [  0.8         24.84923046]
 [  0.9        -28.45536131]
 [  1.         -38.13214267]
 [  1.1         36.48055026]
 [  1.14141667   7.78558151]]","[[0.         1.19819767]
 [0.1        0.49543291]
 [0.2        1.66800071]
 [0.3        0.10362546]
 [0.4        0.8503783 ]
 [0.5        1.53524079]
 [0.6        1.11611775]
 [0.7        1.41982797]
 [0.8        1.83422328]
 [0.9        0.62751144]
 [1.         0.56230222]
 [1.1        0.57641953]
 [1.14141667 1.40822903]]",1,2.258
2,f,31,english,5,3,english,2024-02-09 13:55:12.834847,False,2,376,sounds\french\audio/french_35.wav,"[[  0.         -45.98279   ]
 [  0.1        -93.35925651]
 [  0.2         77.12358993]
 [  0.3        -34.48534753]
 [  0.4         38.58985069]
 [  0.5         23.05182082]
 [  0.6         59.56369485]
 [  0.7        -15.27709813]
 [  0.8         16.51606583]
 [  0.9        -90.32979769]
 [  1.           0.14455974]
 [  1.1        -26.62218669]
 [  1.14141667 -83.87664754]]","[[0.         0.780992  ]
 [0.1        0.62769982]
 [0.2        0.02441241]
 [0.3        1.04344707]
 [0.4        0.06237226]
 [0.5        1.89799499]
 [0.6        1.45682954]
 [0.7        1.10135409]
 [0.8        0.68131024]
 [0.9        0.067101  ]
 [1.         0.5753594 ]
 [1.1        0.31164616]
 [1.14141667 1.05187015]]",0,0.595
2,f,31,english,5,3,english,2024-02-09 13:55:12.834847,False,2,377,sounds\french\audio/french_97.wav,"[[  0.           1.04510533]
 [  0.1        -54.71607785]
 [  0.2        -15.62192799]
 [  0.3        -31.39521639]
 [  0.4        -39.86237208]
 [  0.5        -33.06705718]
 [  0.6         38.31296912]
 [  0.7        -38.22378525]
 [  0.8        -32.53841006]
 [  0.9         38.86771113]
 [  1.          36.94226883]
 [  1.1        -62.32952296]
 [  1.14141667  31.53164314]]","[[0.         0.92814717]
 [0.1        1.37673784]
 [0.2        0.84416681]
 [0.3        0.56331598]
 [0.4        0.13012768]
 [0.5        1.45624611]
 [0.6        0.07712615]
 [0.7        1.36163175]
 [0.8        0.57980786]
 [0.9        1.82011994]
 [1.         0.03072122]
 [1.1        0.83108294]
 [1.14141667 1.86271027]]",1,0.176
2,f,31,english,5,3,english,2024-02-09 13:55:12.834847,False,2,378,sounds\french\audio/french_787.wav,"[[  0.          79.17712948]
 [  0.1        -73.07775463]
 [  0.2        -37.59236331]
 [  0.3        -95.60780002]
 [  0.4        -67.52212669]
 [  0.5        -72.3853784 ]
 [  0.6         55.41129583]
 [  0.7        -20.28029725]
 [  0.8        -85.08323843]
 [  0.9         93.86210994]
 [  1.         -64.51549876]
 [  1.1        -56.22239298]
 [  1.14141667 -87.31995502]]","[[0.         0.1163321 ]
 [0.1        1.90835001]
 [0.2        1.9055926 ]
 [0.3        1.66008027]
 [0.4        0.73855665]
 [0.5        0.63713084]
 [0.6        1.4880735 ]
 [0.7        0.64813036]
 [0.8        1.12873134]
 [0.9        1.32091412]
 [1.         0.48515729]
 [1.1        0.45260231]
 [1.14141667 0.83170694]]",1,0.505
2,f,31,english,5,3,english,2024-02-09 13:55:12.834847,False,2,379,sounds\french\audio/french_294.wav,"[[  0.          46.81190633]
 [  0.1        -55.55833329]
 [  0.2        -78.93236635]
 [  0.3         80.59595566]
 [  0.4         54.71021816]
 [  0.5        -35.95549528]
 [  0.6         90.04358931]
 [  0.7         48.97978382]
 [  0.8         85.35893159]
 [  0.9         37.71160702]
 [  1.         -84.35185751]
 [  1.1        -45.28301264]
 [  1.14141667  78.04325437]]","[[0.         0.85502539]
 [0.1        0.73187702]
 [0.2        1.40827844]
 [0.3        1.8594958 ]
 [0.4        1.03951107]
 [0.5        0.90602699]
 [0.6        0.40420579]
 [0.7        0.11158967]
 [0.8        1.1950669 ]
 [0.9        0.53171982]
 [1.         0.12056925]
 [1.1        1.01856401]
 [1.14141667 1.12267397]]",1,0.968
2,f,31,english,5,3,english,2024-02-09 13:55:12.834847,False,2,380,sounds\french\audio/french_860.wav,"[[  0.          71.07945552]
 [  0.1          1.72594823]
 [  0.2         19.45974481]
 [  0.3         86.97846053]
 [  0.4         79.47360606]
 [  0.5         53.5019262 ]
 [  0.6        -89.17896142]
 [  0.7        -98.52094084]
 [  0.8         20.28209343]
 [  0.9         88.49530421]
 [  1.         -80.39175175]
 [  1.1         51.29541508]
 [  1.14141667 -36.16508332]]","[[0.         0.53145649]
 [0.1        1.53992391]
 [0.2        1.55701493]
 [0.3        1.64837469]
 [0.4        1.11154263]
 [0.5        1.86343254]
 [0.6        1.50195398]
 [0.7        1.86567231]
 [0.8        1.56384749]
 [0.9        0.34177252]
 [1.         1.02561869]
 [1.1        0.56375965]
 [1.14141667 1.26691699]]",1,0.267
2,f,31,english,5,3,english,2024-02-09 13:55:12.834847,False,2,381,sounds\french\audio/french_84.wav,"[[  0.         -96.37151913]
 [  0.1        -51.32047359]
 [  0.2          6.16674673]
 [  0.3        -74.79812615]
 [  0.4         72.70338153]
 [  0.5         73.29646829]
 [  0.6         58.46115838]
 [  0.7        -88.22895489]
 [  0.8         96.14628935]
 [  0.9        -22.0220861 ]
 [  1.         -17.5351727 ]
 [  1.1         70.12401617]
 [  1.14141667  19.58806578]]","[[0.         0.66956982]
 [0.1        0.87788838]
 [0.2        1.80968749]
 [0.3        1.92619873]
 [0.4        0.19629773]
 [0.5        1.83630482]
 [0.6        1.73731066]
 [0.7        0.02437314]
 [0.8        0.0262643 ]
 [0.9        1.01003676]
 [1.         0.76011071]
 [1.1        1.03268267]
 [1.14141667 0.54269981]]",1,3.905
2,f,31,english,5,3,english,2024-02-09 13:55:12.834847,False,2,382,sounds\french\audio/french_284.wav,"[[  0.          16.48622703]
 [  0.1          2.26495014]
 [  0.2         18.12009667]
 [  0.3         62.57261775]
 [  0.4         38.21878831]
 [  0.5        -10.58729406]
 [  0.6        -28.71227124]
 [  0.7         33.18992905]
 [  0.8         42.51171858]
 [  0.9         -0.53891245]
 [  1.         -90.42609214]
 [  1.1         29.69063186]
 [  1.14141667  74.07567772]]","[[0.         0.51717934]
 [0.1        1.60229173]
 [0.2        1.8758053 ]
 [0.3        1.66078305]
 [0.4        0.36271544]
 [0.5        0.67338252]
 [0.6        0.95589202]
 [0.7        0.48081388]
 [0.8        1.37144398]
 [0.9        0.67164097]
 [1.         0.62108777]
 [1.1        0.42350623]
 [1.14141667 1.43401958]]",1,1.319
2,f,31,english,5,3,english,2024-02-09 13:55:12.834847,False,2,383,sounds\french\audio/french_707.wav,"[[  0.         -64.93442834]
 [  0.1        -72.2221748 ]
 [  0.2         13.62014708]
 [  0.3         47.83259261]
 [  0.4        -95.31398354]
 [  0.5          1.08562873]
 [  0.6         -4.48837622]
 [  0.7        -51.75801518]
 [  0.8        -21.80654722]
 [  0.9         75.81447714]
 [  1.         -46.65505287]
 [  1.1        -66.28006481]
 [  1.14141667  14.37031086]]","[[0.         1.46804089]
 [0.1        0.58492239]
 [0.2        1.16417946]
 [0.3        1.23796764]
 [0.4        1.82345274]
 [0.5        0.65758585]
 [0.6        1.01551763]
 [0.7        1.22021008]
 [0.8        1.86240461]
 [0.9        1.61294549]
 [1.         0.22226257]
 [1.1        0.137127  ]
 [1.14141667 1.66241642]]",0,0.854
2,f,31,english,5,3,english,2024-02-09 13:55:12.834847,False,2,384,sounds\french\audio/french_158.wav,"[[  0.         -97.16873195]
 [  0.1         51.89924126]
 [  0.2        -13.36075931]
 [  0.3        -38.85603948]
 [  0.4        -40.59046822]
 [  0.5        -43.54206196]
 [  0.6        -12.24032947]
 [  0.7        -86.35714583]
 [  0.8         26.68437741]
 [  0.9        -27.65851862]
 [  1.          90.01542751]
 [  1.1         32.43099277]
 [  1.14141667 -88.24313691]]","[[0.         0.98178979]
 [0.1        1.09786537]
 [0.2        1.01682656]
 [0.3        1.52660631]
 [0.4        0.62274477]
 [0.5        1.50152999]
 [0.6        1.34805794]
 [0.7        1.09441923]
 [0.8        1.68909448]
 [0.9        1.3659413 ]
 [1.         0.51492756]
 [1.1        0.99141216]
 [1.14141667 0.67168829]]",0,0.758
2,f,31,english,5,3,english,2024-02-09 13:55:12.834847,False,2,385,sounds\french\audio/french_799.wav,"[[  0.         -56.16381434]
 [  0.1         55.72277359]
 [  0.2        -63.72861715]
 [  0.3        -58.21079779]
 [  0.4        -25.67227081]
 [  0.5         20.69847518]
 [  0.6         45.01998872]
 [  0.7         22.46603556]
 [  0.8        -17.43268178]
 [  0.9         58.43815332]
 [  1.         -80.51432091]
 [  1.1         18.42694854]
 [  1.14141667  72.41767009]]","[[0.         0.35549087]
 [0.1        1.33103876]
 [0.2        0.55396793]
 [0.3        1.44160278]
 [0.4        1.42625827]
 [0.5        1.60864164]
 [0.6        1.99235769]
 [0.7        0.21682987]
 [0.8        0.03742808]
 [0.9        0.39795677]
 [1.         1.13175188]
 [1.1        0.32326825]
 [1.14141667 1.7503177 ]]",1,1.738
2,f,31,english,5,3,english,2024-02-09 13:55:12.834847,False,2,386,sounds\french\audio/french_53.wav,"[[  0.         -28.0107555 ]
 [  0.1        -32.89623972]
 [  0.2        -30.87420046]
 [  0.3        -28.85389422]
 [  0.4        -61.04108291]
 [  0.5        -42.72827131]
 [  0.6        -39.80042832]
 [  0.7         86.61388374]
 [  0.8        -13.10870886]
 [  0.9         73.41452955]
 [  1.         -76.02339619]
 [  1.1        -99.20877843]
 [  1.14141667  -4.16419643]]","[[0.         1.07618979]
 [0.1        0.74993287]
 [0.2        0.87673017]
 [0.3        0.75649392]
 [0.4        0.57081033]
 [0.5        0.38337207]
 [0.6        1.97746459]
 [0.7        0.72612227]
 [0.8        0.61721519]
 [0.9        1.47274228]
 [1.         0.29121058]
 [1.1        0.63443115]
 [1.14141667 0.81233408]]",0,0.648
2,f,31,english,5,3,english,2024-02-09 13:55:12.834847,False,2,387,sounds\french\audio/french_538.wav,"[[  0.          20.57677794]
 [  0.1        -39.61392236]
 [  0.2        -45.04759687]
 [  0.3         13.02336847]
 [  0.4         90.60925013]
 [  0.5        -75.04739637]
 [  0.6        -17.92101924]
 [  0.7        -84.21353272]
 [  0.8         47.2379497 ]
 [  0.9         -5.11712126]
 [  1.         -51.87175563]
 [  1.1        -23.54809706]
 [  1.14141667 -19.60047968]]","[[0.         1.38711038]
 [0.1        0.72793815]
 [0.2        0.58138665]
 [0.3        0.36012253]
 [0.4        1.75461796]
 [0.5        0.9845207 ]
 [0.6        1.10875334]
 [0.7        1.78005401]
 [0.8        0.26796674]
 [0.9        0.97835653]
 [1.         1.7494376 ]
 [1.1        0.19527395]
 [1.14141667 0.35274247]]",1,0.089
2,f,31,english,5,3,english,2024-02-09 13:55:12.834847,False,2,388,sounds\french\audio/french_128.wav,"[[  0.          35.7679876 ]
 [  0.1         52.90317345]
 [  0.2        -89.9536453 ]
 [  0.3         64.92635162]
 [  0.4         -7.89759856]
 [  0.5        -21.26918839]
 [  0.6        -93.18825811]
 [  0.7         -6.82941045]
 [  0.8        -24.44634709]
 [  0.9          8.91339556]
 [  1.         -93.33477606]
 [  1.1         30.80864746]
 [  1.14141667  91.54187856]]","[[0.         0.90271781]
 [0.1        1.06280114]
 [0.2        1.09994753]
 [0.3        1.21358528]
 [0.4        1.4727885 ]
 [0.5        0.21953324]
 [0.6        0.69112171]
 [0.7        1.7129229 ]
 [0.8        1.44917263]
 [0.9        1.22059532]
 [1.         1.98933018]
 [1.1        1.08286961]
 [1.14141667 1.3463941 ]]",1,0.123
2,f,31,english,5,3,english,2024-02-09 13:55:12.834847,False,2,389,sounds\french\audio/french_167.wav,"[[  0.          67.37441669]
 [  0.1         69.70827651]
 [  0.2         49.7198351 ]
 [  0.3         36.67968206]
 [  0.4        -47.79492006]
 [  0.5        -29.74098428]
 [  0.6        -47.95963057]
 [  0.7         75.79544294]
 [  0.8         14.48235506]
 [  0.9         15.77152332]
 [  1.         -40.25391992]
 [  1.1        -54.85246088]
 [  1.14141667 -75.95368518]]","[[0.         0.86747482]
 [0.1        0.63450919]
 [0.2        1.21543223]
 [0.3        1.05473401]
 [0.4        0.08529401]
 [0.5        1.27324493]
 [0.6        1.42038522]
 [0.7        1.13517299]
 [0.8        1.62550771]
 [0.9        0.2462689 ]
 [1.         0.39322883]
 [1.1        1.05332498]
 [1.14141667 1.73203193]]",1,0.127
2,f,31,english,5,3,english,2024-02-09 13:55:12.834847,False,2,390,sounds\french\audio/french_213.wav,"[[  0.          60.90519411]
 [  0.1         55.95280779]
 [  0.2         48.46758666]
 [  0.3        -14.18062666]
 [  0.4        -51.30201563]
 [  0.5        -37.99009317]
 [  0.6         88.99546092]
 [  0.7        -11.08339747]
 [  0.8         54.53278866]
 [  0.9        -23.49573744]
 [  1.          28.30492548]
 [  1.1         68.04425842]
 [  1.14141667  -9.70039934]]","[[0.         1.2142025 ]
 [0.1        1.85099482]
 [0.2        1.16231079]
 [0.3        1.54399184]
 [0.4        1.40754046]
 [0.5        0.99181023]
 [0.6        0.96000188]
 [0.7        0.55983951]
 [0.8        1.35940292]
 [0.9        0.29880455]
 [1.         1.73467682]
 [1.1        0.57935772]
 [1.14141667 1.18792355]]",1,0.284
2,f,31,english,5,3,english,2024-02-09 13:55:12.834847,False,2,391,sounds\french\audio/french_534.wav,"[[  0.         -15.28338531]
 [  0.1         78.02953545]
 [  0.2         56.06185369]
 [  0.3        -88.22904754]
 [  0.4         64.61339654]
 [  0.5        -30.71044568]
 [  0.6         14.1855631 ]
 [  0.7         78.82962117]
 [  0.8         32.43672353]
 [  0.9         94.02234406]
 [  1.         -42.45395563]
 [  1.1        -83.33513244]
 [  1.14141667  95.31234504]]","[[0.         1.64226686]
 [0.1        0.3938212 ]
 [0.2        0.23843056]
 [0.3        0.60135969]
 [0.4        1.21076955]
 [0.5        1.07436413]
 [0.6        1.61739365]
 [0.7        1.68323929]
 [0.8        1.54652057]
 [0.9        0.7059435 ]
 [1.         0.83665441]
 [1.1        1.30268562]
 [1.14141667 1.46841429]]",1,0.151
2,f,31,english,5,3,english,2024-02-09 13:55:12.834847,False,2,392,sounds\french\audio/french_666.wav,"[[  0.          92.96865197]
 [  0.1         83.19708081]
 [  0.2        -93.00429792]
 [  0.3         90.20261319]
 [  0.4        -87.15662035]
 [  0.5        -47.24627787]
 [  0.6         59.30035154]
 [  0.7        -15.62578407]
 [  0.8        -24.02578561]
 [  0.9        -81.73454308]
 [  1.           8.5752321 ]
 [  1.1         81.49647055]
 [  1.14141667 -18.83163279]]","[[0.         0.97097631]
 [0.1        1.21196334]
 [0.2        0.21493139]
 [0.3        0.41981713]
 [0.4        1.50078267]
 [0.5        1.52836047]
 [0.6        0.33218379]
 [0.7        0.67593379]
 [0.8        0.65338916]
 [0.9        1.43079887]
 [1.         0.1051972 ]
 [1.1        1.769445  ]
 [1.14141667 0.88398821]]",0,0.066
2,f,31,english,5,3,english,2024-02-09 13:55:12.834847,False,2,393,sounds\french\audio/french_197.wav,"[[  0.         -32.22739451]
 [  0.1        -62.71984809]
 [  0.2         74.98952372]
 [  0.3         45.74615237]
 [  0.4        -90.51519145]
 [  0.5        -55.57177481]
 [  0.6         29.61889111]
 [  0.7        -22.23442676]
 [  0.8         -2.38421375]
 [  0.9         20.49896048]
 [  1.         -44.60269007]
 [  1.1         76.8804822 ]
 [  1.14141667  16.68296349]]","[[0.         1.51686325]
 [0.1        0.24201413]
 [0.2        0.91229046]
 [0.3        1.18910292]
 [0.4        0.62237854]
 [0.5        1.52029181]
 [0.6        0.64553376]
 [0.7        0.69050991]
 [0.8        1.96622619]
 [0.9        1.79065794]
 [1.         0.97033515]
 [1.1        0.66551295]
 [1.14141667 0.45334556]]",1,0.023
2,f,31,english,5,3,english,2024-02-09 13:55:12.834847,False,2,394,sounds\french\audio/french_597.wav,"[[  0.           3.81117618]
 [  0.1          1.65290583]
 [  0.2         75.20334273]
 [  0.3        -31.80520796]
 [  0.4         47.06388339]
 [  0.5        -12.18502222]
 [  0.6         16.00653048]
 [  0.7         -1.06509013]
 [  0.8        -88.67460342]
 [  0.9         79.23096379]
 [  1.         -37.6385831 ]
 [  1.1        -82.3453721 ]
 [  1.14141667  50.39965119]]","[[0.         0.64425147]
 [0.1        1.80851034]
 [0.2        0.13064714]
 [0.3        1.14595158]
 [0.4        1.20714689]
 [0.5        1.21300166]
 [0.6        1.59786204]
 [0.7        1.5777009 ]
 [0.8        1.85046757]
 [0.9        0.15850725]
 [1.         0.67581982]
 [1.1        0.97379481]
 [1.14141667 1.28226838]]",1,0.256
2,f,31,english,5,3,english,2024-02-09 13:55:12.834847,False,2,395,sounds\french\audio/french_640.wav,"[[  0.         -23.23499115]
 [  0.1         -5.32274666]
 [  0.2        -26.96491629]
 [  0.3        -24.71578064]
 [  0.4          4.92396133]
 [  0.5         79.3437843 ]
 [  0.6        -37.35644985]
 [  0.7         90.7866094 ]
 [  0.8        -21.5684971 ]
 [  0.9         -3.17217866]
 [  1.         -53.51075281]
 [  1.1         23.72364294]
 [  1.14141667 -59.96309897]]","[[0.         0.51826373]
 [0.1        0.48541717]
 [0.2        0.32572671]
 [0.3        0.87356407]
 [0.4        0.06333599]
 [0.5        0.63173489]
 [0.6        0.49522912]
 [0.7        1.48986997]
 [0.8        1.18308083]
 [0.9        1.04898469]
 [1.         1.09208336]
 [1.1        0.03972765]
 [1.14141667 0.83305144]]",0,0.027
2,f,31,english,5,3,english,2024-02-09 13:55:12.834847,False,2,396,sounds\french\audio/french_233.wav,"[[  0.         -80.8753154 ]
 [  0.1         42.39128957]
 [  0.2         36.07188389]
 [  0.3         50.61380491]
 [  0.4         77.53573111]
 [  0.5         37.16272325]
 [  0.6        -87.06926926]
 [  0.7         10.98767449]
 [  0.8         68.13368356]
 [  0.9         19.59187928]
 [  1.          35.33717777]
 [  1.1        -57.71918366]
 [  1.14141667 -17.91280559]]","[[0.         1.54494018]
 [0.1        0.25453535]
 [0.2        1.05123556]
 [0.3        0.33961228]
 [0.4        1.70138916]
 [0.5        0.94068903]
 [0.6        1.40166291]
 [0.7        0.1496064 ]
 [0.8        0.52136921]
 [0.9        0.72886143]
 [1.         1.70329451]
 [1.1        0.15873144]
 [1.14141667 0.70900055]]",1,1.634
2,f,31,english,5,3,english,2024-02-09 13:55:12.834847,False,2,397,sounds\french\audio/french_360.wav,"[[  0.          80.67919688]
 [  0.1        -27.94865849]
 [  0.2         22.32787623]
 [  0.3         45.22188439]
 [  0.4         -7.80157648]
 [  0.5         86.06729103]
 [  0.6        -43.84449169]
 [  0.7         41.33735645]
 [  0.8        -33.22134049]
 [  0.9         24.39834814]
 [  1.         -32.3038852 ]
 [  1.1         18.07242607]
 [  1.14141667 -15.85341792]]","[[0.         0.20606147]
 [0.1        1.11725372]
 [0.2        0.05039174]
 [0.3        1.66716796]
 [0.4        0.33872424]
 [0.5        1.77425049]
 [0.6        0.57660507]
 [0.7        1.5995083 ]
 [0.8        0.05507617]
 [0.9        1.78566   ]
 [1.         0.95403795]
 [1.1        1.61112926]
 [1.14141667 1.37482411]]",1,0.241
2,f,31,english,5,3,english,2024-02-09 13:55:12.834847,False,2,398,sounds\french\audio/french_539.wav,"[[  0.          48.58834425]
 [  0.1        -56.64619482]
 [  0.2         12.72257351]
 [  0.3         14.57779112]
 [  0.4        -53.79115146]
 [  0.5         -9.39809755]
 [  0.6         67.43376648]
 [  0.7        -72.51273076]
 [  0.8          3.43276355]
 [  0.9         40.14425687]
 [  1.          54.85231258]
 [  1.1        -17.29716808]
 [  1.14141667  36.80649937]]","[[0.         0.55713702]
 [0.1        0.83408519]
 [0.2        0.22105139]
 [0.3        1.24631237]
 [0.4        1.80108834]
 [0.5        0.10826692]
 [0.6        1.35746598]
 [0.7        0.14156413]
 [0.8        0.59340931]
 [0.9        0.46199534]
 [1.         1.89990392]
 [1.1        0.79928212]
 [1.14141667 0.04454349]]",1,0.296
2,f,31,english,5,3,english,2024-02-09 13:55:12.834847,False,2,399,sounds\french\audio/french_779.wav,"[[  0.         -38.28425878]
 [  0.1        -19.73299362]
 [  0.2         -1.63971334]
 [  0.3        -13.00341001]
 [  0.4        -18.58635516]
 [  0.5        -89.98694193]
 [  0.6         92.32758461]
 [  0.7        -57.54469246]
 [  0.8        -77.17429957]
 [  0.9         -5.46434537]
 [  1.         -18.50514079]
 [  1.1         -7.2649165 ]
 [  1.14141667  -3.97761041]]","[[0.         1.14466513]
 [0.1        1.60046318]
 [0.2        0.66760831]
 [0.3        1.70247529]
 [0.4        0.17241517]
 [0.5        1.76793656]
 [0.6        1.36679993]
 [0.7        0.7012445 ]
 [0.8        1.36817327]
 [0.9        0.41680341]
 [1.         0.28529805]
 [1.1        1.0076311 ]
 [1.14141667 1.26738641]]",1,0.122
2,f,31,english,5,3,english,2024-02-09 13:55:12.834847,False,2,400,sounds\french\audio/french_196.wav,"[[  0.          19.92156454]
 [  0.1         50.3730524 ]
 [  0.2        -54.66048992]
 [  0.3        -16.36439953]
 [  0.4        -49.37215717]
 [  0.5         73.44732269]
 [  0.6        -10.57047355]
 [  0.7        -59.11422478]
 [  0.8        -87.00574954]
 [  0.9        -41.42714545]
 [  1.          -3.65633153]
 [  1.1        -26.0043808 ]
 [  1.14141667  10.36886233]]","[[0.         1.45115921]
 [0.1        1.233132  ]
 [0.2        0.22337845]
 [0.3        1.17450645]
 [0.4        0.22096997]
 [0.5        0.81463121]
 [0.6        0.94935983]
 [0.7        0.41223091]
 [0.8        0.73586656]
 [0.9        0.4661352 ]
 [1.         0.31390173]
 [1.1        1.50812992]
 [1.14141667 1.08431252]]",0,0.453
2,f,31,english,5,3,english,2024-02-09 13:55:12.834847,False,2,401,sounds\french\audio/french_307.wav,"[[ 0.00000000e+00 -8.12536919e+01]
 [ 1.00000000e-01 -5.92199646e+00]
 [ 2.00000000e-01 -7.08440156e+01]
 [ 3.00000000e-01 -3.88570398e+01]
 [ 4.00000000e-01 -7.46373028e+01]
 [ 5.00000000e-01  3.72357881e+01]
 [ 6.00000000e-01 -2.61136950e+00]
 [ 7.00000000e-01  4.06769116e+01]
 [ 8.00000000e-01  6.68191977e+01]
 [ 9.00000000e-01  8.94255447e+01]
 [ 1.00000000e+00 -1.24290818e-02]
 [ 1.10000000e+00 -9.47277852e+01]
 [ 1.14141667e+00  5.25537701e+00]]","[[0.         1.33468173]
 [0.1        1.24052459]
 [0.2        0.05751099]
 [0.3        0.0183033 ]
 [0.4        1.42823854]
 [0.5        1.31262623]
 [0.6        1.64307627]
 [0.7        1.23311758]
 [0.8        1.11809567]
 [0.9        1.10385944]
 [1.         1.86476593]
 [1.1        1.90945351]
 [1.14141667 1.40561689]]",1,0.105
2,f,31,english,5,3,english,2024-02-09 13:55:12.834847,False,2,402,sounds\french\audio/french_752.wav,"[[  0.          34.41371414]
 [  0.1         14.80466577]
 [  0.2         74.3043598 ]
 [  0.3        -77.13621083]
 [  0.4         70.32500444]
 [  0.5         34.75569951]
 [  0.6         80.57354741]
 [  0.7         15.56334688]
 [  0.8         85.58814621]
 [  0.9         38.60264584]
 [  1.          -2.86267761]
 [  1.1         79.56587881]
 [  1.14141667 -84.62804294]]","[[0.         1.9791919 ]
 [0.1        1.83037093]
 [0.2        0.40593576]
 [0.3        1.74575453]
 [0.4        0.26577505]
 [0.5        0.70202735]
 [0.6        0.39412162]
 [0.7        0.9711471 ]
 [0.8        1.79720256]
 [0.9        1.09938166]
 [1.         0.83455272]
 [1.1        0.64213106]
 [1.14141667 1.19502277]]",0,1.859
2,f,31,english,5,3,english,2024-02-09 13:55:12.834847,False,2,403,sounds\french\audio/french_170.wav,"[[  0.          78.4256709 ]
 [  0.1         74.01453231]
 [  0.2        -39.88926349]
 [  0.3        -19.85923671]
 [  0.4         21.90551666]
 [  0.5        -33.95377881]
 [  0.6         91.63398051]
 [  0.7          1.97301371]
 [  0.8         23.07565561]
 [  0.9          9.25122432]
 [  1.          17.68156944]
 [  1.1         21.64263281]
 [  1.14141667  23.34976947]]","[[0.         1.56635182]
 [0.1        0.86264396]
 [0.2        0.54432946]
 [0.3        0.4724751 ]
 [0.4        1.46831695]
 [0.5        1.4701458 ]
 [0.6        0.88463831]
 [0.7        1.6321868 ]
 [0.8        0.37326226]
 [0.9        1.17917382]
 [1.         0.44028457]
 [1.1        1.57885644]
 [1.14141667 0.75646094]]",0,0.519
2,f,31,english,5,3,english,2024-02-09 13:55:12.834847,False,2,404,sounds\french\audio/french_601.wav,"[[  0.         -60.16261887]
 [  0.1         58.32501749]
 [  0.2        -44.78853843]
 [  0.3        -17.24266457]
 [  0.4        -78.33579563]
 [  0.5         79.97866624]
 [  0.6        -20.55581515]
 [  0.7         43.78837108]
 [  0.8        -73.15029891]
 [  0.9         90.05348961]
 [  1.          37.64890544]
 [  1.1         22.47191591]
 [  1.14141667  73.82058256]]","[[0.         1.95619765]
 [0.1        1.42765137]
 [0.2        0.44130142]
 [0.3        1.17849708]
 [0.4        0.56027503]
 [0.5        1.3872376 ]
 [0.6        0.54116968]
 [0.7        0.9642546 ]
 [0.8        1.93227631]
 [0.9        1.38785467]
 [1.         0.37718019]
 [1.1        0.7210926 ]
 [1.14141667 0.61108632]]",1,0.232
2,f,31,english,5,3,english,2024-02-09 13:55:12.834847,False,2,405,sounds\french\audio/french_284.wav,"[[  0.          16.48622703]
 [  0.1          2.26495014]
 [  0.2         18.12009667]
 [  0.3         62.57261775]
 [  0.4         38.21878831]
 [  0.5        -10.58729406]
 [  0.6        -28.71227124]
 [  0.7         33.18992905]
 [  0.8         42.51171858]
 [  0.9         -0.53891245]
 [  1.         -90.42609214]
 [  1.1         29.69063186]
 [  1.14141667  74.07567772]]","[[0.         0.51717934]
 [0.1        1.60229173]
 [0.2        1.8758053 ]
 [0.3        1.66078305]
 [0.4        0.36271544]
 [0.5        0.67338252]
 [0.6        0.95589202]
 [0.7        0.48081388]
 [0.8        1.37144398]
 [0.9        0.67164097]
 [1.         0.62108777]
 [1.1        0.42350623]
 [1.14141667 1.43401958]]",0,0.595
2,f,31,english,5,3,english,2024-02-09 13:55:12.834847,False,2,406,sounds\french\audio/french_150.wav,"[[  0.          49.5830128 ]
 [  0.1         11.27491146]
 [  0.2        -23.33006334]
 [  0.3        -79.70222292]
 [  0.4         78.5259979 ]
 [  0.5         42.68414732]
 [  0.6          3.3170919 ]
 [  0.7         28.43555109]
 [  0.8         -7.39447574]
 [  0.9        -98.28221983]
 [  1.          46.55565122]
 [  1.1        -53.12881325]
 [  1.14141667  87.9365903 ]]","[[0.         1.20991715]
 [0.1        1.43342457]
 [0.2        0.44319554]
 [0.3        0.38788298]
 [0.4        1.68474188]
 [0.5        1.76934829]
 [0.6        1.49107737]
 [0.7        0.95892531]
 [0.8        0.5717496 ]
 [0.9        1.66411652]
 [1.         0.38718647]
 [1.1        0.22387981]
 [1.14141667 1.83499264]]",1,0.16
2,f,31,english,5,3,english,2024-02-09 13:55:12.834847,False,2,407,sounds\french\audio/french_229.wav,"[[  0.         -72.66349649]
 [  0.1         98.17669026]
 [  0.2         19.85962147]
 [  0.3         10.18447552]
 [  0.4          2.99186972]
 [  0.5        -36.21916984]
 [  0.6          3.19583609]
 [  0.7         12.12984782]
 [  0.8          6.61404525]
 [  0.9        -91.89213886]
 [  1.         -48.12418513]
 [  1.1        -26.91376671]
 [  1.14141667 -57.44589876]]","[[0.         0.80556486]
 [0.1        0.96438648]
 [0.2        1.67956767]
 [0.3        0.9177948 ]
 [0.4        1.97008316]
 [0.5        1.12909119]
 [0.6        1.71065486]
 [0.7        0.23797279]
 [0.8        0.17780208]
 [0.9        0.24849055]
 [1.         0.41301125]
 [1.1        1.34102455]
 [1.14141667 0.47586737]]",0,0.553
2,f,31,english,5,3,english,2024-02-09 13:55:12.834847,False,2,408,sounds\french\audio/french_590.wav,"[[  0.         -34.09524263]
 [  0.1        -96.84709912]
 [  0.2         50.61027766]
 [  0.3         75.53545681]
 [  0.4        -11.09035491]
 [  0.5        -32.76275645]
 [  0.6         32.12090996]
 [  0.7        -30.8132539 ]
 [  0.8         22.22892657]
 [  0.9         48.07685608]
 [  1.          58.76836578]
 [  1.1         73.49278781]
 [  1.14141667 -47.33826583]]","[[0.         1.8496634 ]
 [0.1        0.45560216]
 [0.2        1.64061159]
 [0.3        1.47890307]
 [0.4        1.68043792]
 [0.5        1.54166683]
 [0.6        1.68743351]
 [0.7        0.64759962]
 [0.8        0.33521066]
 [0.9        1.44369098]
 [1.         1.75878727]
 [1.1        0.3973942 ]
 [1.14141667 0.72301886]]",1,1.13
2,f,31,english,5,3,english,2024-02-09 13:55:12.834847,False,2,409,sounds\french\audio/french_165.wav,"[[  0.         -30.57242851]
 [  0.1         14.97931662]
 [  0.2        -12.73059909]
 [  0.3        -76.6340538 ]
 [  0.4        -39.77201686]
 [  0.5         71.31806432]
 [  0.6         10.64683686]
 [  0.7        -39.62288549]
 [  0.8         30.96552198]
 [  0.9        -10.22867333]
 [  1.          10.06380936]
 [  1.1         46.55251325]
 [  1.14141667 -68.18565714]]","[[0.         0.37315661]
 [0.1        1.05022762]
 [0.2        1.01492906]
 [0.3        1.93408877]
 [0.4        1.23235421]
 [0.5        1.09863872]
 [0.6        1.73842976]
 [0.7        1.7696099 ]
 [0.8        0.64569778]
 [0.9        0.76121888]
 [1.         1.37138018]
 [1.1        0.47603266]
 [1.14141667 0.62197503]]",0,0.365
2,f,31,english,5,3,english,2024-02-09 13:55:12.834847,False,2,410,sounds\french\audio/french_347.wav,"[[  0.          57.05528949]
 [  0.1        -48.19665941]
 [  0.2         91.45679685]
 [  0.3        -29.31586745]
 [  0.4          9.10002374]
 [  0.5         53.01721292]
 [  0.6        -22.03928677]
 [  0.7        -73.006405  ]
 [  0.8         20.29301957]
 [  0.9         19.10492943]
 [  1.          52.95636206]
 [  1.1         30.9365932 ]
 [  1.14141667  45.55083793]]","[[0.         1.64220356]
 [0.1        1.82332469]
 [0.2        0.22099974]
 [0.3        1.13825501]
 [0.4        1.767798  ]
 [0.5        0.7433021 ]
 [0.6        0.36890647]
 [0.7        1.31994173]
 [0.8        1.10139997]
 [0.9        1.91392068]
 [1.         0.92491324]
 [1.1        0.81438983]
 [1.14141667 0.15118447]]",1,0.122
2,f,31,english,5,3,english,2024-02-09 13:55:12.834847,False,2,411,sounds\french\audio/french_590.wav,"[[  0.         -34.09524263]
 [  0.1        -96.84709912]
 [  0.2         50.61027766]
 [  0.3         75.53545681]
 [  0.4        -11.09035491]
 [  0.5        -32.76275645]
 [  0.6         32.12090996]
 [  0.7        -30.8132539 ]
 [  0.8         22.22892657]
 [  0.9         48.07685608]
 [  1.          58.76836578]
 [  1.1         73.49278781]
 [  1.14141667 -47.33826583]]","[[0.         1.8496634 ]
 [0.1        0.45560216]
 [0.2        1.64061159]
 [0.3        1.47890307]
 [0.4        1.68043792]
 [0.5        1.54166683]
 [0.6        1.68743351]
 [0.7        0.64759962]
 [0.8        0.33521066]
 [0.9        1.44369098]
 [1.         1.75878727]
 [1.1        0.3973942 ]
 [1.14141667 0.72301886]]",1,1.03
2,f,31,english,5,3,english,2024-02-09 13:55:12.834847,False,2,412,sounds\french\audio/french_618.wav,"[[  0.          20.05983972]
 [  0.1         58.91310592]
 [  0.2          6.72731042]
 [  0.3        -78.89679785]
 [  0.4         -8.33733298]
 [  0.5         65.10342581]
 [  0.6        -94.00807668]
 [  0.7         82.41977933]
 [  0.8         21.24581957]
 [  0.9         66.30338575]
 [  1.          35.04204865]
 [  1.1          4.02018466]
 [  1.14141667 -34.41646074]]","[[0.         0.17568044]
 [0.1        0.80933432]
 [0.2        1.75957191]
 [0.3        1.21569199]
 [0.4        0.08695144]
 [0.5        0.71252573]
 [0.6        1.00569246]
 [0.7        1.1966004 ]
 [0.8        1.80975739]
 [0.9        1.67881476]
 [1.         1.40354146]
 [1.1        1.74539239]
 [1.14141667 1.86292193]]",1,0.425
2,f,31,english,5,3,english,2024-02-09 13:55:12.834847,False,2,413,sounds\french\audio/french_820.wav,"[[  0.           2.20805213]
 [  0.1        -90.51492195]
 [  0.2         14.37438706]
 [  0.3         48.7691056 ]
 [  0.4        -26.19278003]
 [  0.5         18.08357323]
 [  0.6         82.28583292]
 [  0.7         69.03631189]
 [  0.8         27.35509958]
 [  0.9         27.52320107]
 [  1.          -3.99788557]
 [  1.1         54.09103587]
 [  1.14141667  22.53021971]]","[[0.         0.81178605]
 [0.1        0.34105584]
 [0.2        1.03419156]
 [0.3        1.3222317 ]
 [0.4        0.6377532 ]
 [0.5        1.39628768]
 [0.6        1.53457958]
 [0.7        1.68460853]
 [0.8        1.6036494 ]
 [0.9        1.49572357]
 [1.         0.7318371 ]
 [1.1        0.77038849]
 [1.14141667 0.80738652]]",1,0.119
2,f,31,english,5,3,english,2024-02-09 13:55:12.834847,False,2,414,sounds\french\audio/french_639.wav,"[[  0.         -46.25484505]
 [  0.1         17.34670458]
 [  0.2        -31.4334136 ]
 [  0.3        -78.00985553]
 [  0.4        -58.5652681 ]
 [  0.5         65.66284819]
 [  0.6         23.63896635]
 [  0.7        -60.08289753]
 [  0.8        -88.31823413]
 [  0.9        -17.26198613]
 [  1.         -47.873666  ]
 [  1.1         21.197191  ]
 [  1.14141667   5.91132605]]","[[0.         0.30801928]
 [0.1        0.40113014]
 [0.2        0.29921145]
 [0.3        1.04613163]
 [0.4        1.01899581]
 [0.5        0.95924712]
 [0.6        1.60243922]
 [0.7        1.5028757 ]
 [0.8        1.36364822]
 [0.9        1.69011696]
 [1.         0.9136066 ]
 [1.1        0.74346295]
 [1.14141667 1.3493516 ]]",1,0.324
2,f,31,english,5,3,english,2024-02-09 13:55:12.834847,False,2,415,sounds\french\audio/french_145.wav,"[[  0.          47.06287253]
 [  0.1         -3.58159028]
 [  0.2        -40.8693055 ]
 [  0.3        -80.8752163 ]
 [  0.4        -29.67084936]
 [  0.5        -16.09636873]
 [  0.6         28.46658229]
 [  0.7          4.2007743 ]
 [  0.8         22.24117317]
 [  0.9         33.5185267 ]
 [  1.         -45.71589409]
 [  1.1        -31.5800077 ]
 [  1.14141667 -68.85261891]]","[[0.         0.66108   ]
 [0.1        1.76438723]
 [0.2        1.27982498]
 [0.3        1.02482856]
 [0.4        1.23928714]
 [0.5        0.03289303]
 [0.6        1.30220706]
 [0.7        0.00879255]
 [0.8        1.14421532]
 [0.9        1.29113643]
 [1.         0.21462711]
 [1.1        0.76658856]
 [1.14141667 0.02669372]]",0,0.163
2,f,31,english,5,3,english,2024-02-09 13:55:12.834847,False,2,416,sounds\french\audio/french_87.wav,"[[  0.          92.4660963 ]
 [  0.1         15.06427617]
 [  0.2         19.88587698]
 [  0.3         19.16381268]
 [  0.4        -43.83456388]
 [  0.5        -75.19485474]
 [  0.6        -41.9677828 ]
 [  0.7         48.89631163]
 [  0.8         59.57141731]
 [  0.9         -7.29688456]
 [  1.         -56.30540489]
 [  1.1        -92.5665511 ]
 [  1.14141667   7.04899103]]","[[0.         0.46305834]
 [0.1        1.65512059]
 [0.2        1.47687397]
 [0.3        1.98465726]
 [0.4        0.88568527]
 [0.5        0.59200872]
 [0.6        1.00282805]
 [0.7        0.36234637]
 [0.8        1.86287014]
 [0.9        0.55653028]
 [1.         1.69420603]
 [1.1        0.74268973]
 [1.14141667 0.9328285 ]]",0,0.133
2,f,31,english,5,3,english,2024-02-09 13:55:12.834847,False,2,417,sounds\french\audio/french_904.wav,"[[  0.         -11.62176844]
 [  0.1        -97.15527311]
 [  0.2         23.7219884 ]
 [  0.3        -11.13047804]
 [  0.4         98.59989814]
 [  0.5         10.92949536]
 [  0.6         -8.2334005 ]
 [  0.7        -68.9383701 ]
 [  0.8         64.82847107]
 [  0.9        -91.99415487]
 [  1.         -52.64833553]
 [  1.1         47.97880576]
 [  1.14141667 -73.02936526]]","[[0.         1.49355087]
 [0.1        0.51193857]
 [0.2        1.25947895]
 [0.3        0.53809601]
 [0.4        0.21415281]
 [0.5        1.62896015]
 [0.6        0.06342806]
 [0.7        0.5262516 ]
 [0.8        1.37854903]
 [0.9        0.72263695]
 [1.         0.97240938]
 [1.1        0.44825995]
 [1.14141667 1.11879983]]",0,1.449
2,f,31,english,5,3,english,2024-02-09 13:55:12.834847,False,2,418,sounds\french\audio/french_82.wav,"[[  0.          72.0977367 ]
 [  0.1         13.70688001]
 [  0.2         12.2114914 ]
 [  0.3        -69.04637283]
 [  0.4         51.39319656]
 [  0.5         47.88063171]
 [  0.6         22.68060335]
 [  0.7         43.54036569]
 [  0.8         -1.40002238]
 [  0.9        -44.69291662]
 [  1.         -80.67967911]
 [  1.1        -40.96891049]
 [  1.14141667 -20.90276353]]","[[0.         1.01696947]
 [0.1        1.97290743]
 [0.2        0.08873669]
 [0.3        1.89535476]
 [0.4        0.09685831]
 [0.5        0.48800994]
 [0.6        1.51769172]
 [0.7        0.60661005]
 [0.8        0.807753  ]
 [0.9        1.80168033]
 [1.         1.61964295]
 [1.1        1.99449381]
 [1.14141667 0.77383177]]",1,2.642
2,f,31,english,5,3,english,2024-02-09 13:55:12.834847,False,2,419,sounds\french\audio/french_187.wav,"[[  0.          10.28681087]
 [  0.1        -43.75211752]
 [  0.2         93.36546932]
 [  0.3          2.3887431 ]
 [  0.4        -88.10950584]
 [  0.5          1.03076455]
 [  0.6         91.70644974]
 [  0.7         47.13601313]
 [  0.8        -63.76738084]
 [  0.9        -32.68857969]
 [  1.         -14.27222191]
 [  1.1        -46.17286194]
 [  1.14141667 -70.61213148]]","[[0.         1.60740148]
 [0.1        0.72460884]
 [0.2        1.32214639]
 [0.3        1.49726662]
 [0.4        0.25906449]
 [0.5        0.40114852]
 [0.6        1.59716532]
 [0.7        1.6475427 ]
 [0.8        0.86156779]
 [0.9        0.45795952]
 [1.         1.30527242]
 [1.1        1.82546632]
 [1.14141667 0.2766624 ]]",1,0.433
2,f,31,english,5,3,english,2024-02-09 13:55:12.834847,False,2,420,sounds\french\audio/french_992.wav,"[[  0.         -12.15353666]
 [  0.1        -16.76346839]
 [  0.2        -30.99031514]
 [  0.3        -61.11543066]
 [  0.4        -30.89876813]
 [  0.5         28.25498692]
 [  0.6        -72.49617554]
 [  0.7         48.73771299]
 [  0.8        -15.27377936]
 [  0.9        -61.51587323]
 [  1.          81.61890305]
 [  1.1        -34.31279769]
 [  1.14141667 -13.01382433]]","[[0.         1.63036785]
 [0.1        1.21725169]
 [0.2        1.01032608]
 [0.3        0.71979977]
 [0.4        0.85601455]
 [0.5        1.6899119 ]
 [0.6        1.25116451]
 [0.7        0.54341231]
 [0.8        0.19253517]
 [0.9        0.47864211]
 [1.         1.73173346]
 [1.1        1.37721075]
 [1.14141667 1.88742644]]",1,0.686
2,f,31,english,5,3,english,2024-02-09 13:55:12.834847,False,2,421,sounds\french\audio/french_204.wav,"[[  0.         -97.54424604]
 [  0.1        -75.45987253]
 [  0.2        -45.23023412]
 [  0.3        -36.48297354]
 [  0.4         90.93714811]
 [  0.5          8.51204829]
 [  0.6        -18.08952278]
 [  0.7        -30.86608274]
 [  0.8          9.52121427]
 [  0.9         32.93587108]
 [  1.           4.3572217 ]
 [  1.1         48.01606994]
 [  1.14141667 -31.34314553]]","[[0.         0.84357782]
 [0.1        1.86814554]
 [0.2        0.72033873]
 [0.3        0.94694734]
 [0.4        1.41055146]
 [0.5        1.86444056]
 [0.6        0.86787291]
 [0.7        0.05470733]
 [0.8        0.89406548]
 [0.9        0.95464127]
 [1.         1.5370853 ]
 [1.1        0.95273062]
 [1.14141667 1.18622343]]",0,0.859
2,f,31,english,5,3,english,2024-02-09 13:55:12.834847,False,2,422,sounds\french\audio/french_317.wav,"[[  0.          40.8685805 ]
 [  0.1        -18.25010816]
 [  0.2         21.38431057]
 [  0.3         95.9205375 ]
 [  0.4         38.32089871]
 [  0.5        -21.23529277]
 [  0.6         77.91728969]
 [  0.7         80.74208796]
 [  0.8          7.4329056 ]
 [  0.9         43.55624299]
 [  1.          -3.0789023 ]
 [  1.1         53.49310135]
 [  1.14141667  20.73152809]]","[[0.         0.12762298]
 [0.1        0.46117381]
 [0.2        0.51489794]
 [0.3        0.84411481]
 [0.4        0.32765242]
 [0.5        0.79138261]
 [0.6        0.47375235]
 [0.7        0.7422914 ]
 [0.8        0.34355832]
 [0.9        0.04625658]
 [1.         1.28889799]
 [1.1        1.94514932]
 [1.14141667 0.29763753]]",1,0.532
2,f,31,english,5,3,english,2024-02-09 13:55:12.834847,False,2,423,sounds\french\audio/french_931.wav,"[[  0.         -69.01025024]
 [  0.1         55.0215027 ]
 [  0.2        -87.91788028]
 [  0.3        -33.0393784 ]
 [  0.4        -72.68752112]
 [  0.5        -31.87844098]
 [  0.6        -82.83878474]
 [  0.7         33.5640508 ]
 [  0.8        -20.37118135]
 [  0.9         28.67350866]
 [  1.         -45.8203528 ]
 [  1.1          1.98964677]
 [  1.14141667  44.24014335]]","[[0.         1.27357492]
 [0.1        1.07794659]
 [0.2        0.81824311]
 [0.3        1.31896505]
 [0.4        0.67025176]
 [0.5        1.54286398]
 [0.6        0.23472784]
 [0.7        1.16459242]
 [0.8        0.71129123]
 [0.9        0.02939642]
 [1.         0.30340473]
 [1.1        1.35857862]
 [1.14141667 1.98946576]]",0,0.328
2,f,31,english,5,3,english,2024-02-09 13:55:12.834847,False,2,424,sounds\french\audio/french_663.wav,"[[  0.         -14.3254762 ]
 [  0.1         19.63428116]
 [  0.2        -91.68242216]
 [  0.3        -41.82283925]
 [  0.4        -72.80326657]
 [  0.5        -12.3349336 ]
 [  0.6        -15.30280268]
 [  0.7        -15.66686259]
 [  0.8        -77.03407899]
 [  0.9        -25.15547903]
 [  1.         -56.91868761]
 [  1.1         30.52061364]
 [  1.14141667 -30.87664349]]","[[0.         0.00837881]
 [0.1        1.01490054]
 [0.2        1.87093457]
 [0.3        1.17127261]
 [0.4        1.68516013]
 [0.5        0.32760374]
 [0.6        1.68388895]
 [0.7        1.95044404]
 [0.8        0.77619086]
 [0.9        0.62272065]
 [1.         0.1392137 ]
 [1.1        1.81424778]
 [1.14141667 0.71279161]]",0,2.238
2,f,31,english,5,3,english,2024-02-09 13:55:12.834847,False,2,425,sounds\french\audio/french_460.wav,"[[  0.         -12.29879205]
 [  0.1          3.28349047]
