subj,sex,age,language,english,french,native_lang,date,practice,block,trial,stim,pitch,stretch,response,rt
8782735929,f,25,english,5,3,english/french/other,2024-02-01 10:29:39.775433,True,0,0,sounds\french\audio/french_961.wav,"[[  0.         -57.76361631]
 [  0.1         25.39331568]
 [  0.2         12.35143873]
 [  0.3         22.75517226]
 [  0.4        -18.00705604]
 [  0.5        -39.89863119]
 [  0.6        -14.96300277]
 [  0.7        -94.00933824]
 [  0.8          3.75296714]
 [  0.9        -65.25681875]
 [  1.         -36.72733908]
 [  1.1        -39.85327237]
 [  1.14141667  88.04121989]]","[[0.         0.10893139]
 [0.1        1.43252878]
 [0.2        0.92444386]
 [0.3        1.05401088]
 [0.4        0.76286408]
 [0.5        0.39968066]
 [0.6        1.49971695]
 [0.7        0.233123  ]
 [0.8        0.79401243]
 [0.9        0.70841327]
 [1.         0.02300455]
 [1.1        1.99640547]
 [1.14141667 1.78012452]]",0,32.232
8782735929,f,25,english,5,3,english/french/other,2024-02-01 10:29:39.775433,True,0,1,sounds\french\audio/french_990.wav,"[[  0.          22.28546117]
 [  0.1        -71.06453153]
 [  0.2         -2.96842317]
 [  0.3        -38.75715458]
 [  0.4        -38.96833995]
 [  0.5        -55.35962897]
 [  0.6         74.74908097]
 [  0.7        -79.31452591]
 [  0.8         83.49012267]
 [  0.9         82.3920515 ]
 [  1.         -75.96724533]
 [  1.1         -9.23832865]
 [  1.14141667   6.54194372]]","[[0.         1.71774701]
 [0.1        1.39266075]
 [0.2        1.88952817]
 [0.3        1.20515326]
 [0.4        1.57307133]
 [0.5        1.01912695]
 [0.6        0.48659369]
 [0.7        0.16077225]
 [0.8        1.8206286 ]
 [0.9        0.6752075 ]
 [1.         1.19173339]
 [1.1        0.6319672 ]
 [1.14141667 1.17413209]]",0,14.262
8782735929,f,25,english,5,3,english/french/other,2024-02-01 10:29:39.775433,True,0,2,sounds\french\audio/french_255.wav,"[[  0.           2.442736  ]
 [  0.1         -5.83495052]
 [  0.2        -32.74029462]
 [  0.3        -17.9207749 ]
 [  0.4         53.89951696]
 [  0.5         24.94391855]
 [  0.6         80.54570604]
 [  0.7        -69.18774393]
 [  0.8        -15.07298286]
 [  0.9        -32.34798788]
 [  1.         -56.5580714 ]
 [  1.1        -26.54917843]
 [  1.14141667   7.68459279]]","[[0.         0.0501212 ]
 [0.1        0.90036752]
 [0.2        0.867095  ]
 [0.3        1.25241404]
 [0.4        1.67759172]
 [0.5        0.01553626]
 [0.6        1.57070252]
 [0.7        0.9248427 ]
 [0.8        1.33887414]
 [0.9        0.16575364]
 [1.         0.79462378]
 [1.1        1.53751958]
 [1.14141667 1.02892378]]",0,2.774
8782735929,f,25,english,5,3,english/french/other,2024-02-01 10:29:39.775433,False,1,3,sounds\french\audio/french_1.wav,"[[  0.          26.36257075]
 [  0.1         14.94364535]
 [  0.2        -55.06667651]
 [  0.3          9.22256956]
 [  0.4          5.26534665]
 [  0.5        -77.31029628]
 [  0.6         18.7127075 ]
 [  0.7         48.0646471 ]
 [  0.8         14.57442759]
 [  0.9          7.89361979]
 [  1.          -7.03618507]
 [  1.1        -82.88207817]
 [  1.14141667   7.58831171]]","[[0.         0.46363332]
 [0.1        1.03691061]
 [0.2        1.41963097]
 [0.3        1.61805148]
 [0.4        1.72014778]
 [0.5        1.90147838]
 [0.6        0.04284443]
 [0.7        1.2283672 ]
 [0.8        1.41746685]
 [0.9        0.09918081]
 [1.         1.02614047]
 [1.1        1.00877048]
 [1.14141667 0.67836911]]",0,2.106
8782735929,f,25,english,5,3,english/french/other,2024-02-01 10:29:39.775433,False,1,4,sounds\french\audio/french_981.wav,"[[  0.         -38.08669269]
 [  0.1        -73.93088907]
 [  0.2        -88.32473941]
 [  0.3         60.7364341 ]
 [  0.4        -16.1524086 ]
 [  0.5        -93.43340089]
 [  0.6        -45.31120126]
 [  0.7        -79.13047949]
 [  0.8         72.11880398]
 [  0.9        -24.42160512]
 [  1.         -37.42455043]
 [  1.1          1.64695246]
 [  1.14141667  92.37141996]]","[[0.         1.67776231]
 [0.1        1.4500739 ]
 [0.2        1.60115886]
 [0.3        1.60462547]
 [0.4        0.69020142]
 [0.5        0.54737899]
 [0.6        0.19731947]
 [0.7        1.35276023]
 [0.8        0.09347094]
 [0.9        0.88261019]
 [1.         0.20373219]
 [1.1        1.67203558]
 [1.14141667 1.72330196]]",1,4.154
8782735929,f,25,english,5,3,english/french/other,2024-02-01 10:29:39.775433,False,1,5,sounds\french\audio/french_375.wav,"[[  0.          31.10986402]
 [  0.1        -64.41627884]
 [  0.2        -43.97758131]
 [  0.3          3.5016032 ]
 [  0.4        -62.10092202]
 [  0.5          4.57148994]
 [  0.6        -39.23521385]
 [  0.7        -83.18001871]
 [  0.8         68.29182649]
 [  0.9          2.09327012]
 [  1.          79.13559059]
 [  1.1         78.47171785]
 [  1.14141667 -28.42503843]]","[[0.         0.17189217]
 [0.1        0.94028887]
 [0.2        0.78583956]
 [0.3        0.68692804]
 [0.4        1.2060681 ]
 [0.5        1.35623391]
 [0.6        1.63276043]
 [0.7        0.56752426]
 [0.8        1.48970374]
 [0.9        0.60983572]
 [1.         0.91295212]
 [1.1        0.92165738]
 [1.14141667 0.42144788]]",0,3.24
8782735929,f,25,english,5,3,english/french/other,2024-02-01 10:29:39.775433,False,1,6,sounds\french\audio/french_12.wav,"[[  0.         -48.68172333]
 [  0.1         70.91397052]
 [  0.2        -17.86739247]
 [  0.3        -14.73225587]
 [  0.4         75.23392581]
 [  0.5         -0.38538353]
 [  0.6        -22.9614484 ]
 [  0.7         16.8886563 ]
 [  0.8         33.5798334 ]
 [  0.9         -4.41287917]
 [  1.         -95.96681656]
 [  1.1         26.54904609]
 [  1.14141667 -64.50952247]]","[[0.         0.07655503]
 [0.1        0.75975218]
 [0.2        0.97135406]
 [0.3        1.230876  ]
 [0.4        0.11397004]
 [0.5        0.1757259 ]
 [0.6        0.21281103]
 [0.7        0.16946373]
 [0.8        0.97186419]
 [0.9        0.8719393 ]
 [1.         1.93533156]
 [1.1        1.01102189]
 [1.14141667 1.51400696]]",0,3.505
8782735929,f,25,english,5,3,english/french/other,2024-02-01 10:29:39.775433,False,1,7,sounds\french\audio/french_722.wav,"[[  0.          33.60432941]
 [  0.1        -11.93537629]
 [  0.2        -88.14292606]
 [  0.3         63.03464746]
 [  0.4         22.71231254]
 [  0.5         16.47127626]
 [  0.6        -84.57391125]
 [  0.7        -10.08636896]
 [  0.8         29.84658458]
 [  0.9        -34.50712381]
 [  1.          48.55411412]
 [  1.1         22.41705079]
 [  1.14141667 -36.09101224]]","[[0.         1.8577899 ]
 [0.1        0.16730472]
 [0.2        1.51968538]
 [0.3        1.10766377]
 [0.4        0.03649714]
 [0.5        0.86655357]
 [0.6        1.9734912 ]
 [0.7        1.42286059]
 [0.8        0.4534392 ]
 [0.9        0.31083088]
 [1.         0.20534641]
 [1.1        1.4074105 ]
 [1.14141667 0.81493516]]",0,2.516
8782735929,f,25,english,5,3,english/french/other,2024-02-01 10:29:39.775433,False,1,8,sounds\french\audio/french_427.wav,"[[  0.         -48.41701503]
 [  0.1        -28.57986094]
 [  0.2          0.90581005]
 [  0.3         19.09912814]
 [  0.4         82.05766861]
 [  0.5         24.08835826]
 [  0.6        -34.07004387]
 [  0.7          8.41664997]
 [  0.8        -13.86702556]
 [  0.9        -78.75947492]
 [  1.         -67.25519612]
 [  1.1         33.54583234]
 [  1.14141667  98.61757136]]","[[0.         1.56219766]
 [0.1        0.39739554]
 [0.2        1.12963232]
 [0.3        0.41932749]
 [0.4        1.84938579]
 [0.5        0.65577454]
 [0.6        0.57976152]
 [0.7        0.37472164]
 [0.8        1.58587157]
 [0.9        1.60768303]
 [1.         1.23344585]
 [1.1        0.58083121]
 [1.14141667 0.87170503]]",1,1.273
8782735929,f,25,english,5,3,english/french/other,2024-02-01 10:29:39.775433,False,1,9,sounds\french\audio/french_737.wav,"[[  0.          52.46806953]
 [  0.1         22.11164663]
 [  0.2         21.15045447]
 [  0.3         72.92020853]
 [  0.4        -88.00822782]
 [  0.5         44.92871735]
 [  0.6        -16.42488454]
 [  0.7        -38.35092669]
 [  0.8         53.07954461]
 [  0.9         -5.60043296]
 [  1.         -61.57972563]
 [  1.1        -87.96395632]
 [  1.14141667  79.0371692 ]]","[[0.         0.64173495]
 [0.1        1.02290277]
 [0.2        1.15251768]
 [0.3        0.917673  ]
 [0.4        0.17703353]
 [0.5        0.75389602]
 [0.6        0.85967356]
 [0.7        1.78468728]
 [0.8        1.36873542]
 [0.9        1.27747182]
 [1.         1.44074345]
 [1.1        1.60195725]
 [1.14141667 1.84673245]]",1,0.607
8782735929,f,25,english,5,3,english/french/other,2024-02-01 10:29:39.775433,False,1,10,sounds\french\audio/french_942.wav,"[[  0.         -62.67015298]
 [  0.1        -44.60103911]
 [  0.2         -4.08679527]
 [  0.3        -37.64081552]
 [  0.4        -42.81291345]
 [  0.5         99.15001601]
 [  0.6        -66.55575205]
 [  0.7        -63.38570027]
 [  0.8         93.42935186]
 [  0.9         69.12157289]
 [  1.          36.79091616]
 [  1.1        -89.21302821]
 [  1.14141667  37.71273628]]","[[0.         1.27040565]
 [0.1        1.40268587]
 [0.2        0.97903054]
 [0.3        0.5190488 ]
 [0.4        1.64087281]
 [0.5        1.90775185]
 [0.6        0.54156283]
 [0.7        1.6246396 ]
 [0.8        0.13921116]
 [0.9        1.82665335]
 [1.         0.51976887]
 [1.1        1.54438126]
 [1.14141667 1.42847   ]]",1,1.676
8782735929,f,25,english,5,3,english/french/other,2024-02-01 10:29:39.775433,False,1,11,sounds\french\audio/french_185.wav,"[[  0.          61.9665111 ]
 [  0.1         -9.67528114]
 [  0.2        -24.43848461]
 [  0.3        -22.73400218]
 [  0.4        -50.73837077]
 [  0.5        -80.54747318]
 [  0.6         -0.20993652]
 [  0.7         68.84584459]
 [  0.8        -15.95665439]
 [  0.9        -80.30357234]
 [  1.          -6.00916241]
 [  1.1         80.5457673 ]
 [  1.14141667  -0.48922047]]","[[0.         1.15780668]
 [0.1        0.19130474]
 [0.2        1.67912463]
 [0.3        1.52519722]
 [0.4        1.17122727]
 [0.5        1.8849469 ]
 [0.6        0.65476649]
 [0.7        0.97463014]
 [0.8        0.30159856]
 [0.9        1.31654976]
 [1.         0.73291132]
 [1.1        1.88613253]
 [1.14141667 1.34322598]]",0,1.662
8782735929,f,25,english,5,3,english/french/other,2024-02-01 10:29:39.775433,False,1,12,sounds\french\audio/french_465.wav,"[[  0.           5.88024496]
 [  0.1        -50.60926401]
 [  0.2        -75.32725367]
 [  0.3          3.44113157]
 [  0.4         29.4397182 ]
 [  0.5         45.10583861]
 [  0.6         62.97320654]
 [  0.7        -15.3501398 ]
 [  0.8        -21.75175408]
 [  0.9        -10.84821327]
 [  1.         -94.2934633 ]
 [  1.1        -58.56218585]
 [  1.14141667  30.34802461]]","[[0.         1.03079141]
 [0.1        0.07909505]
 [0.2        0.13211547]
 [0.3        0.90615472]
 [0.4        0.84429779]
 [0.5        0.8526434 ]
 [0.6        0.36671109]
 [0.7        0.46700394]
 [0.8        1.52127731]
 [0.9        0.1624174 ]
 [1.         1.32493274]
 [1.1        0.29025247]
 [1.14141667 0.5468785 ]]",1,2.724
8782735929,f,25,english,5,3,english/french/other,2024-02-01 10:29:39.775433,False,1,13,sounds\french\audio/french_788.wav,"[[  0.          84.88181246]
 [  0.1        -53.361196  ]
 [  0.2        -79.83183492]
 [  0.3        -81.43667249]
 [  0.4        -84.26984857]
 [  0.5         -6.78913133]
 [  0.6        -92.03119161]
 [  0.7        -49.77310548]
 [  0.8        -47.02560552]
 [  0.9        -18.72561961]
 [  1.         -17.58583792]
 [  1.1        -51.68507601]
 [  1.14141667 -51.32861943]]","[[0.         0.03175168]
 [0.1        0.85169606]
 [0.2        1.06249642]
 [0.3        0.33118056]
 [0.4        0.56264905]
 [0.5        1.04297642]
 [0.6        0.21097219]
 [0.7        0.74540568]
 [0.8        0.91078692]
 [0.9        1.76633496]
 [1.         0.74480247]
 [1.1        0.45106358]
 [1.14141667 1.35846838]]",0,0.861
8782735929,f,25,english,5,3,english/french/other,2024-02-01 10:29:39.775433,False,1,14,sounds\french\audio/french_88.wav,"[[  0.          93.49651554]
 [  0.1         33.16355797]
 [  0.2         30.81215822]
 [  0.3         80.22839182]
 [  0.4        -35.90646502]
 [  0.5         43.2413692 ]
 [  0.6        -17.86231302]
 [  0.7        -37.26196052]
 [  0.8        -50.9444526 ]
 [  0.9         68.04137925]
 [  1.          64.43332525]
 [  1.1         26.04623968]
 [  1.14141667  47.79324915]]","[[0.         0.80650352]
 [0.1        0.50292845]
 [0.2        1.21736231]
 [0.3        1.96398539]
 [0.4        0.4903136 ]
 [0.5        0.15637711]
 [0.6        0.19157425]
 [0.7        1.90328137]
 [0.8        0.9862881 ]
 [0.9        1.86147187]
 [1.         0.96756792]
 [1.1        1.70778109]
 [1.14141667 0.19340696]]",0,2.028
8782735929,f,25,english,5,3,english/french/other,2024-02-01 10:29:39.775433,False,1,15,sounds\french\audio/french_754.wav,"[[  0.         -84.307761  ]
 [  0.1        -47.62124767]
 [  0.2        -12.79145766]
 [  0.3        -31.8164057 ]
 [  0.4         -8.66758057]
 [  0.5        -39.98987583]
 [  0.6         85.58862918]
 [  0.7         28.85356743]
 [  0.8          8.72964996]
 [  0.9        -60.08793264]
 [  1.          51.79044132]
 [  1.1         91.281273  ]
 [  1.14141667 -82.03639439]]","[[0.         1.73493973]
 [0.1        1.3102964 ]
 [0.2        0.59352597]
 [0.3        1.7032681 ]
 [0.4        0.18685858]
 [0.5        0.87140851]
 [0.6        1.09552436]
 [0.7        0.38483895]
 [0.8        1.64570353]
 [0.9        1.67708663]
 [1.         0.3181758 ]
 [1.1        0.66657575]
 [1.14141667 1.25795178]]",0,2.041
8782735929,f,25,english,5,3,english/french/other,2024-02-01 10:29:39.775433,False,1,16,sounds\french\audio/french_339.wav,"[[  0.         -91.66719756]
 [  0.1        -40.09978494]
 [  0.2        -46.90301028]
 [  0.3         12.45337088]
 [  0.4         -7.3719957 ]
 [  0.5        -38.64502955]
 [  0.6         -0.41989507]
 [  0.7        -65.16929213]
 [  0.8        -43.18579065]
 [  0.9         25.69839136]
 [  1.          84.15479884]
 [  1.1         10.06988607]
 [  1.14141667  43.816716  ]]","[[0.         0.83274   ]
 [0.1        1.09275025]
 [0.2        0.95259452]
 [0.3        1.57352585]
 [0.4        1.00068358]
 [0.5        1.00260215]
 [0.6        1.95270399]
 [0.7        0.43011904]
 [0.8        0.35215598]
 [0.9        0.10684683]
 [1.         0.15211102]
 [1.1        1.20317356]
 [1.14141667 0.84876333]]",0,2.916
8782735929,f,25,english,5,3,english/french/other,2024-02-01 10:29:39.775433,False,1,17,sounds\french\audio/french_789.wav,"[[  0.          69.53612507]
 [  0.1         48.66484312]
 [  0.2        -72.01203103]
 [  0.3        -67.26752296]
 [  0.4        -11.1534243 ]
 [  0.5        -45.42016811]
 [  0.6          8.72911857]
 [  0.7         94.32168061]
 [  0.8        -32.05571011]
 [  0.9        -53.70986217]
 [  1.          44.14624596]
 [  1.1        -51.47253769]
 [  1.14141667 -61.00447878]]","[[0.         0.1529788 ]
 [0.1        0.37242119]
 [0.2        0.49230089]
 [0.3        0.40103962]
 [0.4        1.41340534]
 [0.5        1.63034897]
 [0.6        1.56067788]
 [0.7        0.03921667]
 [0.8        1.73882324]
 [0.9        0.69818848]
 [1.         0.50903081]
 [1.1        0.01362261]
 [1.14141667 1.34786961]]",0,0.77
8782735929,f,25,english,5,3,english/french/other,2024-02-01 10:29:39.775433,False,1,18,sounds\french\audio/french_729.wav,"[[  0.           6.02970532]
 [  0.1        -58.23115064]
 [  0.2        -79.4524648 ]
 [  0.3         25.31289493]
 [  0.4        -60.34707627]
 [  0.5        -88.40589566]
 [  0.6         51.21957515]
 [  0.7         27.50218474]
 [  0.8         -8.138588  ]
 [  0.9         -7.03673711]
 [  1.          94.92373652]
 [  1.1        -56.45846908]
 [  1.14141667  -5.25957002]]","[[0.         1.61080248]
 [0.1        1.8035096 ]
 [0.2        1.53819495]
 [0.3        0.27769673]
 [0.4        0.7897534 ]
 [0.5        0.63490444]
 [0.6        0.80684979]
 [0.7        1.59337723]
 [0.8        1.66290077]
 [0.9        1.10338309]
 [1.         1.7929398 ]
 [1.1        1.95609229]
 [1.14141667 1.67314896]]",1,0.957
8782735929,f,25,english,5,3,english/french/other,2024-02-01 10:29:39.775433,False,1,19,sounds\french\audio/french_30.wav,"[[  0.          26.66622304]
 [  0.1         44.7756476 ]
 [  0.2        -11.3520596 ]
 [  0.3         -4.87681606]
 [  0.4        -42.57857896]
 [  0.5         67.17876782]
 [  0.6         -3.30215246]
 [  0.7         -9.17249919]
 [  0.8         29.45097785]
 [  0.9        -60.52095677]
 [  1.          96.53383837]
 [  1.1         84.89885576]
 [  1.14141667  70.14672622]]","[[0.         1.24018819]
 [0.1        0.12283153]
 [0.2        0.97062851]
 [0.3        1.26015405]
 [0.4        1.61652027]
 [0.5        0.83922535]
 [0.6        0.38120587]
 [0.7        0.02314929]
 [0.8        1.31693882]
 [0.9        1.24941809]
 [1.         1.21139656]
 [1.1        0.90389111]
 [1.14141667 1.73450765]]",0,1.284
8782735929,f,25,english,5,3,english/french/other,2024-02-01 10:29:39.775433,False,1,20,sounds\french\audio/french_533.wav,"[[  0.         -12.37696907]
 [  0.1        -74.33992567]
 [  0.2         25.53493321]
 [  0.3         83.26189229]
 [  0.4        -45.64831235]
 [  0.5        -99.77349357]
 [  0.6        -74.31887281]
 [  0.7         75.20945209]
 [  0.8        -51.81750424]
 [  0.9         18.32650768]
 [  1.          73.15349763]
 [  1.1         -1.80688698]
 [  1.14141667  90.12383701]]","[[0.         0.2803327 ]
 [0.1        1.88376036]
 [0.2        0.91026639]
 [0.3        1.17113821]
 [0.4        1.71821817]
 [0.5        0.17657146]
 [0.6        1.49030567]
 [0.7        1.8602258 ]
 [0.8        0.64574509]
 [0.9        0.88825981]
 [1.         0.88956097]
 [1.1        1.29590222]
 [1.14141667 0.60373453]]",1,2.962
8782735929,f,25,english,5,3,english/french/other,2024-02-01 10:29:39.775433,False,1,21,sounds\french\audio/french_994.wav,"[[  0.         -13.19223039]
 [  0.1         22.42894848]
 [  0.2         96.57225016]
 [  0.3        -92.26156685]
 [  0.4         38.37731984]
 [  0.5         55.45251126]
 [  0.6         83.22524274]
 [  0.7         -6.38918762]
 [  0.8         -9.25087615]
 [  0.9          1.142834  ]
 [  1.         -14.25336243]
 [  1.1         83.86992227]
 [  1.14141667  46.80314452]]","[[0.         1.28697486]
 [0.1        1.16353002]
 [0.2        1.32994967]
 [0.3        1.53348662]
 [0.4        1.83809634]
 [0.5        1.30657224]
 [0.6        1.54447693]
 [0.7        1.7500677 ]
 [0.8        0.96606125]
 [0.9        0.23131782]
 [1.         0.54073787]
 [1.1        0.44425687]
 [1.14141667 0.67978189]]",0,2.128
8782735929,f,25,english,5,3,english/french/other,2024-02-01 10:29:39.775433,False,1,22,sounds\french\audio/french_13.wav,"[[  0.          28.79040646]
 [  0.1          1.43639251]
 [  0.2          8.93741283]
 [  0.3        -45.23678971]
 [  0.4        -36.64568284]
 [  0.5         95.08006425]
 [  0.6        -25.15383894]
 [  0.7         20.22064469]
 [  0.8          4.43008543]
 [  0.9         31.96842926]
 [  1.          59.17290693]
 [  1.1          3.48956858]
 [  1.14141667 -39.55658578]]","[[0.         1.71683998]
 [0.1        1.51392947]
 [0.2        1.95012388]
 [0.3        1.24720578]
 [0.4        0.6748638 ]
 [0.5        0.64178438]
 [0.6        1.78067585]
 [0.7        0.73379373]
 [0.8        0.8008251 ]
 [0.9        1.62083082]
 [1.         0.40737704]
 [1.1        0.59465297]
 [1.14141667 0.57584179]]",0,1.782
8782735929,f,25,english,5,3,english/french/other,2024-02-01 10:29:39.775433,False,1,23,sounds\french\audio/french_297.wav,"[[  0.         -57.88814484]
 [  0.1        -65.38188866]
 [  0.2         56.2043282 ]
 [  0.3         37.86944555]
 [  0.4        -19.92258325]
 [  0.5         -5.91149955]
 [  0.6        -11.69802287]
 [  0.7        -38.75754166]
 [  0.8        -82.79023729]
 [  0.9        -96.88307613]
 [  1.         -63.09042371]
 [  1.1         78.08018198]
 [  1.14141667  10.19553277]]","[[0.         0.69308764]
 [0.1        0.37987573]
 [0.2        0.59927578]
 [0.3        1.25022663]
 [0.4        0.84509442]
 [0.5        0.62575422]
 [0.6        0.6876977 ]
 [0.7        0.53792077]
 [0.8        1.01464863]
 [0.9        0.81112842]
 [1.         1.38654734]
 [1.1        0.15468479]
 [1.14141667 0.66198032]]",0,1.203
8782735929,f,25,english,5,3,english/french/other,2024-02-01 10:29:39.775433,False,1,24,sounds\french\audio/french_427.wav,"[[  0.         -48.41701503]
 [  0.1        -28.57986094]
 [  0.2          0.90581005]
 [  0.3         19.09912814]
 [  0.4         82.05766861]
 [  0.5         24.08835826]
 [  0.6        -34.07004387]
 [  0.7          8.41664997]
 [  0.8        -13.86702556]
 [  0.9        -78.75947492]
 [  1.         -67.25519612]
 [  1.1         33.54583234]
 [  1.14141667  98.61757136]]","[[0.         1.56219766]
 [0.1        0.39739554]
 [0.2        1.12963232]
 [0.3        0.41932749]
 [0.4        1.84938579]
 [0.5        0.65577454]
 [0.6        0.57976152]
 [0.7        0.37472164]
 [0.8        1.58587157]
 [0.9        1.60768303]
 [1.         1.23344585]
 [1.1        0.58083121]
 [1.14141667 0.87170503]]",0,1.024
8782735929,f,25,english,5,3,english/french/other,2024-02-01 10:29:39.775433,False,1,25,sounds\french\audio/french_908.wav,"[[  0.         -66.3779675 ]
 [  0.1        -28.5421502 ]
 [  0.2        -22.9147671 ]
 [  0.3        -34.94019935]
 [  0.4         61.86884539]
 [  0.5         83.64566059]
 [  0.6         60.86992569]
 [  0.7         58.69542131]
 [  0.8         77.06906169]
 [  0.9         38.59306526]
 [  1.         -51.51466241]
 [  1.1        -83.23936541]
 [  1.14141667 -22.89699687]]","[[0.         0.86684132]
 [0.1        1.72332505]
 [0.2        0.74533207]
 [0.3        1.21813987]
 [0.4        0.71103664]
 [0.5        1.29376765]
 [0.6        0.25389428]
 [0.7        0.35914306]
 [0.8        1.18469319]
 [0.9        1.47090381]
 [1.         0.74483344]
 [1.1        1.04145333]
 [1.14141667 1.32310488]]",0,1.047
8782735929,f,25,english,5,3,english/french/other,2024-02-01 10:29:39.775433,False,1,26,sounds\french\audio/french_955.wav,"[[  0.         -94.25756264]
 [  0.1        -34.03260107]
 [  0.2        -13.41635507]
 [  0.3        -71.54807008]
 [  0.4        -77.331913  ]
 [  0.5        -50.91677929]
 [  0.6        -49.3272692 ]
 [  0.7         14.98823062]
 [  0.8        -92.82474453]
 [  0.9         52.03391348]
 [  1.         -96.34521909]
 [  1.1         -2.783526  ]
 [  1.14141667  38.46492665]]","[[0.         0.84151631]
 [0.1        0.64154244]
 [0.2        0.7407158 ]
 [0.3        0.93666894]
 [0.4        1.77494387]
 [0.5        1.86091326]
 [0.6        0.93752328]
 [0.7        1.66003137]
 [0.8        0.78633884]
 [0.9        1.69754994]
 [1.         1.91328734]
 [1.1        0.45528324]
 [1.14141667 0.73678697]]",1,0.993
8782735929,f,25,english,5,3,english/french/other,2024-02-01 10:29:39.775433,False,1,27,sounds\french\audio/french_147.wav,"[[  0.          43.59768472]
 [  0.1          5.27615481]
 [  0.2        -44.61195544]
 [  0.3        -76.96509144]
 [  0.4        -32.44980634]
 [  0.5         70.43396506]
 [  0.6        -38.3254351 ]
 [  0.7         52.08578881]
 [  0.8        -28.17308576]
 [  0.9        -10.89832162]
 [  1.          75.90492901]
 [  1.1         18.84686186]
 [  1.14141667 -70.82963066]]","[[0.         0.75883139]
 [0.1        0.68857604]
 [0.2        1.03649149]
 [0.3        1.25844465]
 [0.4        0.35823479]
 [0.5        1.36921243]
 [0.6        1.21356569]
 [0.7        0.98986047]
 [0.8        1.9051095 ]
 [0.9        1.35815009]
 [1.         1.54610858]
 [1.1        1.77017923]
 [1.14141667 1.1558003 ]]",1,1.143
8782735929,f,25,english,5,3,english/french/other,2024-02-01 10:29:39.775433,False,1,28,sounds\french\audio/french_959.wav,"[[  0.         -38.78716583]
 [  0.1         83.97538875]
 [  0.2        -68.1228649 ]
 [  0.3        -41.95368962]
 [  0.4        -64.50673754]
 [  0.5         14.64173949]
 [  0.6         37.29610472]
 [  0.7         17.36432076]
 [  0.8         64.63054237]
 [  0.9         -0.55714174]
 [  1.         -86.63903478]
 [  1.1          9.24896972]
 [  1.14141667 -57.53848842]]","[[0.         1.01136346]
 [0.1        0.01517065]
 [0.2        1.90257515]
 [0.3        1.59883642]
 [0.4        1.27442348]
 [0.5        0.72016077]
 [0.6        1.68485577]
 [0.7        0.42613864]
 [0.8        1.15064148]
 [0.9        0.20086001]
 [1.         0.91350004]
 [1.1        0.49375307]
 [1.14141667 1.06538265]]",0,1.239
8782735929,f,25,english,5,3,english/french/other,2024-02-01 10:29:39.775433,False,1,29,sounds\french\audio/french_213.wav,"[[  0.          60.90519411]
 [  0.1         55.95280779]
 [  0.2         48.46758666]
 [  0.3        -14.18062666]
 [  0.4        -51.30201563]
 [  0.5        -37.99009317]
 [  0.6         88.99546092]
 [  0.7        -11.08339747]
 [  0.8         54.53278866]
 [  0.9        -23.49573744]
 [  1.          28.30492548]
 [  1.1         68.04425842]
 [  1.14141667  -9.70039934]]","[[0.         1.2142025 ]
 [0.1        1.85099482]
 [0.2        1.16231079]
 [0.3        1.54399184]
 [0.4        1.40754046]
 [0.5        0.99181023]
 [0.6        0.96000188]
 [0.7        0.55983951]
 [0.8        1.35940292]
 [0.9        0.29880455]
 [1.         1.73467682]
 [1.1        0.57935772]
 [1.14141667 1.18792355]]",0,1.041
8782735929,f,25,english,5,3,english/french/other,2024-02-01 10:29:39.775433,False,1,30,sounds\french\audio/french_972.wav,"[[  0.         -58.81822017]
 [  0.1         34.2814858 ]
 [  0.2         43.99607496]
 [  0.3         33.10738459]
 [  0.4         97.56823967]
 [  0.5         55.48509594]
 [  0.6          8.26795873]
 [  0.7        -94.62638325]
 [  0.8         -5.39482949]
 [  0.9         86.45351621]
 [  1.           5.06049595]
 [  1.1         53.29420755]
 [  1.14141667  35.21157931]]","[[0.         1.66981598]
 [0.1        0.83771232]
 [0.2        1.84031443]
 [0.3        0.59134414]
 [0.4        0.79653586]
 [0.5        0.79909451]
 [0.6        0.62568008]
 [0.7        1.95315118]
 [0.8        1.30361038]
 [0.9        1.20040606]
 [1.         1.77234817]
 [1.1        0.02841743]
 [1.14141667 0.93331201]]",0,5.311
8782735929,f,25,english,5,3,english/french/other,2024-02-01 10:29:39.775433,False,1,31,sounds\french\audio/french_773.wav,"[[  0.          90.88397921]
 [  0.1        -97.74548221]
 [  0.2        -81.77453318]
 [  0.3        -60.4929378 ]
 [  0.4         14.2654909 ]
 [  0.5         13.48693384]
 [  0.6        -78.61444355]
 [  0.7         52.86531268]
 [  0.8         17.19518197]
 [  0.9        -49.96848683]
 [  1.         -36.06899071]
 [  1.1         -4.80556283]
 [  1.14141667 -57.10011079]]","[[0.         1.06737054]
 [0.1        0.14530111]
 [0.2        1.50560224]
 [0.3        1.01956339]
 [0.4        1.222014  ]
 [0.5        0.55664854]
 [0.6        0.94800925]
 [0.7        0.50565971]
 [0.8        0.02729331]
 [0.9        1.80400274]
 [1.         0.44266383]
 [1.1        0.36556726]
 [1.14141667 0.33818106]]",0,2.63
8782735929,f,25,english,5,3,english/french/other,2024-02-01 10:29:39.775433,False,1,32,sounds\french\audio/french_249.wav,"[[  0.          60.2084808 ]
 [  0.1         33.79766745]
 [  0.2        -67.19130294]
 [  0.3        -89.07860563]
 [  0.4         55.46525036]
 [  0.5        -26.3415238 ]
 [  0.6         51.34404516]
 [  0.7        -29.32821096]
 [  0.8         50.27991968]
 [  0.9        -10.43676988]
 [  1.           5.00839112]
 [  1.1         24.89196533]
 [  1.14141667   1.54565791]]","[[0.         0.86559925]
 [0.1        1.55064503]
 [0.2        1.44078258]
 [0.3        1.18134184]
 [0.4        1.70386756]
 [0.5        0.52002409]
 [0.6        1.32158866]
 [0.7        1.15452897]
 [0.8        0.19271394]
 [0.9        1.46688151]
 [1.         0.5650028 ]
 [1.1        0.4009333 ]
 [1.14141667 0.66216287]]",0,1.43
8782735929,f,25,english,5,3,english/french/other,2024-02-01 10:29:39.775433,False,1,33,sounds\french\audio/french_94.wav,"[[  0.          36.17630989]
 [  0.1         14.66761443]
 [  0.2        -38.42754405]
 [  0.3        -13.35310679]
 [  0.4         26.57810187]
 [  0.5         28.67841296]
 [  0.6         22.87282504]
 [  0.7        -73.37852096]
 [  0.8        -41.71162889]
 [  0.9        -14.22920007]
 [  1.         -28.00054225]
 [  1.1        -65.6003802 ]
 [  1.14141667  32.63192122]]","[[0.         1.30255272]
 [0.1        0.32896771]
 [0.2        1.71559629]
 [0.3        0.63050452]
 [0.4        0.36223899]
 [0.5        1.65127257]
 [0.6        0.67205642]
 [0.7        0.93955545]
 [0.8        1.15247084]
 [0.9        1.35681846]
 [1.         0.73658188]
 [1.1        0.24655426]
 [1.14141667 0.38371321]]",0,1.113
8782735929,f,25,english,5,3,english/french/other,2024-02-01 10:29:39.775433,False,1,34,sounds\french\audio/french_178.wav,"[[ 0.00000000e+00  1.25806955e+00]
 [ 1.00000000e-01 -1.38642171e+01]
 [ 2.00000000e-01  4.40189021e+01]
 [ 3.00000000e-01  2.43111128e+00]
 [ 4.00000000e-01 -4.86924027e+01]
 [ 5.00000000e-01  2.97252579e+01]
 [ 6.00000000e-01  4.44385102e+01]
 [ 7.00000000e-01 -1.66976583e+01]
 [ 8.00000000e-01  6.75232857e+01]
 [ 9.00000000e-01  4.28345745e-02]
 [ 1.00000000e+00 -2.65708451e+00]
 [ 1.10000000e+00  9.45326319e+00]
 [ 1.14141667e+00 -2.42555423e+01]]","[[0.         0.89128158]
 [0.1        1.6677011 ]
 [0.2        0.73084068]
 [0.3        1.41049643]
 [0.4        1.67583375]
 [0.5        1.72049068]
 [0.6        1.15643203]
 [0.7        0.31867551]
 [0.8        0.18824388]
 [0.9        1.73114113]
 [1.         1.1905138 ]
 [1.1        0.45619335]
 [1.14141667 0.98502832]]",0,0.606
8782735929,f,25,english,5,3,english/french/other,2024-02-01 10:29:39.775433,False,1,35,sounds\french\audio/french_428.wav,"[[  0.         -21.91967555]
 [  0.1         91.57394563]
 [  0.2         36.69639527]
 [  0.3         49.32913832]
 [  0.4        -66.50012676]
 [  0.5        -22.18417908]
 [  0.6        -11.64747799]
 [  0.7         16.78402924]
 [  0.8        -35.07680491]
 [  0.9        -47.13966378]
 [  1.         -56.86354315]
 [  1.1         55.93889528]
 [  1.14141667 -72.65806652]]","[[0.         1.68245119]
 [0.1        1.59408112]
 [0.2        1.87320817]
 [0.3        0.9971053 ]
 [0.4        1.23937568]
 [0.5        0.78790083]
 [0.6        1.45514656]
 [0.7        1.30242105]
 [0.8        0.24404159]
 [0.9        1.54963109]
 [1.         0.08757984]
 [1.1        0.36331554]
 [1.14141667 1.16103238]]",0,1.297
8782735929,f,25,english,5,3,english/french/other,2024-02-01 10:29:39.775433,False,1,36,sounds\french\audio/french_609.wav,"[[  0.         -33.0990358 ]
 [  0.1        -76.8855135 ]
 [  0.2        -77.09744455]
 [  0.3         53.13274146]
 [  0.4         35.37902203]
 [  0.5         20.34548248]
 [  0.6         -6.72304145]
 [  0.7         18.07732321]
 [  0.8         95.53940519]
 [  0.9        -92.74085832]
 [  1.          56.61461398]
 [  1.1        -30.80451212]
 [  1.14141667  -4.98965675]]","[[0.         1.60128012]
 [0.1        1.70842232]
 [0.2        1.82827546]
 [0.3        0.14742697]
 [0.4        1.25283251]
 [0.5        0.26386793]
 [0.6        0.83898533]
 [0.7        0.31703682]
 [0.8        1.359658  ]
 [0.9        1.06120925]
 [1.         1.23233063]
 [1.1        0.16135233]
 [1.14141667 1.719186  ]]",0,0.768
8782735929,f,25,english,5,3,english/french/other,2024-02-01 10:29:39.775433,False,1,37,sounds\french\audio/french_802.wav,"[[  0.          91.25387544]
 [  0.1        -93.58018373]
 [  0.2          3.33553965]
 [  0.3         77.4709009 ]
 [  0.4         10.72616383]
 [  0.5        -34.24191792]
 [  0.6        -21.98275746]
 [  0.7         60.09058973]
 [  0.8        -75.04843354]
 [  0.9         95.40597302]
 [  1.          32.48945679]
 [  1.1         62.96836006]
 [  1.14141667 -95.23354614]]","[[0.         1.94483773]
 [0.1        1.12970349]
 [0.2        1.50518375]
 [0.3        1.15740231]
 [0.4        1.45577762]
 [0.5        0.74259036]
 [0.6        0.37744914]
 [0.7        1.31988029]
 [0.8        0.48724688]
 [0.9        0.80220588]
 [1.         1.68370368]
 [1.1        1.81605763]
 [1.14141667 1.88054633]]",0,0.615
8782735929,f,25,english,5,3,english/french/other,2024-02-01 10:29:39.775433,False,1,38,sounds\french\audio/french_218.wav,"[[  0.         -65.19227421]
 [  0.1         34.40906095]
 [  0.2         72.03278264]
 [  0.3        -93.25918193]
 [  0.4        -48.17760156]
 [  0.5        -59.28864978]
 [  0.6        -60.96829321]
 [  0.7        -58.25364253]
 [  0.8        -53.24962366]
 [  0.9         31.56599557]
 [  1.          -2.35908096]
 [  1.1        -37.19614485]
 [  1.14141667 -40.34637593]]","[[0.         0.61249192]
 [0.1        0.29665162]
 [0.2        1.48815427]
 [0.3        0.64038213]
 [0.4        1.87335219]
 [0.5        0.64122513]
 [0.6        0.74305484]
 [0.7        0.67858591]
 [0.8        1.61300975]
 [0.9        1.99040507]
 [1.         0.02061714]
 [1.1        1.34418041]
 [1.14141667 1.11042485]]",1,0.904
8782735929,f,25,english,5,3,english/french/other,2024-02-01 10:29:39.775433,False,1,39,sounds\french\audio/french_636.wav,"[[  0.         -16.56410436]
 [  0.1         70.24595691]
 [  0.2        -51.74354505]
 [  0.3         88.13406423]
 [  0.4         -0.4732484 ]
 [  0.5         57.62411687]
 [  0.6        -36.50720668]
 [  0.7         -7.60494341]
 [  0.8         51.63976734]
 [  0.9        -88.08154498]
 [  1.         -37.98759851]
 [  1.1          1.76185322]
 [  1.14141667 -25.89498673]]","[[0.         1.61556097]
 [0.1        0.49219237]
 [0.2        1.30301808]
 [0.3        0.4471679 ]
 [0.4        1.50761006]
 [0.5        1.5251536 ]
 [0.6        1.12576917]
 [0.7        0.79071462]
 [0.8        0.38242199]
 [0.9        0.44977354]
 [1.         1.56154847]
 [1.1        1.40608087]
 [1.14141667 0.18702721]]",1,0.766
8782735929,f,25,english,5,3,english/french/other,2024-02-01 10:29:39.775433,False,1,40,sounds\french\audio/french_737.wav,"[[  0.          52.46806953]
 [  0.1         22.11164663]
 [  0.2         21.15045447]
 [  0.3         72.92020853]
 [  0.4        -88.00822782]
 [  0.5         44.92871735]
 [  0.6        -16.42488454]
 [  0.7        -38.35092669]
 [  0.8         53.07954461]
 [  0.9         -5.60043296]
 [  1.         -61.57972563]
 [  1.1        -87.96395632]
 [  1.14141667  79.0371692 ]]","[[0.         0.64173495]
 [0.1        1.02290277]
 [0.2        1.15251768]
 [0.3        0.917673  ]
 [0.4        0.17703353]
 [0.5        0.75389602]
 [0.6        0.85967356]
 [0.7        1.78468728]
 [0.8        1.36873542]
 [0.9        1.27747182]
 [1.         1.44074345]
 [1.1        1.60195725]
 [1.14141667 1.84673245]]",1,0.547
8782735929,f,25,english,5,3,english/french/other,2024-02-01 10:29:39.775433,False,1,41,sounds\french\audio/french_852.wav,"[[  0.         -75.579629  ]
 [  0.1          9.75219201]
 [  0.2         38.69783008]
 [  0.3        -44.87561604]
 [  0.4        -64.24815105]
 [  0.5        -43.14702475]
 [  0.6        -59.55818505]
 [  0.7         81.39778674]
 [  0.8         14.94119743]
 [  0.9         12.85391635]
 [  1.         -75.05815793]
 [  1.1         15.84083523]
 [  1.14141667  84.82223355]]","[[0.         0.97237808]
 [0.1        1.6900286 ]
 [0.2        1.09971581]
 [0.3        1.9036896 ]
 [0.4        1.26745534]
 [0.5        1.16897207]
 [0.6        1.16309784]
 [0.7        0.54291031]
 [0.8        0.92960786]
 [0.9        0.23724457]
 [1.         0.52504337]
 [1.1        0.12114604]
 [1.14141667 0.83116482]]",0,1.449
8782735929,f,25,english,5,3,english/french/other,2024-02-01 10:29:39.775433,False,1,42,sounds\french\audio/french_974.wav,"[[  0.          70.97382946]
 [  0.1        -11.51206682]
 [  0.2         21.14590895]
 [  0.3         -1.24336301]
 [  0.4         -7.59562756]
 [  0.5         98.81108041]
 [  0.6          1.5690047 ]
 [  0.7         32.73857184]
 [  0.8         21.15705836]
 [  0.9         24.28285736]
 [  1.         -18.85169767]
 [  1.1        -83.94572859]
 [  1.14141667 -90.55748201]]","[[0.         1.27524467]
 [0.1        0.96634171]
 [0.2        1.94727541]
 [0.3        0.55924313]
 [0.4        0.16409288]
 [0.5        0.65824955]
 [0.6        1.04527507]
 [0.7        1.28112397]
 [0.8        1.89872216]
 [0.9        0.65988414]
 [1.         1.70679925]
 [1.1        1.83803483]
 [1.14141667 1.54364757]]",0,0.721
8782735929,f,25,english,5,3,english/french/other,2024-02-01 10:29:39.775433,False,1,43,sounds\french\audio/french_630.wav,"[[  0.         -11.85609202]
 [  0.1         96.09656475]
 [  0.2        -33.56747365]
 [  0.3         28.74577445]
 [  0.4          2.92872037]
 [  0.5         33.78274033]
 [  0.6         33.00019437]
 [  0.7         47.31284147]
 [  0.8        -99.16635588]
 [  0.9         77.81632981]
 [  1.          69.4017306 ]
 [  1.1         18.2284971 ]
 [  1.14141667 -69.99810241]]","[[0.         1.94260734]
 [0.1        1.15731247]
 [0.2        0.61883627]
 [0.3        1.63189615]
 [0.4        0.13310367]
 [0.5        0.62854349]
 [0.6        1.95286232]
 [0.7        0.55695804]
 [0.8        0.39433406]
 [0.9        0.61587688]
 [1.         1.15717027]
 [1.1        0.28159614]
 [1.14141667 1.31420192]]",1,2.411
8782735929,f,25,english,5,3,english/french/other,2024-02-01 10:29:39.775433,False,1,44,sounds\french\audio/french_477.wav,"[[  0.         -78.56555908]
 [  0.1          3.86041837]
 [  0.2         -2.64217337]
 [  0.3         52.88187811]
 [  0.4        -41.11373851]
 [  0.5         37.34234886]
 [  0.6          1.87671838]
 [  0.7         -2.94376017]
 [  0.8         65.99491653]
 [  0.9         -5.37866617]
 [  1.          10.37715511]
 [  1.1        -59.59646827]
 [  1.14141667  12.97875442]]","[[0.         0.90729918]
 [0.1        0.71019549]
 [0.2        0.28903197]
 [0.3        1.38317917]
 [0.4        0.12273644]
 [0.5        0.32232992]
 [0.6        1.10217766]
 [0.7        1.47755132]
 [0.8        1.30728206]
 [0.9        1.95965677]
 [1.         1.80733165]
 [1.1        0.82276249]
 [1.14141667 0.82116455]]",0,0.7
8782735929,f,25,english,5,3,english/french/other,2024-02-01 10:29:39.775433,False,1,45,sounds\french\audio/french_10.wav,"[[  0.          28.16844794]
 [  0.1         46.30100241]
 [  0.2        -21.12843146]
 [  0.3         -4.52409741]
 [  0.4        -24.47310068]
 [  0.5         86.31547098]
 [  0.6          4.34036217]
 [  0.7         81.8697429 ]
 [  0.8         52.86482299]
 [  0.9        -44.35586263]
 [  1.          65.0577904 ]
 [  1.1         67.73719127]
 [  1.14141667 -32.2641705 ]]","[[0.         1.16253074]
 [0.1        0.75705097]
 [0.2        0.7794308 ]
 [0.3        1.19848321]
 [0.4        1.01301561]
 [0.5        1.15552006]
 [0.6        0.763322  ]
 [0.7        0.73902021]
 [0.8        0.69164327]
 [0.9        1.48695184]
 [1.         0.54071971]
 [1.1        0.56546023]
 [1.14141667 0.40431744]]",1,0.58
8782735929,f,25,english,5,3,english/french/other,2024-02-01 10:29:39.775433,False,1,46,sounds\french\audio/french_964.wav,"[[  0.          33.09242733]
 [  0.1         35.00965651]
 [  0.2        -84.27771788]
 [  0.3        -43.99991395]
 [  0.4         85.17461764]
 [  0.5         34.90610351]
 [  0.6         44.52556005]
 [  0.7        -39.35993347]
 [  0.8        -59.26827617]
 [  0.9         -0.13276326]
 [  1.         -52.7984183 ]
 [  1.1        -26.03331608]
 [  1.14141667 -25.25531547]]","[[0.         0.20768895]
 [0.1        1.10634372]
 [0.2        1.24458485]
 [0.3        0.46794756]
 [0.4        1.27301034]
 [0.5        1.24864597]
 [0.6        1.11074861]
 [0.7        0.2163569 ]
 [0.8        1.15029488]
 [0.9        1.41986014]
 [1.         1.68989998]
 [1.1        0.52518862]
 [1.14141667 0.94660827]]",1,2.644
8782735929,f,25,english,5,3,english/french/other,2024-02-01 10:29:39.775433,False,1,47,sounds\french\audio/french_703.wav,"[[  0.         -21.37770157]
 [  0.1         50.31331321]
 [  0.2        -49.4496378 ]
 [  0.3        -38.33697717]
 [  0.4         12.97977008]
 [  0.5         66.07418181]
 [  0.6         59.04442669]
 [  0.7         52.62775671]
 [  0.8        -82.81575473]
 [  0.9         45.17803837]
 [  1.          40.13411686]
 [  1.1          8.5356203 ]
 [  1.14141667  19.72779224]]","[[0.         0.66802696]
 [0.1        1.55362381]
 [0.2        1.48463552]
 [0.3        1.06515095]
 [0.4        1.1493655 ]
 [0.5        1.63722162]
 [0.6        1.06112756]
 [0.7        0.93406202]
 [0.8        1.77561251]
 [0.9        1.09803638]
 [1.         0.34970279]
 [1.1        1.76771606]
 [1.14141667 0.04025576]]",0,0.374
8782735929,f,25,english,5,3,english/french/other,2024-02-01 10:29:39.775433,False,1,48,sounds\french\audio/french_867.wav,"[[  0.         -53.43328625]
 [  0.1        -49.97355713]
 [  0.2        -58.9249957 ]
 [  0.3         43.5637091 ]
 [  0.4        -25.84589976]
 [  0.5         22.34280216]
 [  0.6          8.86479921]
 [  0.7          2.63749871]
 [  0.8         37.73266473]
 [  0.9         85.03367681]
 [  1.         -58.31214733]
 [  1.1         -2.53716971]
 [  1.14141667  48.69326258]]","[[0.         0.97812111]
 [0.1        1.3601437 ]
 [0.2        1.54753438]
 [0.3        1.06201045]
 [0.4        0.41331847]
 [0.5        0.42681136]
 [0.6        0.521473  ]
 [0.7        0.89867922]
 [0.8        1.6707878 ]
 [0.9        1.51664813]
 [1.         0.90221678]
 [1.1        0.21770986]
 [1.14141667 0.96207289]]",0,0.551
8782735929,f,25,english,5,3,english/french/other,2024-02-01 10:29:39.775433,False,1,49,sounds\french\audio/french_601.wav,"[[  0.         -60.16261887]
 [  0.1         58.32501749]
 [  0.2        -44.78853843]
 [  0.3        -17.24266457]
 [  0.4        -78.33579563]
 [  0.5         79.97866624]
 [  0.6        -20.55581515]
 [  0.7         43.78837108]
 [  0.8        -73.15029891]
 [  0.9         90.05348961]
 [  1.          37.64890544]
 [  1.1         22.47191591]
 [  1.14141667  73.82058256]]","[[0.         1.95619765]
 [0.1        1.42765137]
 [0.2        0.44130142]
 [0.3        1.17849708]
 [0.4        0.56027503]
 [0.5        1.3872376 ]
 [0.6        0.54116968]
 [0.7        0.9642546 ]
 [0.8        1.93227631]
 [0.9        1.38785467]
 [1.         0.37718019]
 [1.1        0.7210926 ]
 [1.14141667 0.61108632]]",0,0.756
8782735929,f,25,english,5,3,english/french/other,2024-02-01 10:29:39.775433,False,1,50,sounds\french\audio/french_986.wav,"[[  0.         -28.18979011]
 [  0.1        -79.86679473]
 [  0.2        -70.04030333]
 [  0.3         75.8668501 ]
 [  0.4        -74.95441983]
 [  0.5        -63.50853955]
 [  0.6         81.68926556]
 [  0.7         54.26382882]
 [  0.8         61.99331811]
 [  0.9         52.44078663]
 [  1.         -47.46808917]
 [  1.1        -88.10324033]
 [  1.14141667 -28.1794968 ]]","[[0.         1.72220623]
 [0.1        1.34872383]
 [0.2        1.13255868]
 [0.3        1.62605135]
 [0.4        1.94369598]
 [0.5        1.29571002]
 [0.6        0.30664164]
 [0.7        1.43489697]
 [0.8        0.20277347]
 [0.9        0.94056515]
 [1.         0.04648885]
 [1.1        1.0019598 ]
 [1.14141667 1.60035051]]",0,0.809
8782735929,f,25,english,5,3,english/french/other,2024-02-01 10:29:39.775433,False,1,51,sounds\french\audio/french_278.wav,"[[  0.          44.87958556]
 [  0.1         54.45371721]
 [  0.2         45.64758291]
 [  0.3        -16.61950776]
 [  0.4        -83.29715796]
 [  0.5        -45.12452767]
 [  0.6         81.71688846]
 [  0.7        -84.47047535]
 [  0.8         62.79515498]
 [  0.9        -78.3783001 ]
 [  1.          35.83056969]
 [  1.1         -9.69110421]
 [  1.14141667 -51.62343027]]","[[0.         1.76324183]
 [0.1        0.77779847]
 [0.2        0.82423998]
 [0.3        1.09492101]
 [0.4        0.39451547]
 [0.5        1.64255071]
 [0.6        0.88909591]
 [0.7        0.77482277]
 [0.8        0.09065163]
 [0.9        1.7734822 ]
 [1.         1.91427457]
 [1.1        1.4912645 ]
 [1.14141667 0.92742676]]",1,0.369
8782735929,f,25,english,5,3,english/french/other,2024-02-01 10:29:39.775433,False,1,52,sounds\french\audio/french_265.wav,"[[  0.          51.12321039]
 [  0.1         25.63642893]
 [  0.2         51.41042146]
 [  0.3         41.43142455]
 [  0.4         67.26871967]
 [  0.5         28.986247  ]
 [  0.6        -50.80665467]
 [  0.7         47.93412809]
 [  0.8         79.27569203]
 [  0.9        -10.679964  ]
 [  1.         -80.98397082]
 [  1.1         62.80866113]
 [  1.14141667  40.63542143]]","[[0.         1.83707991]
 [0.1        0.35732668]
 [0.2        0.46346134]
 [0.3        1.31922243]
 [0.4        0.70844164]
 [0.5        0.91765005]
 [0.6        0.03872645]
 [0.7        0.81186732]
 [0.8        1.77854118]
 [0.9        1.70627077]
 [1.         0.07811215]
 [1.1        1.71393006]
 [1.14141667 0.14370024]]",0,0.448
8782735929,f,25,english,5,3,english/french/other,2024-02-01 10:29:39.775433,False,1,53,sounds\french\audio/french_908.wav,"[[  0.         -66.3779675 ]
 [  0.1        -28.5421502 ]
 [  0.2        -22.9147671 ]
 [  0.3        -34.94019935]
 [  0.4         61.86884539]
 [  0.5         83.64566059]
 [  0.6         60.86992569]
 [  0.7         58.69542131]
 [  0.8         77.06906169]
 [  0.9         38.59306526]
 [  1.         -51.51466241]
 [  1.1        -83.23936541]
 [  1.14141667 -22.89699687]]","[[0.         0.86684132]
 [0.1        1.72332505]
 [0.2        0.74533207]
 [0.3        1.21813987]
 [0.4        0.71103664]
 [0.5        1.29376765]
 [0.6        0.25389428]
 [0.7        0.35914306]
 [0.8        1.18469319]
 [0.9        1.47090381]
 [1.         0.74483344]
 [1.1        1.04145333]
 [1.14141667 1.32310488]]",1,0.833
8782735929,f,25,english,5,3,english/french/other,2024-02-01 10:29:39.775433,False,1,54,sounds\french\audio/french_277.wav,"[[  0.          41.08697403]
 [  0.1         73.08255676]
 [  0.2         43.08380993]
 [  0.3         21.02518819]
 [  0.4         37.78172954]
 [  0.5         23.93679705]
 [  0.6        -67.69710766]
 [  0.7         13.42536336]
 [  0.8         51.4556767 ]
 [  0.9        -56.6842947 ]
 [  1.          28.39117481]
 [  1.1         34.75019827]
 [  1.14141667 -68.6754391 ]]","[[0.         1.6200344 ]
 [0.1        1.77085985]
 [0.2        1.23064254]
 [0.3        0.65610838]
 [0.4        0.97608822]
 [0.5        1.2635416 ]
 [0.6        0.50594858]
 [0.7        1.65502646]
 [0.8        0.51878313]
 [0.9        0.73572105]
 [1.         0.30914429]
 [1.1        1.8798641 ]
 [1.14141667 1.7546161 ]]",0,0.342
8782735929,f,25,english,5,3,english/french/other,2024-02-01 10:29:39.775433,False,1,55,sounds\french\audio/french_808.wav,"[[ 0.00000000e+00  9.49972315e+00]
 [ 1.00000000e-01 -3.16348767e+00]
 [ 2.00000000e-01  2.58164380e+01]
 [ 3.00000000e-01  5.80208500e+01]
 [ 4.00000000e-01  4.02357313e+01]
 [ 5.00000000e-01 -7.52309438e-02]
 [ 6.00000000e-01  3.03624230e+01]
 [ 7.00000000e-01 -7.96646620e+01]
 [ 8.00000000e-01 -9.40191844e+01]
 [ 9.00000000e-01  5.10290891e+01]
 [ 1.00000000e+00 -3.02984752e+01]
 [ 1.10000000e+00 -8.41581543e+01]
 [ 1.14141667e+00  5.34166874e+01]]","[[0.         1.11576728]
 [0.1        0.47240736]
 [0.2        1.01512058]
 [0.3        1.31233941]
 [0.4        0.13872257]
 [0.5        1.22367784]
 [0.6        0.7368745 ]
 [0.7        1.19529711]
 [0.8        0.4901866 ]
 [0.9        1.57392299]
 [1.         0.31335607]
 [1.1        0.84962475]
 [1.14141667 1.11832837]]",1,1.125
8782735929,f,25,english,5,3,english/french/other,2024-02-01 10:29:39.775433,False,1,56,sounds\french\audio/french_330.wav,"[[  0.          79.95487352]
 [  0.1          7.2273164 ]
 [  0.2        -46.18281556]
 [  0.3         71.79513562]
 [  0.4        -55.81483833]
 [  0.5         -0.36311167]
 [  0.6        -26.48743473]
 [  0.7        -83.94185596]
 [  0.8        -33.65600914]
 [  0.9         64.51376195]
 [  1.         -29.49606256]
 [  1.1        -20.74888201]
 [  1.14141667  37.10154127]]","[[0.         1.29283894]
 [0.1        0.83120423]
 [0.2        1.08340912]
 [0.3        0.67737942]
 [0.4        0.73711237]
 [0.5        0.48894153]
 [0.6        0.26964317]
 [0.7        1.53010393]
 [0.8        0.84264515]
 [0.9        1.9810336 ]
 [1.         0.43026632]
 [1.1        0.7309591 ]
 [1.14141667 1.84112847]]",1,0.651
8782735929,f,25,english,5,3,english/french/other,2024-02-01 10:29:39.775433,False,1,57,sounds\french\audio/french_85.wav,"[[  0.           3.08109357]
 [  0.1        -21.54269935]
 [  0.2         58.40468752]
 [  0.3        -44.80508381]
 [  0.4         15.37543313]
 [  0.5        -32.72970915]
 [  0.6         17.52827206]
 [  0.7        -36.57417586]
 [  0.8        -67.33478788]
 [  0.9        -33.90304802]
 [  1.          66.89588482]
 [  1.1         72.72777812]
 [  1.14141667  23.33179158]]","[[0.         0.79505741]
 [0.1        1.39851671]
 [0.2        1.92719931]
 [0.3        0.09306407]
 [0.4        0.59942855]
 [0.5        1.93601007]
 [0.6        0.67895574]
 [0.7        1.40501236]
 [0.8        1.20657959]
 [0.9        0.3359078 ]
 [1.         1.46542978]
 [1.1        0.72819859]
 [1.14141667 0.55736633]]",0,0.39
8782735929,f,25,english,5,3,english/french/other,2024-02-01 10:29:39.775433,False,1,58,sounds\french\audio/french_903.wav,"[[  0.         -30.9940869 ]
 [  0.1        -51.85288644]
 [  0.2          9.37565232]
 [  0.3        -65.56040136]
 [  0.4        -20.59983465]
 [  0.5        -81.87958144]
 [  0.6         -2.02758668]
 [  0.7        -50.52631335]
 [  0.8         61.79138453]
 [  0.9         14.74849978]
 [  1.          90.51411256]
 [  1.1         21.53536294]
 [  1.14141667 -52.68287573]]","[[0.         1.1028355 ]
 [0.1        1.41515079]
 [0.2        0.09010735]
 [0.3        0.80440488]
 [0.4        1.66392086]
 [0.5        1.51454605]
 [0.6        1.51747342]
 [0.7        1.16263681]
 [0.8        0.22680531]
 [0.9        1.67852395]
 [1.         1.15648316]
 [1.1        0.37061547]
 [1.14141667 1.51798738]]",1,0.403
8782735929,f,25,english,5,3,english/french/other,2024-02-01 10:29:39.775433,False,1,59,sounds\french\audio/french_560.wav,"[[  0.         -11.74144783]
 [  0.1         -0.35641237]
 [  0.2          4.21534923]
 [  0.3        -32.05544241]
 [  0.4        -88.46473304]
 [  0.5        -81.48556818]
 [  0.6         65.45345491]
 [  0.7        -34.34624363]
 [  0.8        -19.91129378]
 [  0.9        -91.92174427]
 [  1.         -10.81219232]
 [  1.1         76.35325221]
 [  1.14141667  76.66363562]]","[[0.         1.20996667]
 [0.1        0.39351598]
 [0.2        0.8276889 ]
 [0.3        0.43459246]
 [0.4        0.34472109]
 [0.5        1.11269407]
 [0.6        1.51504069]
 [0.7        1.97532041]
 [0.8        1.15858954]
 [0.9        1.16478245]
 [1.         1.17685042]
 [1.1        1.01088448]
 [1.14141667 0.00977172]]",0,0.902
8782735929,f,25,english,5,3,english/french/other,2024-02-01 10:29:39.775433,False,1,60,sounds\french\audio/french_479.wav,"[[  0.          -1.20230986]
 [  0.1        -97.64332549]
 [  0.2        -86.19449335]
 [  0.3         -7.49654588]
 [  0.4         35.98913636]
 [  0.5         18.23013073]
 [  0.6        -54.98117387]
 [  0.7         93.83807515]
 [  0.8        -38.50737552]
 [  0.9        -46.41686699]
 [  1.          22.94872594]
 [  1.1         74.55146343]
 [  1.14141667  20.37228089]]","[[0.         0.20404821]
 [0.1        1.69681   ]
 [0.2        0.56198468]
 [0.3        0.43639433]
 [0.4        1.01923849]
 [0.5        1.87276459]
 [0.6        0.12831679]
 [0.7        1.97624929]
 [0.8        1.70037019]
 [0.9        1.50303773]
 [1.         1.59230137]
 [1.1        0.57712271]
 [1.14141667 1.6445358 ]]",1,0.474
8782735929,f,25,english,5,3,english/french/other,2024-02-01 10:29:39.775433,False,1,61,sounds\french\audio/french_765.wav,"[[  0.         -21.76223445]
 [  0.1        -69.88378146]
 [  0.2        -54.62116144]
 [  0.3         80.40698851]
 [  0.4         44.49094145]
 [  0.5        -34.58786744]
 [  0.6        -82.72511393]
 [  0.7        -17.30470796]
 [  0.8         -3.21936287]
 [  0.9         34.09717353]
 [  1.         -34.0267679 ]
 [  1.1         91.79101104]
 [  1.14141667  44.37260858]]","[[0.         1.58709165]
 [0.1        1.30096868]
 [0.2        0.79134487]
 [0.3        1.38985141]
 [0.4        1.16396661]
 [0.5        0.50418915]
 [0.6        0.66043503]
 [0.7        0.90266971]
 [0.8        0.65632044]
 [0.9        1.38813555]
 [1.         1.56070696]
 [1.1        1.04399467]
 [1.14141667 0.73913352]]",0,0.59
8782735929,f,25,english,5,3,english/french/other,2024-02-01 10:29:39.775433,False,1,62,sounds\french\audio/french_501.wav,"[[  0.          70.80325455]
 [  0.1         32.99532509]
 [  0.2        -59.91289339]
 [  0.3         38.55218779]
 [  0.4         41.33808145]
 [  0.5         99.48150634]
 [  0.6        -45.98669111]
 [  0.7        -62.891142  ]
 [  0.8         50.81821258]
 [  0.9        -20.76584947]
 [  1.          61.69357739]
 [  1.1        -40.14477821]
 [  1.14141667 -46.23855813]]","[[0.         0.55356198]
 [0.1        0.17154651]
 [0.2        0.72125866]
 [0.3        1.79487967]
 [0.4        1.32571503]
 [0.5        1.42540593]
 [0.6        0.08406428]
 [0.7        0.07826428]
 [0.8        0.42577733]
 [0.9        1.35097126]
 [1.         0.3676293 ]
 [1.1        0.57090448]
 [1.14141667 0.88663615]]",0,1.023
8782735929,f,25,english,5,3,english/french/other,2024-02-01 10:29:39.775433,False,1,63,sounds\french\audio/french_900.wav,"[[  0.          17.12559696]
 [  0.1        -56.5671441 ]
 [  0.2         14.51884338]
 [  0.3        -18.58724125]
 [  0.4         60.24825847]
 [  0.5         37.11732505]
 [  0.6         64.67645387]
 [  0.7        -71.32739236]
 [  0.8        -29.12352211]
 [  0.9        -23.92624308]
 [  1.         -44.03405283]
 [  1.1        -24.43123867]
 [  1.14141667  85.71719888]]","[[0.         0.28086039]
 [0.1        0.25898492]
 [0.2        0.73738281]
 [0.3        0.53194872]
 [0.4        1.1731198 ]
 [0.5        1.44096814]
 [0.6        1.04426766]
 [0.7        1.30561608]
 [0.8        0.38583175]
 [0.9        1.06522554]
 [1.         1.24631605]
 [1.1        0.11257647]
 [1.14141667 1.16173008]]",1,0.902
8782735929,f,25,english,5,3,english/french/other,2024-02-01 10:29:39.775433,False,1,64,sounds\french\audio/french_429.wav,"[[  0.         -75.74586018]
 [  0.1         34.66734772]
 [  0.2         97.60199652]
 [  0.3         -1.67223154]
 [  0.4        -69.67975193]
 [  0.5          1.53849988]
 [  0.6         61.62356176]
 [  0.7         34.03398927]
 [  0.8        -30.09572591]
 [  0.9        -80.19873121]
 [  1.           6.60020559]
 [  1.1        -22.42838039]
 [  1.14141667 -84.64983628]]","[[0.         1.28446117]
 [0.1        1.91886237]
 [0.2        0.78737694]
 [0.3        0.63419954]
 [0.4        0.86614415]
 [0.5        0.67079309]
 [0.6        0.78677565]
 [0.7        0.38539195]
 [0.8        0.21197006]
 [0.9        0.76692658]
 [1.         1.37154021]
 [1.1        1.06053947]
 [1.14141667 1.20326298]]",1,0.627
8782735929,f,25,english,5,3,english/french/other,2024-02-01 10:29:39.775433,False,1,65,sounds\french\audio/french_215.wav,"[[  0.          25.06649138]
 [  0.1        -75.62802154]
 [  0.2        -55.29126892]
 [  0.3        -31.13502895]
 [  0.4         99.96854364]
 [  0.5        -39.05274208]
 [  0.6        -48.65324171]
 [  0.7        -29.47734718]
 [  0.8         33.80663658]
 [  0.9        -21.30312991]
 [  1.          38.90898009]
 [  1.1         56.3377574 ]
 [  1.14141667  88.63688248]]","[[0.         0.73263287]
 [0.1        0.44309032]
 [0.2        0.69551141]
 [0.3        0.38506305]
 [0.4        0.52359658]
 [0.5        1.76965852]
 [0.6        1.14560288]
 [0.7        0.88778636]
 [0.8        1.18058041]
 [0.9        1.84333153]
 [1.         0.25005538]
 [1.1        1.84007576]
 [1.14141667 1.00047255]]",0,0.627
8782735929,f,25,english,5,3,english/french/other,2024-02-01 10:29:39.775433,False,1,66,sounds\french\audio/french_752.wav,"[[  0.          34.41371414]
 [  0.1         14.80466577]
 [  0.2         74.3043598 ]
 [  0.3        -77.13621083]
 [  0.4         70.32500444]
 [  0.5         34.75569951]
 [  0.6         80.57354741]
 [  0.7         15.56334688]
 [  0.8         85.58814621]
 [  0.9         38.60264584]
 [  1.          -2.86267761]
 [  1.1         79.56587881]
 [  1.14141667 -84.62804294]]","[[0.         1.9791919 ]
 [0.1        1.83037093]
 [0.2        0.40593576]
 [0.3        1.74575453]
 [0.4        0.26577505]
 [0.5        0.70202735]
 [0.6        0.39412162]
 [0.7        0.9711471 ]
 [0.8        1.79720256]
 [0.9        1.09938166]
 [1.         0.83455272]
 [1.1        0.64213106]
 [1.14141667 1.19502277]]",1,0.805
8782735929,f,25,english,5,3,english/french/other,2024-02-01 10:29:39.775433,False,1,67,sounds\french\audio/french_888.wav,"[[  0.          96.44398525]
 [  0.1         58.64276863]
 [  0.2         51.81481339]
 [  0.3        -64.43762051]
 [  0.4         63.07008095]
 [  0.5        -43.71617537]
 [  0.6        -84.48557002]
 [  0.7         14.0703742 ]
 [  0.8         19.35462783]
 [  0.9         56.69702577]
 [  1.          31.89376026]
 [  1.1         24.17860953]
 [  1.14141667   6.37321077]]","[[0.         1.17315673]
 [0.1        1.27749253]
 [0.2        1.1144114 ]
 [0.3        1.21045132]
 [0.4        0.41630439]
 [0.5        1.08327256]
 [0.6        0.86809625]
 [0.7        0.60841711]
 [0.8        1.19219408]
 [0.9        0.43210491]
 [1.         1.42396854]
 [1.1        1.30706823]
 [1.14141667 1.87189595]]",0,0.172
8782735929,f,25,english,5,3,english/french/other,2024-02-01 10:29:39.775433,False,1,68,sounds\french\audio/french_70.wav,"[[  0.          68.41479291]
 [  0.1        -31.57074258]
 [  0.2         54.18509107]
 [  0.3        -27.61159617]
 [  0.4          9.88541267]
 [  0.5        -66.17038178]
 [  0.6         16.79110143]
 [  0.7        -71.29172846]
 [  0.8        -78.6433042 ]
 [  0.9         65.673143  ]
 [  1.         -39.65305515]
 [  1.1         60.42476441]
 [  1.14141667  30.88064967]]","[[0.         0.92661768]
 [0.1        1.34654012]
 [0.2        1.48916953]
 [0.3        1.1176716 ]
 [0.4        0.7045852 ]
 [0.5        1.36995745]
 [0.6        1.75041761]
 [0.7        1.65540967]
 [0.8        0.08362863]
 [0.9        1.74250385]
 [1.         1.28772167]
 [1.1        1.44177421]
 [1.14141667 0.77305231]]",0,2.081
8782735929,f,25,english,5,3,english/french/other,2024-02-01 10:29:39.775433,False,1,69,sounds\french\audio/french_407.wav,"[[  0.         -52.73012387]
 [  0.1        -28.5729864 ]
 [  0.2        -47.07796397]
 [  0.3         17.74684299]
 [  0.4         37.34640295]
 [  0.5        -42.43796403]
 [  0.6        -61.80417458]
 [  0.7        -21.46496731]
 [  0.8         95.609946  ]
 [  0.9         16.31222417]
 [  1.         -16.20883131]
 [  1.1        -36.82799384]
 [  1.14141667  63.4089875 ]]","[[0.         0.24402757]
 [0.1        1.29210695]
 [0.2        0.06046572]
 [0.3        1.10042584]
 [0.4        1.69104448]
 [0.5        0.59648632]
 [0.6        0.39705946]
 [0.7        0.26343711]
 [0.8        0.85042411]
 [0.9        1.08752782]
 [1.         1.29538933]
 [1.1        0.90220762]
 [1.14141667 1.14604251]]",1,0.606
8782735929,f,25,english,5,3,english/french/other,2024-02-01 10:29:39.775433,False,1,70,sounds\french\audio/french_992.wav,"[[  0.         -12.15353666]
 [  0.1        -16.76346839]
 [  0.2        -30.99031514]
 [  0.3        -61.11543066]
 [  0.4        -30.89876813]
 [  0.5         28.25498692]
 [  0.6        -72.49617554]
 [  0.7         48.73771299]
 [  0.8        -15.27377936]
 [  0.9        -61.51587323]
 [  1.          81.61890305]
 [  1.1        -34.31279769]
 [  1.14141667 -13.01382433]]","[[0.         1.63036785]
 [0.1        1.21725169]
 [0.2        1.01032608]
 [0.3        0.71979977]
 [0.4        0.85601455]
 [0.5        1.6899119 ]
 [0.6        1.25116451]
 [0.7        0.54341231]
 [0.8        0.19253517]
 [0.9        0.47864211]
 [1.         1.73173346]
 [1.1        1.37721075]
 [1.14141667 1.88742644]]",0,0.45
8782735929,f,25,english,5,3,english/french/other,2024-02-01 10:29:39.775433,False,1,71,sounds\french\audio/french_373.wav,"[[  0.         -19.00823309]
 [  0.1        -20.01708078]
 [  0.2        -59.01936034]
 [  0.3         89.73735508]
 [  0.4         62.13320779]
 [  0.5         52.97479545]
 [  0.6         -6.74329887]
 [  0.7         27.2712617 ]
 [  0.8        -73.55107905]
 [  0.9        -71.0486175 ]
 [  1.          19.59643173]
 [  1.1         54.76394447]
 [  1.14141667 -39.43230923]]","[[0.         0.61729131]
 [0.1        1.01940371]
 [0.2        1.15362396]
 [0.3        1.64179084]
 [0.4        0.75224656]
 [0.5        1.16586274]
 [0.6        0.01386647]
 [0.7        0.58835344]
 [0.8        0.56225182]
 [0.9        1.16946431]
 [1.         0.84473904]
 [1.1        1.10005173]
 [1.14141667 0.72757016]]",0,0.265
8782735929,f,25,english,5,3,english/french/other,2024-02-01 10:29:39.775433,False,1,72,sounds\french\audio/french_580.wav,"[[  0.          25.72367309]
 [  0.1        -90.22264513]
 [  0.2        -41.00446139]
 [  0.3         -5.68850956]
 [  0.4         73.58502836]
 [  0.5        -21.93392185]
 [  0.6         22.10254243]
 [  0.7        -79.6738306 ]
 [  0.8        -14.71861733]
 [  0.9         -0.72546407]
 [  1.          14.32622757]
 [  1.1        -17.22514553]
 [  1.14141667  91.12485479]]","[[0.         0.83672034]
 [0.1        1.17700555]
 [0.2        0.86031616]
 [0.3        1.31884624]
 [0.4        0.50096962]
 [0.5        1.67954592]
 [0.6        1.67101568]
 [0.7        0.19873264]
 [0.8        1.68323733]
 [0.9        0.50457607]
 [1.         1.32157054]
 [1.1        0.77895262]
 [1.14141667 0.13067195]]",1,0.517
8782735929,f,25,english,5,3,english/french/other,2024-02-01 10:29:39.775433,False,1,73,sounds\french\audio/french_770.wav,"[[  0.          -6.4888623 ]
 [  0.1         10.25935382]
 [  0.2        -98.41393192]
 [  0.3        -40.92801907]
 [  0.4         66.22295087]
 [  0.5        -30.24910195]
 [  0.6         47.10720128]
 [  0.7          4.7507049 ]
 [  0.8        -40.48688364]
 [  0.9        -47.0079054 ]
 [  1.           2.83601634]
 [  1.1         10.67776144]
 [  1.14141667  45.53025902]]","[[0.         1.58204947]
 [0.1        0.75621705]
 [0.2        0.6737112 ]
 [0.3        1.47717622]
 [0.4        1.33888104]
 [0.5        0.77255852]
 [0.6        1.63339195]
 [0.7        1.91064047]
 [0.8        1.54599539]
 [0.9        0.48737493]
 [1.         1.73547944]
 [1.1        0.45897774]
 [1.14141667 0.90041339]]",0,3.537
8782735929,f,25,english,5,3,english/french/other,2024-02-01 10:29:39.775433,False,1,74,sounds\french\audio/french_635.wav,"[[  0.         -32.006425  ]
 [  0.1         98.74707192]
 [  0.2         19.43104605]
 [  0.3        -83.9130263 ]
 [  0.4        -14.55275882]
 [  0.5        -34.15529229]
 [  0.6         22.38890545]
 [  0.7        -11.42027576]
 [  0.8         88.98766127]
 [  0.9        -94.51548481]
 [  1.         -45.63563989]
 [  1.1         27.73920543]
 [  1.14141667 -59.05501484]]","[[0.         0.3460517 ]
 [0.1        1.36854871]
 [0.2        0.57268428]
 [0.3        1.65457572]
 [0.4        1.20009912]
 [0.5        0.09946247]
 [0.6        0.27678562]
 [0.7        0.68226029]
 [0.8        0.27295014]
 [0.9        1.75198478]
 [1.         0.9844266 ]
 [1.1        0.17766763]
 [1.14141667 0.29826397]]",1,1.395
8782735929,f,25,english,5,3,english/french/other,2024-02-01 10:29:39.775433,False,1,75,sounds\french\audio/french_665.wav,"[[  0.          40.10949249]
 [  0.1        -62.11772623]
 [  0.2         10.37983959]
 [  0.3        -90.96267468]
 [  0.4        -82.59415996]
 [  0.5         72.10201259]
 [  0.6          7.07517584]
 [  0.7         17.81948605]
 [  0.8        -75.16725794]
 [  0.9         86.62263138]
 [  1.         -39.56803586]
 [  1.1        -92.62860056]
 [  1.14141667  37.86117833]]","[[0.         1.54602454]
 [0.1        0.85820789]
 [0.2        1.54593526]
 [0.3        1.66779558]
 [0.4        1.76178738]
 [0.5        0.44098313]
 [0.6        1.49710418]
 [0.7        1.04266642]
 [0.8        1.09545449]
 [0.9        0.00262512]
 [1.         1.93103182]
 [1.1        1.53232008]
 [1.14141667 1.33107791]]",0,0.877
8782735929,f,25,english,5,3,english/french/other,2024-02-01 10:29:39.775433,False,1,76,sounds\french\audio/french_172.wav,"[[  0.          52.55822797]
 [  0.1         36.03304437]
 [  0.2         87.57540256]
 [  0.3         -1.02225297]
 [  0.4        -45.72834283]
 [  0.5        -78.07098029]
 [  0.6         66.92119406]
 [  0.7         54.13458116]
 [  0.8          9.25383275]
 [  0.9         84.2289997 ]
 [  1.         -92.0852474 ]
 [  1.1        -58.15058713]
 [  1.14141667 -93.51230148]]","[[0.         1.64690449]
 [0.1        1.13416013]
 [0.2        0.18828869]
 [0.3        1.03936139]
 [0.4        1.57744061]
 [0.5        0.88465221]
 [0.6        1.26318424]
 [0.7        0.93894817]
 [0.8        1.37261227]
 [0.9        0.51589031]
 [1.         0.04731792]
 [1.1        0.7131693 ]
 [1.14141667 0.70039891]]",1,1.031
8782735929,f,25,english,5,3,english/french/other,2024-02-01 10:29:39.775433,False,1,77,sounds\french\audio/french_72.wav,"[[  0.          28.80890163]
 [  0.1          1.83594253]
 [  0.2        -49.19445344]
 [  0.3        -70.77665619]
 [  0.4         -7.07365357]
 [  0.5         -3.71167603]
 [  0.6         -5.89788173]
 [  0.7         -8.85470239]
 [  0.8        -41.07718235]
 [  0.9         74.79866108]
 [  1.          67.9411898 ]
 [  1.1        -68.57372393]
 [  1.14141667   4.6478635 ]]","[[0.         0.00807448]
 [0.1        1.18328739]
 [0.2        0.21319227]
 [0.3        1.3297124 ]
 [0.4        0.54545246]
 [0.5        1.13976731]
 [0.6        1.92534018]
 [0.7        1.58910715]
 [0.8        0.82088611]
 [0.9        1.16352624]
 [1.         0.62223628]
 [1.1        1.92120245]
 [1.14141667 0.9834755 ]]",0,2.38
8782735929,f,25,english,5,3,english/french/other,2024-02-01 10:29:39.775433,False,1,78,sounds\french\audio/french_318.wav,"[[  0.         -31.42676596]
 [  0.1        -45.69666133]
 [  0.2         42.60143121]
 [  0.3        -87.89208815]
 [  0.4        -61.68151552]
 [  0.5         80.55619607]
 [  0.6        -41.8589192 ]
 [  0.7        -13.86846959]
 [  0.8        -94.6811558 ]
 [  0.9        -29.32140474]
 [  1.          74.05579859]
 [  1.1        -43.44744043]
 [  1.14141667  44.84196134]]","[[0.         1.63103424]
 [0.1        1.93624975]
 [0.2        0.81258394]
 [0.3        0.40497325]
 [0.4        0.5117739 ]
 [0.5        0.85325217]
 [0.6        0.11882034]
 [0.7        0.48269689]
 [0.8        1.96435637]
 [0.9        0.25977776]
 [1.         1.52953043]
 [1.1        1.50332708]
 [1.14141667 0.84311706]]",0,0.6
8782735929,f,25,english,5,3,english/french/other,2024-02-01 10:29:39.775433,False,1,79,sounds\french\audio/french_132.wav,"[[  0.         -39.49992325]
 [  0.1         12.56464433]
 [  0.2        -19.66121961]
 [  0.3         17.53643983]
 [  0.4        -30.93006167]
 [  0.5         94.6587443 ]
 [  0.6        -17.81116059]
 [  0.7        -55.25606882]
 [  0.8        -83.71334373]
 [  0.9        -64.39924359]
 [  1.          -5.39233106]
 [  1.1        -83.89184369]
 [  1.14141667  20.67053146]]","[[0.         1.25715362]
 [0.1        1.38299609]
 [0.2        1.31353323]
 [0.3        0.57903675]
 [0.4        0.433016  ]
 [0.5        1.86936927]
 [0.6        1.74080781]
 [0.7        0.26557052]
 [0.8        1.15851722]
 [0.9        1.13892556]
 [1.         0.881703  ]
 [1.1        0.12509231]
 [1.14141667 1.62422028]]",1,1.62
8782735929,f,25,english,5,3,english/french/other,2024-02-01 10:29:39.775433,False,1,80,sounds\french\audio/french_463.wav,"[[  0.         -28.25289602]
 [  0.1        -29.96157941]
 [  0.2        -35.61602773]
 [  0.3         64.20990909]
 [  0.4        -63.83515399]
 [  0.5         71.59997763]
 [  0.6         89.31755347]
 [  0.7        -98.14659704]
 [  0.8         33.66167072]
 [  0.9         67.16249153]
 [  1.         -48.02468866]
 [  1.1          0.355648  ]
 [  1.14141667 -15.74672825]]","[[0.         0.03820079]
 [0.1        1.06701123]
 [0.2        1.17367249]
 [0.3        0.16492654]
 [0.4        0.16398837]
 [0.5        1.39593521]
 [0.6        1.25797632]
 [0.7        0.35849906]
 [0.8        0.72596435]
 [0.9        1.46059629]
 [1.         0.19516894]
 [1.1        1.55106472]
 [1.14141667 1.61627541]]",0,0.447
8782735929,f,25,english,5,3,english/french/other,2024-02-01 10:29:39.775433,False,1,81,sounds\french\audio/french_375.wav,"[[  0.          31.10986402]
 [  0.1        -64.41627884]
 [  0.2        -43.97758131]
 [  0.3          3.5016032 ]
 [  0.4        -62.10092202]
 [  0.5          4.57148994]
 [  0.6        -39.23521385]
 [  0.7        -83.18001871]
 [  0.8         68.29182649]
 [  0.9          2.09327012]
 [  1.          79.13559059]
 [  1.1         78.47171785]
 [  1.14141667 -28.42503843]]","[[0.         0.17189217]
 [0.1        0.94028887]
 [0.2        0.78583956]
 [0.3        0.68692804]
 [0.4        1.2060681 ]
 [0.5        1.35623391]
 [0.6        1.63276043]
 [0.7        0.56752426]
 [0.8        1.48970374]
 [0.9        0.60983572]
 [1.         0.91295212]
 [1.1        0.92165738]
 [1.14141667 0.42144788]]",0,0.724
8782735929,f,25,english,5,3,english/french/other,2024-02-01 10:29:39.775433,False,1,82,sounds\french\audio/french_214.wav,"[[  0.         -79.72583695]
 [  0.1        -68.16335949]
 [  0.2         12.7031491 ]
 [  0.3        -73.51726197]
 [  0.4         14.53718817]
 [  0.5        -35.7865464 ]
 [  0.6        -20.4344568 ]
 [  0.7        -99.35771384]
 [  0.8         86.91939497]
 [  0.9        -25.24426974]
 [  1.         -60.56392666]
 [  1.1         64.39502353]
 [  1.14141667  77.69133565]]","[[0.         1.62139429]
 [0.1        1.4901457 ]
 [0.2        1.78274672]
 [0.3        0.35151464]
 [0.4        0.87795234]
 [0.5        1.14461815]
 [0.6        1.91768043]
 [0.7        0.9470318 ]
 [0.8        1.04643305]
 [0.9        1.3223723 ]
 [1.         0.5907476 ]
 [1.1        0.28658765]
 [1.14141667 0.25263984]]",0,1.092
8782735929,f,25,english,5,3,english/french/other,2024-02-01 10:29:39.775433,False,1,83,sounds\french\audio/french_556.wav,"[[  0.         -30.62895729]
 [  0.1         64.37703021]
 [  0.2         36.98575807]
 [  0.3         19.11574957]
 [  0.4         89.62577902]
 [  0.5         60.7088706 ]
 [  0.6        -62.8516134 ]
 [  0.7        -39.43238068]
 [  0.8        -47.12121114]
 [  0.9         11.83990719]
 [  1.         -21.1475117 ]
 [  1.1         -1.79697267]
 [  1.14141667 -69.11891229]]","[[0.         1.84589581]
 [0.1        1.73651451]
 [0.2        0.16567731]
 [0.3        0.31305634]
 [0.4        1.79061468]
 [0.5        0.86994548]
 [0.6        1.36507629]
 [0.7        0.69698054]
 [0.8        1.7863841 ]
 [0.9        0.92331121]
 [1.         1.29940684]
 [1.1        1.17001647]
 [1.14141667 0.89909852]]",1,0.705
8782735929,f,25,english,5,3,english/french/other,2024-02-01 10:29:39.775433,False,1,84,sounds\french\audio/french_293.wav,"[[  0.          13.88157175]
 [  0.1          2.23867218]
 [  0.2        -40.7386732 ]
 [  0.3          6.10244728]
 [  0.4         32.8477373 ]
 [  0.5        -60.22275726]
 [  0.6        -73.78584082]
 [  0.7        -39.23060497]
 [  0.8         13.36329351]
 [  0.9         16.41932854]
 [  1.          44.79400967]
 [  1.1         34.65582677]
 [  1.14141667  28.28906565]]","[[0.         0.60053573]
 [0.1        1.35819194]
 [0.2        0.02818672]
 [0.3        1.13378846]
 [0.4        1.04896096]
 [0.5        1.31947449]
 [0.6        0.64719086]
 [0.7        1.73705065]
 [0.8        1.2092819 ]
 [0.9        0.87930659]
 [1.         1.38260782]
 [1.1        1.24528476]
 [1.14141667 1.87043564]]",0,0.441
8782735929,f,25,english,5,3,english/french/other,2024-02-01 10:29:39.775433,False,1,85,sounds\french\audio/french_830.wav,"[[  0.          -2.85762792]
 [  0.1         30.83696213]
 [  0.2         -9.99534054]
 [  0.3        -75.78117433]
 [  0.4        -79.13116379]
 [  0.5        -84.43767296]
 [  0.6        -98.32096608]
 [  0.7         94.49350783]
 [  0.8         16.26694438]
 [  0.9        -81.38170848]
 [  1.         -96.05472144]
 [  1.1          9.94997024]
 [  1.14141667 -93.55782037]]","[[0.         0.67431838]
 [0.1        1.3551783 ]
 [0.2        1.74652366]
 [0.3        1.24846933]
 [0.4        1.57954196]
 [0.5        0.24990638]
 [0.6        0.30601481]
 [0.7        1.08411071]
 [0.8        1.03541521]
 [0.9        1.00910825]
 [1.         0.47166871]
 [1.1        1.73458478]
 [1.14141667 1.93651676]]",0,0.725
8782735929,f,25,english,5,3,english/french/other,2024-02-01 10:29:39.775433,False,1,86,sounds\french\audio/french_258.wav,"[[  0.          37.22701874]
 [  0.1          6.71940744]
 [  0.2        -18.76940089]
 [  0.3         36.26227666]
 [  0.4        -34.88396823]
 [  0.5        -78.53695723]
 [  0.6         -4.58841963]
 [  0.7        -63.43254299]
 [  0.8         55.19266091]
 [  0.9         -6.46020219]
 [  1.         -92.09359713]
 [  1.1          9.31587121]
 [  1.14141667  61.51426033]]","[[0.         1.03683817]
 [0.1        0.57203008]
 [0.2        1.6622525 ]
 [0.3        1.67203833]
 [0.4        1.66876048]
 [0.5        0.19149526]
 [0.6        0.70565578]
 [0.7        0.92778185]
 [0.8        0.47828598]
 [0.9        1.45333572]
 [1.         1.48240536]
 [1.1        0.47596337]
 [1.14141667 0.46645483]]",0,1.691
8782735929,f,25,english,5,3,english/french/other,2024-02-01 10:29:39.775433,False,1,87,sounds\french\audio/french_449.wav,"[[  0.          48.07237211]
 [  0.1         10.50044698]
 [  0.2         99.10264915]
 [  0.3         44.97033086]
 [  0.4        -41.32684653]
 [  0.5        -79.7525466 ]
 [  0.6         50.40932694]
 [  0.7         52.6193965 ]
 [  0.8        -15.31474709]
 [  0.9        -28.04173939]
 [  1.           9.78914311]
 [  1.1        -78.00931625]
 [  1.14141667 -11.66917093]]","[[0.         1.574298  ]
 [0.1        0.465888  ]
 [0.2        1.49470087]
 [0.3        1.26780995]
 [0.4        0.48746737]
 [0.5        0.73531069]
 [0.6        0.94941626]
 [0.7        1.08611184]
 [0.8        0.81949253]
 [0.9        1.27162102]
 [1.         1.38692301]
 [1.1        0.89469579]
 [1.14141667 1.6806745 ]]",0,0.603
8782735929,f,25,english,5,3,english/french/other,2024-02-01 10:29:39.775433,False,1,88,sounds\french\audio/french_897.wav,"[[  0.         -26.22801359]
 [  0.1         54.88249524]
 [  0.2        -61.89999753]
 [  0.3        -39.16934717]
 [  0.4        -83.10033466]
 [  0.5        -24.03027332]
 [  0.6        -10.01438576]
 [  0.7        -53.20735298]
 [  0.8         -7.45882083]
 [  0.9         24.36426577]
 [  1.         -43.69873215]
 [  1.1          1.62866067]
 [  1.14141667  -5.58077754]]","[[0.         1.74666581]
 [0.1        0.37705953]
 [0.2        1.97260084]
 [0.3        0.50629265]
 [0.4        1.99794903]
 [0.5        1.02145621]
 [0.6        1.05564508]
 [0.7        0.634951  ]
 [0.8        1.03539482]
 [0.9        0.88460179]
 [1.         0.12128671]
 [1.1        1.46236151]
 [1.14141667 0.62307572]]",0,0.476
8782735929,f,25,english,5,3,english/french/other,2024-02-01 10:29:39.775433,False,1,89,sounds\french\audio/french_833.wav,"[[  0.         -22.64377916]
 [  0.1         39.23109032]
 [  0.2         59.98257397]
 [  0.3        -65.49669768]
 [  0.4         95.44390213]
 [  0.5         16.36680149]
 [  0.6        -95.74603826]
 [  0.7          6.50870015]
 [  0.8         55.04487349]
 [  0.9         83.33960194]
 [  1.          20.98555864]
 [  1.1        -86.19858113]
 [  1.14141667 -62.40303258]]","[[0.         0.41211545]
 [0.1        1.22030284]
 [0.2        1.60836668]
 [0.3        0.84423089]
 [0.4        0.37549497]
 [0.5        0.89903376]
 [0.6        1.16761525]
 [0.7        0.92946369]
 [0.8        0.59809775]
 [0.9        0.0823061 ]
 [1.         0.9055233 ]
 [1.1        0.76109733]
 [1.14141667 0.74455165]]",0,0.902
8782735929,f,25,english,5,3,english/french/other,2024-02-01 10:29:39.775433,False,1,90,sounds\french\audio/french_78.wav,"[[ 0.00000000e+00  5.78432984e+01]
 [ 1.00000000e-01  7.04555337e+01]
 [ 2.00000000e-01 -9.19906274e+01]
 [ 3.00000000e-01  1.07627670e+01]
 [ 4.00000000e-01 -7.40017040e+00]
 [ 5.00000000e-01  4.07751849e+01]
 [ 6.00000000e-01  5.24518169e+00]
 [ 7.00000000e-01  1.63081452e+01]
 [ 8.00000000e-01  3.44430788e+01]
 [ 9.00000000e-01 -6.14074175e+01]
 [ 1.00000000e+00 -2.91313338e+01]
 [ 1.10000000e+00 -8.03889644e+01]
 [ 1.14141667e+00  7.37703972e-02]]","[[0.         1.89318731]
 [0.1        1.32239381]
 [0.2        1.51459028]
 [0.3        0.85876673]
 [0.4        0.55407005]
 [0.5        0.14412382]
 [0.6        1.84027889]
 [0.7        0.23745334]
 [0.8        1.6316856 ]
 [0.9        1.07108834]
 [1.         0.46005232]
 [1.1        0.50966126]
 [1.14141667 0.5166272 ]]",1,0.554
8782735929,f,25,english,5,3,english/french/other,2024-02-01 10:29:39.775433,False,1,91,sounds\french\audio/french_774.wav,"[[  0.           9.83885445]
 [  0.1        -98.61163295]
 [  0.2        -53.0003268 ]
 [  0.3         67.55233727]
 [  0.4        -25.70793796]
 [  0.5         92.0831493 ]
 [  0.6         54.58794218]
 [  0.7        -99.7650473 ]
 [  0.8         38.64749518]
 [  0.9         80.65889942]
 [  1.           6.94619559]
 [  1.1         36.40208287]
 [  1.14141667 -33.4860138 ]]","[[0.         1.49989175]
 [0.1        1.44348715]
 [0.2        1.64880248]
 [0.3        0.01819088]
 [0.4        1.11963974]
 [0.5        1.57052563]
 [0.6        1.49268288]
 [0.7        0.54873159]
 [0.8        0.90006733]
 [0.9        0.38923512]
 [1.         0.33656127]
 [1.1        1.29679542]
 [1.14141667 0.33566792]]",0,0.507
8782735929,f,25,english,5,3,english/french/other,2024-02-01 10:29:39.775433,False,1,92,sounds\french\audio/french_412.wav,"[[  0.          80.33750743]
 [  0.1         50.4773299 ]
 [  0.2          7.50934865]
 [  0.3         -9.23463682]
 [  0.4          9.13658121]
 [  0.5         11.12128685]
 [  0.6        -94.30640228]
 [  0.7        -51.41178114]
 [  0.8         28.26572128]
 [  0.9        -71.75232094]
 [  1.          86.09965629]
 [  1.1         27.28800681]
 [  1.14141667  32.1776899 ]]","[[0.         1.13543916]
 [0.1        1.15832638]
 [0.2        0.2432056 ]
 [0.3        1.81011187]
 [0.4        0.142234  ]
 [0.5        1.17532286]
 [0.6        1.06397509]
 [0.7        1.83631312]
 [0.8        1.0285842 ]
 [0.9        1.74888075]
 [1.         1.95722924]
 [1.1        1.49997067]
 [1.14141667 0.76864943]]",1,2.534
8782735929,f,25,english,5,3,english/french/other,2024-02-01 10:29:39.775433,False,1,93,sounds\french\audio/french_71.wav,"[[  0.          78.85650806]
 [  0.1         98.66013561]
 [  0.2         40.76629431]
 [  0.3         37.46576167]
 [  0.4         36.62059925]
 [  0.5        -15.30499106]
 [  0.6         13.92967978]
 [  0.7         41.98872019]
 [  0.8         86.5834428 ]
 [  0.9        -38.49262182]
 [  1.          17.09638043]
 [  1.1        -31.08676799]
 [  1.14141667  -1.70593486]]","[[0.         0.8693317 ]
 [0.1        0.2047511 ]
 [0.2        0.17301427]
 [0.3        0.67884544]
 [0.4        0.49967362]
 [0.5        0.06276407]
 [0.6        1.96544584]
 [0.7        0.03052065]
 [0.8        0.2363001 ]
 [0.9        0.76897263]
 [1.         0.53014972]
 [1.1        0.03830657]
 [1.14141667 1.08106094]]",0,1.067
8782735929,f,25,english,5,3,english/french/other,2024-02-01 10:29:39.775433,False,1,94,sounds\french\audio/french_319.wav,"[[  0.         -75.17146498]
 [  0.1         46.33935976]
 [  0.2        -45.77559624]
 [  0.3          9.72100852]
 [  0.4        -30.50694127]
 [  0.5        -94.17429558]
 [  0.6        -28.13617215]
 [  0.7        -28.4188466 ]
 [  0.8        -90.88658969]
 [  0.9        -86.52176531]
 [  1.         -71.77832171]
 [  1.1        -45.71816919]
 [  1.14141667 -83.07448419]]","[[0.         1.089409  ]
 [0.1        1.6263792 ]
 [0.2        1.21732858]
 [0.3        1.37490977]
 [0.4        0.6324598 ]
 [0.5        1.7974238 ]
 [0.6        0.57188639]
 [0.7        1.86268987]
 [0.8        0.77070175]
 [0.9        0.98256413]
 [1.         1.81058431]
 [1.1        0.40934231]
 [1.14141667 1.33989868]]",0,1.137
8782735929,f,25,english,5,3,english/french/other,2024-02-01 10:29:39.775433,False,1,95,sounds\french\audio/french_902.wav,"[[  0.         -59.83898707]
 [  0.1          2.81569072]
 [  0.2        -53.15669969]
 [  0.3         53.66756274]
 [  0.4         -9.57716581]
 [  0.5         33.17943133]
 [  0.6         24.57927277]
 [  0.7         16.44625536]
 [  0.8         23.39904081]
 [  0.9        -30.48387662]
 [  1.          -1.42450385]
 [  1.1        -54.8338484 ]
 [  1.14141667  12.56476458]]","[[0.         1.4884204 ]
 [0.1        0.86195341]
 [0.2        0.92234706]
 [0.3        0.8159244 ]
 [0.4        1.39024481]
 [0.5        0.86390772]
 [0.6        1.52193383]
 [0.7        0.8147185 ]
 [0.8        0.44423885]
 [0.9        1.11070816]
 [1.         0.62020849]
 [1.1        1.49306166]
 [1.14141667 0.57204239]]",0,0.545
8782735929,f,25,english,5,3,english/french/other,2024-02-01 10:29:39.775433,False,1,96,sounds\french\audio/french_693.wav,"[[  0.          85.06863742]
 [  0.1         68.65637618]
 [  0.2        -64.93166306]
 [  0.3          9.02094246]
 [  0.4         30.21577577]
 [  0.5        -45.55013979]
 [  0.6        -22.45894718]
 [  0.7        -22.03690569]
 [  0.8        -72.74256114]
 [  0.9         79.55542456]
 [  1.           3.37293032]
 [  1.1        -26.61524733]
 [  1.14141667 -12.67054895]]","[[0.         1.43800555]
 [0.1        1.1319261 ]
 [0.2        1.31376129]
 [0.3        1.44469297]
 [0.4        0.25926005]
 [0.5        1.97890068]
 [0.6        0.76035239]
 [0.7        0.26797463]
 [0.8        0.09379237]
 [0.9        1.21622186]
 [1.         0.59723312]
 [1.1        1.86545966]
 [1.14141667 1.32223551]]",0,0.794
8782735929,f,25,english,5,3,english/french/other,2024-02-01 10:29:39.775433,False,1,97,sounds\french\audio/french_385.wav,"[[  0.           0.26733614]
 [  0.1        -18.24660657]
 [  0.2         -1.63329583]
 [  0.3        -53.99175433]
 [  0.4        -17.66023476]
 [  0.5          3.1243391 ]
 [  0.6        -95.81759375]
 [  0.7        -61.20869899]
 [  0.8         34.50966377]
 [  0.9         54.89583718]
 [  1.          43.73805328]
 [  1.1          0.88522794]
 [  1.14141667 -22.7353341 ]]","[[0.         0.49188365]
 [0.1        1.21077827]
 [0.2        1.83419001]
 [0.3        0.30289836]
 [0.4        1.97290826]
 [0.5        1.42430172]
 [0.6        1.73354995]
 [0.7        1.17190473]
 [0.8        0.7396263 ]
 [0.9        1.79738689]
 [1.         1.22336712]
 [1.1        1.97507642]
 [1.14141667 0.95232181]]",0,0.872
8782735929,f,25,english,5,3,english/french/other,2024-02-01 10:29:39.775433,False,1,98,sounds\french\audio/french_444.wav,"[[  0.          87.77909642]
 [  0.1          6.94972025]
 [  0.2         98.20857903]
 [  0.3        -35.32566364]
 [  0.4        -66.21920686]
 [  0.5        -74.00275706]
 [  0.6        -89.76463472]
 [  0.7         90.23942867]
 [  0.8        -81.90686285]
 [  0.9          5.03977492]
 [  1.          94.83681906]
 [  1.1        -46.16486493]
 [  1.14141667   7.32353635]]","[[0.         0.96730071]
 [0.1        1.64754835]
 [0.2        0.34232644]
 [0.3        0.90396438]
 [0.4        1.59193054]
 [0.5        1.69980703]
 [0.6        0.62529401]
 [0.7        0.0404836 ]
 [0.8        0.34890232]
 [0.9        1.70546998]
 [1.         1.15170641]
 [1.1        0.22788225]
 [1.14141667 1.99633075]]",1,0.482
8782735929,f,25,english,5,3,english/french/other,2024-02-01 10:29:39.775433,False,1,99,sounds\french\audio/french_884.wav,"[[  0.          76.60838861]
 [  0.1        -41.71607783]
 [  0.2          3.78955534]
 [  0.3         84.8602831 ]
 [  0.4         16.24540696]
 [  0.5         68.23827876]
 [  0.6        -39.71005998]
 [  0.7        -63.62075652]
 [  0.8        -57.73110382]
 [  0.9        -99.10016615]
 [  1.         -27.53166894]
 [  1.1        -48.35308155]
 [  1.14141667 -12.55349758]]","[[0.         1.25391535]
 [0.1        0.49990107]
 [0.2        1.78461269]
 [0.3        1.65174889]
 [0.4        0.71422903]
 [0.5        0.8676404 ]
 [0.6        0.5442146 ]
 [0.7        1.40281909]
 [0.8        0.85462819]
 [0.9        0.70808592]
 [1.         1.31831149]
 [1.1        0.34930191]
 [1.14141667 0.2030207 ]]",0,0.937
8782735929,f,25,english,5,3,english/french/other,2024-02-01 10:29:39.775433,False,1,100,sounds\french\audio/french_758.wav,"[[  0.          41.40251797]
 [  0.1         83.22068517]
 [  0.2        -17.02894859]
 [  0.3        -57.78871378]
 [  0.4        -26.28467223]
 [  0.5          1.34940172]
 [  0.6         73.49827232]
 [  0.7        -10.43882846]
 [  0.8        -36.52394931]
 [  0.9        -31.42286667]
 [  1.         -59.6641431 ]
 [  1.1         39.4290765 ]
 [  1.14141667 -44.19004616]]","[[0.         0.56085544]
 [0.1        0.97554237]
 [0.2        0.01004143]
 [0.3        1.03626599]
 [0.4        0.33244231]
 [0.5        1.08481581]
 [0.6        0.0829296 ]
 [0.7        1.10238348]
 [0.8        1.35072621]
 [0.9        1.63267541]
 [1.         0.28303542]
 [1.1        0.53687214]
 [1.14141667 0.94196396]]",0,0.488
8782735929,f,25,english,5,3,english/french/other,2024-02-01 10:29:39.775433,False,1,101,sounds\french\audio/french_494.wav,"[[  0.         -63.06404362]
 [  0.1         96.51347021]
 [  0.2         -2.42253065]
 [  0.3        -48.75339143]
 [  0.4        -24.81746908]
 [  0.5         48.2850129 ]
 [  0.6         54.45085632]
 [  0.7        -83.01359294]
 [  0.8        -84.59229686]
 [  0.9        -65.14189239]
 [  1.         -11.3391069 ]
 [  1.1         78.07442638]
 [  1.14141667 -31.23345007]]","[[0.         1.09976962]
 [0.1        1.87842448]
 [0.2        1.92383282]
 [0.3        1.77831814]
 [0.4        0.55991085]
 [0.5        1.16635493]
 [0.6        1.39460853]
 [0.7        1.30103041]
 [0.8        1.62563762]
 [0.9        0.22506805]
 [1.         0.45947007]
 [1.1        0.29396602]
 [1.14141667 0.46095403]]",1,0.602
8782735929,f,25,english,5,3,english/french/other,2024-02-01 10:29:39.775433,False,1,102,sounds\french\audio/french_445.wav,"[[  0.         -13.69643402]
 [  0.1         36.92445062]
 [  0.2         21.43114689]
 [  0.3         24.77090101]
 [  0.4         77.265015  ]
 [  0.5         28.30807518]
 [  0.6         18.43259479]
 [  0.7        -79.61204071]
 [  0.8         80.96656343]
 [  0.9         -8.33056755]
 [  1.          -7.46638384]
 [  1.1         -0.65732392]
 [  1.14141667 -17.80379885]]","[[0.         0.73484181]
 [0.1        1.41360661]
 [0.2        0.52466555]
 [0.3        1.58726839]
 [0.4        1.42575361]
 [0.5        1.55292683]
 [0.6        0.02964328]
 [0.7        1.36780768]
 [0.8        0.02073761]
 [0.9        0.3007781 ]
 [1.         0.17343981]
 [1.1        0.65758319]
 [1.14141667 0.41522681]]",0,0.606
8782735929,f,25,english,5,3,english/french/other,2024-02-01 10:29:39.775433,False,1,103,sounds\french\audio/french_972.wav,"[[  0.         -58.81822017]
 [  0.1         34.2814858 ]
 [  0.2         43.99607496]
 [  0.3         33.10738459]
 [  0.4         97.56823967]
 [  0.5         55.48509594]
 [  0.6          8.26795873]
 [  0.7        -94.62638325]
 [  0.8         -5.39482949]
 [  0.9         86.45351621]
 [  1.           5.06049595]
 [  1.1         53.29420755]
 [  1.14141667  35.21157931]]","[[0.         1.66981598]
 [0.1        0.83771232]
 [0.2        1.84031443]
 [0.3        0.59134414]
 [0.4        0.79653586]
 [0.5        0.79909451]
 [0.6        0.62568008]
 [0.7        1.95315118]
 [0.8        1.30361038]
 [0.9        1.20040606]
 [1.         1.77234817]
 [1.1        0.02841743]
 [1.14141667 0.93331201]]",1,0.562
8782735929,f,25,english,5,3,english/french/other,2024-02-01 10:29:39.775433,False,1,104,sounds\french\audio/french_818.wav,"[[  0.         -64.54705195]
 [  0.1        -91.61229029]
 [  0.2        -35.88082764]
 [  0.3         32.95002598]
 [  0.4         96.16696272]
 [  0.5        -48.65661003]
 [  0.6         25.73992633]
 [  0.7         -4.3414441 ]
 [  0.8        -93.84475958]
 [  0.9         -3.13234897]
 [  1.          47.01287281]
 [  1.1         59.21891233]
 [  1.14141667 -20.63650262]]","[[0.         0.40470359]
 [0.1        0.43509238]
 [0.2        1.96085692]
 [0.3        1.7784599 ]
 [0.4        0.64261238]
 [0.5        1.18267194]
 [0.6        1.67096599]
 [0.7        0.44090251]
 [0.8        0.30247145]
 [0.9        1.0976871 ]
 [1.         0.50195876]
 [1.1        0.49926872]
 [1.14141667 1.67818596]]",0,0.534
8782735929,f,25,english,5,3,english/french/other,2024-02-01 10:29:39.775433,False,1,105,sounds\french\audio/french_462.wav,"[[  0.          84.3369576 ]
 [  0.1         36.79048727]
 [  0.2         97.87832592]
 [  0.3        -59.30260184]
 [  0.4         -3.27952494]
 [  0.5         68.21893327]
 [  0.6        -69.29684535]
 [  0.7        -13.15553229]
 [  0.8         86.11314581]
 [  0.9         57.06361677]
 [  1.         -29.41015559]
 [  1.1         16.3701653 ]
 [  1.14141667  72.14553851]]","[[0.         1.25832813]
 [0.1        1.27617891]
 [0.2        0.34943573]
 [0.3        0.84539824]
 [0.4        1.57318103]
 [0.5        0.94682889]
 [0.6        0.71247574]
 [0.7        0.50326288]
 [0.8        1.73607664]
 [0.9        1.1928267 ]
 [1.         0.97251074]
 [1.1        0.13741037]
 [1.14141667 0.73566388]]",1,0.568
8782735929,f,25,english,5,3,english/french/other,2024-02-01 10:29:39.775433,False,1,106,sounds\french\audio/french_738.wav,"[[  0.          11.8703901 ]
 [  0.1         13.57498851]
 [  0.2         24.46312938]
 [  0.3        -45.15325381]
 [  0.4         56.73807885]
 [  0.5         17.44370226]
 [  0.6         75.3946945 ]
 [  0.7        -28.26163831]
 [  0.8          5.39469378]
 [  0.9         18.72219056]
 [  1.          25.3895976 ]
 [  1.1         71.997083  ]
 [  1.14141667  20.31463869]]","[[0.         0.1719551 ]
 [0.1        0.5210504 ]
 [0.2        0.82726276]
 [0.3        1.009931  ]
 [0.4        0.08955624]
 [0.5        0.7410831 ]
 [0.6        0.51673435]
 [0.7        0.86251906]
 [0.8        0.61384821]
 [0.9        0.49002446]
 [1.         0.7595735 ]
 [1.1        0.36123927]
 [1.14141667 0.95039546]]",0,0.457
8782735929,f,25,english,5,3,english/french/other,2024-02-01 10:29:39.775433,False,1,107,sounds\french\audio/french_70.wav,"[[  0.          68.41479291]
 [  0.1        -31.57074258]
 [  0.2         54.18509107]
 [  0.3        -27.61159617]
 [  0.4          9.88541267]
 [  0.5        -66.17038178]
 [  0.6         16.79110143]
 [  0.7        -71.29172846]
 [  0.8        -78.6433042 ]
 [  0.9         65.673143  ]
 [  1.         -39.65305515]
 [  1.1         60.42476441]
 [  1.14141667  30.88064967]]","[[0.         0.92661768]
 [0.1        1.34654012]
 [0.2        1.48916953]
 [0.3        1.1176716 ]
 [0.4        0.7045852 ]
 [0.5        1.36995745]
 [0.6        1.75041761]
 [0.7        1.65540967]
 [0.8        0.08362863]
 [0.9        1.74250385]
 [1.         1.28772167]
 [1.1        1.44177421]
 [1.14141667 0.77305231]]",0,1.102
8782735929,f,25,english,5,3,english/french/other,2024-02-01 10:29:39.775433,False,1,108,sounds\french\audio/french_267.wav,"[[  0.          18.62194101]
 [  0.1        -41.76587146]
 [  0.2        -89.0319753 ]
 [  0.3         -9.29393358]
 [  0.4          4.87685639]
 [  0.5         55.48582026]
 [  0.6         68.06270027]
 [  0.7         73.37283609]
 [  0.8         87.54245383]
 [  0.9        -36.95251774]
 [  1.          15.0077511 ]
 [  1.1          1.73751708]
 [  1.14141667 -26.35169503]]","[[0.         1.74719476]
 [0.1        1.66560927]
 [0.2        0.63204019]
 [0.3        1.85189237]
 [0.4        1.63232166]
 [0.5        0.52529496]
 [0.6        0.12234138]
 [0.7        0.34795173]
 [0.8        1.84655651]
 [0.9        1.60281613]
 [1.         0.17639531]
 [1.1        1.90986938]
 [1.14141667 1.88890826]]",0,0.913
8782735929,f,25,english,5,3,english/french/other,2024-02-01 10:29:39.775433,False,1,109,sounds\french\audio/french_103.wav,"[[  0.           2.91786926]
 [  0.1         23.30029005]
 [  0.2         28.01552046]
 [  0.3        -51.40874307]
 [  0.4        -99.21557126]
 [  0.5         19.84118939]
 [  0.6        -65.99225766]
 [  0.7         40.39751922]
 [  0.8         74.789965  ]
 [  0.9        -43.83163503]
 [  1.          57.49015739]
 [  1.1         25.73775256]
 [  1.14141667 -31.20389674]]","[[0.         0.93245286]
 [0.1        0.22329417]
 [0.2        0.96994087]
 [0.3        0.86608645]
 [0.4        1.27002085]
 [0.5        0.69713375]
 [0.6        1.27865319]
 [0.7        0.4711572 ]
 [0.8        1.04688334]
 [0.9        1.42282614]
 [1.         0.52926459]
 [1.1        0.76349625]
 [1.14141667 0.16787847]]",1,0.7
8782735929,f,25,english,5,3,english/french/other,2024-02-01 10:29:39.775433,False,1,110,sounds\french\audio/french_294.wav,"[[  0.          46.81190633]
 [  0.1        -55.55833329]
 [  0.2        -78.93236635]
 [  0.3         80.59595566]
 [  0.4         54.71021816]
 [  0.5        -35.95549528]
 [  0.6         90.04358931]
 [  0.7         48.97978382]
 [  0.8         85.35893159]
 [  0.9         37.71160702]
 [  1.         -84.35185751]
 [  1.1        -45.28301264]
 [  1.14141667  78.04325437]]","[[0.         0.85502539]
 [0.1        0.73187702]
 [0.2        1.40827844]
 [0.3        1.8594958 ]
 [0.4        1.03951107]
 [0.5        0.90602699]
 [0.6        0.40420579]
 [0.7        0.11158967]
 [0.8        1.1950669 ]
 [0.9        0.53171982]
 [1.         0.12056925]
 [1.1        1.01856401]
 [1.14141667 1.12267397]]",0,0.301
8782735929,f,25,english,5,3,english/french/other,2024-02-01 10:29:39.775433,False,1,111,sounds\french\audio/french_51.wav,"[[  0.          62.4944225 ]
 [  0.1         61.10498272]
 [  0.2        -42.55198692]
 [  0.3        -72.35169931]
 [  0.4        -39.72934283]
 [  0.5         -0.87762192]
 [  0.6          7.66993076]
 [  0.7         -6.36433464]
 [  0.8        -39.73719786]
 [  0.9        -64.33065086]
 [  1.          34.09936964]
 [  1.1         93.5102441 ]
 [  1.14141667  81.02465116]]","[[0.         0.56001198]
 [0.1        1.54758202]
 [0.2        0.60904928]
 [0.3        1.71890081]
 [0.4        0.5014883 ]
 [0.5        1.02109286]
 [0.6        1.51415411]
 [0.7        1.90557728]
 [0.8        0.23887444]
 [0.9        0.05375229]
 [1.         0.21145589]
 [1.1        0.42199399]
 [1.14141667 0.67338837]]",1,0.521
8782735929,f,25,english,5,3,english/french/other,2024-02-01 10:29:39.775433,False,1,112,sounds\french\audio/french_85.wav,"[[  0.           3.08109357]
 [  0.1        -21.54269935]
 [  0.2         58.40468752]
 [  0.3        -44.80508381]
 [  0.4         15.37543313]
 [  0.5        -32.72970915]
 [  0.6         17.52827206]
 [  0.7        -36.57417586]
 [  0.8        -67.33478788]
 [  0.9        -33.90304802]
 [  1.          66.89588482]
 [  1.1         72.72777812]
 [  1.14141667  23.33179158]]","[[0.         0.79505741]
 [0.1        1.39851671]
 [0.2        1.92719931]
 [0.3        0.09306407]
 [0.4        0.59942855]
 [0.5        1.93601007]
 [0.6        0.67895574]
 [0.7        1.40501236]
 [0.8        1.20657959]
 [0.9        0.3359078 ]
 [1.         1.46542978]
 [1.1        0.72819859]
 [1.14141667 0.55736633]]",0,0.538
8782735929,f,25,english,5,3,english/french/other,2024-02-01 10:29:39.775433,False,1,113,sounds\french\audio/french_260.wav,"[[  0.         -53.54532591]
 [  0.1         35.21996958]
 [  0.2        -90.61068842]
 [  0.3        -75.12121039]
 [  0.4         48.70710406]
 [  0.5         86.28946076]
 [  0.6         45.489544  ]
 [  0.7         44.57812094]
 [  0.8         44.11209944]
 [  0.9        -21.41342931]
 [  1.         -84.20192647]
 [  1.1        -99.95420293]
 [  1.14141667 -49.59774393]]","[[0.         1.79603491]
 [0.1        1.47877738]
 [0.2        1.16082327]
 [0.3        0.106313  ]
 [0.4        1.06841222]
 [0.5        1.74017904]
 [0.6        0.68432156]
 [0.7        0.65048224]
 [0.8        0.00926303]
 [0.9        1.21419888]
 [1.         0.78397589]
 [1.1        0.82899641]
 [1.14141667 1.2854771 ]]",1,0.491
8782735929,f,25,english,5,3,english/french/other,2024-02-01 10:29:39.775433,False,1,114,sounds\french\audio/french_513.wav,"[[  0.          65.19779345]
 [  0.1        -53.85269578]
 [  0.2         82.41545201]
 [  0.3         50.60713048]
 [  0.4          7.11945043]
 [  0.5         91.42493583]
 [  0.6        -85.42924685]
 [  0.7         -8.28829678]
 [  0.8         14.83211799]
 [  0.9         76.72765657]
 [  1.         -52.57682729]
 [  1.1        -94.50783694]
 [  1.14141667 -21.60549074]]","[[0.         0.10751353]
 [0.1        1.47062647]
 [0.2        1.29367767]
 [0.3        1.84832062]
 [0.4        1.72946214]
 [0.5        0.50039447]
 [0.6        0.46361625]
 [0.7        0.32923248]
 [0.8        1.36965494]
 [0.9        0.90778718]
 [1.         1.26672765]
 [1.1        0.74549941]
 [1.14141667 0.4783076 ]]",0,0.323
8782735929,f,25,english,5,3,english/french/other,2024-02-01 10:29:39.775433,False,1,115,sounds\french\audio/french_819.wav,"[[  0.           3.5433124 ]
 [  0.1         34.67580474]
 [  0.2         52.06096148]
 [  0.3        -11.68829783]
 [  0.4        -55.43273777]
 [  0.5        -69.12141051]
 [  0.6         -6.92352796]
 [  0.7        -30.91883779]
 [  0.8         65.5281881 ]
 [  0.9        -41.62316532]
 [  1.         -72.0133608 ]
 [  1.1         34.83208876]
 [  1.14141667 -43.5569199 ]]","[[0.         0.69924153]
 [0.1        0.59233338]
 [0.2        0.10786683]
 [0.3        0.82052849]
 [0.4        0.57964387]
 [0.5        1.16428723]
 [0.6        0.35573096]
 [0.7        1.23577296]
 [0.8        0.83715517]
 [0.9        1.18768042]
 [1.         1.9698724 ]
 [1.1        0.40899085]
 [1.14141667 1.30290544]]",1,0.966
8782735929,f,25,english,5,3,english/french/other,2024-02-01 10:29:39.775433,False,1,116,sounds\french\audio/french_339.wav,"[[  0.         -91.66719756]
 [  0.1        -40.09978494]
 [  0.2        -46.90301028]
 [  0.3         12.45337088]
 [  0.4         -7.3719957 ]
 [  0.5        -38.64502955]
 [  0.6         -0.41989507]
 [  0.7        -65.16929213]
 [  0.8        -43.18579065]
 [  0.9         25.69839136]
 [  1.          84.15479884]
 [  1.1         10.06988607]
 [  1.14141667  43.816716  ]]","[[0.         0.83274   ]
 [0.1        1.09275025]
 [0.2        0.95259452]
 [0.3        1.57352585]
 [0.4        1.00068358]
 [0.5        1.00260215]
 [0.6        1.95270399]
 [0.7        0.43011904]
 [0.8        0.35215598]
 [0.9        0.10684683]
 [1.         0.15211102]
 [1.1        1.20317356]
 [1.14141667 0.84876333]]",0,0.488
8782735929,f,25,english,5,3,english/french/other,2024-02-01 10:29:39.775433,False,1,117,sounds\french\audio/french_334.wav,"[[  0.           2.91012372]
 [  0.1        -31.38923588]
 [  0.2        -62.72161399]
 [  0.3         52.61572733]
 [  0.4        -26.95407512]
 [  0.5         63.93183967]
 [  0.6        -64.05494497]
 [  0.7         46.67808612]
 [  0.8        -19.68734259]
 [  0.9         94.09878025]
 [  1.         -47.40754779]
 [  1.1         60.30467736]
 [  1.14141667  72.47412229]]","[[0.         0.60452042]
 [0.1        0.2438657 ]
 [0.2        0.70395582]
 [0.3        1.86925999]
 [0.4        1.03540783]
 [0.5        0.90758676]
 [0.6        1.53296808]
 [0.7        1.6467933 ]
 [0.8        1.90283938]
 [0.9        0.73856415]
 [1.         1.4477999 ]
 [1.1        0.47618592]
 [1.14141667 0.58909421]]",1,0.435
8782735929,f,25,english,5,3,english/french/other,2024-02-01 10:29:39.775433,False,1,118,sounds\french\audio/french_580.wav,"[[  0.          25.72367309]
 [  0.1        -90.22264513]
 [  0.2        -41.00446139]
 [  0.3         -5.68850956]
 [  0.4         73.58502836]
 [  0.5        -21.93392185]
 [  0.6         22.10254243]
 [  0.7        -79.6738306 ]
 [  0.8        -14.71861733]
 [  0.9         -0.72546407]
 [  1.          14.32622757]
 [  1.1        -17.22514553]
 [  1.14141667  91.12485479]]","[[0.         0.83672034]
 [0.1        1.17700555]
 [0.2        0.86031616]
 [0.3        1.31884624]
 [0.4        0.50096962]
 [0.5        1.67954592]
 [0.6        1.67101568]
 [0.7        0.19873264]
 [0.8        1.68323733]
 [0.9        0.50457607]
 [1.         1.32157054]
