subj,sex,age,language,english,french,native_lang,date,practice,block,trial,stim,pitch,stretch,response,rt
8732112179,m,20,english,5,4,english,2024-01-30 13:04:55.138711,False,2,253,sounds\french\audio/french_815.wav,"[[  0.          43.47811109]
 [  0.1        -39.69317674]
 [  0.2         70.70027906]
 [  0.3         -4.04220679]
 [  0.4         77.25732101]
 [  0.5        -48.82932979]
 [  0.6         14.54543285]
 [  0.7         23.58613037]
 [  0.8         11.08048431]
 [  0.9         11.05185943]
 [  1.          49.96011954]
 [  1.1        -42.44433744]
 [  1.14141667 -96.60163856]]","[[0.         1.27638717]
 [0.1        1.25031866]
 [0.2        0.78335521]
 [0.3        1.7307952 ]
 [0.4        1.69406415]
 [0.5        1.17209267]
 [0.6        1.23520838]
 [0.7        0.19395841]
 [0.8        1.25730834]
 [0.9        1.56641554]
 [1.         0.33329842]
 [1.1        1.48663226]
 [1.14141667 0.56490633]]",0,2.89
8732112179,m,20,english,5,4,english,2024-01-30 13:04:55.138711,False,2,254,sounds\french\audio/french_544.wav,"[[  0.         -47.38697201]
 [  0.1        -45.74023633]
 [  0.2        -60.42650725]
 [  0.3         34.87343661]
 [  0.4        -38.6627365 ]
 [  0.5         58.40491157]
 [  0.6         82.78266879]
 [  0.7         -9.1273893 ]
 [  0.8        -15.5781982 ]
 [  0.9        -12.87000269]
 [  1.          81.09749375]
 [  1.1        -15.34697207]
 [  1.14141667 -62.44527871]]","[[0.00000000e+00 1.01778790e+00]
 [1.00000000e-01 4.24984919e-01]
 [2.00000000e-01 1.22266415e+00]
 [3.00000000e-01 1.17261044e+00]
 [4.00000000e-01 5.48694777e-01]
 [5.00000000e-01 1.14745734e-01]
 [6.00000000e-01 1.71917122e+00]
 [7.00000000e-01 7.65473304e-01]
 [8.00000000e-01 1.41609463e-03]
 [9.00000000e-01 1.43975833e+00]
 [1.00000000e+00 2.52670751e-01]
 [1.10000000e+00 8.37637717e-01]
 [1.14141667e+00 1.25502453e-02]]",0,2.641
8732112179,m,20,english,5,4,english,2024-01-30 13:04:55.138711,False,2,255,sounds\french\audio/french_371.wav,"[[  0.         -75.96996294]
 [  0.1         69.05651355]
 [  0.2         76.11598769]
 [  0.3        -26.62332123]
 [  0.4         72.54551649]
 [  0.5         53.7325728 ]
 [  0.6        -19.80627641]
 [  0.7         82.18897373]
 [  0.8        -85.15711276]
 [  0.9         -1.67928374]
 [  1.          86.86600087]
 [  1.1        -45.24707116]
 [  1.14141667 -10.42210917]]","[[0.         1.06184039]
 [0.1        0.65404497]
 [0.2        0.87875816]
 [0.3        0.8766699 ]
 [0.4        1.48996037]
 [0.5        0.08423874]
 [0.6        0.50933238]
 [0.7        0.11206157]
 [0.8        1.01075883]
 [0.9        0.86359737]
 [1.         0.79020798]
 [1.1        1.73708944]
 [1.14141667 1.6745319 ]]",1,2.028
8732112179,m,20,english,5,4,english,2024-01-30 13:04:55.138711,False,2,256,sounds\french\audio/french_79.wav,"[[ 0.00000000e+00 -4.08979474e+01]
 [ 1.00000000e-01  8.39153168e-02]
 [ 2.00000000e-01 -1.60356857e+01]
 [ 3.00000000e-01  5.49421964e+01]
 [ 4.00000000e-01  3.63782829e+00]
 [ 5.00000000e-01  7.46888662e+01]
 [ 6.00000000e-01 -9.17954290e+01]
 [ 7.00000000e-01 -5.79262364e+01]
 [ 8.00000000e-01  9.91334894e+00]
 [ 9.00000000e-01 -2.19596642e+01]
 [ 1.00000000e+00  4.65249262e+01]
 [ 1.10000000e+00 -3.12450706e+01]
 [ 1.14141667e+00 -9.19865330e+00]]","[[0.         0.83878745]
 [0.1        0.7600464 ]
 [0.2        1.5875147 ]
 [0.3        1.0726748 ]
 [0.4        1.28120337]
 [0.5        1.64347059]
 [0.6        1.79846317]
 [0.7        0.90335206]
 [0.8        0.89108182]
 [0.9        0.5309996 ]
 [1.         0.74356319]
 [1.1        1.12312207]
 [1.14141667 0.4961803 ]]",0,4.966
8732112179,m,20,english,5,4,english,2024-01-30 13:04:55.138711,False,2,257,sounds\french\audio/french_243.wav,"[[  0.          17.25108473]
 [  0.1        -20.33347648]
 [  0.2          8.25978245]
 [  0.3         14.67718893]
 [  0.4          3.62309164]
 [  0.5        -26.91202001]
 [  0.6          1.76117794]
 [  0.7         82.78931534]
 [  0.8        -59.58469405]
 [  0.9         95.45283724]
 [  1.         -70.387836  ]
 [  1.1         -1.62586928]
 [  1.14141667  33.4744353 ]]","[[0.         1.25365904]
 [0.1        1.14169819]
 [0.2        1.44065481]
 [0.3        0.73865411]
 [0.4        0.87063922]
 [0.5        0.18666153]
 [0.6        0.86837268]
 [0.7        0.87403497]
 [0.8        1.44611176]
 [0.9        1.80188065]
 [1.         0.07283074]
 [1.1        0.30234458]
 [1.14141667 1.72190596]]",1,1.435
8732112179,m,20,english,5,4,english,2024-01-30 13:04:55.138711,False,2,258,sounds\french\audio/french_606.wav,"[[  0.          29.70975547]
 [  0.1         28.42644231]
 [  0.2         21.59399465]
 [  0.3        -85.78360108]
 [  0.4        -86.96471331]
 [  0.5        -42.98154559]
 [  0.6        -24.40718185]
 [  0.7         40.30920649]
 [  0.8         60.29967336]
 [  0.9        -28.97197282]
 [  1.          20.58306705]
 [  1.1         36.82833662]
 [  1.14141667 -96.86148063]]","[[0.         1.48129541]
 [0.1        1.50796462]
 [0.2        1.95094467]
 [0.3        1.21516633]
 [0.4        1.69229455]
 [0.5        1.09993922]
 [0.6        1.7732578 ]
 [0.7        0.96640662]
 [0.8        1.55948905]
 [0.9        0.42676263]
 [1.         1.41137434]
 [1.1        1.11539435]
 [1.14141667 1.96267589]]",1,0.752
8732112179,m,20,english,5,4,english,2024-01-30 13:04:55.138711,False,2,259,sounds\french\audio/french_606.wav,"[[  0.          29.70975547]
 [  0.1         28.42644231]
 [  0.2         21.59399465]
 [  0.3        -85.78360108]
 [  0.4        -86.96471331]
 [  0.5        -42.98154559]
 [  0.6        -24.40718185]
 [  0.7         40.30920649]
 [  0.8         60.29967336]
 [  0.9        -28.97197282]
 [  1.          20.58306705]
 [  1.1         36.82833662]
 [  1.14141667 -96.86148063]]","[[0.         1.48129541]
 [0.1        1.50796462]
 [0.2        1.95094467]
 [0.3        1.21516633]
 [0.4        1.69229455]
 [0.5        1.09993922]
 [0.6        1.7732578 ]
 [0.7        0.96640662]
 [0.8        1.55948905]
 [0.9        0.42676263]
 [1.         1.41137434]
 [1.1        1.11539435]
 [1.14141667 1.96267589]]",1,1.386
8732112179,m,20,english,5,4,english,2024-01-30 13:04:55.138711,False,2,260,sounds\french\audio/french_370.wav,"[[  0.          94.69193791]
 [  0.1        -34.36771105]
 [  0.2         55.68663638]
 [  0.3         86.0282476 ]
 [  0.4        -27.64418732]
 [  0.5          2.79773792]
 [  0.6         23.29524749]
 [  0.7         19.50655052]
 [  0.8         27.94648957]
 [  0.9        -49.49366589]
 [  1.          76.55940537]
 [  1.1         64.74077084]
 [  1.14141667 -14.36009756]]","[[0.         1.31620058]
 [0.1        1.0910653 ]
 [0.2        1.59108786]
 [0.3        0.66651246]
 [0.4        0.77217464]
 [0.5        1.2458794 ]
 [0.6        0.78783747]
 [0.7        1.5969386 ]
 [0.8        0.07582998]
 [0.9        1.5026642 ]
 [1.         1.33889054]
 [1.1        1.0242803 ]
 [1.14141667 1.81581141]]",1,0.448
8732112179,m,20,english,5,4,english,2024-01-30 13:04:55.138711,False,2,261,sounds\french\audio/french_488.wav,"[[  0.          14.8644182 ]
 [  0.1         -7.483668  ]
 [  0.2        -83.60221028]
 [  0.3        -35.90165376]
 [  0.4         88.10278494]
 [  0.5        -99.58307262]
 [  0.6        -38.42476237]
 [  0.7         -6.87639591]
 [  0.8        -44.17721964]
 [  0.9         56.25120406]
 [  1.          14.79565294]
 [  1.1         -5.40433378]
 [  1.14141667  27.01805303]]","[[0.         0.74415715]
 [0.1        0.55500456]
 [0.2        1.6557028 ]
 [0.3        1.12101174]
 [0.4        0.1765859 ]
 [0.5        1.5746524 ]
 [0.6        0.49482731]
 [0.7        0.45509974]
 [0.8        0.28182222]
 [0.9        1.54827803]
 [1.         1.58335766]
 [1.1        0.88938806]
 [1.14141667 1.25409387]]",1,0.677
8732112179,m,20,english,5,4,english,2024-01-30 13:04:55.138711,False,2,262,sounds\french\audio/french_847.wav,"[[  0.          24.30464293]
 [  0.1         80.06267567]
 [  0.2         49.14872517]
 [  0.3         31.44422606]
 [  0.4        -22.08154628]
 [  0.5        -28.01893953]
 [  0.6         20.29474352]
 [  0.7        -48.19032453]
 [  0.8         85.37090763]
 [  0.9         76.48288011]
 [  1.          31.27306086]
 [  1.1        -93.83311369]
 [  1.14141667  62.38115445]]","[[0.         1.42157188]
 [0.1        1.72679545]
 [0.2        0.73959124]
 [0.3        1.62606871]
 [0.4        1.12324288]
 [0.5        1.49566705]
 [0.6        0.91317844]
 [0.7        0.576592  ]
 [0.8        0.46825986]
 [0.9        0.69487608]
 [1.         1.75885754]
 [1.1        0.02337565]
 [1.14141667 0.25458074]]",1,0.491
8732112179,m,20,english,5,4,english,2024-01-30 13:04:55.138711,False,2,263,sounds\french\audio/french_511.wav,"[[  0.          68.45765267]
 [  0.1         -8.95520239]
 [  0.2         44.78754761]
 [  0.3         48.7554288 ]
 [  0.4         41.20564236]
 [  0.5         74.46096489]
 [  0.6        -92.19481722]
 [  0.7         70.54554277]
 [  0.8        -89.98216972]
 [  0.9         96.36310752]
 [  1.         -57.15318896]
 [  1.1        -15.3628732 ]
 [  1.14141667 -40.17140688]]","[[0.         0.68906271]
 [0.1        1.35083961]
 [0.2        0.86739012]
 [0.3        0.74272649]
 [0.4        1.27472163]
 [0.5        0.69400452]
 [0.6        0.63157953]
 [0.7        1.62489355]
 [0.8        1.1631817 ]
 [0.9        1.80808524]
 [1.         1.87485338]
 [1.1        0.63700297]
 [1.14141667 1.56626139]]",1,0.308
8732112179,m,20,english,5,4,english,2024-01-30 13:04:55.138711,False,2,264,sounds\french\audio/french_333.wav,"[[  0.         -20.77044182]
 [  0.1         26.03274788]
 [  0.2         44.25680739]
 [  0.3         54.84607734]
 [  0.4        -84.70319837]
 [  0.5         50.88930926]
 [  0.6         91.49561161]
 [  0.7        -79.27192118]
 [  0.8        -16.30652355]
 [  0.9        -46.58669152]
 [  1.          92.33152656]
 [  1.1         53.35128711]
 [  1.14141667 -31.95559671]]","[[0.         1.43629895]
 [0.1        0.14363016]
 [0.2        0.99533055]
 [0.3        1.58313255]
 [0.4        0.87601018]
 [0.5        1.3608632 ]
 [0.6        1.05674693]
 [0.7        0.56286184]
 [0.8        1.24047364]
 [0.9        0.80209834]
 [1.         0.198323  ]
 [1.1        1.38035768]
 [1.14141667 0.94952553]]",1,0.861
8732112179,m,20,english,5,4,english,2024-01-30 13:04:55.138711,False,2,265,sounds\french\audio/french_215.wav,"[[  0.          25.06649138]
 [  0.1        -75.62802154]
 [  0.2        -55.29126892]
 [  0.3        -31.13502895]
 [  0.4         99.96854364]
 [  0.5        -39.05274208]
 [  0.6        -48.65324171]
 [  0.7        -29.47734718]
 [  0.8         33.80663658]
 [  0.9        -21.30312991]
 [  1.          38.90898009]
 [  1.1         56.3377574 ]
 [  1.14141667  88.63688248]]","[[0.         0.73263287]
 [0.1        0.44309032]
 [0.2        0.69551141]
 [0.3        0.38506305]
 [0.4        0.52359658]
 [0.5        1.76965852]
 [0.6        1.14560288]
 [0.7        0.88778636]
 [0.8        1.18058041]
 [0.9        1.84333153]
 [1.         0.25005538]
 [1.1        1.84007576]
 [1.14141667 1.00047255]]",1,0.565
8732112179,m,20,english,5,4,english,2024-01-30 13:04:55.138711,False,2,266,sounds\french\audio/french_444.wav,"[[  0.          87.77909642]
 [  0.1          6.94972025]
 [  0.2         98.20857903]
 [  0.3        -35.32566364]
 [  0.4        -66.21920686]
 [  0.5        -74.00275706]
 [  0.6        -89.76463472]
 [  0.7         90.23942867]
 [  0.8        -81.90686285]
 [  0.9          5.03977492]
 [  1.          94.83681906]
 [  1.1        -46.16486493]
 [  1.14141667   7.32353635]]","[[0.         0.96730071]
 [0.1        1.64754835]
 [0.2        0.34232644]
 [0.3        0.90396438]
 [0.4        1.59193054]
 [0.5        1.69980703]
 [0.6        0.62529401]
 [0.7        0.0404836 ]
 [0.8        0.34890232]
 [0.9        1.70546998]
 [1.         1.15170641]
 [1.1        0.22788225]
 [1.14141667 1.99633075]]",0,0.641
8732112179,m,20,english,5,4,english,2024-01-30 13:04:55.138711,False,2,267,sounds\french\audio/french_916.wav,"[[  0.          36.60514791]
 [  0.1         67.71028213]
 [  0.2        -14.627271  ]
 [  0.3        -96.69583428]
 [  0.4          6.99292361]
 [  0.5         98.33986356]
 [  0.6        -83.4018512 ]
 [  0.7         40.81394323]
 [  0.8          1.22546887]
 [  0.9         -0.4367378 ]
 [  1.          11.82973509]
 [  1.1          1.50837578]
 [  1.14141667  22.61945616]]","[[0.         0.71192514]
 [0.1        0.52787746]
 [0.2        1.09974622]
 [0.3        1.70171287]
 [0.4        0.41492285]
 [0.5        0.32961241]
 [0.6        0.54015023]
 [0.7        1.11593731]
 [0.8        1.21943801]
 [0.9        0.4397667 ]
 [1.         0.30306907]
 [1.1        0.95828899]
 [1.14141667 0.74726021]]",1,1.386
8732112179,m,20,english,5,4,english,2024-01-30 13:04:55.138711,False,2,268,sounds\french\audio/french_281.wav,"[[  0.         -95.80336327]
 [  0.1         13.19102034]
 [  0.2         42.62860053]
 [  0.3         21.92016727]
 [  0.4         -2.97694346]
 [  0.5         -3.56004014]
 [  0.6        -28.69548466]
 [  0.7         -9.16727504]
 [  0.8          7.86062341]
 [  0.9        -95.03668578]
 [  1.         -83.63952968]
 [  1.1         74.11931798]
 [  1.14141667  32.00428404]]","[[0.         0.76183862]
 [0.1        1.51704684]
 [0.2        0.9408124 ]
 [0.3        0.14797413]
 [0.4        0.97581102]
 [0.5        0.67546432]
 [0.6        0.35656679]
 [0.7        1.28503381]
 [0.8        0.91616519]
 [0.9        1.72740892]
 [1.         0.79466522]
 [1.1        0.92967992]
 [1.14141667 1.54385024]]",0,1.389
8732112179,m,20,english,5,4,english,2024-01-30 13:04:55.138711,False,2,269,sounds\french\audio/french_86.wav,"[[  0.          90.66907536]
 [  0.1         72.1103631 ]
 [  0.2         26.87452534]
 [  0.3          6.75702651]
 [  0.4         23.23177759]
 [  0.5         30.56866271]
 [  0.6         57.20013944]
 [  0.7         -0.22903735]
 [  0.8        -52.83374868]
 [  0.9         17.90238633]
 [  1.          -5.19579317]
 [  1.1         32.18274643]
 [  1.14141667 -41.41608864]]","[[0.         1.99403643]
 [0.1        1.04548327]
 [0.2        1.50586628]
 [0.3        0.53204978]
 [0.4        1.50109817]
 [0.5        1.68700691]
 [0.6        1.22814782]
 [0.7        0.68677654]
 [0.8        0.16935265]
 [0.9        1.6413624 ]
 [1.         0.78947627]
 [1.1        1.67130665]
 [1.14141667 0.60178735]]",1,0.97
8732112179,m,20,english,5,4,english,2024-01-30 13:04:55.138711,False,2,270,sounds\french\audio/french_67.wav,"[[  0.          -8.80419895]
 [  0.1        -89.09971713]
 [  0.2         52.16664129]
 [  0.3         75.50765895]
 [  0.4        -50.4048012 ]
 [  0.5          2.92186318]
 [  0.6         -2.99274005]
 [  0.7        -60.68394197]
 [  0.8         84.35232492]
 [  0.9        -25.72248864]
 [  1.          11.86313501]
 [  1.1         19.03354401]
 [  1.14141667  81.65120736]]","[[0.         1.71520909]
 [0.1        1.65194622]
 [0.2        1.05692719]
 [0.3        0.39640522]
 [0.4        1.79941734]
 [0.5        1.20893726]
 [0.6        1.83305713]
 [0.7        0.33461142]
 [0.8        0.31328661]
 [0.9        0.81923703]
 [1.         0.47881167]
 [1.1        1.95724467]
 [1.14141667 0.25508289]]",1,0.9
8732112179,m,20,english,5,4,english,2024-01-30 13:04:55.138711,False,2,271,sounds\french\audio/french_465.wav,"[[  0.           5.88024496]
 [  0.1        -50.60926401]
 [  0.2        -75.32725367]
 [  0.3          3.44113157]
 [  0.4         29.4397182 ]
 [  0.5         45.10583861]
 [  0.6         62.97320654]
 [  0.7        -15.3501398 ]
 [  0.8        -21.75175408]
 [  0.9        -10.84821327]
 [  1.         -94.2934633 ]
 [  1.1        -58.56218585]
 [  1.14141667  30.34802461]]","[[0.         1.03079141]
 [0.1        0.07909505]
 [0.2        0.13211547]
 [0.3        0.90615472]
 [0.4        0.84429779]
 [0.5        0.8526434 ]
 [0.6        0.36671109]
 [0.7        0.46700394]
 [0.8        1.52127731]
 [0.9        0.1624174 ]
 [1.         1.32493274]
 [1.1        0.29025247]
 [1.14141667 0.5468785 ]]",0,2.821
8732112179,m,20,english,5,4,english,2024-01-30 13:04:55.138711,False,2,272,sounds\french\audio/french_865.wav,"[[  0.         -35.98136802]
 [  0.1        -47.09864116]
 [  0.2        -46.16991186]
 [  0.3         66.92600058]
 [  0.4         58.38978261]
 [  0.5         -6.27861664]
 [  0.6        -65.83636463]
 [  0.7        -30.20389067]
 [  0.8        -35.90961147]
 [  0.9         87.06351282]
 [  1.         -73.61130369]
 [  1.1        -70.4874465 ]
 [  1.14141667  34.05043966]]","[[0.         1.52034056]
 [0.1        1.94992054]
 [0.2        1.99567133]
 [0.3        0.0816066 ]
 [0.4        1.80097387]
 [0.5        1.19034433]
 [0.6        1.647248  ]
 [0.7        0.89939103]
 [0.8        0.3790929 ]
 [0.9        0.26606669]
 [1.         0.3799436 ]
 [1.1        1.04157406]
 [1.14141667 1.02434748]]",1,4.894
8732112179,m,20,english,5,4,english,2024-01-30 13:04:55.138711,False,2,273,sounds\french\audio/french_780.wav,"[[  0.           1.6361827 ]
 [  0.1         65.3259988 ]
 [  0.2         -9.10284964]
 [  0.3         71.37936618]
 [  0.4        -61.83005099]
 [  0.5         64.1925332 ]
 [  0.6        -73.78104882]
 [  0.7        -75.04579524]
 [  0.8         94.52941368]
 [  0.9        -40.24958263]
 [  1.          70.56248905]
 [  1.1        -94.2422388 ]
 [  1.14141667  38.81083767]]","[[0.         0.91275893]
 [0.1        0.6923682 ]
 [0.2        0.91492024]
 [0.3        0.74961563]
 [0.4        1.83666104]
 [0.5        1.59808961]
 [0.6        0.06025733]
 [0.7        0.97352889]
 [0.8        0.3343283 ]
 [0.9        1.19408747]
 [1.         1.41158065]
 [1.1        0.89941942]
 [1.14141667 0.47183897]]",1,0.856
8732112179,m,20,english,5,4,english,2024-01-30 13:04:55.138711,False,2,274,sounds\french\audio/french_910.wav,"[[  0.          48.88340935]
 [  0.1         -0.9314083 ]
 [  0.2         10.65492222]
 [  0.3         53.80361557]
 [  0.4        -55.5093235 ]
 [  0.5         25.35597856]
 [  0.6         30.25602932]
 [  0.7        -14.25396351]
 [  0.8        -99.95037684]
 [  0.9        -31.56392694]
 [  1.           4.49716215]
 [  1.1         30.67655198]
 [  1.14141667 -27.21370615]]","[[0.         1.81109224]
 [0.1        0.91261377]
 [0.2        0.6391442 ]
 [0.3        1.7256034 ]
 [0.4        1.10196828]
 [0.5        1.92121955]
 [0.6        1.45045528]
 [0.7        1.70872625]
 [0.8        0.23726838]
 [0.9        0.64113417]
 [1.         1.46769435]
 [1.1        0.95921   ]
 [1.14141667 0.8849765 ]]",0,5.886
8732112179,m,20,english,5,4,english,2024-01-30 13:04:55.138711,False,2,275,sounds\french\audio/french_417.wav,"[[  0.         -32.77068381]
 [  0.1         10.55708239]
 [  0.2          9.91718709]
 [  0.3        -19.65098282]
 [  0.4         78.0410625 ]
 [  0.5        -63.41834819]
 [  0.6        -12.08890259]
 [  0.7        -70.29934215]
 [  0.8          4.63752128]
 [  0.9        -68.78784985]
 [  1.          70.79482523]
 [  1.1        -86.94841883]
 [  1.14141667  94.70906792]]","[[0.         1.43807666]
 [0.1        0.31892394]
 [0.2        0.85335618]
 [0.3        1.09322127]
 [0.4        1.86029096]
 [0.5        1.98490369]
 [0.6        0.83094909]
 [0.7        1.67039107]
 [0.8        1.16186805]
 [0.9        0.77381791]
 [1.         1.82295332]
 [1.1        0.89972345]
 [1.14141667 1.91023493]]",0,4.08
8732112179,m,20,english,5,4,english,2024-01-30 13:04:55.138711,False,2,276,sounds\french\audio/french_913.wav,"[[  0.         -47.25134073]
 [  0.1        -82.39617775]
 [  0.2        -49.77107224]
 [  0.3        -65.18926328]
 [  0.4        -21.76681249]
 [  0.5         25.27312638]
 [  0.6         55.78406259]
 [  0.7        -27.8783869 ]
 [  0.8        -52.69419859]
 [  0.9         99.44571929]
 [  1.          87.33615919]
 [  1.1         46.22614126]
 [  1.14141667 -71.95970705]]","[[0.         0.04335797]
 [0.1        1.67103064]
 [0.2        0.81708714]
 [0.3        1.28520765]
 [0.4        1.7369454 ]
 [0.5        1.03142804]
 [0.6        0.74912627]
 [0.7        1.88947917]
 [0.8        0.39822081]
 [0.9        0.52497493]
 [1.         1.60117884]
 [1.1        1.53649436]
 [1.14141667 0.49650592]]",0,1.205
8732112179,m,20,english,5,4,english,2024-01-30 13:04:55.138711,False,2,277,sounds\french\audio/french_584.wav,"[[  0.         -53.64248655]
 [  0.1         87.73837185]
 [  0.2        -76.07432913]
 [  0.3        -82.64271669]
 [  0.4         95.13100452]
 [  0.5          0.46314255]
 [  0.6         84.32306812]
 [  0.7        -11.04836818]
 [  0.8         -2.39275169]
 [  0.9        -87.18946495]
 [  1.          31.75007249]
 [  1.1        -75.12996198]
 [  1.14141667  89.37224699]]","[[0.         1.38891122]
 [0.1        0.52599003]
 [0.2        0.86644444]
 [0.3        0.7067956 ]
 [0.4        0.85039222]
 [0.5        1.91311542]
 [0.6        1.87701513]
 [0.7        0.4258787 ]
 [0.8        1.64061013]
 [0.9        0.64403551]
 [1.         0.40232597]
 [1.1        1.36523835]
 [1.14141667 1.64588011]]",1,3.058
8732112179,m,20,english,5,4,english,2024-01-30 13:04:55.138711,False,2,278,sounds\french\audio/french_201.wav,"[[  0.         -72.31925436]
 [  0.1        -83.73511965]
 [  0.2        -34.49086418]
 [  0.3         89.08599927]
 [  0.4         15.76228722]
 [  0.5        -84.79877229]
 [  0.6         83.5619566 ]
 [  0.7         42.48197655]
 [  0.8        -87.12007155]
 [  0.9         28.75196149]
 [  1.          -5.66779728]
 [  1.1         65.6210541 ]
 [  1.14141667  66.2198893 ]]","[[0.         1.48994907]
 [0.1        0.53964537]
 [0.2        1.99160806]
 [0.3        1.65371383]
 [0.4        0.71585117]
 [0.5        1.9295887 ]
 [0.6        1.67418928]
 [0.7        0.08287571]
 [0.8        1.63295741]
 [0.9        1.21441085]
 [1.         0.56429709]
 [1.1        0.84703209]
 [1.14141667 1.20117356]]",1,0.563
8732112179,m,20,english,5,4,english,2024-01-30 13:04:55.138711,False,2,279,sounds\french\audio/french_461.wav,"[[  0.          94.32370933]
 [  0.1        -20.71306493]
 [  0.2        -52.8787947 ]
 [  0.3         54.58301415]
 [  0.4         77.43262349]
 [  0.5         91.72055328]
 [  0.6        -68.29048705]
 [  0.7        -57.37161044]
 [  0.8         31.76308417]
 [  0.9        -99.65529565]
 [  1.         -27.48817095]
 [  1.1         97.80822664]
 [  1.14141667  42.47593373]]","[[0.         1.08116474]
 [0.1        0.77352279]
 [0.2        1.72406451]
 [0.3        1.0712012 ]
 [0.4        1.46762268]
 [0.5        1.02267728]
 [0.6        1.62970382]
 [0.7        0.33624611]
 [0.8        1.07879651]
 [0.9        0.11108974]
 [1.         0.0578911 ]
 [1.1        1.12963754]
 [1.14141667 1.30381109]]",0,1.943
8732112179,m,20,english,5,4,english,2024-01-30 13:04:55.138711,False,2,280,sounds\french\audio/french_909.wav,"[[  0.         -64.5782484 ]
 [  0.1        -95.21268442]
 [  0.2        -61.56262693]
 [  0.3        -34.31563602]
 [  0.4         34.69813289]
 [  0.5        -19.20312526]
 [  0.6        -58.93366075]
 [  0.7         -0.21005651]
 [  0.8         20.08088994]
 [  0.9        -22.20564   ]
 [  1.          28.75495026]
 [  1.1        -38.48195906]
 [  1.14141667 -66.99076148]]","[[0.         1.76379527]
 [0.1        1.79782836]
 [0.2        1.19138868]
 [0.3        0.3364028 ]
 [0.4        1.85790827]
 [0.5        1.04934312]
 [0.6        1.33665727]
 [0.7        1.34926899]
 [0.8        0.04343107]
 [0.9        1.26601971]
 [1.         1.47988988]
 [1.1        0.95787887]
 [1.14141667 1.1698671 ]]",1,1.626
8732112179,m,20,english,5,4,english,2024-01-30 13:04:55.138711,False,2,281,sounds\french\audio/french_496.wav,"[[  0.          84.59361564]
 [  0.1         -5.05294376]
 [  0.2        -52.76925695]
 [  0.3         95.09060688]
 [  0.4         86.20023919]
 [  0.5        -52.82326173]
 [  0.6         10.63524361]
 [  0.7        -21.15639044]
 [  0.8         30.98152688]
 [  0.9         65.47260644]
 [  1.         -26.92121505]
 [  1.1         75.50063725]
 [  1.14141667  65.89618527]]","[[0.         1.50422402]
 [0.1        1.63237531]
 [0.2        0.92311673]
 [0.3        0.72610966]
 [0.4        0.88263608]
 [0.5        1.78907897]
 [0.6        0.7019144 ]
 [0.7        1.65387907]
 [0.8        1.28867146]
 [0.9        0.50792946]
 [1.         0.69200465]
 [1.1        1.50293457]
 [1.14141667 1.08742184]]",1,1.377
8732112179,m,20,english,5,4,english,2024-01-30 13:04:55.138711,False,2,282,sounds\french\audio/french_565.wav,"[[  0.           0.585165  ]
 [  0.1        -99.74430453]
 [  0.2         73.97300907]
 [  0.3         76.14302968]
 [  0.4        -25.912968  ]
 [  0.5         88.19313139]
 [  0.6         23.1864268 ]
 [  0.7        -74.78081936]
 [  0.8        -34.15972358]
 [  0.9         90.90613763]
 [  1.          37.81791402]
 [  1.1         82.39926491]
 [  1.14141667 -44.95242237]]","[[0.         0.26159772]
 [0.1        1.35463958]
 [0.2        0.79800853]
 [0.3        0.70220334]
 [0.4        0.38968447]
 [0.5        1.44406164]
 [0.6        0.77293029]
 [0.7        1.12629863]
 [0.8        0.82303267]
 [0.9        0.79000813]
 [1.         0.32691118]
 [1.1        1.78972447]
 [1.14141667 1.24039757]]",1,1.519
8732112179,m,20,english,5,4,english,2024-01-30 13:04:55.138711,False,2,283,sounds\french\audio/french_120.wav,"[[  0.         -25.39055637]
 [  0.1        -52.16988554]
 [  0.2        -97.11481736]
 [  0.3        -11.4581745 ]
 [  0.4        -45.99069763]
 [  0.5        -43.61865699]
 [  0.6        -44.83604124]
 [  0.7         -8.86769407]
 [  0.8         63.33461413]
 [  0.9        -71.92792016]
 [  1.          76.65131092]
 [  1.1         60.1037415 ]
 [  1.14141667 -22.4064568 ]]","[[0.         0.67452719]
 [0.1        0.89530536]
 [0.2        0.31491033]
 [0.3        0.92298319]
 [0.4        0.35602146]
 [0.5        0.39625722]
 [0.6        1.05367551]
 [0.7        1.01432352]
 [0.8        1.39909629]
 [0.9        1.4024389 ]
 [1.         0.62839034]
 [1.1        0.42144028]
 [1.14141667 0.48383485]]",0,0.456
8732112179,m,20,english,5,4,english,2024-01-30 13:04:55.138711,False,2,284,sounds\french\audio/french_263.wav,"[[  0.         -35.6234396 ]
 [  0.1         80.58342714]
 [  0.2         26.9247896 ]
 [  0.3        -64.28881536]
 [  0.4         71.8745562 ]
 [  0.5        -24.24365063]
 [  0.6         67.89663748]
 [  0.7          5.62822954]
 [  0.8          8.21920478]
 [  0.9         -4.84660323]
 [  1.          92.2995778 ]
 [  1.1          5.29993653]
 [  1.14141667 -11.24406753]]","[[0.         0.41942748]
 [0.1        0.86466593]
 [0.2        0.90258842]
 [0.3        0.30940464]
 [0.4        0.49132319]
 [0.5        0.18866759]
 [0.6        1.09978722]
 [0.7        0.81261586]
 [0.8        0.42151921]
 [0.9        0.86223793]
 [1.         0.83361364]
 [1.1        0.95375213]
 [1.14141667 0.43274193]]",0,1.354
8732112179,m,20,english,5,4,english,2024-01-30 13:04:55.138711,False,2,285,sounds\french\audio/french_344.wav,"[[  0.          96.07480186]
 [  0.1        -21.67597909]
 [  0.2          1.76564063]
 [  0.3         52.19208065]
 [  0.4        -48.97734346]
 [  0.5          8.52034332]
 [  0.6         76.79242076]
 [  0.7        -46.49970146]
 [  0.8         41.91318913]
 [  0.9        -58.70585391]
 [  1.          -5.86032919]
 [  1.1          3.04602069]
 [  1.14141667   9.91868565]]","[[0.         0.58479992]
 [0.1        0.94801026]
 [0.2        0.48766352]
 [0.3        0.58210606]
 [0.4        1.63747349]
 [0.5        0.76958472]
 [0.6        1.51679811]
 [0.7        0.4990454 ]
 [0.8        1.79245635]
 [0.9        1.42432783]
 [1.         0.02463932]
 [1.1        1.38926004]
 [1.14141667 0.39424777]]",1,0.732
8732112179,m,20,english,5,4,english,2024-01-30 13:04:55.138711,False,2,286,sounds\french\audio/french_173.wav,"[[  0.         -46.66919298]
 [  0.1          4.67484005]
 [  0.2         80.83385661]
 [  0.3        -50.45685435]
 [  0.4        -62.49251948]
 [  0.5        -50.73769737]
 [  0.6         97.55947113]
 [  0.7        -68.25637207]
 [  0.8        -22.42955904]
 [  0.9         15.09984102]
 [  1.         -86.7117515 ]
 [  1.1        -74.37334759]
 [  1.14141667  71.31940753]]","[[0.         1.63776861]
 [0.1        1.1956952 ]
 [0.2        0.9812403 ]
 [0.3        0.93944254]
 [0.4        1.366728  ]
 [0.5        0.90395124]
 [0.6        0.64609469]
 [0.7        1.42709177]
 [0.8        1.40693544]
 [0.9        1.93881322]
 [1.         0.05946756]
 [1.1        1.20565839]
 [1.14141667 1.30938607]]",1,0.567
8732112179,m,20,english,5,4,english,2024-01-30 13:04:55.138711,False,2,287,sounds\french\audio/french_672.wav,"[[  0.         -13.52735411]
 [  0.1        -59.96134508]
 [  0.2         -7.33992186]
 [  0.3         21.63942854]
 [  0.4          5.10103928]
 [  0.5        -48.7358571 ]
 [  0.6         81.11443851]
 [  0.7         33.12369615]
 [  0.8          3.43276833]
 [  0.9        -39.94820872]
 [  1.          74.47431305]
 [  1.1         21.91430586]
 [  1.14141667  -6.84202398]]","[[0.         0.54145116]
 [0.1        1.25870061]
 [0.2        0.81866039]
 [0.3        1.39452004]
 [0.4        1.0769607 ]
 [0.5        0.77470724]
 [0.6        0.81807513]
 [0.7        0.78329539]
 [0.8        0.23496053]
 [0.9        0.10186009]
 [1.         0.92703632]
 [1.1        1.77981995]
 [1.14141667 0.93084115]]",1,1.379
8732112179,m,20,english,5,4,english,2024-01-30 13:04:55.138711,False,2,288,sounds\french\audio/french_211.wav,"[[  0.          43.15008187]
 [  0.1         24.02390962]
 [  0.2        -95.3793201 ]
 [  0.3         82.44818603]
 [  0.4         96.86378599]
 [  0.5        -43.25779178]
 [  0.6         12.6296565 ]
 [  0.7        -32.61590279]
 [  0.8        -92.74817171]
 [  0.9        -55.04777924]
 [  1.          41.28376208]
 [  1.1        -93.29506514]
 [  1.14141667  30.09941121]]","[[0.         0.59817128]
 [0.1        1.29748795]
 [0.2        1.68650969]
 [0.3        1.04360825]
 [0.4        0.82058252]
 [0.5        0.73375513]
 [0.6        1.21996468]
 [0.7        0.98168448]
 [0.8        0.96960348]
 [0.9        1.54184603]
 [1.         0.3785813 ]
 [1.1        0.77112731]
 [1.14141667 1.64506238]]",1,0.556
8732112179,m,20,english,5,4,english,2024-01-30 13:04:55.138711,False,2,289,sounds\french\audio/french_967.wav,"[[  0.         -71.34607959]
 [  0.1        -35.65819027]
 [  0.2        -68.20202891]
 [  0.3        -57.58758282]
 [  0.4         70.48380742]
 [  0.5         95.19228037]
 [  0.6        -39.65708514]
 [  0.7        -83.522521  ]
 [  0.8         80.27349765]
 [  0.9         71.24042066]
 [  1.          65.47365617]
 [  1.1        -37.87916856]
 [  1.14141667  -5.33917093]]","[[0.         1.03552624]
 [0.1        0.70466862]
 [0.2        1.43535484]
 [0.3        1.6501514 ]
 [0.4        0.3504388 ]
 [0.5        0.93193126]
 [0.6        0.84411513]
 [0.7        1.24684146]
 [0.8        0.46592488]
 [0.9        1.15667054]
 [1.         1.88512118]
 [1.1        0.13959958]
 [1.14141667 0.65218631]]",0,0.602
8732112179,m,20,english,5,4,english,2024-01-30 13:04:55.138711,False,2,290,sounds\french\audio/french_652.wav,"[[  0.         -64.34245078]
 [  0.1         36.64819292]
 [  0.2         94.39930996]
 [  0.3        -83.22796631]
 [  0.4        -63.44049695]
 [  0.5        -21.86417372]
 [  0.6        -52.40579631]
 [  0.7         52.60731432]
 [  0.8         82.26732634]
 [  0.9        -66.56660682]
 [  1.          93.91460513]
 [  1.1        -23.42883906]
 [  1.14141667 -61.50549834]]","[[0.         0.17219181]
 [0.1        0.49943741]
 [0.2        1.4050061 ]
 [0.3        0.74775149]
 [0.4        0.98675799]
 [0.5        0.11455054]
 [0.6        1.43554655]
 [0.7        0.71254102]
 [0.8        0.77312084]
 [0.9        0.00594099]
 [1.         0.65440972]
 [1.1        1.76783286]
 [1.14141667 1.41039415]]",0,2.653
8732112179,m,20,english,5,4,english,2024-01-30 13:04:55.138711,False,2,291,sounds\french\audio/french_579.wav,"[[  0.         -44.9724905 ]
 [  0.1          0.83845953]
 [  0.2         93.06026355]
 [  0.3        -62.41374452]
 [  0.4         20.02213112]
 [  0.5        -38.5151373 ]
 [  0.6         22.08241798]
 [  0.7        -58.17924339]
 [  0.8        -33.23197636]
 [  0.9         46.73979954]
 [  1.          -1.66986987]
 [  1.1        -43.99049691]
 [  1.14141667 -39.65764058]]","[[0.         1.96822281]
 [0.1        0.71149274]
 [0.2        0.47444189]
 [0.3        1.30095402]
 [0.4        1.46488426]
 [0.5        0.97233373]
 [0.6        0.80064838]
 [0.7        0.70983162]
 [0.8        0.45331315]
 [0.9        0.98403406]
 [1.         1.54220588]
 [1.1        0.41959049]
 [1.14141667 1.4912741 ]]",1,0.775
8732112179,m,20,english,5,4,english,2024-01-30 13:04:55.138711,False,2,292,sounds\french\audio/french_684.wav,"[[  0.         -88.96240825]
 [  0.1        -54.37508207]
 [  0.2        -91.57905397]
 [  0.3        -58.85501017]
 [  0.4         44.82481671]
 [  0.5        -70.60806513]
 [  0.6         94.32148608]
 [  0.7        -17.32520236]
 [  0.8         29.06027198]
 [  0.9        -57.57833097]
 [  1.         -48.20877129]
 [  1.1         58.87949866]
 [  1.14141667 -11.47571774]]","[[0.         1.78476448]
 [0.1        0.02576857]
 [0.2        1.04724647]
 [0.3        0.76694618]
 [0.4        0.80269361]
 [0.5        0.84512097]
 [0.6        0.97813642]
 [0.7        0.54666182]
 [0.8        0.58446507]
 [0.9        0.42247579]
 [1.         0.8068102 ]
 [1.1        0.07609372]
 [1.14141667 1.952562  ]]",0,0.988
8732112179,m,20,english,5,4,english,2024-01-30 13:04:55.138711,False,2,293,sounds\french\audio/french_667.wav,"[[  0.          -3.23073543]
 [  0.1         12.95388382]
 [  0.2        -81.94464558]
 [  0.3        -49.94767422]
 [  0.4         55.78567477]
 [  0.5         79.02111133]
 [  0.6         -5.77186949]
 [  0.7         53.00308605]
 [  0.8         58.82898183]
 [  0.9         46.90110707]
 [  1.          27.42439554]
 [  1.1        -19.01601979]
 [  1.14141667  63.4895526 ]]","[[0.         0.36346463]
 [0.1        0.76986808]
 [0.2        1.34448265]
 [0.3        0.75161854]
 [0.4        0.06445757]
 [0.5        1.86844951]
 [0.6        0.16436936]
 [0.7        0.4200212 ]
 [0.8        0.54306015]
 [0.9        0.49338547]
 [1.         1.57738821]
 [1.1        1.23039294]
 [1.14141667 1.7787343 ]]",1,1.551
8732112179,m,20,english,5,4,english,2024-01-30 13:04:55.138711,False,2,294,sounds\french\audio/french_111.wav,"[[  0.          14.77849199]
 [  0.1        -93.87823823]
 [  0.2         64.26417709]
 [  0.3        -22.82520637]
 [  0.4         98.98633094]
 [  0.5         61.91694484]
 [  0.6        -14.22171185]
 [  0.7         13.64889923]
 [  0.8         16.45015469]
 [  0.9         68.39985611]
 [  1.           9.08640089]
 [  1.1         -0.24488945]
 [  1.14141667 -45.33321106]]","[[0.         0.705567  ]
 [0.1        1.75025846]
 [0.2        0.64729838]
 [0.3        0.85969061]
 [0.4        0.27217842]
 [0.5        1.89781194]
 [0.6        0.81989365]
 [0.7        1.01021301]
 [0.8        0.3816251 ]
 [0.9        1.4301898 ]
 [1.         1.68654452]
 [1.1        0.43604245]
 [1.14141667 1.24858314]]",0,0.782
8732112179,m,20,english,5,4,english,2024-01-30 13:04:55.138711,False,2,295,sounds\french\audio/french_889.wav,"[[  0.          85.2733813 ]
 [  0.1         -9.17658369]
 [  0.2        -74.95002821]
 [  0.3        -15.14184609]
 [  0.4         15.16006898]
 [  0.5        -47.48400349]
 [  0.6        -79.05067021]
 [  0.7         36.11246432]
 [  0.8        -10.42928376]
 [  0.9        -38.21466303]
 [  1.         -74.40390494]
 [  1.1         48.21849642]
 [  1.14141667  70.85826142]]","[[0.         0.45548566]
 [0.1        0.42780618]
 [0.2        1.13904578]
 [0.3        0.79367721]
 [0.4        0.33758667]
 [0.5        0.33594429]
 [0.6        1.05553209]
 [0.7        1.55353839]
 [0.8        0.48612759]
 [0.9        1.14132878]
 [1.         1.27612663]
 [1.1        0.91551084]
 [1.14141667 1.65751286]]",1,0.785
8732112179,m,20,english,5,4,english,2024-01-30 13:04:55.138711,False,2,296,sounds\french\audio/french_361.wav,"[[  0.          23.29794896]
 [  0.1        -48.63531672]
 [  0.2         -2.5255531 ]
 [  0.3          8.23722274]
 [  0.4         34.47158893]
 [  0.5         70.14095267]
 [  0.6         70.11175255]
 [  0.7        -68.72089611]
 [  0.8        -76.42640532]
 [  0.9        -24.66588818]
 [  1.         -16.02796708]
 [  1.1         -1.89725955]
 [  1.14141667 -29.04015326]]","[[0.         1.11856981]
 [0.1        1.10976385]
 [0.2        0.50841861]
 [0.3        1.92928184]
 [0.4        0.0595701 ]
 [0.5        1.017167  ]
 [0.6        1.17369511]
 [0.7        1.20889033]
 [0.8        0.48912562]
 [0.9        1.44370577]
 [1.         1.15037108]
 [1.1        0.53403618]
 [1.14141667 0.0482166 ]]",1,0.978
8732112179,m,20,english,5,4,english,2024-01-30 13:04:55.138711,False,2,297,sounds\french\audio/french_348.wav,"[[  0.          65.33613143]
 [  0.1         42.71102392]
 [  0.2        -49.50432257]
 [  0.3        -61.26991756]
 [  0.4         81.44701614]
 [  0.5        -10.05211206]
 [  0.6         87.11270269]
 [  0.7         90.29193007]
 [  0.8         93.39850094]
 [  0.9        -79.62417921]
 [  1.         -15.95490787]
 [  1.1        -66.82103003]
 [  1.14141667 -47.67225362]]","[[0.         1.16978451]
 [0.1        0.73810141]
 [0.2        0.4698039 ]
 [0.3        1.26576423]
 [0.4        0.22687112]
 [0.5        1.91474745]
 [0.6        0.22997797]
 [0.7        0.73541214]
 [0.8        0.50625098]
 [0.9        0.81926426]
 [1.         1.83332922]
 [1.1        1.98718157]
 [1.14141667 0.33289995]]",1,0.348
8732112179,m,20,english,5,4,english,2024-01-30 13:04:55.138711,False,2,298,sounds\french\audio/french_490.wav,"[[  0.          34.07788698]
 [  0.1         46.76949029]
 [  0.2         28.77768732]
 [  0.3         84.71768289]
 [  0.4        -49.14084598]
 [  0.5        -27.41453293]
 [  0.6         34.60310524]
 [  0.7        -10.05161689]
 [  0.8        -40.81038415]
 [  0.9         -9.03506951]
 [  1.          28.04397329]
 [  1.1         18.34662283]
 [  1.14141667  68.18025592]]","[[0.         0.7414872 ]
 [0.1        0.69857728]
 [0.2        0.06010779]
 [0.3        0.07957118]
 [0.4        1.177156  ]
 [0.5        1.97943137]
 [0.6        0.5073494 ]
 [0.7        1.71553838]
 [0.8        0.81648338]
 [0.9        1.29656038]
 [1.         1.96068251]
 [1.1        0.27924409]
 [1.14141667 1.35055219]]",0,0.539
8732112179,m,20,english,5,4,english,2024-01-30 13:04:55.138711,False,2,299,sounds\french\audio/french_175.wav,"[[  0.         -86.0971082 ]
 [  0.1         -2.3053728 ]
 [  0.2         91.03775422]
 [  0.3        -72.92322202]
 [  0.4         19.26304209]
 [  0.5         22.762125  ]
 [  0.6         89.08499151]
 [  0.7         30.86228211]
 [  0.8        -20.38362491]
 [  0.9         30.33990578]
 [  1.          40.44951768]
 [  1.1        -74.03551827]
 [  1.14141667   8.34335903]]","[[0.         0.20418882]
 [0.1        1.54727449]
 [0.2        0.94711427]
 [0.3        0.51689232]
 [0.4        1.57615447]
 [0.5        1.15863709]
 [0.6        1.47271781]
 [0.7        1.58184422]
 [0.8        1.71939633]
 [0.9        1.50494596]
 [1.         0.66724973]
 [1.1        1.94775923]
 [1.14141667 1.32591679]]",1,0.438
8732112179,m,20,english,5,4,english,2024-01-30 13:04:55.138711,False,2,300,sounds\french\audio/french_246.wav,"[[  0.         -30.47504576]
 [  0.1        -83.06405686]
 [  0.2         62.50778564]
 [  0.3          8.87266429]
 [  0.4         44.6949174 ]
 [  0.5         38.79182234]
 [  0.6        -98.97339248]
 [  0.7        -24.61405849]
 [  0.8          0.11664969]
 [  0.9         41.40110598]
 [  1.         -40.48516798]
 [  1.1         70.26355015]
 [  1.14141667  92.29981678]]","[[0.         0.47785651]
 [0.1        1.85614621]
 [0.2        0.28079339]
 [0.3        1.15467711]
 [0.4        1.29610326]
 [0.5        0.14147162]
 [0.6        0.92649122]
 [0.7        0.74752986]
 [0.8        1.75089992]
 [0.9        0.0989963 ]
 [1.         0.24181159]
 [1.1        1.60406525]
 [1.14141667 0.31046435]]",1,0.582
8732112179,m,20,english,5,4,english,2024-01-30 13:04:55.138711,False,2,301,sounds\french\audio/french_257.wav,"[[  0.         -14.7165903 ]
 [  0.1          9.77195576]
 [  0.2         47.03230766]
 [  0.3         47.2421719 ]
 [  0.4        -71.97278452]
 [  0.5        -76.50169217]
 [  0.6        -66.41112258]
 [  0.7        -22.67062318]
 [  0.8        -29.5884482 ]
 [  0.9         81.81742087]
 [  1.          85.72452131]
 [  1.1         35.03898879]
 [  1.14141667  32.51985641]]","[[0.         1.26655031]
 [0.1        0.00191174]
 [0.2        0.31291214]
 [0.3        1.22624264]
 [0.4        0.54105763]
 [0.5        0.78287954]
 [0.6        1.330985  ]
 [0.7        1.35261468]
 [0.8        1.03978063]
 [0.9        0.00659695]
 [1.         1.34378574]
 [1.1        0.36395481]
 [1.14141667 0.94728688]]",0,1.705
8732112179,m,20,english,5,4,english,2024-01-30 13:04:55.138711,False,2,302,sounds\french\audio/french_609.wav,"[[  0.         -33.0990358 ]
 [  0.1        -76.8855135 ]
 [  0.2        -77.09744455]
 [  0.3         53.13274146]
 [  0.4         35.37902203]
 [  0.5         20.34548248]
 [  0.6         -6.72304145]
 [  0.7         18.07732321]
 [  0.8         95.53940519]
 [  0.9        -92.74085832]
 [  1.          56.61461398]
 [  1.1        -30.80451212]
 [  1.14141667  -4.98965675]]","[[0.         1.60128012]
 [0.1        1.70842232]
 [0.2        1.82827546]
 [0.3        0.14742697]
 [0.4        1.25283251]
 [0.5        0.26386793]
 [0.6        0.83898533]
 [0.7        0.31703682]
 [0.8        1.359658  ]
 [0.9        1.06120925]
 [1.         1.23233063]
 [1.1        0.16135233]
 [1.14141667 1.719186  ]]",1,0.805
8732112179,m,20,english,5,4,english,2024-01-30 13:04:55.138711,False,2,303,sounds\french\audio/french_303.wav,"[[  0.         -28.78931036]
 [  0.1         74.05829873]
 [  0.2         33.28430387]
 [  0.3         68.53072836]
 [  0.4        -63.38319091]
 [  0.5        -21.33135157]
 [  0.6        -24.45445524]
 [  0.7        -59.72790103]
 [  0.8         37.66757178]
 [  0.9        -52.84057361]
 [  1.          37.03164261]
 [  1.1         99.1130082 ]
 [  1.14141667 -38.68097477]]","[[0.         1.94473054]
 [0.1        0.33418404]
 [0.2        0.69798815]
 [0.3        0.93962857]
 [0.4        1.37838469]
 [0.5        0.29703539]
 [0.6        0.22022144]
 [0.7        0.94792167]
 [0.8        0.24739451]
 [0.9        1.66684976]
 [1.         1.99648268]
 [1.1        0.50055224]
 [1.14141667 0.96078189]]",1,0.405
8732112179,m,20,english,5,4,english,2024-01-30 13:04:55.138711,False,2,304,sounds\french\audio/french_573.wav,"[[  0.          -8.63416318]
 [  0.1         16.80813537]
 [  0.2         19.45481032]
 [  0.3        -44.5400907 ]
 [  0.4         99.1841253 ]
 [  0.5         22.11415525]
 [  0.6         38.23336035]
 [  0.7         16.03528662]
 [  0.8         45.03300228]
 [  0.9         78.94117461]
 [  1.         -19.40506878]
 [  1.1        -17.6448819 ]
 [  1.14141667 -27.52502811]]","[[0.         1.15935124]
 [0.1        1.79152654]
 [0.2        1.92024926]
 [0.3        0.49878224]
 [0.4        1.61702434]
 [0.5        1.71130334]
 [0.6        1.32813862]
 [0.7        0.51058126]
 [0.8        1.81453438]
 [0.9        0.03550179]
 [1.         1.7614801 ]
 [1.1        0.49774487]
 [1.14141667 1.11116609]]",1,0.99
8732112179,m,20,english,5,4,english,2024-01-30 13:04:55.138711,False,2,305,sounds\french\audio/french_454.wav,"[[  0.         -49.02277235]
 [  0.1        -46.1888088 ]
 [  0.2        -73.50241288]
 [  0.3         65.30688392]
 [  0.4        -86.33590272]
 [  0.5         20.22949723]
 [  0.6         63.90246923]
 [  0.7         -0.21908508]
 [  0.8        -14.82135042]
 [  0.9        -13.13400192]
 [  1.          20.07556925]
 [  1.1         44.26026986]
 [  1.14141667  79.45244035]]","[[0.         1.48003732]
 [0.1        1.6377516 ]
 [0.2        0.65510072]
 [0.3        0.596266  ]
 [0.4        0.90504214]
 [0.5        1.73406366]
 [0.6        1.43058566]
 [0.7        1.1269756 ]
 [0.8        0.21101907]
 [0.9        0.01231935]
 [1.         0.83166829]
 [1.1        0.28141821]
 [1.14141667 0.38664579]]",0,5.277
8732112179,m,20,english,5,4,english,2024-01-30 13:04:55.138711,False,2,306,sounds\french\audio/french_757.wav,"[[  0.           6.48639762]
 [  0.1        -51.86545104]
 [  0.2         13.60583501]
 [  0.3         42.98326891]
 [  0.4         80.68221451]
 [  0.5         60.20667087]
 [  0.6        -66.39272407]
 [  0.7        -56.86759688]
 [  0.8         31.92005434]
 [  0.9        -15.9358313 ]
 [  1.         -11.85374841]
 [  1.1        -30.88500349]
 [  1.14141667  54.27189093]]","[[0.         0.21123235]
 [0.1        0.07273278]
 [0.2        1.91645599]
 [0.3        0.23026147]
 [0.4        0.90860197]
 [0.5        1.24090146]
 [0.6        1.63751086]
 [0.7        1.4449834 ]
 [0.8        0.31701973]
 [0.9        0.97326814]
 [1.         0.32789054]
 [1.1        0.1026242 ]
 [1.14141667 1.17122037]]",1,2.229
8732112179,m,20,english,5,4,english,2024-01-30 13:04:55.138711,False,2,307,sounds\french\audio/french_835.wav,"[[  0.          91.17156261]
 [  0.1         25.08688283]
 [  0.2         48.2450029 ]
 [  0.3         90.12216344]
 [  0.4        -40.18882143]
 [  0.5        -54.27954375]
 [  0.6        -68.4756581 ]
 [  0.7        -53.08534738]
 [  0.8        -46.88967441]
 [  0.9        -31.87646129]
 [  1.          35.54298867]
 [  1.1         77.25630657]
 [  1.14141667  70.60272191]]","[[0.         0.94497771]
 [0.1        1.50226129]
 [0.2        1.19715806]
 [0.3        1.34954449]
 [0.4        0.59579265]
 [0.5        1.80504859]
 [0.6        0.24555797]
 [0.7        0.70333343]
 [0.8        0.47518266]
 [0.9        1.46400156]
 [1.         1.13067654]
 [1.1        0.43563769]
 [1.14141667 1.31798111]]",1,0.674
8732112179,m,20,english,5,4,english,2024-01-30 13:04:55.138711,False,2,308,sounds\french\audio/french_662.wav,"[[  0.         -58.41769523]
 [  0.1          9.57990173]
 [  0.2        -12.85613497]
 [  0.3         -2.492249  ]
 [  0.4         81.85022743]
 [  0.5        -44.9453707 ]
 [  0.6        -31.2400428 ]
 [  0.7         -0.32495302]
 [  0.8         83.47890741]
 [  0.9         -3.56204298]
 [  1.         -31.28236846]
 [  1.1         29.38972981]
 [  1.14141667  56.83170874]]","[[0.         0.17249004]
 [0.1        0.24251521]
 [0.2        0.0442616 ]
 [0.3        0.45328164]
 [0.4        0.52406405]
 [0.5        0.36675154]
 [0.6        0.00343123]
 [0.7        0.95062338]
 [0.8        1.83377113]
 [0.9        0.58479333]
 [1.         0.06647959]
 [1.1        0.47496869]
 [1.14141667 1.46968119]]",1,2.602
8732112179,m,20,english,5,4,english,2024-01-30 13:04:55.138711,False,2,309,sounds\french\audio/french_810.wav,"[[  0.         -11.15684924]
 [  0.1         19.7802092 ]
 [  0.2        -30.04059815]
 [  0.3        -95.70769325]
 [  0.4        -85.83375083]
 [  0.5        -37.45895339]
 [  0.6        -92.99313722]
 [  0.7        -10.59807412]
 [  0.8        -53.30222584]
 [  0.9         44.39304862]
 [  1.          21.84097508]
 [  1.1        -95.99608971]
 [  1.14141667  89.10365484]]","[[0.         0.93665217]
 [0.1        1.74097492]
 [0.2        0.51520892]
 [0.3        0.6750365 ]
 [0.4        1.81202687]
 [0.5        1.65594006]
 [0.6        0.4118564 ]
 [0.7        1.49052065]
 [0.8        1.68710618]
 [0.9        0.87014505]
 [1.         1.52543632]
 [1.1        1.72886846]
 [1.14141667 1.0642508 ]]",1,1.259
8732112179,m,20,english,5,4,english,2024-01-30 13:04:55.138711,False,2,310,sounds\french\audio/french_837.wav,"[[  0.          34.6621091 ]
 [  0.1        -53.39181475]
 [  0.2         38.65137653]
 [  0.3         -5.64857337]
 [  0.4          5.32229156]
 [  0.5        -93.06741103]
 [  0.6         39.95935059]
 [  0.7        -37.33008752]
 [  0.8         -7.80767782]
 [  0.9        -15.11794558]
 [  1.         -80.90661013]
 [  1.1        -34.66147377]
 [  1.14141667   1.95643496]]","[[0.         1.45663482]
 [0.1        0.54858462]
 [0.2        0.77512748]
 [0.3        0.90306389]
 [0.4        0.08877691]
 [0.5        1.40271651]
 [0.6        0.88374871]
 [0.7        0.79171605]
 [0.8        0.91621494]
 [0.9        0.25418764]
 [1.         0.01558732]
 [1.1        0.82338679]
 [1.14141667 1.44444872]]",1,1.154
8732112179,m,20,english,5,4,english,2024-01-30 13:04:55.138711,False,2,311,sounds\french\audio/french_956.wav,"[[  0.         -99.35759674]
 [  0.1         17.74635761]
 [  0.2         45.19730301]
 [  0.3         32.76158542]
 [  0.4        -82.44124556]
 [  0.5        -42.32589362]
 [  0.6         47.35708325]
 [  0.7        -90.98325298]
 [  0.8        -35.51686902]
 [  0.9         60.74204696]
 [  1.         -46.10377132]
 [  1.1        -22.49053344]
 [  1.14141667  15.48787024]]","[[0.         0.54388648]
 [0.1        1.06124428]
 [0.2        1.13782447]
 [0.3        1.35322569]
 [0.4        1.86440682]
 [0.5        1.66841875]
 [0.6        1.44392405]
 [0.7        1.23654472]
 [0.8        0.08906861]
 [0.9        0.55811382]
 [1.         0.54181177]
 [1.1        0.7143235 ]
 [1.14141667 1.69639276]]",1,0.923
8732112179,m,20,english,5,4,english,2024-01-30 13:04:55.138711,False,2,312,sounds\french\audio/french_431.wav,"[[  0.         -96.46600651]
 [  0.1        -23.28140162]
 [  0.2         85.48818596]
 [  0.3         73.49265298]
 [  0.4         38.7002008 ]
 [  0.5         18.90003165]
 [  0.6         27.43188712]
 [  0.7        -91.05581927]
 [  0.8        -44.52669984]
 [  0.9         79.68397794]
 [  1.          78.15410054]
 [  1.1         10.90379077]
 [  1.14141667 -66.30427155]]","[[0.         1.54464496]
 [0.1        0.36629413]
 [0.2        1.51270847]
 [0.3        1.99092223]
 [0.4        1.14324987]
 [0.5        1.31996998]
 [0.6        1.7759732 ]
 [0.7        1.57530669]
 [0.8        1.94282823]
 [0.9        0.21600784]
 [1.         1.61421717]
 [1.1        1.44824139]
 [1.14141667 0.06362757]]",1,0.418
8732112179,m,20,english,5,4,english,2024-01-30 13:04:55.138711,False,2,313,sounds\french\audio/french_937.wav,"[[  0.          72.99223977]
 [  0.1         41.57940993]
 [  0.2         67.06048677]
 [  0.3         -5.02147455]
 [  0.4          9.35505141]
 [  0.5        -95.44742745]
 [  0.6        -38.02184142]
 [  0.7         49.17491426]
 [  0.8         16.46716684]
 [  0.9        -84.30790102]
 [  1.         -10.41765428]
 [  1.1          5.6201408 ]
 [  1.14141667 -44.40394436]]","[[0.         1.02241682]
 [0.1        0.9465754 ]
 [0.2        0.64915766]
 [0.3        1.58052124]
 [0.4        0.61188269]
 [0.5        0.05363048]
 [0.6        1.12742296]
 [0.7        0.50171031]
 [0.8        0.61367002]
 [0.9        0.71351628]
 [1.         0.56964317]
 [1.1        0.47945544]
 [1.14141667 1.82118938]]",1,0.426
8732112179,m,20,english,5,4,english,2024-01-30 13:04:55.138711,False,2,314,sounds\french\audio/french_576.wav,"[[  0.         -35.22249623]
 [  0.1         92.91804811]
 [  0.2         14.59888727]
 [  0.3        -68.19590077]
 [  0.4         52.21316696]
 [  0.5         14.92193752]
 [  0.6         -2.54989891]
 [  0.7        -61.75801356]
 [  0.8        -64.3663367 ]
 [  0.9        -54.016617  ]
 [  1.          23.77391071]
 [  1.1         16.13387818]
 [  1.14141667  16.53892652]]","[[0.         0.53434723]
 [0.1        1.6832489 ]
 [0.2        0.18828374]
 [0.3        1.37837483]
 [0.4        1.79475925]
 [0.5        1.60751943]
 [0.6        1.27401164]
 [0.7        1.12679718]
 [0.8        0.78491819]
 [0.9        0.78342671]
 [1.         0.50591009]
 [1.1        1.89137454]
 [1.14141667 1.34464609]]",1,0.602
8732112179,m,20,english,5,4,english,2024-01-30 13:04:55.138711,False,2,315,sounds\french\audio/french_511.wav,"[[  0.          68.45765267]
 [  0.1         -8.95520239]
 [  0.2         44.78754761]
 [  0.3         48.7554288 ]
 [  0.4         41.20564236]
 [  0.5         74.46096489]
 [  0.6        -92.19481722]
 [  0.7         70.54554277]
 [  0.8        -89.98216972]
 [  0.9         96.36310752]
 [  1.         -57.15318896]
 [  1.1        -15.3628732 ]
 [  1.14141667 -40.17140688]]","[[0.         0.68906271]
 [0.1        1.35083961]
 [0.2        0.86739012]
 [0.3        0.74272649]
 [0.4        1.27472163]
 [0.5        0.69400452]
 [0.6        0.63157953]
 [0.7        1.62489355]
 [0.8        1.1631817 ]
 [0.9        1.80808524]
 [1.         1.87485338]
 [1.1        0.63700297]
 [1.14141667 1.56626139]]",0,0.844
8732112179,m,20,english,5,4,english,2024-01-30 13:04:55.138711,False,2,316,sounds\french\audio/french_329.wav,"[[  0.          71.90777756]
 [  0.1        -43.32742025]
 [  0.2         10.29822047]
 [  0.3         -8.2975621 ]
 [  0.4         -9.05642941]
 [  0.5         71.38448289]
 [  0.6        -33.59977824]
 [  0.7        -42.89385015]
 [  0.8          4.79671497]
 [  0.9         89.38276141]
 [  1.          86.61461451]
 [  1.1        -90.40965018]
 [  1.14141667  26.94310401]]","[[0.         1.08889423]
 [0.1        1.81532483]
 [0.2        1.08014864]
 [0.3        1.70717635]
 [0.4        0.23751232]
 [0.5        1.2040952 ]
 [0.6        0.66504849]
 [0.7        1.57435661]
 [0.8        1.87002656]
 [0.9        0.67215766]
 [1.         1.72909995]
 [1.1        1.3721255 ]
 [1.14141667 1.66284268]]",0,0.7
8732112179,m,20,english,5,4,english,2024-01-30 13:04:55.138711,False,2,317,sounds\french\audio/french_383.wav,"[[  0.         -39.02457542]
 [  0.1        -77.49985517]
 [  0.2         50.91368445]
 [  0.3         10.63848849]
 [  0.4         47.34974353]
 [  0.5        -18.10712895]
 [  0.6        -59.13978187]
 [  0.7        -95.02289951]
 [  0.8         -1.09114116]
 [  0.9        -71.36171918]
 [  1.          15.57019989]
 [  1.1        -93.68359708]
 [  1.14141667 -46.06271285]]","[[0.         1.13235422]
 [0.1        0.41642205]
 [0.2        1.49751518]
 [0.3        0.37045866]
 [0.4        0.15272125]
 [0.5        0.11717599]
 [0.6        0.84303964]
 [0.7        1.97903491]
 [0.8        0.29246172]
 [0.9        1.45734716]
 [1.         1.94987581]
 [1.1        1.48364755]
 [1.14141667 1.01304345]]",1,0.882
8732112179,m,20,english,5,4,english,2024-01-30 13:04:55.138711,False,2,318,sounds\french\audio/french_693.wav,"[[  0.          85.06863742]
 [  0.1         68.65637618]
 [  0.2        -64.93166306]
 [  0.3          9.02094246]
 [  0.4         30.21577577]
 [  0.5        -45.55013979]
 [  0.6        -22.45894718]
 [  0.7        -22.03690569]
 [  0.8        -72.74256114]
 [  0.9         79.55542456]
 [  1.           3.37293032]
 [  1.1        -26.61524733]
 [  1.14141667 -12.67054895]]","[[0.         1.43800555]
 [0.1        1.1319261 ]
 [0.2        1.31376129]
 [0.3        1.44469297]
 [0.4        0.25926005]
 [0.5        1.97890068]
 [0.6        0.76035239]
 [0.7        0.26797463]
 [0.8        0.09379237]
 [0.9        1.21622186]
 [1.         0.59723312]
 [1.1        1.86545966]
 [1.14141667 1.32223551]]",0,0.935
8732112179,m,20,english,5,4,english,2024-01-30 13:04:55.138711,False,2,319,sounds\french\audio/french_351.wav,"[[  0.          85.6199955 ]
 [  0.1        -58.21803023]
 [  0.2        -74.01582093]
 [  0.3        -37.08836973]
 [  0.4         51.76831215]
 [  0.5          8.55965689]
 [  0.6         27.71691358]
 [  0.7        -58.19113091]
 [  0.8         27.05080067]
 [  0.9         27.79413221]
 [  1.          50.00685101]
 [  1.1        -92.88762057]
 [  1.14141667 -51.26204732]]","[[0.         0.19143732]
 [0.1        0.65841603]
 [0.2        0.92288135]
 [0.3        0.84124379]
 [0.4        0.79870299]
 [0.5        1.46106007]
 [0.6        0.45059655]
 [0.7        1.62014764]
 [0.8        1.4891219 ]
 [0.9        1.20637276]
 [1.         1.30794963]
 [1.1        0.24756041]
 [1.14141667 0.85622749]]",0,0.471
8732112179,m,20,english,5,4,english,2024-01-30 13:04:55.138711,False,2,320,sounds\french\audio/french_921.wav,"[[  0.         -22.48407438]
 [  0.1         96.20023213]
 [  0.2        -26.96111018]
 [  0.3         -4.61285821]
 [  0.4        -41.60418228]
 [  0.5         16.2616983 ]
 [  0.6         40.35336686]
 [  0.7        -44.63732317]
 [  0.8         58.4442517 ]
 [  0.9          9.84257376]
 [  1.          41.47094552]
 [  1.1        -30.9925565 ]
 [  1.14141667  23.41632399]]","[[0.         0.56788331]
 [0.1        0.48037084]
 [0.2        1.28513603]
 [0.3        0.47395862]
 [0.4        1.80498459]
 [0.5        1.788566  ]
 [0.6        0.45002982]
 [0.7        0.17970155]
 [0.8        0.55049439]
 [0.9        0.16897134]
 [1.         0.81111626]
 [1.1        1.40036405]
 [1.14141667 1.37522971]]",1,0.839
8732112179,m,20,english,5,4,english,2024-01-30 13:04:55.138711,False,2,321,sounds\french\audio/french_472.wav,"[[  0.         -31.33353593]
 [  0.1        -49.49917903]
 [  0.2        -71.21753347]
 [  0.3         93.90241079]
 [  0.4        -15.9291914 ]
 [  0.5        -17.91277509]
 [  0.6        -92.82206414]
 [  0.7          9.95802513]
 [  0.8          2.63305448]
 [  0.9        -21.84239236]
 [  1.           8.18231827]
 [  1.1        -31.98207743]
 [  1.14141667 -51.9330912 ]]","[[0.         0.89232459]
 [0.1        0.0337069 ]
 [0.2        1.85491701]
 [0.3        1.04793629]
 [0.4        0.66120859]
 [0.5        1.31546264]
 [0.6        0.75122354]
 [0.7        0.85681732]
 [0.8        1.03382488]
 [0.9        0.59134372]
 [1.         1.03865283]
 [1.1        0.08528466]
 [1.14141667 1.61155129]]",1,0.525
8732112179,m,20,english,5,4,english,2024-01-30 13:04:55.138711,False,2,322,sounds\french\audio/french_117.wav,"[[  0.          43.60377946]
 [  0.1         88.0380463 ]
 [  0.2         -1.33010118]
 [  0.3          2.08209637]
 [  0.4        -43.3510715 ]
 [  0.5         -7.89680038]
 [  0.6        -40.62214755]
 [  0.7        -97.45180065]
 [  0.8        -31.70925374]
 [  0.9         13.12341678]
 [  1.          31.16574754]
 [  1.1         82.88920444]
 [  1.14141667  26.13773526]]","[[0.         0.26826622]
 [0.1        1.80635695]
 [0.2        0.58773943]
 [0.3        1.08351647]
 [0.4        1.74342001]
 [0.5        0.87416801]
 [0.6        1.89288011]
 [0.7        1.97585967]
 [0.8        0.86684516]
 [0.9        1.06236633]
 [1.         1.24093061]
 [1.1        1.58014354]
 [1.14141667 1.3395724 ]]",0,0.327
8732112179,m,20,english,5,4,english,2024-01-30 13:04:55.138711,False,2,323,sounds\french\audio/french_793.wav,"[[  0.           0.61381663]
 [  0.1         92.05397349]
 [  0.2         23.63919485]
 [  0.3         94.74337544]
 [  0.4         -4.85245867]
 [  0.5        -56.1365957 ]
 [  0.6        -40.34456192]
 [  0.7         -4.58487531]
 [  0.8         51.30918321]
 [  0.9         30.18198808]
 [  1.          16.73684117]
 [  1.1         54.14621512]
 [  1.14141667 -25.30748168]]","[[0.         0.26180926]
 [0.1        1.13910564]
 [0.2        0.88267261]
 [0.3        0.03736754]
 [0.4        0.51925045]
 [0.5        0.99207172]
 [0.6        0.90668955]
 [0.7        1.38132635]
 [0.8        0.53966259]
 [0.9        0.34803119]
 [1.         0.51822744]
 [1.1        0.88562178]
 [1.14141667 1.30234483]]",1,0.963
8732112179,m,20,english,5,4,english,2024-01-30 13:04:55.138711,False,2,324,sounds\french\audio/french_226.wav,"[[ 0.00000000e+00 -8.95654403e+01]
 [ 1.00000000e-01  2.26491102e+01]
 [ 2.00000000e-01 -9.81829822e+01]
 [ 3.00000000e-01  9.00677545e+01]
 [ 4.00000000e-01  7.66949101e+01]
 [ 5.00000000e-01 -1.65739388e+01]
 [ 6.00000000e-01  7.95444963e+01]
 [ 7.00000000e-01 -6.45918564e+01]
 [ 8.00000000e-01 -1.57739040e+01]
 [ 9.00000000e-01  2.27312472e+00]
 [ 1.00000000e+00 -1.95846244e+01]
 [ 1.10000000e+00 -3.33610299e+01]
 [ 1.14141667e+00  7.77115779e-02]]","[[0.         0.58902414]
 [0.1        1.07347561]
 [0.2        0.10029967]
 [0.3        1.58545922]
 [0.4        0.62840151]
 [0.5        1.47484594]
 [0.6        1.47385209]
 [0.7        0.37637466]
 [0.8        0.13457703]
 [0.9        1.1026559 ]
 [1.         1.06735265]
 [1.1        1.0785035 ]
 [1.14141667 0.45867653]]",1,0.598
8732112179,m,20,english,5,4,english,2024-01-30 13:04:55.138711,False,2,325,sounds\french\audio/french_174.wav,"[[  0.         -30.56433127]
 [  0.1        -47.55811777]
 [  0.2         28.56583207]
 [  0.3         40.04396067]
 [  0.4        -28.77006627]
 [  0.5         10.60896248]
 [  0.6        -60.55483946]
 [  0.7         31.94190245]
 [  0.8         95.12679038]
 [  0.9        -16.07040974]
 [  1.         -80.44609319]
 [  1.1        -56.80142673]
 [  1.14141667 -57.21574415]]","[[0.         1.42567185]
 [0.1        0.62143253]
 [0.2        1.30085658]
 [0.3        0.91650531]
 [0.4        0.25461144]
 [0.5        1.7210299 ]
 [0.6        0.59527891]
 [0.7        1.66278508]
 [0.8        0.30000032]
 [0.9        1.57018269]
 [1.         1.40831219]
 [1.1        0.60735431]
 [1.14141667 0.91560648]]",1,0.526
8732112179,m,20,english,5,4,english,2024-01-30 13:04:55.138711,False,2,326,sounds\french\audio/french_426.wav,"[[  0.          -6.32763113]
 [  0.1         52.57695115]
 [  0.2         41.60389797]
 [  0.3         -8.66153644]
 [  0.4         21.98741159]
 [  0.5          7.59234245]
 [  0.6         70.82755328]
 [  0.7         17.66979404]
 [  0.8        -65.60181314]
 [  0.9        -44.40728826]
 [  1.         -52.60669598]
 [  1.1        -70.77145759]
 [  1.14141667 -30.0338136 ]]","[[0.         1.69747545]
 [0.1        0.44356632]
 [0.2        0.19149228]
 [0.3        0.04934427]
 [0.4        1.95400703]
 [0.5        0.49820864]
 [0.6        0.51266747]
 [0.7        1.86795174]
 [0.8        1.30935529]
 [0.9        0.05861012]
 [1.         1.40782227]
 [1.1        1.0203891 ]
 [1.14141667 1.4169691 ]]",1,0.77
8732112179,m,20,english,5,4,english,2024-01-30 13:04:55.138711,False,2,327,sounds\french\audio/french_689.wav,"[[  0.          18.71690093]
 [  0.1         70.88150917]
 [  0.2         23.29873522]
 [  0.3        -19.83408775]
 [  0.4        -88.59539457]
 [  0.5          3.33992371]
 [  0.6        -73.90842815]
 [  0.7         27.77232776]
 [  0.8         47.07023028]
 [  0.9         58.29803031]
 [  1.          66.78853229]
 [  1.1        -39.3403084 ]
 [  1.14141667  45.51603845]]","[[0.         1.63903865]
 [0.1        1.28668292]
 [0.2        0.4448863 ]
 [0.3        1.46840806]
 [0.4        0.66601538]
 [0.5        0.03688538]
 [0.6        0.48708825]
 [0.7        0.83201182]
 [0.8        0.98489988]
 [0.9        0.70021639]
 [1.         1.48154334]
 [1.1        0.31951264]
 [1.14141667 1.22903486]]",0,0.5
8732112179,m,20,english,5,4,english,2024-01-30 13:04:55.138711,False,2,328,sounds\french\audio/french_892.wav,"[[  0.           2.48516085]
 [  0.1        -76.22143396]
 [  0.2         93.28499715]
 [  0.3         12.13691899]
 [  0.4        -69.30233484]
 [  0.5         20.86949567]
 [  0.6        -38.30390535]
 [  0.7        -51.39274588]
 [  0.8         66.90425757]
 [  0.9        -53.91373226]
 [  1.          17.61869839]
 [  1.1        -34.76358151]
 [  1.14141667  15.85772352]]","[[0.         0.58260241]
 [0.1        1.93950295]
 [0.2        0.79251677]
 [0.3        1.61878069]
 [0.4        0.35146725]
 [0.5        1.82455818]
 [0.6        1.06886099]
 [0.7        1.74424774]
 [0.8        1.75805462]
 [0.9        1.69854439]
 [1.         0.60409156]
 [1.1        0.5214224 ]
 [1.14141667 1.48692913]]",0,0.543
8732112179,m,20,english,5,4,english,2024-01-30 13:04:55.138711,False,2,329,sounds\french\audio/french_723.wav,"[[  0.          22.19465048]
 [  0.1         23.964481  ]
 [  0.2        -20.78401632]
 [  0.3        -42.88976611]
 [  0.4        -14.55295397]
 [  0.5        -35.12687869]
 [  0.6        -97.73060339]
 [  0.7          3.95473766]
 [  0.8         78.03718234]
 [  0.9        -10.33119837]
 [  1.          83.18845617]
 [  1.1         83.83218314]
 [  1.14141667 -82.60655124]]","[[0.         0.67419904]
 [0.1        1.58262399]
 [0.2        1.30108669]
 [0.3        1.6401937 ]
 [0.4        1.79809459]
 [0.5        1.10487247]
 [0.6        1.45372595]
 [0.7        0.61161136]
 [0.8        0.17526252]
 [0.9        1.7787348 ]
 [1.         1.55366011]
 [1.1        1.79647341]
 [1.14141667 0.62892068]]",0,0.496
8732112179,m,20,english,5,4,english,2024-01-30 13:04:55.138711,False,2,330,sounds\french\audio/french_973.wav,"[[  0.         -86.39839216]
 [  0.1          1.20679898]
 [  0.2         15.58231858]
 [  0.3        -75.27995911]
 [  0.4         91.87969764]
 [  0.5        -44.549451  ]
 [  0.6         14.10135861]
 [  0.7         34.76220083]
 [  0.8         56.57853654]
 [  0.9        -35.36373117]
 [  1.          61.49745855]
 [  1.1         42.44556921]
 [  1.14141667  36.91066047]]","[[0.         0.1983517 ]
 [0.1        0.23187488]
 [0.2        0.04321491]
 [0.3        0.48652298]
 [0.4        1.31905272]
 [0.5        1.13684952]
 [0.6        1.60418298]
 [0.7        0.57933273]
 [0.8        0.47519185]
 [0.9        0.24624019]
 [1.         0.64920292]
 [1.1        1.98431644]
 [1.14141667 0.99098836]]",0,0.47
8732112179,m,20,english,5,4,english,2024-01-30 13:04:55.138711,False,2,331,sounds\french\audio/french_557.wav,"[[  0.          87.75716143]
 [  0.1         75.58973606]
 [  0.2        -10.41118754]
 [  0.3        -48.91892045]
 [  0.4        -17.3468807 ]
 [  0.5         34.22726799]
 [  0.6        -77.53700308]
 [  0.7         78.68416949]
 [  0.8        -43.34644419]
 [  0.9         68.78190397]
 [  1.         -59.83661076]
 [  1.1        -25.29215861]
 [  1.14141667  62.84029703]]","[[0.         1.51726274]
 [0.1        0.82672788]
 [0.2        0.29594779]
 [0.3        1.45862429]
 [0.4        0.77182158]
 [0.5        0.29571527]
 [0.6        1.00868641]
 [0.7        0.49328713]
 [0.8        0.40883898]
 [0.9        1.05980011]
 [1.         1.00265193]
 [1.1        0.2775648 ]
 [1.14141667 0.76714815]]",1,1.358
8732112179,m,20,english,5,4,english,2024-01-30 13:04:55.138711,False,2,332,sounds\french\audio/french_434.wav,"[[  0.          83.22064209]
 [  0.1         25.82279266]
 [  0.2        -83.78660265]
 [  0.3        -88.71037445]
 [  0.4        -25.11946458]
 [  0.5        -32.29289083]
 [  0.6         -5.66379258]
 [  0.7         19.8755327 ]
 [  0.8        -77.8746618 ]
 [  0.9         37.7335618 ]
 [  1.         -45.35644981]
 [  1.1          5.10747421]
 [  1.14141667  68.71172413]]","[[0.         0.35182135]
 [0.1        1.40300106]
 [0.2        0.21446129]
 [0.3        1.56833652]
 [0.4        0.50116285]
 [0.5        0.47629771]
 [0.6        1.62608898]
 [0.7        0.55661978]
 [0.8        0.6727298 ]
 [0.9        1.74274249]
 [1.         0.39098492]
 [1.1        1.6393156 ]
 [1.14141667 1.24158376]]",1,1.13
8732112179,m,20,english,5,4,english,2024-01-30 13:04:55.138711,False,2,333,sounds\french\audio/french_106.wav,"[[  0.          41.36913714]
 [  0.1         72.10514789]
 [  0.2         71.35003336]
 [  0.3        -23.14792258]
 [  0.4        -85.60943665]
 [  0.5        -13.44621845]
 [  0.6        -19.94134835]
 [  0.7         58.19403594]
 [  0.8        -62.37820211]
 [  0.9         21.65239657]
 [  1.          13.26561889]
 [  1.1        -51.9211494 ]
 [  1.14141667   4.66038509]]","[[0.         0.22040484]
 [0.1        0.8989972 ]
 [0.2        1.76242083]
 [0.3        0.31381105]
 [0.4        0.12343581]
 [0.5        1.50784173]
 [0.6        1.19613994]
 [0.7        0.37137686]
 [0.8        0.57613605]
 [0.9        1.01997302]
 [1.         1.29543853]
 [1.1        1.97443987]
 [1.14141667 0.87800509]]",1,0.593
8732112179,m,20,english,5,4,english,2024-01-30 13:04:55.138711,False,2,334,sounds\french\audio/french_116.wav,"[[  0.         -36.99991361]
 [  0.1        -56.50097299]
 [  0.2        -21.98377289]
 [  0.3        -42.03621308]
 [  0.4        -88.55190861]
 [  0.5        -46.74535713]
 [  0.6         39.6792949 ]
 [  0.7         23.11771823]
 [  0.8        -83.67169345]
 [  0.9        -59.64205598]
 [  1.          83.70320104]
 [  1.1        -55.10526953]
 [  1.14141667  83.73638058]]","[[0.         0.39103735]
 [0.1        0.52639994]
 [0.2        0.98743434]
 [0.3        1.50732894]
 [0.4        0.88822468]
 [0.5        0.3631577 ]
 [0.6        0.09954352]
 [0.7        1.92445485]
 [0.8        0.86818207]
 [0.9        0.94464096]
 [1.         1.65962345]
 [1.1        0.87989703]
 [1.14141667 1.38818871]]",0,0.365
8732112179,m,20,english,5,4,english,2024-01-30 13:04:55.138711,False,2,335,sounds\french\audio/french_215.wav,"[[  0.          25.06649138]
 [  0.1        -75.62802154]
 [  0.2        -55.29126892]
 [  0.3        -31.13502895]
 [  0.4         99.96854364]
 [  0.5        -39.05274208]
 [  0.6        -48.65324171]
 [  0.7        -29.47734718]
 [  0.8         33.80663658]
 [  0.9        -21.30312991]
 [  1.          38.90898009]
 [  1.1         56.3377574 ]
 [  1.14141667  88.63688248]]","[[0.         0.73263287]
 [0.1        0.44309032]
 [0.2        0.69551141]
 [0.3        0.38506305]
 [0.4        0.52359658]
 [0.5        1.76965852]
 [0.6        1.14560288]
 [0.7        0.88778636]
 [0.8        1.18058041]
 [0.9        1.84333153]
 [1.         0.25005538]
 [1.1        1.84007576]
 [1.14141667 1.00047255]]",0,0.297
8732112179,m,20,english,5,4,english,2024-01-30 13:04:55.138711,False,2,336,sounds\french\audio/french_71.wav,"[[  0.          78.85650806]
 [  0.1         98.66013561]
 [  0.2         40.76629431]
 [  0.3         37.46576167]
 [  0.4         36.62059925]
 [  0.5        -15.30499106]
 [  0.6         13.92967978]
 [  0.7         41.98872019]
 [  0.8         86.5834428 ]
 [  0.9        -38.49262182]
 [  1.          17.09638043]
 [  1.1        -31.08676799]
 [  1.14141667  -1.70593486]]","[[0.         0.8693317 ]
 [0.1        0.2047511 ]
 [0.2        0.17301427]
 [0.3        0.67884544]
 [0.4        0.49967362]
 [0.5        0.06276407]
 [0.6        1.96544584]
 [0.7        0.03052065]
 [0.8        0.2363001 ]
 [0.9        0.76897263]
 [1.         0.53014972]
 [1.1        0.03830657]
 [1.14141667 1.08106094]]",1,0.74
8732112179,m,20,english,5,4,english,2024-01-30 13:04:55.138711,False,2,337,sounds\french\audio/french_126.wav,"[[  0.         -47.50319365]
 [  0.1          7.1744106 ]
 [  0.2        -57.32327794]
 [  0.3         31.39211364]
 [  0.4         53.99094674]
 [  0.5        -26.25701214]
 [  0.6        -77.34266557]
 [  0.7        -34.04180886]
 [  0.8         86.39853896]
 [  0.9         86.34329163]
 [  1.         -48.32443869]
 [  1.1        -43.96297419]
 [  1.14141667  18.70995966]]","[[0.         1.7258072 ]
 [0.1        1.03228838]
 [0.2        0.24012817]
 [0.3        0.38913186]
 [0.4        0.22087612]
 [0.5        1.50069545]
 [0.6        1.97351318]
 [0.7        1.74293994]
 [0.8        0.68176609]
 [0.9        0.61357482]
 [1.         1.25399236]
 [1.1        1.03394671]
 [1.14141667 0.12686828]]",1,0.424
8732112179,m,20,english,5,4,english,2024-01-30 13:04:55.138711,False,2,338,sounds\french\audio/french_151.wav,"[[  0.          73.69598741]
 [  0.1         64.60103058]
 [  0.2        -50.1174897 ]
 [  0.3        -11.85519642]
 [  0.4         20.82069553]
 [  0.5        -49.13010048]
 [  0.6         -9.92363458]
 [  0.7        -84.83739346]
 [  0.8        -73.41003559]
 [  0.9        -27.00763078]
 [  1.         -38.99718193]
 [  1.1        -47.19301082]
 [  1.14141667  62.80482945]]","[[0.         1.04505798]
 [0.1        1.03845733]
 [0.2        0.91489458]
 [0.3        1.63855818]
 [0.4        0.81995848]
 [0.5        0.84435973]
 [0.6        1.18038182]
 [0.7        0.65326479]
 [0.8        0.76726876]
 [0.9        0.49522299]
 [1.         1.81314168]
 [1.1        1.77151393]
 [1.14141667 1.83743246]]",1,0.5
8732112179,m,20,english,5,4,english,2024-01-30 13:04:55.138711,False,2,339,sounds\french\audio/french_115.wav,"[[  0.          -7.18110588]
 [  0.1         94.79075027]
 [  0.2         65.03196098]
 [  0.3        -37.28428702]
 [  0.4         27.28588317]
 [  0.5        -35.83942865]
 [  0.6         -2.59487555]
 [  0.7         -7.83871927]
 [  0.8         11.84669574]
 [  0.9         15.04268327]
 [  1.         -33.08503387]
 [  1.1        -37.02592644]
 [  1.14141667  81.06738924]]","[[0.         0.85847517]
 [0.1        1.5812933 ]
 [0.2        1.03622674]
 [0.3        0.04767573]
 [0.4        1.4264155 ]
 [0.5        1.7631052 ]
 [0.6        1.23587648]
 [0.7        0.84823926]
 [0.8        0.19047812]
 [0.9        1.24298013]
 [1.         1.00705755]
 [1.1        0.82373643]
 [1.14141667 1.84378912]]",1,0.491
8732112179,m,20,english,5,4,english,2024-01-30 13:04:55.138711,False,2,340,sounds\french\audio/french_509.wav,"[[  0.         -79.28359824]
 [  0.1        -85.11040144]
 [  0.2         58.20689337]
 [  0.3        -53.07212842]
 [  0.4         14.54054596]
 [  0.5         38.89832363]
 [  0.6        -59.04867319]
 [  0.7        -18.19891129]
 [  0.8        -73.30058077]
 [  0.9          9.43722615]
 [  1.           2.35167022]
 [  1.1        -85.32824264]
 [  1.14141667  19.13063021]]","[[0.         1.76643555]
 [0.1        0.57920492]
 [0.2        0.89396937]
 [0.3        0.80048379]
 [0.4        1.05618514]
 [0.5        0.5299581 ]
 [0.6        1.30906386]
 [0.7        0.47184047]
 [0.8        0.61756094]
 [0.9        0.62383509]
 [1.         1.37177888]
 [1.1        0.23324254]
 [1.14141667 0.91376092]]",1,0.179
8732112179,m,20,english,5,4,english,2024-01-30 13:04:55.138711,False,2,341,sounds\french\audio/french_709.wav,"[[  0.         -53.16296067]
 [  0.1         59.94788803]
 [  0.2         35.87727167]
 [  0.3        -20.5364381 ]
 [  0.4         34.04594206]
 [  0.5        -79.51255741]
 [  0.6         22.56358256]
 [  0.7        -37.88762672]
 [  0.8        -41.8377988 ]
 [  0.9        -60.56478502]
 [  1.         -85.9910607 ]
 [  1.1         -8.25451984]
 [  1.14141667 -19.34673642]]","[[0.         1.12002918]
 [0.1        1.08131943]
 [0.2        0.76631976]
 [0.3        1.69776784]
 [0.4        0.74557561]
 [0.5        1.35674371]
 [0.6        1.43825325]
 [0.7        1.0289102 ]
 [0.8        1.05848076]
 [0.9        0.41244704]
 [1.         0.82703914]
 [1.1        1.84061657]
 [1.14141667 0.86940642]]",1,0.976
8732112179,m,20,english,5,4,english,2024-01-30 13:04:55.138711,False,2,342,sounds\french\audio/french_379.wav,"[[  0.          92.35208151]
 [  0.1        -25.91567626]
 [  0.2        -77.118008  ]
 [  0.3         29.86283118]
 [  0.4        -82.08951689]
 [  0.5        -83.67767675]
 [  0.6        -86.47421564]
 [  0.7         -6.33610425]
 [  0.8          1.07303098]
 [  0.9        -96.07937115]
 [  1.         -53.89727413]
 [  1.1         72.38399251]
 [  1.14141667  18.55821878]]","[[0.         0.11616284]
 [0.1        0.27217006]
 [0.2        0.89509921]
 [0.3        0.0899849 ]
 [0.4        1.97506173]
 [0.5        1.23110802]
 [0.6        1.35680108]
 [0.7        0.07151016]
 [0.8        1.17075437]
 [0.9        1.73539261]
 [1.         0.96881955]
 [1.1        1.26167389]
 [1.14141667 1.82038754]]",1,0.436
8732112179,m,20,english,5,4,english,2024-01-30 13:04:55.138711,False,2,343,sounds\french\audio/french_561.wav,"[[  0.          67.40101017]
 [  0.1         36.60368445]
 [  0.2         39.55672366]
 [  0.3         54.30102721]
 [  0.4         20.03392426]
 [  0.5        -29.68246873]
 [  0.6         22.40430281]
 [  0.7        -74.48697664]
 [  0.8         13.2806252 ]
 [  0.9         44.09035723]
 [  1.          -8.48015654]
 [  1.1         45.0458021 ]
 [  1.14141667 -93.39742635]]","[[0.         0.645078  ]
 [0.1        0.26756066]
 [0.2        0.69254265]
 [0.3        1.32198922]
 [0.4        1.02700149]
 [0.5        0.98226919]
 [0.6        0.81279805]
 [0.7        0.24367369]
 [0.8        0.57451136]
 [0.9        0.58440629]
 [1.         1.65336997]
 [1.1        1.04192986]
 [1.14141667 0.23712889]]",1,0.414
8732112179,m,20,english,5,4,english,2024-01-30 13:04:55.138711,False,2,344,sounds\french\audio/french_564.wav,"[[  0.           5.8966443 ]
 [  0.1        -15.54380544]
 [  0.2         58.15561903]
 [  0.3        -16.52706825]
 [  0.4          2.31267316]
 [  0.5        -11.97797107]
 [  0.6          1.32687996]
 [  0.7        -19.4298846 ]
 [  0.8        -79.35094672]
 [  0.9         18.14155436]
 [  1.          28.79693358]
 [  1.1         84.00888802]
 [  1.14141667 -69.56382184]]","[[0.         0.94077473]
 [0.1        1.2475432 ]
 [0.2        0.38395722]
 [0.3        0.67240196]
 [0.4        1.16524636]
 [0.5        0.88127423]
 [0.6        0.97845097]
 [0.7        0.42689353]
 [0.8        1.99355282]
 [0.9        1.23446663]
 [1.         1.12515652]
 [1.1        0.49124917]
 [1.14141667 1.22864195]]",1,0.485
8732112179,m,20,english,5,4,english,2024-01-30 13:04:55.138711,False,2,345,sounds\french\audio/french_940.wav,"[[  0.         -25.91102363]
 [  0.1        -98.40103544]
 [  0.2        -27.15280701]
 [  0.3        -22.44143901]
 [  0.4        -35.46456579]
 [  0.5          4.61704007]
 [  0.6         -0.66829234]
 [  0.7        -40.91244747]
 [  0.8         -7.0277311 ]
 [  0.9        -54.36774404]
 [  1.         -70.25957044]
 [  1.1        -51.97264261]
 [  1.14141667 -21.44395954]]","[[0.         1.80936278]
 [0.1        0.189785  ]
 [0.2        0.92419409]
 [0.3        1.89569959]
 [0.4        1.98157399]
 [0.5        0.94447039]
 [0.6        1.15374369]
 [0.7        1.96635158]
 [0.8        0.84047268]
 [0.9        0.10425056]
 [1.         0.65084977]
 [1.1        0.80794246]
 [1.14141667 0.58048173]]",0,0.66
8732112179,m,20,english,5,4,english,2024-01-30 13:04:55.138711,False,2,346,sounds\french\audio/french_26.wav,"[[  0.         -81.500945  ]
 [  0.1        -65.11333571]
 [  0.2        -77.7704124 ]
 [  0.3         34.60738715]
 [  0.4        -21.13268023]
 [  0.5        -67.64311047]
 [  0.6         75.6271836 ]
 [  0.7        -50.68101632]
 [  0.8         22.77029763]
 [  0.9         41.21511466]
 [  1.         -24.64698103]
 [  1.1        -60.0366715 ]
 [  1.14141667  78.73354468]]","[[0.         0.85880669]
 [0.1        1.39583556]
 [0.2        1.33635367]
 [0.3        0.06972488]
 [0.4        1.32038127]
 [0.5        1.38878371]
 [0.6        0.79062113]
 [0.7        1.95456048]
 [0.8        1.27674604]
 [0.9        0.82824768]
 [1.         0.54540622]
 [1.1        0.3520348 ]
 [1.14141667 0.71671085]]",0,0.433
8732112179,m,20,english,5,4,english,2024-01-30 13:04:55.138711,False,2,347,sounds\french\audio/french_901.wav,"[[  0.         -64.95285264]
 [  0.1         70.24180668]
 [  0.2        -78.29925323]
 [  0.3         28.76135856]
 [  0.4        -97.59411089]
 [  0.5        -71.4781857 ]
 [  0.6         47.50102885]
 [  0.7         74.58875525]
 [  0.8        -64.64530626]
 [  0.9         98.86600436]
 [  1.         -34.06198226]
 [  1.1         52.9945055 ]
 [  1.14141667 -27.17874653]]","[[0.         0.77791492]
 [0.1        0.36162729]
 [0.2        0.94854368]
 [0.3        1.39971828]
 [0.4        1.57268317]
 [0.5        0.27616247]
 [0.6        0.74902357]
 [0.7        1.7211117 ]
 [0.8        0.86441686]
 [0.9        0.61741345]
 [1.         1.07993442]
 [1.1        0.68198901]
 [1.14141667 0.95785524]]",0,1.613
8732112179,m,20,english,5,4,english,2024-01-30 13:04:55.138711,False,2,348,sounds\french\audio/french_157.wav,"[[  0.          69.97477415]
 [  0.1         72.72595515]
 [  0.2        -33.66198838]
 [  0.3         74.09002914]
 [  0.4         85.51837751]
 [  0.5         11.96036414]
 [  0.6         82.38779863]
 [  0.7         -0.78209189]
 [  0.8         11.04458638]
 [  0.9        -17.32930902]
 [  1.         -52.23484841]
 [  1.1         18.58428374]
 [  1.14141667  25.28800571]]","[[0.         1.12639282]
 [0.1        1.23676665]
 [0.2        1.59283895]
 [0.3        0.72154752]
 [0.4        0.48756242]
 [0.5        1.48768951]
 [0.6        0.9583922 ]
 [0.7        0.51068024]
 [0.8        0.8039419 ]
 [0.9        0.62025683]
 [1.         1.50951515]
 [1.1        1.73174574]
 [1.14141667 1.85759881]]",1,0.569
8732112179,m,20,english,5,4,english,2024-01-30 13:04:55.138711,False,2,349,sounds\french\audio/french_96.wav,"[[  0.          53.78639377]
 [  0.1         31.41586523]
 [  0.2         98.80733332]
 [  0.3         53.44519875]
 [  0.4         95.61439284]
 [  0.5         77.20225202]
 [  0.6         52.03252285]
 [  0.7         81.26088067]
 [  0.8         61.75854177]
 [  0.9        -97.80195669]
 [  1.         -30.26366105]
 [  1.1         17.72455957]
 [  1.14141667  64.44839673]]","[[0.         1.90346106]
 [0.1        0.15220772]
 [0.2        0.53950268]
 [0.3        0.63349693]
 [0.4        0.57290588]
 [0.5        0.42649721]
 [0.6        1.12105265]
 [0.7        0.61167248]
 [0.8        1.55092745]
 [0.9        1.53777106]
 [1.         1.41658213]
 [1.1        0.75969362]
 [1.14141667 0.51672597]]",0,0.413
8732112179,m,20,english,5,4,english,2024-01-30 13:04:55.138711,False,2,350,sounds\french\audio/french_106.wav,"[[  0.          41.36913714]
 [  0.1         72.10514789]
 [  0.2         71.35003336]
 [  0.3        -23.14792258]
 [  0.4        -85.60943665]
 [  0.5        -13.44621845]
 [  0.6        -19.94134835]
 [  0.7         58.19403594]
 [  0.8        -62.37820211]
 [  0.9         21.65239657]
 [  1.          13.26561889]
 [  1.1        -51.9211494 ]
 [  1.14141667   4.66038509]]","[[0.         0.22040484]
 [0.1        0.8989972 ]
 [0.2        1.76242083]
 [0.3        0.31381105]
 [0.4        0.12343581]
 [0.5        1.50784173]
 [0.6        1.19613994]
 [0.7        0.37137686]
 [0.8        0.57613605]
 [0.9        1.01997302]
 [1.         1.29543853]
 [1.1        1.97443987]
 [1.14141667 0.87800509]]",0,0.479
8732112179,m,20,english,5,4,english,2024-01-30 13:04:55.138711,False,2,351,sounds\french\audio/french_817.wav,"[[  0.         -30.94248102]
 [  0.1         -4.29051335]
 [  0.2        -40.67450271]
 [  0.3        -98.30979695]
 [  0.4         33.8298658 ]
 [  0.5        -10.25342909]
 [  0.6        -44.71615858]
 [  0.7        -44.75020149]
 [  0.8         83.65764996]
 [  0.9         43.69158252]
 [  1.          46.49261848]
 [  1.1          1.97001413]
 [  1.14141667  -3.17194908]]","[[0.         0.42536639]
 [0.1        0.63122361]
 [0.2        1.33951683]
 [0.3        0.48386301]
 [0.4        0.54931862]
 [0.5        1.17298133]
 [0.6        0.90112803]
 [0.7        1.02780662]
 [0.8        1.75749166]
 [0.9        1.02056685]
 [1.         1.3036828 ]
 [1.1        1.81996597]
 [1.14141667 0.33384971]]",1,0.328
8732112179,m,20,english,5,4,english,2024-01-30 13:04:55.138711,False,2,352,sounds\french\audio/french_280.wav,"[[  0.          63.30706177]
 [  0.1         92.39258817]
 [  0.2        -13.48987657]
 [  0.3        -67.72828589]
 [  0.4        -32.88602624]
 [  0.5        -21.74757727]
 [  0.6        -67.91477632]
 [  0.7        -71.89099465]
 [  0.8        -96.77863544]
 [  0.9        -70.31079297]
 [  1.         -73.46248332]
 [  1.1        -28.24261777]
 [  1.14141667  19.33217049]]","[[0.         0.51067849]
 [0.1        0.94358364]
 [0.2        0.25640873]
 [0.3        0.58771016]
 [0.4        1.52289813]
 [0.5        1.41394509]
 [0.6        1.11303104]
 [0.7        1.98467364]
 [0.8        0.54349304]
 [0.9        0.98875815]
 [1.         1.32929539]
 [1.1        0.86616119]
 [1.14141667 0.54483998]]",1,0.382
8732112179,m,20,english,5,4,english,2024-01-30 13:04:55.138711,False,2,353,sounds\french\audio/french_304.wav,"[[  0.          91.0393851 ]
 [  0.1         51.89592646]
 [  0.2        -41.96139425]
 [  0.3         33.22351683]
 [  0.4        -81.82163914]
 [  0.5         75.27027895]
 [  0.6         50.24685935]
 [  0.7         18.86376769]
 [  0.8        -72.34873966]
 [  0.9         12.57942246]
 [  1.          34.665409  ]
 [  1.1         60.12452048]
 [  1.14141667 -15.90395096]]","[[0.         1.70122252]
 [0.1        0.67923322]
 [0.2        0.27919383]
 [0.3        1.89869366]
 [0.4        1.10426251]
 [0.5        0.40449769]
 [0.6        0.77963491]
 [0.7        0.60414931]
 [0.8        1.15326972]
 [0.9        0.36579896]
 [1.         0.61919761]
 [1.1        1.71767122]
 [1.14141667 0.80319073]]",1,0.688
8732112179,m,20,english,5,4,english,2024-01-30 13:04:55.138711,False,2,354,sounds\french\audio/french_267.wav,"[[  0.          18.62194101]
 [  0.1        -41.76587146]
 [  0.2        -89.0319753 ]
 [  0.3         -9.29393358]
 [  0.4          4.87685639]
 [  0.5         55.48582026]
 [  0.6         68.06270027]
 [  0.7         73.37283609]
 [  0.8         87.54245383]
 [  0.9        -36.95251774]
 [  1.          15.0077511 ]
 [  1.1          1.73751708]
 [  1.14141667 -26.35169503]]","[[0.         1.74719476]
 [0.1        1.66560927]
 [0.2        0.63204019]
 [0.3        1.85189237]
 [0.4        1.63232166]
 [0.5        0.52529496]
 [0.6        0.12234138]
 [0.7        0.34795173]
 [0.8        1.84655651]
 [0.9        1.60281613]
 [1.         0.17639531]
 [1.1        1.90986938]
 [1.14141667 1.88890826]]",1,0.508
8732112179,m,20,english,5,4,english,2024-01-30 13:04:55.138711,False,2,355,sounds\french\audio/french_505.wav,"[[  0.          10.6062499 ]
 [  0.1        -76.99802141]
 [  0.2         62.62271049]
 [  0.3         49.75584692]
 [  0.4        -44.42824919]
 [  0.5          8.97017494]
 [  0.6        -88.28080052]
 [  0.7        -13.73778208]
 [  0.8         73.13104705]
 [  0.9        -45.97620248]
 [  1.         -85.27177326]
 [  1.1          1.99886584]
 [  1.14141667 -57.73402289]]","[[0.         0.41232335]
 [0.1        1.02211306]
 [0.2        1.14367437]
 [0.3        1.86001892]
 [0.4        0.03497776]
 [0.5        1.27001275]
 [0.6        1.49153702]
 [0.7        0.88366965]
 [0.8        1.06271418]
 [0.9        0.40464318]
 [1.         0.55194696]
 [1.1        0.30087529]
 [1.14141667 1.54564481]]",0,1.396
8732112179,m,20,english,5,4,english,2024-01-30 13:04:55.138711,False,2,356,sounds\french\audio/french_446.wav,"[[  0.          66.11586976]
 [  0.1        -47.79078907]
 [  0.2         71.77920412]
 [  0.3        -93.6537617 ]
 [  0.4         -6.4027558 ]
 [  0.5        -41.15389174]
 [  0.6         -4.55914228]
 [  0.7         -9.90410227]
 [  0.8        -95.14424616]
 [  0.9        -38.80179858]
 [  1.          93.69085656]
 [  1.1         -2.36589875]
 [  1.14141667 -67.28651827]]","[[0.         0.5039422 ]
 [0.1        0.80146309]
 [0.2        1.78552689]
 [0.3        0.88100481]
 [0.4        0.77019445]
 [0.5        1.46662088]
 [0.6        0.87709691]
 [0.7        0.79820902]
 [0.8        1.2624915 ]
 [0.9        1.05291516]
 [1.         0.55686505]
 [1.1        1.21588771]
 [1.14141667 0.43693886]]",1,0.872
8732112179,m,20,english,5,4,english,2024-01-30 13:04:55.138711,False,2,357,sounds\french\audio/french_209.wav,"[[  0.         -37.75432052]
 [  0.1        -41.54397479]
 [  0.2         88.65301906]
 [  0.3        -58.34566528]
 [  0.4         32.2915787 ]
 [  0.5        -42.74882162]
 [  0.6        -70.03367552]
 [  0.7        -13.67330676]
 [  0.8        -64.68428425]
 [  0.9        -46.32803613]
 [  1.         -60.50547671]
 [  1.1         74.16907005]
 [  1.14141667  -0.39288766]]","[[0.         1.2769056 ]
 [0.1        0.48875509]
 [0.2        0.27666548]
 [0.3        0.43345867]
 [0.4        0.98164386]
 [0.5        1.03792846]
 [0.6        0.41234579]
 [0.7        0.09529836]
 [0.8        1.4613373 ]
 [0.9        1.1830112 ]
 [1.         1.12513934]
 [1.1        1.39691571]
 [1.14141667 0.99758243]]",1,1.552
8732112179,m,20,english,5,4,english,2024-01-30 13:04:55.138711,False,2,358,sounds\french\audio/french_766.wav,"[[  0.         -38.58168868]
 [  0.1         22.77189101]
 [  0.2         63.63009662]
 [  0.3         40.26074943]
 [  0.4         -0.66607969]
 [  0.5        -74.48176635]
 [  0.6         44.59470225]
 [  0.7         39.40784466]
 [  0.8         75.30603886]
 [  0.9        -71.87275787]
 [  1.         -60.86914525]
 [  1.1        -12.66114112]
 [  1.14141667  30.22243392]]","[[0.         0.48249149]
 [0.1        0.00578023]
 [0.2        0.94527593]
 [0.3        0.33817949]
 [0.4        0.24994959]
 [0.5        1.53235452]
 [0.6        1.7345893 ]
 [0.7        0.44579509]
 [0.8        0.97625809]
 [0.9        1.50725067]
 [1.         1.16202192]
 [1.1        0.28514793]
 [1.14141667 1.97969732]]",1,4.619
8732112179,m,20,english,5,4,english,2024-01-30 13:04:55.138711,False,2,359,sounds\french\audio/french_650.wav,"[[  0.         -80.70534425]
 [  0.1         22.50888873]
 [  0.2         14.34170807]
 [  0.3         -4.50498856]
 [  0.4         96.77548348]
 [  0.5        -75.14759677]
 [  0.6        -76.37814702]
 [  0.7         56.09158756]
 [  0.8        -57.46485918]
 [  0.9        -73.66863235]
 [  1.          42.15899657]
 [  1.1         19.2074275 ]
 [  1.14141667  73.45250642]]","[[0.         0.51958598]
 [0.1        0.40272379]
 [0.2        0.41500449]
 [0.3        1.07783942]
 [0.4        0.41791255]
 [0.5        0.19649285]
 [0.6        1.35074079]
 [0.7        1.17748366]
 [0.8        0.31751956]
 [0.9        0.91321615]
 [1.         0.74407114]
 [1.1        1.30375454]
 [1.14141667 1.71176617]]",1,0.446
8732112179,m,20,english,5,4,english,2024-01-30 13:04:55.138711,False,2,360,sounds\french\audio/french_292.wav,"[[  0.         -65.21663055]
 [  0.1         34.24982767]
 [  0.2        -92.63295305]
 [  0.3        -77.59900382]
 [  0.4         14.83333959]
 [  0.5         11.34419051]
 [  0.6          5.22580578]
 [  0.7          9.90915295]
 [  0.8         98.66536814]
 [  0.9        -61.20859902]
 [  1.         -91.20285571]
 [  1.1         77.92662302]
 [  1.14141667 -48.25371816]]","[[0.         1.02426511]
 [0.1        1.12889875]
 [0.2        1.50148233]
 [0.3        1.82420462]
 [0.4        1.7438412 ]
 [0.5        0.42400938]
 [0.6        0.47297633]
 [0.7        0.69162899]
 [0.8        0.37166542]
 [0.9        0.73651314]
 [1.         1.19119341]
 [1.1        0.13786686]
 [1.14141667 1.01945383]]",1,0.736
8732112179,m,20,english,5,4,english,2024-01-30 13:04:55.138711,False,2,361,sounds\french\audio/french_94.wav,"[[  0.          36.17630989]
 [  0.1         14.66761443]
 [  0.2        -38.42754405]
 [  0.3        -13.35310679]
 [  0.4         26.57810187]
 [  0.5         28.67841296]
 [  0.6         22.87282504]
 [  0.7        -73.37852096]
 [  0.8        -41.71162889]
 [  0.9        -14.22920007]
 [  1.         -28.00054225]
 [  1.1        -65.6003802 ]
 [  1.14141667  32.63192122]]","[[0.         1.30255272]
 [0.1        0.32896771]
 [0.2        1.71559629]
 [0.3        0.63050452]
 [0.4        0.36223899]
 [0.5        1.65127257]
 [0.6        0.67205642]
 [0.7        0.93955545]
 [0.8        1.15247084]
 [0.9        1.35681846]
 [1.         0.73658188]
 [1.1        0.24655426]
 [1.14141667 0.38371321]]",1,0.562
8732112179,m,20,english,5,4,english,2024-01-30 13:04:55.138711,False,2,362,sounds\french\audio/french_717.wav,"[[  0.          88.73376651]
 [  0.1        -23.7422393 ]
 [  0.2         22.24358049]
 [  0.3         26.02776154]
 [  0.4         50.50523033]
 [  0.5         45.16605907]
 [  0.6        -17.9098931 ]
 [  0.7         27.24171503]
 [  0.8         39.79598032]
 [  0.9         78.66410709]
 [  1.          -6.40706689]
 [  1.1        -55.33048838]
 [  1.14141667  93.60559785]]","[[0.         1.29630211]
 [0.1        1.17583122]
 [0.2        1.44825889]
 [0.3        1.42597369]
 [0.4        1.28997601]
 [0.5        0.7579775 ]
 [0.6        0.85921403]
 [0.7        0.93590594]
 [0.8        1.9839492 ]
 [0.9        1.89122416]
 [1.         0.26643504]
 [1.1        1.55483627]
 [1.14141667 1.84443801]]",1,0.42
8732112179,m,20,english,5,4,english,2024-01-30 13:04:55.138711,False,2,363,sounds\french\audio/french_667.wav,"[[  0.          -3.23073543]
 [  0.1         12.95388382]
 [  0.2        -81.94464558]
 [  0.3        -49.94767422]
 [  0.4         55.78567477]
 [  0.5         79.02111133]
 [  0.6         -5.77186949]
 [  0.7         53.00308605]
 [  0.8         58.82898183]
 [  0.9         46.90110707]
 [  1.          27.42439554]
 [  1.1        -19.01601979]
 [  1.14141667  63.4895526 ]]","[[0.         0.36346463]
 [0.1        0.76986808]
 [0.2        1.34448265]
 [0.3        0.75161854]
 [0.4        0.06445757]
 [0.5        1.86844951]
 [0.6        0.16436936]
 [0.7        0.4200212 ]
 [0.8        0.54306015]
 [0.9        0.49338547]
 [1.         1.57738821]
 [1.1        1.23039294]
 [1.14141667 1.7787343 ]]",1,0.822
8732112179,m,20,english,5,4,english,2024-01-30 13:04:55.138711,False,2,364,sounds\french\audio/french_804.wav,"[[  0.         -81.48040782]
 [  0.1        -17.45889889]
 [  0.2         30.94703124]
 [  0.3        -59.31638088]
 [  0.4         32.31952964]
 [  0.5        -76.80935002]
 [  0.6        -98.7037282 ]
 [  0.7        -37.18293781]
 [  0.8        -12.0929561 ]
 [  0.9         70.86110412]
 [  1.         -41.4148751 ]
 [  1.1         34.56454139]
 [  1.14141667  -8.86405782]]","[[0.         1.72278374]
 [0.1        1.09467419]
 [0.2        1.89284567]
 [0.3        0.06467182]
 [0.4        1.7986491 ]
 [0.5        0.95859736]
 [0.6        1.28356637]
 [0.7        0.02342821]
 [0.8        0.57090294]
 [0.9        0.54405877]
 [1.         0.67180302]
 [1.1        1.24764987]
 [1.14141667 0.56589089]]",1,0.371
8732112179,m,20,english,5,4,english,2024-01-30 13:04:55.138711,False,2,365,sounds\french\audio/french_437.wav,"[[  0.          41.80320752]
 [  0.1        -33.81764788]
 [  0.2         25.70425251]
 [  0.3         56.97339003]
 [  0.4         46.8397409 ]
 [  0.5         38.78616497]
 [  0.6        -89.22878547]
 [  0.7         80.78163583]
 [  0.8         84.46215373]
 [  0.9         17.21068764]
 [  1.          16.06336223]
 [  1.1        -52.17850038]
 [  1.14141667 -51.05005354]]","[[0.         0.30954333]
 [0.1        1.22203572]
 [0.2        0.04102161]
 [0.3        1.19854703]
 [0.4        0.8213725 ]
 [0.5        0.20494593]
 [0.6        1.63754544]
 [0.7        1.22886157]
 [0.8        0.788043  ]
 [0.9        1.05494363]
 [1.         0.71360389]
 [1.1        1.83653188]
 [1.14141667 0.63741841]]",1,0.54
8732112179,m,20,english,5,4,english,2024-01-30 13:04:55.138711,False,2,366,sounds\french\audio/french_275.wav,"[[  0.         -91.39287319]
 [  0.1         22.10547383]
 [  0.2        -21.22592408]
 [  0.3         72.24714003]
 [  0.4         61.38684723]
 [  0.5        -33.49357785]
 [  0.6        -22.32450075]
 [  0.7        -57.48612132]
 [  0.8        -68.59893206]
 [  0.9        -44.92566121]
 [  1.          65.4486236 ]
 [  1.1         30.92096177]
 [  1.14141667 -41.22661434]]","[[0.         1.90354156]
 [0.1        0.54315679]
 [0.2        0.64106827]
 [0.3        1.19782448]
 [0.4        0.97884644]
 [0.5        0.24795855]
 [0.6        0.94645389]
 [0.7        1.89730656]
 [0.8        1.68481666]
 [0.9        1.9522513 ]
 [1.         1.20961361]
 [1.1        0.71442014]
 [1.14141667 1.65151151]]",0,1.376
8732112179,m,20,english,5,4,english,2024-01-30 13:04:55.138711,False,2,367,sounds\french\audio/french_854.wav,"[[  0.         -84.34166264]
 [  0.1         84.957105  ]
 [  0.2        -75.25231073]
 [  0.3         65.5230415 ]
 [  0.4         19.1345831 ]
 [  0.5        -49.51780093]
 [  0.6        -99.22511646]
 [  0.7         68.97565422]
 [  0.8        -53.31062312]
 [  0.9          1.33468715]
 [  1.           0.86331226]
 [  1.1         43.96559109]
 [  1.14141667  26.73107262]]","[[0.         1.84057999]
 [0.1        0.73718017]
 [0.2        1.41154928]
 [0.3        1.17124469]
 [0.4        0.72588649]
 [0.5        1.4038491 ]
 [0.6        1.40303457]
 [0.7        1.27711643]
 [0.8        0.55715751]
 [0.9        1.82879395]
 [1.         1.15444978]
 [1.1        0.64968484]
 [1.14141667 0.58965928]]",1,0.541
8732112179,m,20,english,5,4,english,2024-01-30 13:04:55.138711,False,2,368,sounds\french\audio/french_210.wav,"[[  0.          46.17077018]
 [  0.1         25.55565597]
 [  0.2         36.32492907]
 [  0.3         -9.73563195]
 [  0.4         51.38553925]
 [  0.5         -7.69265437]
 [  0.6         -6.88231676]
 [  0.7        -70.20980639]
 [  0.8        -38.00293126]
 [  0.9         31.75411594]
 [  1.          72.77428796]
 [  1.1        -58.88778719]
 [  1.14141667   3.90767487]]","[[0.         0.5132537 ]
 [0.1        0.67749198]
 [0.2        1.14472202]
 [0.3        1.55169683]
 [0.4        0.41542617]
 [0.5        1.65520704]
 [0.6        0.27196657]
 [0.7        0.37685367]
 [0.8        0.10674289]
 [0.9        0.64849757]
 [1.         1.72661409]
 [1.1        1.75041049]
 [1.14141667 0.37160501]]",1,1.332
8732112179,m,20,english,5,4,english,2024-01-30 13:04:55.138711,False,2,369,sounds\french\audio/french_386.wav,"[[  0.           0.78430489]
 [  0.1         13.87766625]
 [  0.2        -53.9186669 ]
 [  0.3         -0.65622809]
 [  0.4        -79.12810333]
 [  0.5         84.24951195]
 [  0.6        -76.27796842]
 [  0.7        -35.34111523]
 [  0.8         11.2375659 ]
 [  0.9         58.35016227]
 [  1.         -48.14486205]
 [  1.1         32.95340606]
 [  1.14141667   8.70227109]]","[[0.         0.59169825]
 [0.1        1.1288047 ]
 [0.2        1.52123219]
 [0.3        0.54949769]
 [0.4        0.20623394]
 [0.5        1.13251054]
 [0.6        0.81791972]
 [0.7        1.23104671]
 [0.8        1.83380782]
 [0.9        1.80502663]
 [1.         1.74198324]
 [1.1        0.89805375]
 [1.14141667 1.16860367]]",1,0.813
8732112179,m,20,english,5,4,english,2024-01-30 13:04:55.138711,False,2,370,sounds\french\audio/french_446.wav,"[[  0.          66.11586976]
 [  0.1        -47.79078907]
 [  0.2         71.77920412]
 [  0.3        -93.6537617 ]
 [  0.4         -6.4027558 ]
 [  0.5        -41.15389174]
 [  0.6         -4.55914228]
 [  0.7         -9.90410227]
 [  0.8        -95.14424616]
 [  0.9        -38.80179858]
 [  1.          93.69085656]
 [  1.1         -2.36589875]
 [  1.14141667 -67.28651827]]","[[0.         0.5039422 ]
 [0.1        0.80146309]
 [0.2        1.78552689]
 [0.3        0.88100481]
 [0.4        0.77019445]
 [0.5        1.46662088]
 [0.6        0.87709691]
 [0.7        0.79820902]
 [0.8        1.2624915 ]
 [0.9        1.05291516]
 [1.         0.55686505]
 [1.1        1.21588771]
 [1.14141667 0.43693886]]",1,1.152
8732112179,m,20,english,5,4,english,2024-01-30 13:04:55.138711,False,2,371,sounds\french\audio/french_261.wav,"[[  0.          12.34576995]
 [  0.1         25.47601384]
 [  0.2        -67.0906301 ]
 [  0.3        -13.09856908]
 [  0.4         68.1575105 ]
 [  0.5         -2.34833931]
 [  0.6        -56.25265887]
 [  0.7         99.24314725]
 [  0.8         97.55208396]
 [  0.9        -44.49919777]
 [  1.          -9.98862023]
 [  1.1         12.33371854]
 [  1.14141667   0.5455691 ]]","[[0.         0.50310042]
 [0.1        0.25268449]
 [0.2        0.7627603 ]
 [0.3        1.52142005]
 [0.4        1.92904385]
 [0.5        0.33812634]
 [0.6        1.12365674]
 [0.7        0.56685205]
 [0.8        1.813104  ]
 [0.9        1.56800569]
 [1.         0.34584513]
 [1.1        0.48440501]
 [1.14141667 1.72005323]]",0,0.665
8732112179,m,20,english,5,4,english,2024-01-30 13:04:55.138711,False,2,372,sounds\french\audio/french_465.wav,"[[  0.           5.88024496]
 [  0.1        -50.60926401]
 [  0.2        -75.32725367]
 [  0.3          3.44113157]
 [  0.4         29.4397182 ]
 [  0.5         45.10583861]
 [  0.6         62.97320654]
 [  0.7        -15.3501398 ]
 [  0.8        -21.75175408]
 [  0.9        -10.84821327]
 [  1.         -94.2934633 ]
 [  1.1        -58.56218585]
 [  1.14141667  30.34802461]]","[[0.         1.03079141]
 [0.1        0.07909505]
 [0.2        0.13211547]
 [0.3        0.90615472]
 [0.4        0.84429779]
 [0.5        0.8526434 ]
 [0.6        0.36671109]
 [0.7        0.46700394]
 [0.8        1.52127731]
 [0.9        0.1624174 ]
 [1.         1.32493274]
 [1.1        0.29025247]
 [1.14141667 0.5468785 ]]",1,0.747
8732112179,m,20,english,5,4,english,2024-01-30 13:04:55.138711,False,2,373,sounds\french\audio/french_949.wav,"[[  0.         -19.05595024]
 [  0.1        -75.2439284 ]
 [  0.2         73.58371037]
 [  0.3         72.8422127 ]
 [  0.4         87.31483881]
 [  0.5         88.67402032]
 [  0.6         91.38706715]
 [  0.7         90.60838166]
 [  0.8        -56.24221492]
 [  0.9        -99.28918443]
 [  1.          35.48222753]
 [  1.1         31.92310883]
 [  1.14141667 -76.51594679]]","[[0.         0.68019134]
