subj,trial,block,date,stim,stim_order,response,rt,age,english,french,language,sex,param_index,segment,pitch,stretch
5bc8dccd0f10750001d70a1c,0,0,2024-02-27T11:17:02.277Z,english_388.wav,0,pill,2428,40,3,5,français,m,0,0.0,17.9760939,0.95494184
5bc8dccd0f10750001d70a1c,0,0,2024-02-27T11:17:02.277Z,english_388.wav,0,pill,2428,40,3,5,français,m,1,0.1,-43.00340989,0.10281418
5bc8dccd0f10750001d70a1c,0,0,2024-02-27T11:17:02.277Z,english_388.wav,0,pill,2428,40,3,5,français,m,2,0.2,-30.55059063,1.52164503
5bc8dccd0f10750001d70a1c,0,0,2024-02-27T11:17:02.277Z,english_388.wav,0,pill,2428,40,3,5,français,m,3,0.3,-92.55876504,1.24827519
5bc8dccd0f10750001d70a1c,0,0,2024-02-27T11:17:02.277Z,english_388.wav,0,pill,2428,40,3,5,français,m,4,0.32341667,-64.21175873,0.08180338
5bc8dccd0f10750001d70a1c,1,0,2024-02-27T11:17:02.277Z,english_62.wav,0,pill,2148,40,3,5,français,m,0,0.0,17.28527913,1.12530616
5bc8dccd0f10750001d70a1c,1,0,2024-02-27T11:17:02.277Z,english_62.wav,0,pill,2148,40,3,5,français,m,1,0.1,8.63936001,1.09357984
5bc8dccd0f10750001d70a1c,1,0,2024-02-27T11:17:02.277Z,english_62.wav,0,pill,2148,40,3,5,français,m,2,0.2,-69.0074729,1.07648496
5bc8dccd0f10750001d70a1c,1,0,2024-02-27T11:17:02.277Z,english_62.wav,0,pill,2148,40,3,5,français,m,3,0.3,-18.85502465,0.36768209
5bc8dccd0f10750001d70a1c,1,0,2024-02-27T11:17:02.277Z,english_62.wav,0,pill,2148,40,3,5,français,m,4,0.32341667,59.46739627,0.39033463
5bc8dccd0f10750001d70a1c,2,0,2024-02-27T11:17:02.277Z,english_916.wav,0,pill,1048,40,3,5,français,m,0,0.0,-50.62314768,0.5519299
5bc8dccd0f10750001d70a1c,2,0,2024-02-27T11:17:02.277Z,english_916.wav,0,pill,1048,40,3,5,français,m,1,0.1,-52.55300278,1.16723516
5bc8dccd0f10750001d70a1c,2,0,2024-02-27T11:17:02.277Z,english_916.wav,0,pill,1048,40,3,5,français,m,2,0.2,54.298582,1.72376738
5bc8dccd0f10750001d70a1c,2,0,2024-02-27T11:17:02.277Z,english_916.wav,0,pill,1048,40,3,5,français,m,3,0.3,-23.99088857,0.41493786
5bc8dccd0f10750001d70a1c,2,0,2024-02-27T11:17:02.277Z,english_916.wav,0,pill,1048,40,3,5,français,m,4,0.32341667,4.88948607,1.97918138
5bc8dccd0f10750001d70a1c,3,0,2024-02-27T11:17:02.277Z,english_40.wav,0,pill,998,40,3,5,français,m,0,0.0,20.98315678,0.33544846
5bc8dccd0f10750001d70a1c,3,0,2024-02-27T11:17:02.277Z,english_40.wav,0,pill,998,40,3,5,français,m,1,0.1,80.64974175,0.81764939
5bc8dccd0f10750001d70a1c,3,0,2024-02-27T11:17:02.277Z,english_40.wav,0,pill,998,40,3,5,français,m,2,0.2,5.38930518,0.17548883
5bc8dccd0f10750001d70a1c,3,0,2024-02-27T11:17:02.277Z,english_40.wav,0,pill,998,40,3,5,français,m,3,0.3,18.83593916,0.83674413
5bc8dccd0f10750001d70a1c,3,0,2024-02-27T11:17:02.277Z,english_40.wav,0,pill,998,40,3,5,français,m,4,0.32341667,-14.62145671,0.80890384
5bc8dccd0f10750001d70a1c,4,0,2024-02-27T11:17:02.277Z,english_768.wav,0,pill,481,40,3,5,français,m,0,0.0,-28.93145359,1.5002074
5bc8dccd0f10750001d70a1c,4,0,2024-02-27T11:17:02.277Z,english_768.wav,0,pill,481,40,3,5,français,m,1,0.1,59.49166151,1.15432208
5bc8dccd0f10750001d70a1c,4,0,2024-02-27T11:17:02.277Z,english_768.wav,0,pill,481,40,3,5,français,m,2,0.2,41.87955621,0.01731471
5bc8dccd0f10750001d70a1c,4,0,2024-02-27T11:17:02.277Z,english_768.wav,0,pill,481,40,3,5,français,m,3,0.3,-92.17589111,0.98337229
5bc8dccd0f10750001d70a1c,4,0,2024-02-27T11:17:02.277Z,english_768.wav,0,pill,481,40,3,5,français,m,4,0.32341667,15.2364545,0.4381055
5bc8dccd0f10750001d70a1c,5,0,2024-02-27T11:17:02.277Z,english_345.wav,0,pill,644,40,3,5,français,m,0,0.0,-46.00579497,1.58751342
5bc8dccd0f10750001d70a1c,5,0,2024-02-27T11:17:02.277Z,english_345.wav,0,pill,644,40,3,5,français,m,1,0.1,-45.5805492,1.0202646
5bc8dccd0f10750001d70a1c,5,0,2024-02-27T11:17:02.277Z,english_345.wav,0,pill,644,40,3,5,français,m,2,0.2,-14.04378539,0.61561299
5bc8dccd0f10750001d70a1c,5,0,2024-02-27T11:17:02.277Z,english_345.wav,0,pill,644,40,3,5,français,m,3,0.3,63.72413351,1.21547564
5bc8dccd0f10750001d70a1c,5,0,2024-02-27T11:17:02.277Z,english_345.wav,0,pill,644,40,3,5,français,m,4,0.32341667,18.03717792,1.47127253
5bc8dccd0f10750001d70a1c,6,0,2024-02-27T11:17:02.277Z,english_728.wav,0,peel,1156,40,3,5,français,m,0,0.0,-6.4565561,1.7247049
5bc8dccd0f10750001d70a1c,6,0,2024-02-27T11:17:02.277Z,english_728.wav,0,peel,1156,40,3,5,français,m,1,0.1,2.02882612,1.95158608
5bc8dccd0f10750001d70a1c,6,0,2024-02-27T11:17:02.277Z,english_728.wav,0,peel,1156,40,3,5,français,m,2,0.2,-40.29513079,0.21085377
5bc8dccd0f10750001d70a1c,6,0,2024-02-27T11:17:02.277Z,english_728.wav,0,peel,1156,40,3,5,français,m,3,0.3,-29.37287389,0.85434083
5bc8dccd0f10750001d70a1c,6,0,2024-02-27T11:17:02.277Z,english_728.wav,0,peel,1156,40,3,5,français,m,4,0.32341667,-32.17490136,1.52436666
5bc8dccd0f10750001d70a1c,7,0,2024-02-27T11:17:02.277Z,english_749.wav,0,peel,1012,40,3,5,français,m,0,0.0,-84.66020389,1.10062914
5bc8dccd0f10750001d70a1c,7,0,2024-02-27T11:17:02.277Z,english_749.wav,0,peel,1012,40,3,5,français,m,1,0.1,45.42505651,0.81865822
5bc8dccd0f10750001d70a1c,7,0,2024-02-27T11:17:02.277Z,english_749.wav,0,peel,1012,40,3,5,français,m,2,0.2,27.47623271,1.25164699
5bc8dccd0f10750001d70a1c,7,0,2024-02-27T11:17:02.277Z,english_749.wav,0,peel,1012,40,3,5,français,m,3,0.3,44.62305857,1.77685805
5bc8dccd0f10750001d70a1c,7,0,2024-02-27T11:17:02.277Z,english_749.wav,0,peel,1012,40,3,5,français,m,4,0.32341667,-87.62087265,0.97343419
5bc8dccd0f10750001d70a1c,8,0,2024-02-27T11:17:02.277Z,english_457.wav,0,peel,570,40,3,5,français,m,0,0.0,-73.30847947,0.35525387
5bc8dccd0f10750001d70a1c,8,0,2024-02-27T11:17:02.277Z,english_457.wav,0,peel,570,40,3,5,français,m,1,0.1,-25.74413936,0.90483023
5bc8dccd0f10750001d70a1c,8,0,2024-02-27T11:17:02.277Z,english_457.wav,0,peel,570,40,3,5,français,m,2,0.2,8.82772976,1.30004432
5bc8dccd0f10750001d70a1c,8,0,2024-02-27T11:17:02.277Z,english_457.wav,0,peel,570,40,3,5,français,m,3,0.3,-2.30416086,0.93422762
5bc8dccd0f10750001d70a1c,8,0,2024-02-27T11:17:02.277Z,english_457.wav,0,peel,570,40,3,5,français,m,4,0.32341667,-34.04493945,1.31504388
5bc8dccd0f10750001d70a1c,9,0,2024-02-27T11:17:02.277Z,english_421.wav,0,peel,404,40,3,5,français,m,0,0.0,25.39012861,1.47358925
5bc8dccd0f10750001d70a1c,9,0,2024-02-27T11:17:02.277Z,english_421.wav,0,peel,404,40,3,5,français,m,1,0.1,49.11153532,1.20920516
5bc8dccd0f10750001d70a1c,9,0,2024-02-27T11:17:02.277Z,english_421.wav,0,peel,404,40,3,5,français,m,2,0.2,38.93723883,0.72174872
5bc8dccd0f10750001d70a1c,9,0,2024-02-27T11:17:02.277Z,english_421.wav,0,peel,404,40,3,5,français,m,3,0.3,-9.34286459,0.24556907
5bc8dccd0f10750001d70a1c,9,0,2024-02-27T11:17:02.277Z,english_421.wav,0,peel,404,40,3,5,français,m,4,0.32341667,-9.28476392,0.87006143
5bc8dccd0f10750001d70a1c,10,0,2024-02-27T11:17:02.277Z,english_993.wav,0,pill,174,40,3,5,français,m,0,0.0,-66.15449332,1.17508471
5bc8dccd0f10750001d70a1c,10,0,2024-02-27T11:17:02.277Z,english_993.wav,0,pill,174,40,3,5,français,m,1,0.1,33.08083728,0.94744004
5bc8dccd0f10750001d70a1c,10,0,2024-02-27T11:17:02.277Z,english_993.wav,0,pill,174,40,3,5,français,m,2,0.2,51.46479562,0.74931244
5bc8dccd0f10750001d70a1c,10,0,2024-02-27T11:17:02.277Z,english_993.wav,0,pill,174,40,3,5,français,m,3,0.3,-80.58676237,0.35628979
5bc8dccd0f10750001d70a1c,10,0,2024-02-27T11:17:02.277Z,english_993.wav,0,pill,174,40,3,5,français,m,4,0.32341667,81.97884737,1.25416847
5bc8dccd0f10750001d70a1c,11,0,2024-02-27T11:17:02.277Z,english_640.wav,0,peel,155,40,3,5,français,m,0,0.0,74.95875769,1.81273707
5bc8dccd0f10750001d70a1c,11,0,2024-02-27T11:17:02.277Z,english_640.wav,0,peel,155,40,3,5,français,m,1,0.1,87.73764633,1.50076703
5bc8dccd0f10750001d70a1c,11,0,2024-02-27T11:17:02.277Z,english_640.wav,0,peel,155,40,3,5,français,m,2,0.2,-71.36544648,0.25286143
5bc8dccd0f10750001d70a1c,11,0,2024-02-27T11:17:02.277Z,english_640.wav,0,peel,155,40,3,5,français,m,3,0.3,11.07583082,0.53181051
5bc8dccd0f10750001d70a1c,11,0,2024-02-27T11:17:02.277Z,english_640.wav,0,peel,155,40,3,5,français,m,4,0.32341667,18.32643638,0.76351343
5bc8dccd0f10750001d70a1c,12,0,2024-02-27T11:17:02.277Z,english_185.wav,0,peel,380,40,3,5,français,m,0,0.0,-67.20213277,0.62417316
5bc8dccd0f10750001d70a1c,12,0,2024-02-27T11:17:02.277Z,english_185.wav,0,peel,380,40,3,5,français,m,1,0.1,-70.91279736,1.12829576
5bc8dccd0f10750001d70a1c,12,0,2024-02-27T11:17:02.277Z,english_185.wav,0,peel,380,40,3,5,français,m,2,0.2,11.55913655,0.70978518
5bc8dccd0f10750001d70a1c,12,0,2024-02-27T11:17:02.277Z,english_185.wav,0,peel,380,40,3,5,français,m,3,0.3,-88.76292025,0.02882377
5bc8dccd0f10750001d70a1c,12,0,2024-02-27T11:17:02.277Z,english_185.wav,0,peel,380,40,3,5,français,m,4,0.32341667,-25.67800099,0.52970381
5bc8dccd0f10750001d70a1c,13,0,2024-02-27T11:17:02.277Z,english_831.wav,0,peel,554,40,3,5,français,m,0,0.0,-7.33710711,1.53159971
5bc8dccd0f10750001d70a1c,13,0,2024-02-27T11:17:02.277Z,english_831.wav,0,peel,554,40,3,5,français,m,1,0.1,-87.69782071,1.22669962
5bc8dccd0f10750001d70a1c,13,0,2024-02-27T11:17:02.277Z,english_831.wav,0,peel,554,40,3,5,français,m,2,0.2,34.03975531,0.70180407
5bc8dccd0f10750001d70a1c,13,0,2024-02-27T11:17:02.277Z,english_831.wav,0,peel,554,40,3,5,français,m,3,0.3,-2.18295653,1.02244347
5bc8dccd0f10750001d70a1c,13,0,2024-02-27T11:17:02.277Z,english_831.wav,0,peel,554,40,3,5,français,m,4,0.32341667,20.908766,1.06702443
5bc8dccd0f10750001d70a1c,14,0,2024-02-27T11:17:02.277Z,english_653.wav,0,peel,323,40,3,5,français,m,0,0.0,8.14815906,1.27061672
5bc8dccd0f10750001d70a1c,14,0,2024-02-27T11:17:02.277Z,english_653.wav,0,peel,323,40,3,5,français,m,1,0.1,4.49815435,1.37470465
5bc8dccd0f10750001d70a1c,14,0,2024-02-27T11:17:02.277Z,english_653.wav,0,peel,323,40,3,5,français,m,2,0.2,-96.80954485,1.57421691
5bc8dccd0f10750001d70a1c,14,0,2024-02-27T11:17:02.277Z,english_653.wav,0,peel,323,40,3,5,français,m,3,0.3,-0.49075979,1.39011427
5bc8dccd0f10750001d70a1c,14,0,2024-02-27T11:17:02.277Z,english_653.wav,0,peel,323,40,3,5,français,m,4,0.32341667,98.12577208,0.75484601
5bc8dccd0f10750001d70a1c,15,0,2024-02-27T11:17:02.277Z,english_762.wav,0,pill,509,40,3,5,français,m,0,0.0,-56.40971946,1.43822993
5bc8dccd0f10750001d70a1c,15,0,2024-02-27T11:17:02.277Z,english_762.wav,0,pill,509,40,3,5,français,m,1,0.1,-9.09046034,1.11776807
5bc8dccd0f10750001d70a1c,15,0,2024-02-27T11:17:02.277Z,english_762.wav,0,pill,509,40,3,5,français,m,2,0.2,20.98892014,0.71531135
5bc8dccd0f10750001d70a1c,15,0,2024-02-27T11:17:02.277Z,english_762.wav,0,pill,509,40,3,5,français,m,3,0.3,-66.43296232,0.54997993
5bc8dccd0f10750001d70a1c,15,0,2024-02-27T11:17:02.277Z,english_762.wav,0,pill,509,40,3,5,français,m,4,0.32341667,-91.78640069,0.26897274
5bc8dccd0f10750001d70a1c,16,0,2024-02-27T11:17:02.277Z,english_324.wav,0,peel,256,40,3,5,français,m,0,0.0,49.07155908,0.10864525
5bc8dccd0f10750001d70a1c,16,0,2024-02-27T11:17:02.277Z,english_324.wav,0,peel,256,40,3,5,français,m,1,0.1,-58.77252084,1.61132735
5bc8dccd0f10750001d70a1c,16,0,2024-02-27T11:17:02.277Z,english_324.wav,0,peel,256,40,3,5,français,m,2,0.2,-55.40155542,0.60180616
5bc8dccd0f10750001d70a1c,16,0,2024-02-27T11:17:02.277Z,english_324.wav,0,peel,256,40,3,5,français,m,3,0.3,19.02224292,0.93555132
5bc8dccd0f10750001d70a1c,16,0,2024-02-27T11:17:02.277Z,english_324.wav,0,peel,256,40,3,5,français,m,4,0.32341667,21.20382854,0.34417591
5bc8dccd0f10750001d70a1c,17,0,2024-02-27T11:17:02.277Z,english_466.wav,0,pill,400,40,3,5,français,m,0,0.0,59.64739432,1.91119383
5bc8dccd0f10750001d70a1c,17,0,2024-02-27T11:17:02.277Z,english_466.wav,0,pill,400,40,3,5,français,m,1,0.1,-20.63646321,1.29572765
5bc8dccd0f10750001d70a1c,17,0,2024-02-27T11:17:02.277Z,english_466.wav,0,pill,400,40,3,5,français,m,2,0.2,62.86141463,0.99944191
5bc8dccd0f10750001d70a1c,17,0,2024-02-27T11:17:02.277Z,english_466.wav,0,pill,400,40,3,5,français,m,3,0.3,-65.74461877,1.01221774
5bc8dccd0f10750001d70a1c,17,0,2024-02-27T11:17:02.277Z,english_466.wav,0,pill,400,40,3,5,français,m,4,0.32341667,44.70090984,0.89697717
5bc8dccd0f10750001d70a1c,18,0,2024-02-27T11:17:02.277Z,english_884.wav,0,pill,378,40,3,5,français,m,0,0.0,77.1498115,1.83268558
5bc8dccd0f10750001d70a1c,18,0,2024-02-27T11:17:02.277Z,english_884.wav,0,pill,378,40,3,5,français,m,1,0.1,10.32602389,0.76817862
5bc8dccd0f10750001d70a1c,18,0,2024-02-27T11:17:02.277Z,english_884.wav,0,pill,378,40,3,5,français,m,2,0.2,4.15464736,1.59331573
5bc8dccd0f10750001d70a1c,18,0,2024-02-27T11:17:02.277Z,english_884.wav,0,pill,378,40,3,5,français,m,3,0.3,21.19252889,0.58913169
5bc8dccd0f10750001d70a1c,18,0,2024-02-27T11:17:02.277Z,english_884.wav,0,pill,378,40,3,5,français,m,4,0.32341667,-7.11336122,0.81393531
5bc8dccd0f10750001d70a1c,19,0,2024-02-27T11:17:02.277Z,english_534.wav,0,pill,177,40,3,5,français,m,0,0.0,-42.4271338,1.1267565
5bc8dccd0f10750001d70a1c,19,0,2024-02-27T11:17:02.277Z,english_534.wav,0,pill,177,40,3,5,français,m,1,0.1,-80.6424644,0.6842577
5bc8dccd0f10750001d70a1c,19,0,2024-02-27T11:17:02.277Z,english_534.wav,0,pill,177,40,3,5,français,m,2,0.2,59.29592388,0.01459656
5bc8dccd0f10750001d70a1c,19,0,2024-02-27T11:17:02.277Z,english_534.wav,0,pill,177,40,3,5,français,m,3,0.3,75.02007223,1.03701198
5bc8dccd0f10750001d70a1c,19,0,2024-02-27T11:17:02.277Z,english_534.wav,0,pill,177,40,3,5,français,m,4,0.32341667,-57.55026449,1.25840342
5bc8dccd0f10750001d70a1c,20,0,2024-02-27T11:17:02.277Z,english_106.wav,0,peel,246,40,3,5,français,m,0,0.0,-46.25200282,0.21046793
5bc8dccd0f10750001d70a1c,20,0,2024-02-27T11:17:02.277Z,english_106.wav,0,peel,246,40,3,5,français,m,1,0.1,-83.38564728,1.42142181
5bc8dccd0f10750001d70a1c,20,0,2024-02-27T11:17:02.277Z,english_106.wav,0,peel,246,40,3,5,français,m,2,0.2,68.00501759,0.86156936
5bc8dccd0f10750001d70a1c,20,0,2024-02-27T11:17:02.277Z,english_106.wav,0,peel,246,40,3,5,français,m,3,0.3,49.15199267,0.65348811
5bc8dccd0f10750001d70a1c,20,0,2024-02-27T11:17:02.277Z,english_106.wav,0,peel,246,40,3,5,français,m,4,0.32341667,-5.93966373,0.76273979
5bc8dccd0f10750001d70a1c,21,0,2024-02-27T11:17:02.277Z,english_433.wav,0,peel,5,40,3,5,français,m,0,0.0,-74.58178472,0.69852952
5bc8dccd0f10750001d70a1c,21,0,2024-02-27T11:17:02.277Z,english_433.wav,0,peel,5,40,3,5,français,m,1,0.1,-50.00917691,1.92405883
5bc8dccd0f10750001d70a1c,21,0,2024-02-27T11:17:02.277Z,english_433.wav,0,peel,5,40,3,5,français,m,2,0.2,48.18572343,0.3905825
5bc8dccd0f10750001d70a1c,21,0,2024-02-27T11:17:02.277Z,english_433.wav,0,peel,5,40,3,5,français,m,3,0.3,-63.95387597,0.31453116
5bc8dccd0f10750001d70a1c,21,0,2024-02-27T11:17:02.277Z,english_433.wav,0,peel,5,40,3,5,français,m,4,0.32341667,-68.91859183,1.4953114
5bc8dccd0f10750001d70a1c,22,0,2024-02-27T11:17:02.277Z,english_827.wav,0,pill,91,40,3,5,français,m,0,0.0,-49.24128803,1.70838213
5bc8dccd0f10750001d70a1c,22,0,2024-02-27T11:17:02.277Z,english_827.wav,0,pill,91,40,3,5,français,m,1,0.1,62.6158679,0.88048656
5bc8dccd0f10750001d70a1c,22,0,2024-02-27T11:17:02.277Z,english_827.wav,0,pill,91,40,3,5,français,m,2,0.2,-85.72053716,1.47530841
5bc8dccd0f10750001d70a1c,22,0,2024-02-27T11:17:02.277Z,english_827.wav,0,pill,91,40,3,5,français,m,3,0.3,-65.54354982,0.04991031
5bc8dccd0f10750001d70a1c,22,0,2024-02-27T11:17:02.277Z,english_827.wav,0,pill,91,40,3,5,français,m,4,0.32341667,-42.30235352,0.1531298
5bc8dccd0f10750001d70a1c,23,0,2024-02-27T11:17:02.277Z,english_898.wav,0,peel,57,40,3,5,français,m,0,0.0,77.23607787,0.41308158
5bc8dccd0f10750001d70a1c,23,0,2024-02-27T11:17:02.277Z,english_898.wav,0,peel,57,40,3,5,français,m,1,0.1,-36.99854877,1.59324842
5bc8dccd0f10750001d70a1c,23,0,2024-02-27T11:17:02.277Z,english_898.wav,0,peel,57,40,3,5,français,m,2,0.2,16.09723403,1.42339693
5bc8dccd0f10750001d70a1c,23,0,2024-02-27T11:17:02.277Z,english_898.wav,0,peel,57,40,3,5,français,m,3,0.3,29.12208023,1.17478291
5bc8dccd0f10750001d70a1c,23,0,2024-02-27T11:17:02.277Z,english_898.wav,0,peel,57,40,3,5,français,m,4,0.32341667,-69.45423228,1.88393163
5bc8dccd0f10750001d70a1c,24,0,2024-02-27T11:17:02.277Z,english_899.wav,0,peel,2,40,3,5,français,m,0,0.0,34.44970312,1.0262563
5bc8dccd0f10750001d70a1c,24,0,2024-02-27T11:17:02.277Z,english_899.wav,0,peel,2,40,3,5,français,m,1,0.1,-73.97598586,0.5565938
5bc8dccd0f10750001d70a1c,24,0,2024-02-27T11:17:02.277Z,english_899.wav,0,peel,2,40,3,5,français,m,2,0.2,4.84970015,0.08950317
5bc8dccd0f10750001d70a1c,24,0,2024-02-27T11:17:02.277Z,english_899.wav,0,peel,2,40,3,5,français,m,3,0.3,25.99530817,1.10823657
5bc8dccd0f10750001d70a1c,24,0,2024-02-27T11:17:02.277Z,english_899.wav,0,peel,2,40,3,5,français,m,4,0.32341667,7.0197251,1.27665612
5bc8dccd0f10750001d70a1c,25,0,2024-02-27T11:17:02.277Z,english_418.wav,0,peel,59,40,3,5,français,m,0,0.0,-7.92859899,0.20369216
5bc8dccd0f10750001d70a1c,25,0,2024-02-27T11:17:02.277Z,english_418.wav,0,peel,59,40,3,5,français,m,1,0.1,10.19863107,0.15242613
5bc8dccd0f10750001d70a1c,25,0,2024-02-27T11:17:02.277Z,english_418.wav,0,peel,59,40,3,5,français,m,2,0.2,-44.82770696,0.77695319
5bc8dccd0f10750001d70a1c,25,0,2024-02-27T11:17:02.277Z,english_418.wav,0,peel,59,40,3,5,français,m,3,0.3,-80.4141896,0.71786342
5bc8dccd0f10750001d70a1c,25,0,2024-02-27T11:17:02.277Z,english_418.wav,0,peel,59,40,3,5,français,m,4,0.32341667,32.43674468,1.20494416
5bc8dccd0f10750001d70a1c,26,0,2024-02-27T11:17:02.277Z,english_504.wav,0,pill,77,40,3,5,français,m,0,0.0,4.11468456,0.75379057
5bc8dccd0f10750001d70a1c,26,0,2024-02-27T11:17:02.277Z,english_504.wav,0,pill,77,40,3,5,français,m,1,0.1,70.56620437,1.18348717
5bc8dccd0f10750001d70a1c,26,0,2024-02-27T11:17:02.277Z,english_504.wav,0,pill,77,40,3,5,français,m,2,0.2,3.26767498,0.25360202
5bc8dccd0f10750001d70a1c,26,0,2024-02-27T11:17:02.277Z,english_504.wav,0,pill,77,40,3,5,français,m,3,0.3,-3.14493553,1.87094491
5bc8dccd0f10750001d70a1c,26,0,2024-02-27T11:17:02.277Z,english_504.wav,0,pill,77,40,3,5,français,m,4,0.32341667,43.57926014,0.110125
5bc8dccd0f10750001d70a1c,27,0,2024-02-27T11:17:02.277Z,english_414.wav,0,pill,247,40,3,5,français,m,0,0.0,19.47839865,0.9434816
5bc8dccd0f10750001d70a1c,27,0,2024-02-27T11:17:02.277Z,english_414.wav,0,pill,247,40,3,5,français,m,1,0.1,59.9490877,1.1146936
5bc8dccd0f10750001d70a1c,27,0,2024-02-27T11:17:02.277Z,english_414.wav,0,pill,247,40,3,5,français,m,2,0.2,22.33981162,0.48476454
5bc8dccd0f10750001d70a1c,27,0,2024-02-27T11:17:02.277Z,english_414.wav,0,pill,247,40,3,5,français,m,3,0.3,18.97426154,0.23554241
5bc8dccd0f10750001d70a1c,27,0,2024-02-27T11:17:02.277Z,english_414.wav,0,pill,247,40,3,5,français,m,4,0.32341667,15.16306506,1.13007685
5bc8dccd0f10750001d70a1c,28,0,2024-02-27T11:17:02.277Z,english_328.wav,0,peel,53,40,3,5,français,m,0,0.0,-24.96515822,0.68772771
5bc8dccd0f10750001d70a1c,28,0,2024-02-27T11:17:02.277Z,english_328.wav,0,peel,53,40,3,5,français,m,1,0.1,36.64267249,0.30369637
5bc8dccd0f10750001d70a1c,28,0,2024-02-27T11:17:02.277Z,english_328.wav,0,peel,53,40,3,5,français,m,2,0.2,-93.60804347,1.16330199
5bc8dccd0f10750001d70a1c,28,0,2024-02-27T11:17:02.277Z,english_328.wav,0,peel,53,40,3,5,français,m,3,0.3,9.86556644,0.69001341
5bc8dccd0f10750001d70a1c,28,0,2024-02-27T11:17:02.277Z,english_328.wav,0,peel,53,40,3,5,français,m,4,0.32341667,-17.13685423,0.54642887
5bc8dccd0f10750001d70a1c,29,0,2024-02-27T11:17:02.277Z,english_272.wav,0,pill,58,40,3,5,français,m,0,0.0,61.82030971,1.51341556
5bc8dccd0f10750001d70a1c,29,0,2024-02-27T11:17:02.277Z,english_272.wav,0,pill,58,40,3,5,français,m,1,0.1,4.16580657,0.43290826
5bc8dccd0f10750001d70a1c,29,0,2024-02-27T11:17:02.277Z,english_272.wav,0,pill,58,40,3,5,français,m,2,0.2,-53.2567432,1.82734584
5bc8dccd0f10750001d70a1c,29,0,2024-02-27T11:17:02.277Z,english_272.wav,0,pill,58,40,3,5,français,m,3,0.3,-52.99830768,0.22094446
5bc8dccd0f10750001d70a1c,29,0,2024-02-27T11:17:02.277Z,english_272.wav,0,pill,58,40,3,5,français,m,4,0.32341667,-92.9943793,1.88040337
5bc8dccd0f10750001d70a1c,30,0,2024-02-27T11:17:02.277Z,english_619.wav,0,pill,104,40,3,5,français,m,0,0.0,38.53351318,1.25542912
5bc8dccd0f10750001d70a1c,30,0,2024-02-27T11:17:02.277Z,english_619.wav,0,pill,104,40,3,5,français,m,1,0.1,-11.21157995,0.83005785
5bc8dccd0f10750001d70a1c,30,0,2024-02-27T11:17:02.277Z,english_619.wav,0,pill,104,40,3,5,français,m,2,0.2,29.79887689,1.51254928
5bc8dccd0f10750001d70a1c,30,0,2024-02-27T11:17:02.277Z,english_619.wav,0,pill,104,40,3,5,français,m,3,0.3,48.6384615,0.37972577
5bc8dccd0f10750001d70a1c,30,0,2024-02-27T11:17:02.277Z,english_619.wav,0,pill,104,40,3,5,français,m,4,0.32341667,-66.5905708,0.44889873
5bc8dccd0f10750001d70a1c,31,0,2024-02-27T11:17:02.277Z,english_303.wav,0,pill,124,40,3,5,français,m,0,0.0,67.00540241,1.22520816
5bc8dccd0f10750001d70a1c,31,0,2024-02-27T11:17:02.277Z,english_303.wav,0,pill,124,40,3,5,français,m,1,0.1,32.95821842,1.22732479
5bc8dccd0f10750001d70a1c,31,0,2024-02-27T11:17:02.277Z,english_303.wav,0,pill,124,40,3,5,français,m,2,0.2,-23.67517146,0.54923068
5bc8dccd0f10750001d70a1c,31,0,2024-02-27T11:17:02.277Z,english_303.wav,0,pill,124,40,3,5,français,m,3,0.3,-66.94926695,0.8977578
5bc8dccd0f10750001d70a1c,31,0,2024-02-27T11:17:02.277Z,english_303.wav,0,pill,124,40,3,5,français,m,4,0.32341667,65.71723135,1.41807679
5bc8dccd0f10750001d70a1c,32,0,2024-02-27T11:17:02.277Z,english_769.wav,0,pill,119,40,3,5,français,m,0,0.0,-12.68288087,1.59358978
5bc8dccd0f10750001d70a1c,32,0,2024-02-27T11:17:02.277Z,english_769.wav,0,pill,119,40,3,5,français,m,1,0.1,13.58895245,0.16681031
5bc8dccd0f10750001d70a1c,32,0,2024-02-27T11:17:02.277Z,english_769.wav,0,pill,119,40,3,5,français,m,2,0.2,-5.57429841,0.74292099
5bc8dccd0f10750001d70a1c,32,0,2024-02-27T11:17:02.277Z,english_769.wav,0,pill,119,40,3,5,français,m,3,0.3,-26.44516544,0.17250104
5bc8dccd0f10750001d70a1c,32,0,2024-02-27T11:17:02.277Z,english_769.wav,0,pill,119,40,3,5,français,m,4,0.32341667,85.93285426,0.16730253
5bc8dccd0f10750001d70a1c,33,0,2024-02-27T11:17:02.277Z,english_737.wav,0,peel,117,40,3,5,français,m,0,0.0,21.35751723,1.17499048
5bc8dccd0f10750001d70a1c,33,0,2024-02-27T11:17:02.277Z,english_737.wav,0,peel,117,40,3,5,français,m,1,0.1,61.52152077,1.09581395
5bc8dccd0f10750001d70a1c,33,0,2024-02-27T11:17:02.277Z,english_737.wav,0,peel,117,40,3,5,français,m,2,0.2,-29.75610596,0.62940412
5bc8dccd0f10750001d70a1c,33,0,2024-02-27T11:17:02.277Z,english_737.wav,0,peel,117,40,3,5,français,m,3,0.3,-39.80249708,0.11793022
5bc8dccd0f10750001d70a1c,33,0,2024-02-27T11:17:02.277Z,english_737.wav,0,peel,117,40,3,5,français,m,4,0.32341667,-14.64937497,0.62377861
5bc8dccd0f10750001d70a1c,34,0,2024-02-27T11:17:02.277Z,english_979.wav,0,peel,57,40,3,5,français,m,0,0.0,-1.00654814,1.61411081
5bc8dccd0f10750001d70a1c,34,0,2024-02-27T11:17:02.277Z,english_979.wav,0,peel,57,40,3,5,français,m,1,0.1,18.39835707,1.30464512
5bc8dccd0f10750001d70a1c,34,0,2024-02-27T11:17:02.277Z,english_979.wav,0,peel,57,40,3,5,français,m,2,0.2,-42.91789413,0.93120215
5bc8dccd0f10750001d70a1c,34,0,2024-02-27T11:17:02.277Z,english_979.wav,0,peel,57,40,3,5,français,m,3,0.3,-58.29527223,0.87145212
5bc8dccd0f10750001d70a1c,34,0,2024-02-27T11:17:02.277Z,english_979.wav,0,peel,57,40,3,5,français,m,4,0.32341667,86.14740424,1.17332389
5bc8dccd0f10750001d70a1c,35,0,2024-02-27T11:17:02.277Z,english_885.wav,0,peel,0,40,3,5,français,m,0,0.0,36.3288655,0.78617108
5bc8dccd0f10750001d70a1c,35,0,2024-02-27T11:17:02.277Z,english_885.wav,0,peel,0,40,3,5,français,m,1,0.1,-33.4786966,0.96292114
5bc8dccd0f10750001d70a1c,35,0,2024-02-27T11:17:02.277Z,english_885.wav,0,peel,0,40,3,5,français,m,2,0.2,8.05827153,0.70266535
5bc8dccd0f10750001d70a1c,35,0,2024-02-27T11:17:02.277Z,english_885.wav,0,peel,0,40,3,5,français,m,3,0.3,84.98004341,0.45613544
5bc8dccd0f10750001d70a1c,35,0,2024-02-27T11:17:02.277Z,english_885.wav,0,peel,0,40,3,5,français,m,4,0.32341667,-34.65749493,0.81873504
5bc8dccd0f10750001d70a1c,36,0,2024-02-27T11:17:02.277Z,english_782.wav,0,peel,276,40,3,5,français,m,0,0.0,-98.70381677,1.47488053
5bc8dccd0f10750001d70a1c,36,0,2024-02-27T11:17:02.277Z,english_782.wav,0,peel,276,40,3,5,français,m,1,0.1,-69.82387258,0.7270016
5bc8dccd0f10750001d70a1c,36,0,2024-02-27T11:17:02.277Z,english_782.wav,0,peel,276,40,3,5,français,m,2,0.2,35.26613747,0.08778447
5bc8dccd0f10750001d70a1c,36,0,2024-02-27T11:17:02.277Z,english_782.wav,0,peel,276,40,3,5,français,m,3,0.3,-81.38004879,1.16903228
5bc8dccd0f10750001d70a1c,36,0,2024-02-27T11:17:02.277Z,english_782.wav,0,peel,276,40,3,5,français,m,4,0.32341667,-61.83067014,0.92727902
5bc8dccd0f10750001d70a1c,37,0,2024-02-27T11:17:02.277Z,english_850.wav,0,peel,191,40,3,5,français,m,0,0.0,79.79173837,1.46721922
5bc8dccd0f10750001d70a1c,37,0,2024-02-27T11:17:02.277Z,english_850.wav,0,peel,191,40,3,5,français,m,1,0.1,-44.24877139,0.57242606
5bc8dccd0f10750001d70a1c,37,0,2024-02-27T11:17:02.277Z,english_850.wav,0,peel,191,40,3,5,français,m,2,0.2,74.77623955,0.15597525
5bc8dccd0f10750001d70a1c,37,0,2024-02-27T11:17:02.277Z,english_850.wav,0,peel,191,40,3,5,français,m,3,0.3,-86.32612653,1.3358867
5bc8dccd0f10750001d70a1c,37,0,2024-02-27T11:17:02.277Z,english_850.wav,0,peel,191,40,3,5,français,m,4,0.32341667,-11.10230867,1.14618682
5bc8dccd0f10750001d70a1c,38,0,2024-02-27T11:17:02.277Z,english_824.wav,0,peel,73,40,3,5,français,m,0,0.0,80.46503136,1.43025592
5bc8dccd0f10750001d70a1c,38,0,2024-02-27T11:17:02.277Z,english_824.wav,0,peel,73,40,3,5,français,m,1,0.1,-48.668347,0.89138167
5bc8dccd0f10750001d70a1c,38,0,2024-02-27T11:17:02.277Z,english_824.wav,0,peel,73,40,3,5,français,m,2,0.2,37.27765876,1.91281619
5bc8dccd0f10750001d70a1c,38,0,2024-02-27T11:17:02.277Z,english_824.wav,0,peel,73,40,3,5,français,m,3,0.3,-91.29945309,0.71335031
5bc8dccd0f10750001d70a1c,38,0,2024-02-27T11:17:02.277Z,english_824.wav,0,peel,73,40,3,5,français,m,4,0.32341667,14.46507007,0.89780818
5bc8dccd0f10750001d70a1c,39,0,2024-02-27T11:17:02.277Z,english_406.wav,0,pill,181,40,3,5,français,m,0,0.0,28.09923375,1.43312072
5bc8dccd0f10750001d70a1c,39,0,2024-02-27T11:17:02.277Z,english_406.wav,0,pill,181,40,3,5,français,m,1,0.1,-15.10813675,0.8890381
5bc8dccd0f10750001d70a1c,39,0,2024-02-27T11:17:02.277Z,english_406.wav,0,pill,181,40,3,5,français,m,2,0.2,-12.43931725,0.60560557
5bc8dccd0f10750001d70a1c,39,0,2024-02-27T11:17:02.277Z,english_406.wav,0,pill,181,40,3,5,français,m,3,0.3,-27.33468297,1.13565345
5bc8dccd0f10750001d70a1c,39,0,2024-02-27T11:17:02.277Z,english_406.wav,0,pill,181,40,3,5,français,m,4,0.32341667,-62.66931892,1.8467177
5bc8dccd0f10750001d70a1c,40,0,2024-02-27T11:17:02.277Z,english_320.wav,0,peel,155,40,3,5,français,m,0,0.0,-85.59568725,1.40519879
5bc8dccd0f10750001d70a1c,40,0,2024-02-27T11:17:02.277Z,english_320.wav,0,peel,155,40,3,5,français,m,1,0.1,-85.79055124,0.4213256
5bc8dccd0f10750001d70a1c,40,0,2024-02-27T11:17:02.277Z,english_320.wav,0,peel,155,40,3,5,français,m,2,0.2,-34.52195848,0.82537755
5bc8dccd0f10750001d70a1c,40,0,2024-02-27T11:17:02.277Z,english_320.wav,0,peel,155,40,3,5,français,m,3,0.3,14.03031204,0.50617831
5bc8dccd0f10750001d70a1c,40,0,2024-02-27T11:17:02.277Z,english_320.wav,0,peel,155,40,3,5,français,m,4,0.32341667,45.83597199,1.22725326
5bc8dccd0f10750001d70a1c,41,0,2024-02-27T11:17:02.277Z,english_604.wav,0,pill,48,40,3,5,français,m,0,0.0,11.37360706,1.9162078
5bc8dccd0f10750001d70a1c,41,0,2024-02-27T11:17:02.277Z,english_604.wav,0,pill,48,40,3,5,français,m,1,0.1,-50.20832577,0.59247461
5bc8dccd0f10750001d70a1c,41,0,2024-02-27T11:17:02.277Z,english_604.wav,0,pill,48,40,3,5,français,m,2,0.2,-34.39542541,1.79911242
5bc8dccd0f10750001d70a1c,41,0,2024-02-27T11:17:02.277Z,english_604.wav,0,pill,48,40,3,5,français,m,3,0.3,-9.87560088,0.998763
5bc8dccd0f10750001d70a1c,41,0,2024-02-27T11:17:02.277Z,english_604.wav,0,pill,48,40,3,5,français,m,4,0.32341667,34.71454295,0.76768671
5bc8dccd0f10750001d70a1c,42,0,2024-02-27T11:17:02.277Z,english_413.wav,0,peel,148,40,3,5,français,m,0,0.0,-9.66675054,1.82887045
5bc8dccd0f10750001d70a1c,42,0,2024-02-27T11:17:02.277Z,english_413.wav,0,peel,148,40,3,5,français,m,1,0.1,15.27504309,0.80668743
5bc8dccd0f10750001d70a1c,42,0,2024-02-27T11:17:02.277Z,english_413.wav,0,peel,148,40,3,5,français,m,2,0.2,-94.93171401,0.90586838
5bc8dccd0f10750001d70a1c,42,0,2024-02-27T11:17:02.277Z,english_413.wav,0,peel,148,40,3,5,français,m,3,0.3,-42.87800999,1.3937681
5bc8dccd0f10750001d70a1c,42,0,2024-02-27T11:17:02.277Z,english_413.wav,0,peel,148,40,3,5,français,m,4,0.32341667,-63.39385234,0.34165264
5bc8dccd0f10750001d70a1c,43,0,2024-02-27T11:17:02.277Z,english_883.wav,0,peel,122,40,3,5,français,m,0,0.0,-17.60743744,1.86037562
5bc8dccd0f10750001d70a1c,43,0,2024-02-27T11:17:02.277Z,english_883.wav,0,peel,122,40,3,5,français,m,1,0.1,-37.46625877,0.9331332
5bc8dccd0f10750001d70a1c,43,0,2024-02-27T11:17:02.277Z,english_883.wav,0,peel,122,40,3,5,français,m,2,0.2,55.1108939,1.34322635
5bc8dccd0f10750001d70a1c,43,0,2024-02-27T11:17:02.277Z,english_883.wav,0,peel,122,40,3,5,français,m,3,0.3,87.45591348,0.07818604
5bc8dccd0f10750001d70a1c,43,0,2024-02-27T11:17:02.277Z,english_883.wav,0,peel,122,40,3,5,français,m,4,0.32341667,-90.78539671,1.31446095
5bc8dccd0f10750001d70a1c,44,0,2024-02-27T11:17:02.277Z,english_845.wav,0,pill,129,40,3,5,français,m,0,0.0,-39.21264236,0.82761504
5bc8dccd0f10750001d70a1c,44,0,2024-02-27T11:17:02.277Z,english_845.wav,0,pill,129,40,3,5,français,m,1,0.1,99.78041888,0.53375751
5bc8dccd0f10750001d70a1c,44,0,2024-02-27T11:17:02.277Z,english_845.wav,0,pill,129,40,3,5,français,m,2,0.2,-59.29104422,1.24236426
5bc8dccd0f10750001d70a1c,44,0,2024-02-27T11:17:02.277Z,english_845.wav,0,pill,129,40,3,5,français,m,3,0.3,57.0409613,1.27736464
5bc8dccd0f10750001d70a1c,44,0,2024-02-27T11:17:02.277Z,english_845.wav,0,pill,129,40,3,5,français,m,4,0.32341667,-93.6361214,0.79024728
5bc8dccd0f10750001d70a1c,45,0,2024-02-27T11:17:02.277Z,english_251.wav,0,pill,70,40,3,5,français,m,0,0.0,-35.26640223,1.59441442
5bc8dccd0f10750001d70a1c,45,0,2024-02-27T11:17:02.277Z,english_251.wav,0,pill,70,40,3,5,français,m,1,0.1,-82.14936791,1.21410308
5bc8dccd0f10750001d70a1c,45,0,2024-02-27T11:17:02.277Z,english_251.wav,0,pill,70,40,3,5,français,m,2,0.2,39.53587687,0.89125894
5bc8dccd0f10750001d70a1c,45,0,2024-02-27T11:17:02.277Z,english_251.wav,0,pill,70,40,3,5,français,m,3,0.3,-75.44024907,0.14763688
5bc8dccd0f10750001d70a1c,45,0,2024-02-27T11:17:02.277Z,english_251.wav,0,pill,70,40,3,5,français,m,4,0.32341667,26.94148116,1.71797298
5bc8dccd0f10750001d70a1c,46,0,2024-02-27T11:17:02.277Z,english_299.wav,0,peel,54,40,3,5,français,m,0,0.0,-2.55977829,0.95716625
5bc8dccd0f10750001d70a1c,46,0,2024-02-27T11:17:02.277Z,english_299.wav,0,peel,54,40,3,5,français,m,1,0.1,1.77446255,1.43363845
5bc8dccd0f10750001d70a1c,46,0,2024-02-27T11:17:02.277Z,english_299.wav,0,peel,54,40,3,5,français,m,2,0.2,-18.83457859,1.1421669
5bc8dccd0f10750001d70a1c,46,0,2024-02-27T11:17:02.277Z,english_299.wav,0,peel,54,40,3,5,français,m,3,0.3,-71.88845024,1.57148089
5bc8dccd0f10750001d70a1c,46,0,2024-02-27T11:17:02.277Z,english_299.wav,0,peel,54,40,3,5,français,m,4,0.32341667,99.76623745,1.70410623
5bc8dccd0f10750001d70a1c,47,0,2024-02-27T11:17:02.277Z,english_787.wav,0,pill,13,40,3,5,français,m,0,0.0,57.99353047,1.96251481
5bc8dccd0f10750001d70a1c,47,0,2024-02-27T11:17:02.277Z,english_787.wav,0,pill,13,40,3,5,français,m,1,0.1,-40.79525362,0.94444479
5bc8dccd0f10750001d70a1c,47,0,2024-02-27T11:17:02.277Z,english_787.wav,0,pill,13,40,3,5,français,m,2,0.2,23.78072576,0.924778
5bc8dccd0f10750001d70a1c,47,0,2024-02-27T11:17:02.277Z,english_787.wav,0,pill,13,40,3,5,français,m,3,0.3,72.96982422,0.31383508
5bc8dccd0f10750001d70a1c,47,0,2024-02-27T11:17:02.277Z,english_787.wav,0,pill,13,40,3,5,français,m,4,0.32341667,53.76957631,0.68947425
5bc8dccd0f10750001d70a1c,48,0,2024-02-27T11:17:02.277Z,english_68.wav,0,pill,113,40,3,5,français,m,0,0.0,-23.38152803,1.83565324
5bc8dccd0f10750001d70a1c,48,0,2024-02-27T11:17:02.277Z,english_68.wav,0,pill,113,40,3,5,français,m,1,0.1,-36.0918901,0.35162477
5bc8dccd0f10750001d70a1c,48,0,2024-02-27T11:17:02.277Z,english_68.wav,0,pill,113,40,3,5,français,m,2,0.2,65.46592862,1.10705723
5bc8dccd0f10750001d70a1c,48,0,2024-02-27T11:17:02.277Z,english_68.wav,0,pill,113,40,3,5,français,m,3,0.3,48.57602628,1.09550925
5bc8dccd0f10750001d70a1c,48,0,2024-02-27T11:17:02.277Z,english_68.wav,0,pill,113,40,3,5,français,m,4,0.32341667,-93.64245591,0.05753383
5bc8dccd0f10750001d70a1c,49,0,2024-02-27T11:17:02.277Z,english_238.wav,0,pill,115,40,3,5,français,m,0,0.0,87.78466979,1.0750983
5bc8dccd0f10750001d70a1c,49,0,2024-02-27T11:17:02.277Z,english_238.wav,0,pill,115,40,3,5,français,m,1,0.1,65.39287108,0.03626896
5bc8dccd0f10750001d70a1c,49,0,2024-02-27T11:17:02.277Z,english_238.wav,0,pill,115,40,3,5,français,m,2,0.2,-38.39100082,1.9832234
5bc8dccd0f10750001d70a1c,49,0,2024-02-27T11:17:02.277Z,english_238.wav,0,pill,115,40,3,5,français,m,3,0.3,-20.01297649,0.17604691
5bc8dccd0f10750001d70a1c,49,0,2024-02-27T11:17:02.277Z,english_238.wav,0,pill,115,40,3,5,français,m,4,0.32341667,78.31880556,1.61383808
5bc8dccd0f10750001d70a1c,50,1,2024-02-27T11:17:02.277Z,english_552.wav,0,pill,81,40,3,5,français,m,0,0.0,-54.22317773,0.14479657
5bc8dccd0f10750001d70a1c,50,1,2024-02-27T11:17:02.277Z,english_552.wav,0,pill,81,40,3,5,français,m,1,0.1,23.75537749,1.96762023
5bc8dccd0f10750001d70a1c,50,1,2024-02-27T11:17:02.277Z,english_552.wav,0,pill,81,40,3,5,français,m,2,0.2,-67.43154965,0.75812729
5bc8dccd0f10750001d70a1c,50,1,2024-02-27T11:17:02.277Z,english_552.wav,0,pill,81,40,3,5,français,m,3,0.3,-83.62242399,0.84420129
5bc8dccd0f10750001d70a1c,50,1,2024-02-27T11:17:02.277Z,english_552.wav,0,pill,81,40,3,5,français,m,4,0.32341667,64.2322812,0.73382384
5bc8dccd0f10750001d70a1c,51,1,2024-02-27T11:17:02.277Z,english_485.wav,0,peel,120,40,3,5,français,m,0,0.0,-7.08941798,1.8206563
5bc8dccd0f10750001d70a1c,51,1,2024-02-27T11:17:02.277Z,english_485.wav,0,peel,120,40,3,5,français,m,1,0.1,-70.64579204,0.10660577
5bc8dccd0f10750001d70a1c,51,1,2024-02-27T11:17:02.277Z,english_485.wav,0,peel,120,40,3,5,français,m,2,0.2,23.79115045,1.92760945
5bc8dccd0f10750001d70a1c,51,1,2024-02-27T11:17:02.277Z,english_485.wav,0,peel,120,40,3,5,français,m,3,0.3,0.80487994,0.77499174
5bc8dccd0f10750001d70a1c,51,1,2024-02-27T11:17:02.277Z,english_485.wav,0,peel,120,40,3,5,français,m,4,0.32341667,4.72097057,1.20070888
5bc8dccd0f10750001d70a1c,52,1,2024-02-27T11:17:02.277Z,english_78.wav,0,peel,28,40,3,5,français,m,0,0.0,57.57509383,0.85738581
5bc8dccd0f10750001d70a1c,52,1,2024-02-27T11:17:02.277Z,english_78.wav,0,peel,28,40,3,5,français,m,1,0.1,8.37611797,1.59375359
5bc8dccd0f10750001d70a1c,52,1,2024-02-27T11:17:02.277Z,english_78.wav,0,peel,28,40,3,5,français,m,2,0.2,-42.8518908,1.65756647
5bc8dccd0f10750001d70a1c,52,1,2024-02-27T11:17:02.277Z,english_78.wav,0,peel,28,40,3,5,français,m,3,0.3,26.19415986,0.53011742
5bc8dccd0f10750001d70a1c,52,1,2024-02-27T11:17:02.277Z,english_78.wav,0,peel,28,40,3,5,français,m,4,0.32341667,65.52498429,1.5323802
5bc8dccd0f10750001d70a1c,53,1,2024-02-27T11:17:02.277Z,english_205.wav,0,pill,13,40,3,5,français,m,0,0.0,55.03693902,1.41699591
5bc8dccd0f10750001d70a1c,53,1,2024-02-27T11:17:02.277Z,english_205.wav,0,pill,13,40,3,5,français,m,1,0.1,59.05347117,0.25749205
5bc8dccd0f10750001d70a1c,53,1,2024-02-27T11:17:02.277Z,english_205.wav,0,pill,13,40,3,5,français,m,2,0.2,-51.93258482,1.78695407
5bc8dccd0f10750001d70a1c,53,1,2024-02-27T11:17:02.277Z,english_205.wav,0,pill,13,40,3,5,français,m,3,0.3,-18.66886592,0.11157042
5bc8dccd0f10750001d70a1c,53,1,2024-02-27T11:17:02.277Z,english_205.wav,0,pill,13,40,3,5,français,m,4,0.32341667,-25.16213195,1.74030417
5bc8dccd0f10750001d70a1c,54,1,2024-02-27T11:17:02.277Z,english_341.wav,0,pill,98,40,3,5,français,m,0,0.0,-3.29192029,0.92007635
5bc8dccd0f10750001d70a1c,54,1,2024-02-27T11:17:02.277Z,english_341.wav,0,pill,98,40,3,5,français,m,1,0.1,-63.07334109,0.76766635
5bc8dccd0f10750001d70a1c,54,1,2024-02-27T11:17:02.277Z,english_341.wav,0,pill,98,40,3,5,français,m,2,0.2,-52.81319379,0.00478881
5bc8dccd0f10750001d70a1c,54,1,2024-02-27T11:17:02.277Z,english_341.wav,0,pill,98,40,3,5,français,m,3,0.3,47.65296252,0.69804387
5bc8dccd0f10750001d70a1c,54,1,2024-02-27T11:17:02.277Z,english_341.wav,0,pill,98,40,3,5,français,m,4,0.32341667,-2.67842738,0.15231077
5bc8dccd0f10750001d70a1c,55,1,2024-02-27T11:17:02.277Z,english_15.wav,0,peel,31,40,3,5,français,m,0,0.0,-84.2209614,0.31323186
5bc8dccd0f10750001d70a1c,55,1,2024-02-27T11:17:02.277Z,english_15.wav,0,peel,31,40,3,5,français,m,1,0.1,62.09656714,0.60538609
5bc8dccd0f10750001d70a1c,55,1,2024-02-27T11:17:02.277Z,english_15.wav,0,peel,31,40,3,5,français,m,2,0.2,55.13992629,0.21165259
5bc8dccd0f10750001d70a1c,55,1,2024-02-27T11:17:02.277Z,english_15.wav,0,peel,31,40,3,5,français,m,3,0.3,-55.71077558,0.62501131
5bc8dccd0f10750001d70a1c,55,1,2024-02-27T11:17:02.277Z,english_15.wav,0,peel,31,40,3,5,français,m,4,0.32341667,77.6678018,0.97290752
5bc8dccd0f10750001d70a1c,56,1,2024-02-27T11:17:02.277Z,english_417.wav,0,peel,62,40,3,5,français,m,0,0.0,-17.25972862,1.29903721
5bc8dccd0f10750001d70a1c,56,1,2024-02-27T11:17:02.277Z,english_417.wav,0,peel,62,40,3,5,français,m,1,0.1,72.11413149,0.87773419
5bc8dccd0f10750001d70a1c,56,1,2024-02-27T11:17:02.277Z,english_417.wav,0,peel,62,40,3,5,français,m,2,0.2,83.70212603,1.45838331
5bc8dccd0f10750001d70a1c,56,1,2024-02-27T11:17:02.277Z,english_417.wav,0,peel,62,40,3,5,français,m,3,0.3,67.19530478,0.90979472
5bc8dccd0f10750001d70a1c,56,1,2024-02-27T11:17:02.277Z,english_417.wav,0,peel,62,40,3,5,français,m,4,0.32341667,29.72084594,0.1224986
5bc8dccd0f10750001d70a1c,57,1,2024-02-27T11:17:02.277Z,english_694.wav,0,peel,65,40,3,5,français,m,0,0.0,-79.88370205,0.99496101
5bc8dccd0f10750001d70a1c,57,1,2024-02-27T11:17:02.277Z,english_694.wav,0,peel,65,40,3,5,français,m,1,0.1,-58.02841319,0.06406007
5bc8dccd0f10750001d70a1c,57,1,2024-02-27T11:17:02.277Z,english_694.wav,0,peel,65,40,3,5,français,m,2,0.2,-50.54988317,0.5055253
5bc8dccd0f10750001d70a1c,57,1,2024-02-27T11:17:02.277Z,english_694.wav,0,peel,65,40,3,5,français,m,3,0.3,-20.79864769,0.19498426
5bc8dccd0f10750001d70a1c,57,1,2024-02-27T11:17:02.277Z,english_694.wav,0,peel,65,40,3,5,français,m,4,0.32341667,-73.64916114,0.36410653
5bc8dccd0f10750001d70a1c,58,1,2024-02-27T11:17:02.277Z,english_419.wav,0,pill,111,40,3,5,français,m,0,0.0,74.10926047,0.423980314
5bc8dccd0f10750001d70a1c,58,1,2024-02-27T11:17:02.277Z,english_419.wav,0,pill,111,40,3,5,français,m,1,0.1,-50.44969368,1.12483838
5bc8dccd0f10750001d70a1c,58,1,2024-02-27T11:17:02.277Z,english_419.wav,0,pill,111,40,3,5,français,m,2,0.2,-38.37630765,0.473465541
5bc8dccd0f10750001d70a1c,58,1,2024-02-27T11:17:02.277Z,english_419.wav,0,pill,111,40,3,5,français,m,3,0.3,-57.54140712,0.000838613621
5bc8dccd0f10750001d70a1c,58,1,2024-02-27T11:17:02.277Z,english_419.wav,0,pill,111,40,3,5,français,m,4,0.32341667,48.12555486,0.389285402
5bc8dccd0f10750001d70a1c,59,1,2024-02-27T11:17:02.277Z,english_859.wav,0,peel,131,40,3,5,français,m,0,0.0,71.31858369,0.11764496
5bc8dccd0f10750001d70a1c,59,1,2024-02-27T11:17:02.277Z,english_859.wav,0,peel,131,40,3,5,français,m,1,0.1,-33.60875554,0.29827778
5bc8dccd0f10750001d70a1c,59,1,2024-02-27T11:17:02.277Z,english_859.wav,0,peel,131,40,3,5,français,m,2,0.2,-64.15502461,0.43254339
5bc8dccd0f10750001d70a1c,59,1,2024-02-27T11:17:02.277Z,english_859.wav,0,peel,131,40,3,5,français,m,3,0.3,-36.22537369,0.12368506
5bc8dccd0f10750001d70a1c,59,1,2024-02-27T11:17:02.277Z,english_859.wav,0,peel,131,40,3,5,français,m,4,0.32341667,-23.59955866,0.97858169
5bc8dccd0f10750001d70a1c,60,1,2024-02-27T11:17:02.277Z,english_753.wav,0,peel,105,40,3,5,français,m,0,0.0,38.61944715,0.75641923
5bc8dccd0f10750001d70a1c,60,1,2024-02-27T11:17:02.277Z,english_753.wav,0,peel,105,40,3,5,français,m,1,0.1,-76.3398938,1.17320485
5bc8dccd0f10750001d70a1c,60,1,2024-02-27T11:17:02.277Z,english_753.wav,0,peel,105,40,3,5,français,m,2,0.2,-80.92813522,0.63072958
5bc8dccd0f10750001d70a1c,60,1,2024-02-27T11:17:02.277Z,english_753.wav,0,peel,105,40,3,5,français,m,3,0.3,-16.48508052,1.96252246
5bc8dccd0f10750001d70a1c,60,1,2024-02-27T11:17:02.277Z,english_753.wav,0,peel,105,40,3,5,français,m,4,0.32341667,16.23487259,1.97125296
5bc8dccd0f10750001d70a1c,61,1,2024-02-27T11:17:02.277Z,english_245.wav,0,peel,24,40,3,5,français,m,0,0.0,74.89239003,1.30710747
5bc8dccd0f10750001d70a1c,61,1,2024-02-27T11:17:02.277Z,english_245.wav,0,peel,24,40,3,5,français,m,1,0.1,41.98679172,0.93119149
5bc8dccd0f10750001d70a1c,61,1,2024-02-27T11:17:02.277Z,english_245.wav,0,peel,24,40,3,5,français,m,2,0.2,99.42105985,1.84379828
5bc8dccd0f10750001d70a1c,61,1,2024-02-27T11:17:02.277Z,english_245.wav,0,peel,24,40,3,5,français,m,3,0.3,-75.11958538,1.72828743
5bc8dccd0f10750001d70a1c,61,1,2024-02-27T11:17:02.277Z,english_245.wav,0,peel,24,40,3,5,français,m,4,0.32341667,-62.10664415,0.50124118
5bc8dccd0f10750001d70a1c,62,1,2024-02-27T11:17:02.277Z,english_812.wav,0,peel,116,40,3,5,français,m,0,0.0,70.24469457,0.85599223
5bc8dccd0f10750001d70a1c,62,1,2024-02-27T11:17:02.277Z,english_812.wav,0,peel,116,40,3,5,français,m,1,0.1,-27.51466786,0.39005905
5bc8dccd0f10750001d70a1c,62,1,2024-02-27T11:17:02.277Z,english_812.wav,0,peel,116,40,3,5,français,m,2,0.2,60.55844263,1.43275618
5bc8dccd0f10750001d70a1c,62,1,2024-02-27T11:17:02.277Z,english_812.wav,0,peel,116,40,3,5,français,m,3,0.3,52.93607499,1.34329238
5bc8dccd0f10750001d70a1c,62,1,2024-02-27T11:17:02.277Z,english_812.wav,0,peel,116,40,3,5,français,m,4,0.32341667,74.74872052,0.96810209
5bc8dccd0f10750001d70a1c,63,1,2024-02-27T11:17:02.277Z,english_86.wav,0,peel,39,40,3,5,français,m,0,0.0,-48.59393833,1.45450552
5bc8dccd0f10750001d70a1c,63,1,2024-02-27T11:17:02.277Z,english_86.wav,0,peel,39,40,3,5,français,m,1,0.1,77.37095157,1.8635573
5bc8dccd0f10750001d70a1c,63,1,2024-02-27T11:17:02.277Z,english_86.wav,0,peel,39,40,3,5,français,m,2,0.2,44.19816726,1.174515
5bc8dccd0f10750001d70a1c,63,1,2024-02-27T11:17:02.277Z,english_86.wav,0,peel,39,40,3,5,français,m,3,0.3,-99.780271,1.46785746
5bc8dccd0f10750001d70a1c,63,1,2024-02-27T11:17:02.277Z,english_86.wav,0,peel,39,40,3,5,français,m,4,0.32341667,38.96545556,0.99607158
5bc8dccd0f10750001d70a1c,64,1,2024-02-27T11:17:02.277Z,english_927.wav,0,pill,44,40,3,5,français,m,0,0.0,81.66311017,1.3783001
5bc8dccd0f10750001d70a1c,64,1,2024-02-27T11:17:02.277Z,english_927.wav,0,pill,44,40,3,5,français,m,1,0.1,0.87570902,0.51323502
5bc8dccd0f10750001d70a1c,64,1,2024-02-27T11:17:02.277Z,english_927.wav,0,pill,44,40,3,5,français,m,2,0.2,-59.21619647,0.98265958
5bc8dccd0f10750001d70a1c,64,1,2024-02-27T11:17:02.277Z,english_927.wav,0,pill,44,40,3,5,français,m,3,0.3,-57.6787773,0.30790993
5bc8dccd0f10750001d70a1c,64,1,2024-02-27T11:17:02.277Z,english_927.wav,0,pill,44,40,3,5,français,m,4,0.32341667,-30.87043146,1.17222751
5bc8dccd0f10750001d70a1c,65,1,2024-02-27T11:17:02.277Z,english_370.wav,0,pill,55,40,3,5,français,m,0,0.0,-90.17078727,0.17796458
5bc8dccd0f10750001d70a1c,65,1,2024-02-27T11:17:02.277Z,english_370.wav,0,pill,55,40,3,5,français,m,1,0.1,-71.99280791,1.08934715
5bc8dccd0f10750001d70a1c,65,1,2024-02-27T11:17:02.277Z,english_370.wav,0,pill,55,40,3,5,français,m,2,0.2,-13.60727202,1.05914244
5bc8dccd0f10750001d70a1c,65,1,2024-02-27T11:17:02.277Z,english_370.wav,0,pill,55,40,3,5,français,m,3,0.3,-0.93192742,1.87852505
5bc8dccd0f10750001d70a1c,65,1,2024-02-27T11:17:02.277Z,english_370.wav,0,pill,55,40,3,5,français,m,4,0.32341667,33.27852394,1.24161401
5bc8dccd0f10750001d70a1c,66,1,2024-02-27T11:17:02.277Z,english_363.wav,0,pill,81,40,3,5,français,m,0,0.0,-8.62246293,0.22304778
5bc8dccd0f10750001d70a1c,66,1,2024-02-27T11:17:02.277Z,english_363.wav,0,pill,81,40,3,5,français,m,1,0.1,-37.95317313,0.51009023
5bc8dccd0f10750001d70a1c,66,1,2024-02-27T11:17:02.277Z,english_363.wav,0,pill,81,40,3,5,français,m,2,0.2,-98.56362786,1.67320701
5bc8dccd0f10750001d70a1c,66,1,2024-02-27T11:17:02.277Z,english_363.wav,0,pill,81,40,3,5,français,m,3,0.3,79.4101663,0.32318158
5bc8dccd0f10750001d70a1c,66,1,2024-02-27T11:17:02.277Z,english_363.wav,0,pill,81,40,3,5,français,m,4,0.32341667,-19.01593507,1.23606141
5bc8dccd0f10750001d70a1c,67,1,2024-02-27T11:17:02.277Z,english_394.wav,0,pill,43,40,3,5,français,m,0,0.0,73.08757955,1.29313131
5bc8dccd0f10750001d70a1c,67,1,2024-02-27T11:17:02.277Z,english_394.wav,0,pill,43,40,3,5,français,m,1,0.1,5.60908311,0.62691873
5bc8dccd0f10750001d70a1c,67,1,2024-02-27T11:17:02.277Z,english_394.wav,0,pill,43,40,3,5,français,m,2,0.2,76.56705043,1.4938005
5bc8dccd0f10750001d70a1c,67,1,2024-02-27T11:17:02.277Z,english_394.wav,0,pill,43,40,3,5,français,m,3,0.3,18.85166324,1.2266925
5bc8dccd0f10750001d70a1c,67,1,2024-02-27T11:17:02.277Z,english_394.wav,0,pill,43,40,3,5,français,m,4,0.32341667,8.45052692,0.67844158
5bc8dccd0f10750001d70a1c,68,1,2024-02-27T11:17:02.277Z,english_21.wav,0,pill,107,40,3,5,français,m,0,0.0,-21.85116114,1.17417274
5bc8dccd0f10750001d70a1c,68,1,2024-02-27T11:17:02.277Z,english_21.wav,0,pill,107,40,3,5,français,m,1,0.1,-94.69976897,0.84289237
5bc8dccd0f10750001d70a1c,68,1,2024-02-27T11:17:02.277Z,english_21.wav,0,pill,107,40,3,5,français,m,2,0.2,59.00053046,1.58737119
5bc8dccd0f10750001d70a1c,68,1,2024-02-27T11:17:02.277Z,english_21.wav,0,pill,107,40,3,5,français,m,3,0.3,-81.44868512,0.70500889
5bc8dccd0f10750001d70a1c,68,1,2024-02-27T11:17:02.277Z,english_21.wav,0,pill,107,40,3,5,français,m,4,0.32341667,-68.72650823,1.41810016
5bc8dccd0f10750001d70a1c,69,1,2024-02-27T11:17:02.277Z,english_950.wav,0,pill,82,40,3,5,français,m,0,0.0,-21.9776243,0.20752278
5bc8dccd0f10750001d70a1c,69,1,2024-02-27T11:17:02.277Z,english_950.wav,0,pill,82,40,3,5,français,m,1,0.1,-41.40023943,1.93939622
5bc8dccd0f10750001d70a1c,69,1,2024-02-27T11:17:02.277Z,english_950.wav,0,pill,82,40,3,5,français,m,2,0.2,48.01515584,1.55608343
5bc8dccd0f10750001d70a1c,69,1,2024-02-27T11:17:02.277Z,english_950.wav,0,pill,82,40,3,5,français,m,3,0.3,-87.95551252,1.49634866
5bc8dccd0f10750001d70a1c,69,1,2024-02-27T11:17:02.277Z,english_950.wav,0,pill,82,40,3,5,français,m,4,0.32341667,-39.5252386,0.91783384
5bc8dccd0f10750001d70a1c,70,1,2024-02-27T11:17:02.277Z,english_864.wav,0,pill,59,40,3,5,français,m,0,0.0,-41.66547405,0.15536101
5bc8dccd0f10750001d70a1c,70,1,2024-02-27T11:17:02.277Z,english_864.wav,0,pill,59,40,3,5,français,m,1,0.1,47.36949562,1.78739046
5bc8dccd0f10750001d70a1c,70,1,2024-02-27T11:17:02.277Z,english_864.wav,0,pill,59,40,3,5,français,m,2,0.2,87.97635609,1.48310956
5bc8dccd0f10750001d70a1c,70,1,2024-02-27T11:17:02.277Z,english_864.wav,0,pill,59,40,3,5,français,m,3,0.3,-18.88921291,0.35838492
5bc8dccd0f10750001d70a1c,70,1,2024-02-27T11:17:02.277Z,english_864.wav,0,pill,59,40,3,5,français,m,4,0.32341667,13.88839096,0.21709894
5bc8dccd0f10750001d70a1c,71,1,2024-02-27T11:17:02.277Z,english_399.wav,0,peel,241,40,3,5,français,m,0,0.0,77.00947727,0.99570417
5bc8dccd0f10750001d70a1c,71,1,2024-02-27T11:17:02.277Z,english_399.wav,0,peel,241,40,3,5,français,m,1,0.1,68.68212777,1.08385584
5bc8dccd0f10750001d70a1c,71,1,2024-02-27T11:17:02.277Z,english_399.wav,0,peel,241,40,3,5,français,m,2,0.2,29.89909441,0.2210854
5bc8dccd0f10750001d70a1c,71,1,2024-02-27T11:17:02.277Z,english_399.wav,0,peel,241,40,3,5,français,m,3,0.3,-37.60275897,0.41623588
5bc8dccd0f10750001d70a1c,71,1,2024-02-27T11:17:02.277Z,english_399.wav,0,peel,241,40,3,5,français,m,4,0.32341667,-61.49193386,0.38461981
5bc8dccd0f10750001d70a1c,72,1,2024-02-27T11:17:02.277Z,english_535.wav,0,peel,91,40,3,5,français,m,0,0.0,-5.32882057,0.21055966
5bc8dccd0f10750001d70a1c,72,1,2024-02-27T11:17:02.277Z,english_535.wav,0,peel,91,40,3,5,français,m,1,0.1,-34.98045039,0.89683134
5bc8dccd0f10750001d70a1c,72,1,2024-02-27T11:17:02.277Z,english_535.wav,0,peel,91,40,3,5,français,m,2,0.2,30.10834221,1.11178172
5bc8dccd0f10750001d70a1c,72,1,2024-02-27T11:17:02.277Z,english_535.wav,0,peel,91,40,3,5,français,m,3,0.3,-70.22542568,0.20123235
5bc8dccd0f10750001d70a1c,72,1,2024-02-27T11:17:02.277Z,english_535.wav,0,peel,91,40,3,5,français,m,4,0.32341667,-73.0016054,0.99564794
5bc8dccd0f10750001d70a1c,73,1,2024-02-27T11:17:02.277Z,english_634.wav,0,pill,125,40,3,5,français,m,0,0.0,-94.29539956,0.6011183
5bc8dccd0f10750001d70a1c,73,1,2024-02-27T11:17:02.277Z,english_634.wav,0,pill,125,40,3,5,français,m,1,0.1,28.41708136,1.15242669
5bc8dccd0f10750001d70a1c,73,1,2024-02-27T11:17:02.277Z,english_634.wav,0,pill,125,40,3,5,français,m,2,0.2,-99.13935281,0.68826906
5bc8dccd0f10750001d70a1c,73,1,2024-02-27T11:17:02.277Z,english_634.wav,0,pill,125,40,3,5,français,m,3,0.3,-78.11216949,1.44169335
5bc8dccd0f10750001d70a1c,73,1,2024-02-27T11:17:02.277Z,english_634.wav,0,pill,125,40,3,5,français,m,4,0.32341667,-54.5881907,0.90266094
5bc8dccd0f10750001d70a1c,74,1,2024-02-27T11:17:02.277Z,english_723.wav,0,peel,30,40,3,5,français,m,0,0.0,-85.17156731,1.02541656
5bc8dccd0f10750001d70a1c,74,1,2024-02-27T11:17:02.277Z,english_723.wav,0,peel,30,40,3,5,français,m,1,0.1,92.93654667,0.92088513
5bc8dccd0f10750001d70a1c,74,1,2024-02-27T11:17:02.277Z,english_723.wav,0,peel,30,40,3,5,français,m,2,0.2,-28.89042756,0.78256854
5bc8dccd0f10750001d70a1c,74,1,2024-02-27T11:17:02.277Z,english_723.wav,0,peel,30,40,3,5,français,m,3,0.3,36.79914563,1.22887413
5bc8dccd0f10750001d70a1c,74,1,2024-02-27T11:17:02.277Z,english_723.wav,0,peel,30,40,3,5,français,m,4,0.32341667,6.86426773,1.77193963
5bc8dccd0f10750001d70a1c,75,1,2024-02-27T11:17:02.277Z,english_462.wav,0,peel,80,40,3,5,français,m,0,0.0,-35.73318704,1.53267708
5bc8dccd0f10750001d70a1c,75,1,2024-02-27T11:17:02.277Z,english_462.wav,0,peel,80,40,3,5,français,m,1,0.1,-5.65949109,1.98369384
5bc8dccd0f10750001d70a1c,75,1,2024-02-27T11:17:02.277Z,english_462.wav,0,peel,80,40,3,5,français,m,2,0.2,-49.47542688,1.31270994
5bc8dccd0f10750001d70a1c,75,1,2024-02-27T11:17:02.277Z,english_462.wav,0,peel,80,40,3,5,français,m,3,0.3,-98.18570674,1.26289606
5bc8dccd0f10750001d70a1c,75,1,2024-02-27T11:17:02.277Z,english_462.wav,0,peel,80,40,3,5,français,m,4,0.32341667,-16.34927785,1.36496903
5bc8dccd0f10750001d70a1c,76,1,2024-02-27T11:17:02.277Z,english_407.wav,0,pill,68,40,3,5,français,m,0,0.0,-13.68776922,0.77658743
5bc8dccd0f10750001d70a1c,76,1,2024-02-27T11:17:02.277Z,english_407.wav,0,pill,68,40,3,5,français,m,1,0.1,-57.11899702,1.53398674
5bc8dccd0f10750001d70a1c,76,1,2024-02-27T11:17:02.277Z,english_407.wav,0,pill,68,40,3,5,français,m,2,0.2,62.94325807,0.70379875
5bc8dccd0f10750001d70a1c,76,1,2024-02-27T11:17:02.277Z,english_407.wav,0,pill,68,40,3,5,français,m,3,0.3,-27.77030003,0.72470084
5bc8dccd0f10750001d70a1c,76,1,2024-02-27T11:17:02.277Z,english_407.wav,0,pill,68,40,3,5,français,m,4,0.32341667,-61.90605897,0.771678
5bc8dccd0f10750001d70a1c,77,1,2024-02-27T11:17:02.277Z,english_318.wav,0,peel,137,40,3,5,français,m,0,0.0,40.16064427,0.11467793
5bc8dccd0f10750001d70a1c,77,1,2024-02-27T11:17:02.277Z,english_318.wav,0,peel,137,40,3,5,français,m,1,0.1,-52.58874178,0.6224104
5bc8dccd0f10750001d70a1c,77,1,2024-02-27T11:17:02.277Z,english_318.wav,0,peel,137,40,3,5,français,m,2,0.2,46.7653316,0.05328619
5bc8dccd0f10750001d70a1c,77,1,2024-02-27T11:17:02.277Z,english_318.wav,0,peel,137,40,3,5,français,m,3,0.3,-41.44559589,0.01138238
5bc8dccd0f10750001d70a1c,77,1,2024-02-27T11:17:02.277Z,english_318.wav,0,peel,137,40,3,5,français,m,4,0.32341667,-2.50443948,1.16020285
5bc8dccd0f10750001d70a1c,78,1,2024-02-27T11:17:02.277Z,english_39.wav,0,pill,11,40,3,5,français,m,0,0.0,28.0167149,1.3269735
5bc8dccd0f10750001d70a1c,78,1,2024-02-27T11:17:02.277Z,english_39.wav,0,pill,11,40,3,5,français,m,1,0.1,0.73047565,0.59121622
5bc8dccd0f10750001d70a1c,78,1,2024-02-27T11:17:02.277Z,english_39.wav,0,pill,11,40,3,5,français,m,2,0.2,-55.83763262,0.32613901
5bc8dccd0f10750001d70a1c,78,1,2024-02-27T11:17:02.277Z,english_39.wav,0,pill,11,40,3,5,français,m,3,0.3,-59.78026112,1.39661139
5bc8dccd0f10750001d70a1c,78,1,2024-02-27T11:17:02.277Z,english_39.wav,0,pill,11,40,3,5,français,m,4,0.32341667,81.1603589,0.76065887
5bc8dccd0f10750001d70a1c,79,1,2024-02-27T11:17:02.277Z,english_366.wav,0,pill,213,40,3,5,français,m,0,0.0,30.08929792,0.87054072
5bc8dccd0f10750001d70a1c,79,1,2024-02-27T11:17:02.277Z,english_366.wav,0,pill,213,40,3,5,français,m,1,0.1,-17.9139155,0.34658018
5bc8dccd0f10750001d70a1c,79,1,2024-02-27T11:17:02.277Z,english_366.wav,0,pill,213,40,3,5,français,m,2,0.2,-66.75779592,0.49970414
5bc8dccd0f10750001d70a1c,79,1,2024-02-27T11:17:02.277Z,english_366.wav,0,pill,213,40,3,5,français,m,3,0.3,77.64459909,1.94720887
5bc8dccd0f10750001d70a1c,79,1,2024-02-27T11:17:02.277Z,english_366.wav,0,pill,213,40,3,5,français,m,4,0.32341667,72.64294537,1.76390144
5bc8dccd0f10750001d70a1c,80,1,2024-02-27T11:17:02.277Z,english_64.wav,0,pill,46,40,3,5,français,m,0,0.0,-77.75081389,0.01503168
5bc8dccd0f10750001d70a1c,80,1,2024-02-27T11:17:02.277Z,english_64.wav,0,pill,46,40,3,5,français,m,1,0.1,47.79712302,0.51971923
5bc8dccd0f10750001d70a1c,80,1,2024-02-27T11:17:02.277Z,english_64.wav,0,pill,46,40,3,5,français,m,2,0.2,-98.04646937,1.01128345
5bc8dccd0f10750001d70a1c,80,1,2024-02-27T11:17:02.277Z,english_64.wav,0,pill,46,40,3,5,français,m,3,0.3,-20.17707595,0.69563875
5bc8dccd0f10750001d70a1c,80,1,2024-02-27T11:17:02.277Z,english_64.wav,0,pill,46,40,3,5,français,m,4,0.32341667,53.05828969,1.51814807
5bc8dccd0f10750001d70a1c,81,1,2024-02-27T11:17:02.277Z,english_988.wav,0,peel,62,40,3,5,français,m,0,0.0,23.53561789,0.18772999
5bc8dccd0f10750001d70a1c,81,1,2024-02-27T11:17:02.277Z,english_988.wav,0,peel,62,40,3,5,français,m,1,0.1,39.09545525,0.71537172
5bc8dccd0f10750001d70a1c,81,1,2024-02-27T11:17:02.277Z,english_988.wav,0,peel,62,40,3,5,français,m,2,0.2,-32.2225044,0.50944864
5bc8dccd0f10750001d70a1c,81,1,2024-02-27T11:17:02.277Z,english_988.wav,0,peel,62,40,3,5,français,m,3,0.3,5.54449519,0.59930705
5bc8dccd0f10750001d70a1c,81,1,2024-02-27T11:17:02.277Z,english_988.wav,0,peel,62,40,3,5,français,m,4,0.32341667,-94.58480047,1.43881296
5bc8dccd0f10750001d70a1c,82,1,2024-02-27T11:17:02.277Z,english_849.wav,0,pill,94,40,3,5,français,m,0,0.0,-24.45439181,1.62147024
5bc8dccd0f10750001d70a1c,82,1,2024-02-27T11:17:02.277Z,english_849.wav,0,pill,94,40,3,5,français,m,1,0.1,-64.97605389,1.28655358
5bc8dccd0f10750001d70a1c,82,1,2024-02-27T11:17:02.277Z,english_849.wav,0,pill,94,40,3,5,français,m,2,0.2,-67.78874915,0.154454
5bc8dccd0f10750001d70a1c,82,1,2024-02-27T11:17:02.277Z,english_849.wav,0,pill,94,40,3,5,français,m,3,0.3,-6.53184928,1.49227138
5bc8dccd0f10750001d70a1c,82,1,2024-02-27T11:17:02.277Z,english_849.wav,0,pill,94,40,3,5,français,m,4,0.32341667,59.1884023,1.08662162
5bc8dccd0f10750001d70a1c,83,1,2024-02-27T11:17:02.277Z,english_330.wav,0,peel,146,40,3,5,français,m,0,0.0,-66.0623823,1.84658225
5bc8dccd0f10750001d70a1c,83,1,2024-02-27T11:17:02.277Z,english_330.wav,0,peel,146,40,3,5,français,m,1,0.1,-90.7862333,0.94726644
5bc8dccd0f10750001d70a1c,83,1,2024-02-27T11:17:02.277Z,english_330.wav,0,peel,146,40,3,5,français,m,2,0.2,-0.00810713819,1.52006519
5bc8dccd0f10750001d70a1c,83,1,2024-02-27T11:17:02.277Z,english_330.wav,0,peel,146,40,3,5,français,m,3,0.3,-61.2450651,1.63286843
5bc8dccd0f10750001d70a1c,83,1,2024-02-27T11:17:02.277Z,english_330.wav,0,peel,146,40,3,5,français,m,4,0.323416667,-0.344586516,1.74173618
5bc8dccd0f10750001d70a1c,84,1,2024-02-27T11:17:02.277Z,english_806.wav,0,peel,85,40,3,5,français,m,0,0.0,17.38837614,1.03842349
5bc8dccd0f10750001d70a1c,84,1,2024-02-27T11:17:02.277Z,english_806.wav,0,peel,85,40,3,5,français,m,1,0.1,50.31160736,1.08461549
5bc8dccd0f10750001d70a1c,84,1,2024-02-27T11:17:02.277Z,english_806.wav,0,peel,85,40,3,5,français,m,2,0.2,74.21499327,1.8436814
5bc8dccd0f10750001d70a1c,84,1,2024-02-27T11:17:02.277Z,english_806.wav,0,peel,85,40,3,5,français,m,3,0.3,16.647622,1.85846725
5bc8dccd0f10750001d70a1c,84,1,2024-02-27T11:17:02.277Z,english_806.wav,0,peel,85,40,3,5,français,m,4,0.32341667,27.12519974,1.15820289
5bc8dccd0f10750001d70a1c,85,1,2024-02-27T11:17:02.277Z,english_888.wav,0,pill,72,40,3,5,français,m,0,0.0,-75.11317729,0.15619421
5bc8dccd0f10750001d70a1c,85,1,2024-02-27T11:17:02.277Z,english_888.wav,0,pill,72,40,3,5,français,m,1,0.1,-15.41916561,1.45351631
5bc8dccd0f10750001d70a1c,85,1,2024-02-27T11:17:02.277Z,english_888.wav,0,pill,72,40,3,5,français,m,2,0.2,30.82770832,1.60154734
5bc8dccd0f10750001d70a1c,85,1,2024-02-27T11:17:02.277Z,english_888.wav,0,pill,72,40,3,5,français,m,3,0.3,69.72581111,1.09787436
5bc8dccd0f10750001d70a1c,85,1,2024-02-27T11:17:02.277Z,english_888.wav,0,pill,72,40,3,5,français,m,4,0.32341667,-21.6620698,1.3760261
5bc8dccd0f10750001d70a1c,86,1,2024-02-27T11:17:02.277Z,english_733.wav,0,pill,95,40,3,5,français,m,0,0.0,-77.09135463,1.21028291
5bc8dccd0f10750001d70a1c,86,1,2024-02-27T11:17:02.277Z,english_733.wav,0,pill,95,40,3,5,français,m,1,0.1,-30.68901019,1.14931675
5bc8dccd0f10750001d70a1c,86,1,2024-02-27T11:17:02.277Z,english_733.wav,0,pill,95,40,3,5,français,m,2,0.2,-27.18135709,1.68866455
5bc8dccd0f10750001d70a1c,86,1,2024-02-27T11:17:02.277Z,english_733.wav,0,pill,95,40,3,5,français,m,3,0.3,-10.74804936,0.29390693
5bc8dccd0f10750001d70a1c,86,1,2024-02-27T11:17:02.277Z,english_733.wav,0,pill,95,40,3,5,français,m,4,0.32341667,-57.14773718,0.43305962
5bc8dccd0f10750001d70a1c,87,1,2024-02-27T11:17:02.277Z,english_987.wav,0,peel,141,40,3,5,français,m,0,0.0,91.33137772,1.82656395
5bc8dccd0f10750001d70a1c,87,1,2024-02-27T11:17:02.277Z,english_987.wav,0,peel,141,40,3,5,français,m,1,0.1,-39.20299527,1.12122948
5bc8dccd0f10750001d70a1c,87,1,2024-02-27T11:17:02.277Z,english_987.wav,0,peel,141,40,3,5,français,m,2,0.2,78.9852337,1.12025045
5bc8dccd0f10750001d70a1c,87,1,2024-02-27T11:17:02.277Z,english_987.wav,0,peel,141,40,3,5,français,m,3,0.3,-94.66209845,1.02557261
5bc8dccd0f10750001d70a1c,87,1,2024-02-27T11:17:02.277Z,english_987.wav,0,peel,141,40,3,5,français,m,4,0.32341667,-71.76730894,1.06580695
5bc8dccd0f10750001d70a1c,88,1,2024-02-27T11:17:02.277Z,english_213.wav,0,peel,238,40,3,5,français,m,0,0.0,-29.91874444,1.42031243
5bc8dccd0f10750001d70a1c,88,1,2024-02-27T11:17:02.277Z,english_213.wav,0,peel,238,40,3,5,français,m,1,0.1,41.64704809,0.59218852
5bc8dccd0f10750001d70a1c,88,1,2024-02-27T11:17:02.277Z,english_213.wav,0,peel,238,40,3,5,français,m,2,0.2,-87.11075848,1.10576613
5bc8dccd0f10750001d70a1c,88,1,2024-02-27T11:17:02.277Z,english_213.wav,0,peel,238,40,3,5,français,m,3,0.3,-61.54877495,0.09529021
5bc8dccd0f10750001d70a1c,88,1,2024-02-27T11:17:02.277Z,english_213.wav,0,peel,238,40,3,5,français,m,4,0.32341667,-34.29429643,1.15583312
5bc8dccd0f10750001d70a1c,89,1,2024-02-27T11:17:02.277Z,english_340.wav,0,pill,33,40,3,5,français,m,0,0.0,42.62794877,1.44385011
5bc8dccd0f10750001d70a1c,89,1,2024-02-27T11:17:02.277Z,english_340.wav,0,pill,33,40,3,5,français,m,1,0.1,67.09042835,1.29329602
5bc8dccd0f10750001d70a1c,89,1,2024-02-27T11:17:02.277Z,english_340.wav,0,pill,33,40,3,5,français,m,2,0.2,-80.28719593,1.71068781
5bc8dccd0f10750001d70a1c,89,1,2024-02-27T11:17:02.277Z,english_340.wav,0,pill,33,40,3,5,français,m,3,0.3,-47.97556268,0.48872717
5bc8dccd0f10750001d70a1c,89,1,2024-02-27T11:17:02.277Z,english_340.wav,0,pill,33,40,3,5,français,m,4,0.32341667,32.7013797,1.09000269
5bc8dccd0f10750001d70a1c,90,1,2024-02-27T11:17:02.277Z,english_734.wav,0,peel,85,40,3,5,français,m,0,0.0,23.12527103,1.15728247
5bc8dccd0f10750001d70a1c,90,1,2024-02-27T11:17:02.277Z,english_734.wav,0,peel,85,40,3,5,français,m,1,0.1,70.97885261,1.10975856
5bc8dccd0f10750001d70a1c,90,1,2024-02-27T11:17:02.277Z,english_734.wav,0,peel,85,40,3,5,français,m,2,0.2,-68.62860591,0.41126476
5bc8dccd0f10750001d70a1c,90,1,2024-02-27T11:17:02.277Z,english_734.wav,0,peel,85,40,3,5,français,m,3,0.3,-14.81239301,1.45213782
5bc8dccd0f10750001d70a1c,90,1,2024-02-27T11:17:02.277Z,english_734.wav,0,peel,85,40,3,5,français,m,4,0.32341667,-74.40513958,1.98917216
5bc8dccd0f10750001d70a1c,91,1,2024-02-27T11:17:02.277Z,english_202.wav,0,peel,147,40,3,5,français,m,0,0.0,-30.7410802,1.48506999
5bc8dccd0f10750001d70a1c,91,1,2024-02-27T11:17:02.277Z,english_202.wav,0,peel,147,40,3,5,français,m,1,0.1,-19.68361402,1.61937363
5bc8dccd0f10750001d70a1c,91,1,2024-02-27T11:17:02.277Z,english_202.wav,0,peel,147,40,3,5,français,m,2,0.2,-9.93463647,0.73964021
5bc8dccd0f10750001d70a1c,91,1,2024-02-27T11:17:02.277Z,english_202.wav,0,peel,147,40,3,5,français,m,3,0.3,-7.1971022,1.93955383
5bc8dccd0f10750001d70a1c,91,1,2024-02-27T11:17:02.277Z,english_202.wav,0,peel,147,40,3,5,français,m,4,0.32341667,-23.97797133,1.43199581
5bc8dccd0f10750001d70a1c,92,1,2024-02-27T11:17:02.277Z,english_85.wav,0,pill,71,40,3,5,français,m,0,0.0,69.91092253,1.07696769
5bc8dccd0f10750001d70a1c,92,1,2024-02-27T11:17:02.277Z,english_85.wav,0,pill,71,40,3,5,français,m,1,0.1,90.04885235,1.65675227
5bc8dccd0f10750001d70a1c,92,1,2024-02-27T11:17:02.277Z,english_85.wav,0,pill,71,40,3,5,français,m,2,0.2,-54.471964,1.18566865
5bc8dccd0f10750001d70a1c,92,1,2024-02-27T11:17:02.277Z,english_85.wav,0,pill,71,40,3,5,français,m,3,0.3,-32.42862041,0.43131811
5bc8dccd0f10750001d70a1c,92,1,2024-02-27T11:17:02.277Z,english_85.wav,0,pill,71,40,3,5,français,m,4,0.32341667,-26.25094384,1.88641509
5bc8dccd0f10750001d70a1c,93,1,2024-02-27T11:17:02.277Z,english_510.wav,0,pill,673,40,3,5,français,m,0,0.0,-39.77235695,0.97080384
5bc8dccd0f10750001d70a1c,93,1,2024-02-27T11:17:02.277Z,english_510.wav,0,pill,673,40,3,5,français,m,1,0.1,-55.9025784,0.1022914
5bc8dccd0f10750001d70a1c,93,1,2024-02-27T11:17:02.277Z,english_510.wav,0,pill,673,40,3,5,français,m,2,0.2,42.12378864,1.56878682
5bc8dccd0f10750001d70a1c,93,1,2024-02-27T11:17:02.277Z,english_510.wav,0,pill,673,40,3,5,français,m,3,0.3,-5.9333084,1.19302163
5bc8dccd0f10750001d70a1c,93,1,2024-02-27T11:17:02.277Z,english_510.wav,0,pill,673,40,3,5,français,m,4,0.32341667,84.8199861,1.45606517
5bc8dccd0f10750001d70a1c,94,1,2024-02-27T11:17:02.277Z,english_550.wav,0,pill,149,40,3,5,français,m,0,0.0,19.46608022,0.78600887
5bc8dccd0f10750001d70a1c,94,1,2024-02-27T11:17:02.277Z,english_550.wav,0,pill,149,40,3,5,français,m,1,0.1,-94.3556307,1.03273328
5bc8dccd0f10750001d70a1c,94,1,2024-02-27T11:17:02.277Z,english_550.wav,0,pill,149,40,3,5,français,m,2,0.2,-80.90695222,0.36941932
5bc8dccd0f10750001d70a1c,94,1,2024-02-27T11:17:02.277Z,english_550.wav,0,pill,149,40,3,5,français,m,3,0.3,-65.36230075,0.47038634
5bc8dccd0f10750001d70a1c,94,1,2024-02-27T11:17:02.277Z,english_550.wav,0,pill,149,40,3,5,français,m,4,0.32341667,-18.45722395,0.11798167
5bc8dccd0f10750001d70a1c,95,1,2024-02-27T11:17:02.277Z,english_727.wav,0,peel,15,40,3,5,français,m,0,0.0,86.20347479,1.33530257
5bc8dccd0f10750001d70a1c,95,1,2024-02-27T11:17:02.277Z,english_727.wav,0,peel,15,40,3,5,français,m,1,0.1,12.26210304,1.85547333
5bc8dccd0f10750001d70a1c,95,1,2024-02-27T11:17:02.277Z,english_727.wav,0,peel,15,40,3,5,français,m,2,0.2,5.59218777,1.19683436
5bc8dccd0f10750001d70a1c,95,1,2024-02-27T11:17:02.277Z,english_727.wav,0,peel,15,40,3,5,français,m,3,0.3,-46.39280156,1.89207751
5bc8dccd0f10750001d70a1c,95,1,2024-02-27T11:17:02.277Z,english_727.wav,0,peel,15,40,3,5,français,m,4,0.32341667,21.79775503,1.05019022
5bc8dccd0f10750001d70a1c,96,1,2024-02-27T11:17:02.277Z,english_221.wav,0,pill,21,40,3,5,français,m,0,0.0,85.84184869,1.38100565
5bc8dccd0f10750001d70a1c,96,1,2024-02-27T11:17:02.277Z,english_221.wav,0,pill,21,40,3,5,français,m,1,0.1,-20.37513589,0.79531516
5bc8dccd0f10750001d70a1c,96,1,2024-02-27T11:17:02.277Z,english_221.wav,0,pill,21,40,3,5,français,m,2,0.2,-89.75984637,0.9538446
5bc8dccd0f10750001d70a1c,96,1,2024-02-27T11:17:02.277Z,english_221.wav,0,pill,21,40,3,5,français,m,3,0.3,50.66879934,1.56492426
5bc8dccd0f10750001d70a1c,96,1,2024-02-27T11:17:02.277Z,english_221.wav,0,pill,21,40,3,5,français,m,4,0.32341667,20.92538743,1.60855456
5bc8dccd0f10750001d70a1c,97,1,2024-02-27T11:17:02.277Z,english_574.wav,0,peel,185,40,3,5,français,m,0,0.0,53.128433,0.28349694
5bc8dccd0f10750001d70a1c,97,1,2024-02-27T11:17:02.277Z,english_574.wav,0,peel,185,40,3,5,français,m,1,0.1,70.24248151,0.66519348
5bc8dccd0f10750001d70a1c,97,1,2024-02-27T11:17:02.277Z,english_574.wav,0,peel,185,40,3,5,français,m,2,0.2,47.13290739,1.25768036
5bc8dccd0f10750001d70a1c,97,1,2024-02-27T11:17:02.277Z,english_574.wav,0,peel,185,40,3,5,français,m,3,0.3,52.31480293,1.43482954
5bc8dccd0f10750001d70a1c,97,1,2024-02-27T11:17:02.277Z,english_574.wav,0,peel,185,40,3,5,français,m,4,0.32341667,-33.06438127,1.23350688
5bc8dccd0f10750001d70a1c,98,1,2024-02-27T11:17:02.277Z,english_333.wav,0,pill,18,40,3,5,français,m,0,0.0,61.26933292,0.50090252
5bc8dccd0f10750001d70a1c,98,1,2024-02-27T11:17:02.277Z,english_333.wav,0,pill,18,40,3,5,français,m,1,0.1,38.65533839,1.61630161
5bc8dccd0f10750001d70a1c,98,1,2024-02-27T11:17:02.277Z,english_333.wav,0,pill,18,40,3,5,français,m,2,0.2,-27.91605269,1.73322278
5bc8dccd0f10750001d70a1c,98,1,2024-02-27T11:17:02.277Z,english_333.wav,0,pill,18,40,3,5,français,m,3,0.3,36.00101096,0.67742762
5bc8dccd0f10750001d70a1c,98,1,2024-02-27T11:17:02.277Z,english_333.wav,0,pill,18,40,3,5,français,m,4,0.32341667,-78.35943708,0.46993908
5bc8dccd0f10750001d70a1c,99,1,2024-02-27T11:17:02.277Z,english_956.wav,0,peel,107,40,3,5,français,m,0,0.0,-98.71257913,1.5828524
5bc8dccd0f10750001d70a1c,99,1,2024-02-27T11:17:02.277Z,english_956.wav,0,peel,107,40,3,5,français,m,1,0.1,-36.05702295,0.66985857
5bc8dccd0f10750001d70a1c,99,1,2024-02-27T11:17:02.277Z,english_956.wav,0,peel,107,40,3,5,français,m,2,0.2,-31.95582623,0.13798036
5bc8dccd0f10750001d70a1c,99,1,2024-02-27T11:17:02.277Z,english_956.wav,0,peel,107,40,3,5,français,m,3,0.3,-81.31295359,0.22663358
5bc8dccd0f10750001d70a1c,99,1,2024-02-27T11:17:02.277Z,english_956.wav,0,peel,107,40,3,5,français,m,4,0.32341667,45.09425789,0.54862974
5bc8dccd0f10750001d70a1c,100,2,2024-02-27T11:17:02.277Z,english_378.wav,0,peel,67,40,3,5,français,m,0,0.0,13.37832971,0.65677047
5bc8dccd0f10750001d70a1c,100,2,2024-02-27T11:17:02.277Z,english_378.wav,0,peel,67,40,3,5,français,m,1,0.1,17.37931074,1.74134092
5bc8dccd0f10750001d70a1c,100,2,2024-02-27T11:17:02.277Z,english_378.wav,0,peel,67,40,3,5,français,m,2,0.2,10.9554113,0.67897054
5bc8dccd0f10750001d70a1c,100,2,2024-02-27T11:17:02.277Z,english_378.wav,0,peel,67,40,3,5,français,m,3,0.3,-24.86891171,1.20159635
5bc8dccd0f10750001d70a1c,100,2,2024-02-27T11:17:02.277Z,english_378.wav,0,peel,67,40,3,5,français,m,4,0.32341667,7.89965194,0.27053006
5bc8dccd0f10750001d70a1c,101,2,2024-02-27T11:17:02.277Z,english_968.wav,0,pill,107,40,3,5,français,m,0,0.0,-36.76350372,0.52322451
5bc8dccd0f10750001d70a1c,101,2,2024-02-27T11:17:02.277Z,english_968.wav,0,pill,107,40,3,5,français,m,1,0.1,-99.8991193,0.66419732
5bc8dccd0f10750001d70a1c,101,2,2024-02-27T11:17:02.277Z,english_968.wav,0,pill,107,40,3,5,français,m,2,0.2,27.503089,0.44232096
5bc8dccd0f10750001d70a1c,101,2,2024-02-27T11:17:02.277Z,english_968.wav,0,pill,107,40,3,5,français,m,3,0.3,-34.85106147,1.90778707
5bc8dccd0f10750001d70a1c,101,2,2024-02-27T11:17:02.277Z,english_968.wav,0,pill,107,40,3,5,français,m,4,0.32341667,68.2869663,0.59652698
5bc8dccd0f10750001d70a1c,102,2,2024-02-27T11:17:02.277Z,english_708.wav,0,pill,15,40,3,5,français,m,0,0.0,-27.19248895,0.74061838
5bc8dccd0f10750001d70a1c,102,2,2024-02-27T11:17:02.277Z,english_708.wav,0,pill,15,40,3,5,français,m,1,0.1,84.25795725,1.13599963
5bc8dccd0f10750001d70a1c,102,2,2024-02-27T11:17:02.277Z,english_708.wav,0,pill,15,40,3,5,français,m,2,0.2,-19.19551503,1.10086254
5bc8dccd0f10750001d70a1c,102,2,2024-02-27T11:17:02.277Z,english_708.wav,0,pill,15,40,3,5,français,m,3,0.3,29.88012033,0.53054382
5bc8dccd0f10750001d70a1c,102,2,2024-02-27T11:17:02.277Z,english_708.wav,0,pill,15,40,3,5,français,m,4,0.32341667,46.0858662,1.51974387
5bc8dccd0f10750001d70a1c,103,2,2024-02-27T11:17:02.277Z,english_259.wav,0,pill,10,40,3,5,français,m,0,0.0,7.90187791,1.3064553
5bc8dccd0f10750001d70a1c,103,2,2024-02-27T11:17:02.277Z,english_259.wav,0,pill,10,40,3,5,français,m,1,0.1,31.67295647,1.01100372
5bc8dccd0f10750001d70a1c,103,2,2024-02-27T11:17:02.277Z,english_259.wav,0,pill,10,40,3,5,français,m,2,0.2,-53.65780041,0.35520266
5bc8dccd0f10750001d70a1c,103,2,2024-02-27T11:17:02.277Z,english_259.wav,0,pill,10,40,3,5,français,m,3,0.3,-72.94929757,1.35187683
5bc8dccd0f10750001d70a1c,103,2,2024-02-27T11:17:02.277Z,english_259.wav,0,pill,10,40,3,5,français,m,4,0.32341667,58.35152721,1.39599087
5bc8dccd0f10750001d70a1c,104,2,2024-02-27T11:17:02.277Z,english_215.wav,0,peel,133,40,3,5,français,m,0,0.0,-93.71362427,1.31176069
5bc8dccd0f10750001d70a1c,104,2,2024-02-27T11:17:02.277Z,english_215.wav,0,peel,133,40,3,5,français,m,1,0.1,20.4696733,1.25536714
5bc8dccd0f10750001d70a1c,104,2,2024-02-27T11:17:02.277Z,english_215.wav,0,peel,133,40,3,5,français,m,2,0.2,-66.57352715,1.5696385
5bc8dccd0f10750001d70a1c,104,2,2024-02-27T11:17:02.277Z,english_215.wav,0,peel,133,40,3,5,français,m,3,0.3,-0.6079782,0.03144419
5bc8dccd0f10750001d70a1c,104,2,2024-02-27T11:17:02.277Z,english_215.wav,0,peel,133,40,3,5,français,m,4,0.32341667,-5.73921948,0.79048669
5bc8dccd0f10750001d70a1c,105,2,2024-02-27T11:17:02.277Z,english_996.wav,0,pill,43,40,3,5,français,m,0,0.0,-71.70531914,1.36459419
5bc8dccd0f10750001d70a1c,105,2,2024-02-27T11:17:02.277Z,english_996.wav,0,pill,43,40,3,5,français,m,1,0.1,-47.61419544,0.5051745
5bc8dccd0f10750001d70a1c,105,2,2024-02-27T11:17:02.277Z,english_996.wav,0,pill,43,40,3,5,français,m,2,0.2,48.0330823,1.09957376
5bc8dccd0f10750001d70a1c,105,2,2024-02-27T11:17:02.277Z,english_996.wav,0,pill,43,40,3,5,français,m,3,0.3,34.27821317,0.27950682
5bc8dccd0f10750001d70a1c,105,2,2024-02-27T11:17:02.277Z,english_996.wav,0,pill,43,40,3,5,français,m,4,0.32341667,-72.4662587,0.22836241
5bc8dccd0f10750001d70a1c,106,2,2024-02-27T11:17:02.277Z,english_688.wav,0,peel,137,40,3,5,français,m,0,0.0,-45.64286614,1.06356906
5bc8dccd0f10750001d70a1c,106,2,2024-02-27T11:17:02.277Z,english_688.wav,0,peel,137,40,3,5,français,m,1,0.1,39.73956276,0.85197809
5bc8dccd0f10750001d70a1c,106,2,2024-02-27T11:17:02.277Z,english_688.wav,0,peel,137,40,3,5,français,m,2,0.2,40.53719602,0.68718846
5bc8dccd0f10750001d70a1c,106,2,2024-02-27T11:17:02.277Z,english_688.wav,0,peel,137,40,3,5,français,m,3,0.3,-71.29470492,1.67995478
5bc8dccd0f10750001d70a1c,106,2,2024-02-27T11:17:02.277Z,english_688.wav,0,peel,137,40,3,5,français,m,4,0.32341667,73.7490074,1.45979079
5bc8dccd0f10750001d70a1c,107,2,2024-02-27T11:17:02.277Z,english_311.wav,0,peel,27,40,3,5,français,m,0,0.0,-35.59355899,0.16094856
5bc8dccd0f10750001d70a1c,107,2,2024-02-27T11:17:02.277Z,english_311.wav,0,peel,27,40,3,5,français,m,1,0.1,-50.39310557,1.33895436
5bc8dccd0f10750001d70a1c,107,2,2024-02-27T11:17:02.277Z,english_311.wav,0,peel,27,40,3,5,français,m,2,0.2,-53.37222601,0.01028283
5bc8dccd0f10750001d70a1c,107,2,2024-02-27T11:17:02.277Z,english_311.wav,0,peel,27,40,3,5,français,m,3,0.3,72.25802658,0.48497386
5bc8dccd0f10750001d70a1c,107,2,2024-02-27T11:17:02.277Z,english_311.wav,0,peel,27,40,3,5,français,m,4,0.32341667,48.72421008,0.48591183
5bc8dccd0f10750001d70a1c,108,2,2024-02-27T11:17:02.277Z,english_484.wav,0,pill,21,40,3,5,français,m,0,0.0,79.97188672,0.20745104
5bc8dccd0f10750001d70a1c,108,2,2024-02-27T11:17:02.277Z,english_484.wav,0,pill,21,40,3,5,français,m,1,0.1,-84.58904822,1.46214797
5bc8dccd0f10750001d70a1c,108,2,2024-02-27T11:17:02.277Z,english_484.wav,0,pill,21,40,3,5,français,m,2,0.2,70.2960477,0.40821612
5bc8dccd0f10750001d70a1c,108,2,2024-02-27T11:17:02.277Z,english_484.wav,0,pill,21,40,3,5,français,m,3,0.3,-66.44520929,1.23203415
5bc8dccd0f10750001d70a1c,108,2,2024-02-27T11:17:02.277Z,english_484.wav,0,pill,21,40,3,5,français,m,4,0.32341667,-78.91715359,1.26593617
5bc8dccd0f10750001d70a1c,109,2,2024-02-27T11:17:02.277Z,english_426.wav,0,pill,24,40,3,5,français,m,0,0.0,84.66887763,0.58495982
5bc8dccd0f10750001d70a1c,109,2,2024-02-27T11:17:02.277Z,english_426.wav,0,pill,24,40,3,5,français,m,1,0.1,6.08176803,0.31710055
5bc8dccd0f10750001d70a1c,109,2,2024-02-27T11:17:02.277Z,english_426.wav,0,pill,24,40,3,5,français,m,2,0.2,90.82211143,1.7123379
5bc8dccd0f10750001d70a1c,109,2,2024-02-27T11:17:02.277Z,english_426.wav,0,pill,24,40,3,5,français,m,3,0.3,42.04787562,1.38911617
5bc8dccd0f10750001d70a1c,109,2,2024-02-27T11:17:02.277Z,english_426.wav,0,pill,24,40,3,5,français,m,4,0.32341667,-40.19306584,1.84862951
5bc8dccd0f10750001d70a1c,110,2,2024-02-27T11:17:02.277Z,english_194.wav,0,pill,2,40,3,5,français,m,0,0.0,46.99725025,0.38230397
5bc8dccd0f10750001d70a1c,110,2,2024-02-27T11:17:02.277Z,english_194.wav,0,pill,2,40,3,5,français,m,1,0.1,-37.20381284,1.33246395
5bc8dccd0f10750001d70a1c,110,2,2024-02-27T11:17:02.277Z,english_194.wav,0,pill,2,40,3,5,français,m,2,0.2,13.86947558,1.31276464
5bc8dccd0f10750001d70a1c,110,2,2024-02-27T11:17:02.277Z,english_194.wav,0,pill,2,40,3,5,français,m,3,0.3,79.77232086,0.22397005
5bc8dccd0f10750001d70a1c,110,2,2024-02-27T11:17:02.277Z,english_194.wav,0,pill,2,40,3,5,français,m,4,0.32341667,49.46244041,1.74931967
5bc8dccd0f10750001d70a1c,111,2,2024-02-27T11:17:02.277Z,english_304.wav,0,peel,128,40,3,5,français,m,0,0.0,-80.7192326,0.54130022
5bc8dccd0f10750001d70a1c,111,2,2024-02-27T11:17:02.277Z,english_304.wav,0,peel,128,40,3,5,français,m,1,0.1,34.14230443,0.20766845
5bc8dccd0f10750001d70a1c,111,2,2024-02-27T11:17:02.277Z,english_304.wav,0,peel,128,40,3,5,français,m,2,0.2,-43.78548789,1.25157904
5bc8dccd0f10750001d70a1c,111,2,2024-02-27T11:17:02.277Z,english_304.wav,0,peel,128,40,3,5,français,m,3,0.3,85.79520644,0.76195837
5bc8dccd0f10750001d70a1c,111,2,2024-02-27T11:17:02.277Z,english_304.wav,0,peel,128,40,3,5,français,m,4,0.32341667,-29.32737886,0.20991234
5bc8dccd0f10750001d70a1c,112,2,2024-02-27T11:17:02.277Z,english_70.wav,0,pill,57,40,3,5,français,m,0,0.0,-53.09237622,1.21678364
5bc8dccd0f10750001d70a1c,112,2,2024-02-27T11:17:02.277Z,english_70.wav,0,pill,57,40,3,5,français,m,1,0.1,85.97526897,0.94111324
5bc8dccd0f10750001d70a1c,112,2,2024-02-27T11:17:02.277Z,english_70.wav,0,pill,57,40,3,5,français,m,2,0.2,25.5645184,1.03926055
5bc8dccd0f10750001d70a1c,112,2,2024-02-27T11:17:02.277Z,english_70.wav,0,pill,57,40,3,5,français,m,3,0.3,1.25172137,0.29519406
5bc8dccd0f10750001d70a1c,112,2,2024-02-27T11:17:02.277Z,english_70.wav,0,pill,57,40,3,5,français,m,4,0.32341667,93.59431896,0.80175783
5bc8dccd0f10750001d70a1c,113,2,2024-02-27T11:17:02.277Z,english_342.wav,0,peel,258,40,3,5,français,m,0,0.0,78.00911228,0.99673345
5bc8dccd0f10750001d70a1c,113,2,2024-02-27T11:17:02.277Z,english_342.wav,0,peel,258,40,3,5,français,m,1,0.1,-28.67768894,1.80563483
5bc8dccd0f10750001d70a1c,113,2,2024-02-27T11:17:02.277Z,english_342.wav,0,peel,258,40,3,5,français,m,2,0.2,73.55618202,1.38552336
5bc8dccd0f10750001d70a1c,113,2,2024-02-27T11:17:02.277Z,english_342.wav,0,peel,258,40,3,5,français,m,3,0.3,93.0509223,0.17145116
5bc8dccd0f10750001d70a1c,113,2,2024-02-27T11:17:02.277Z,english_342.wav,0,peel,258,40,3,5,français,m,4,0.32341667,-2.74816459,0.15059009
5bc8dccd0f10750001d70a1c,114,2,2024-02-27T11:17:02.277Z,english_497.wav,0,peel,256,40,3,5,français,m,0,0.0,3.92391523,0.25005623
5bc8dccd0f10750001d70a1c,114,2,2024-02-27T11:17:02.277Z,english_497.wav,0,peel,256,40,3,5,français,m,1,0.1,-39.44421726,1.18920756
5bc8dccd0f10750001d70a1c,114,2,2024-02-27T11:17:02.277Z,english_497.wav,0,peel,256,40,3,5,français,m,2,0.2,-70.21843081,1.75478959
5bc8dccd0f10750001d70a1c,114,2,2024-02-27T11:17:02.277Z,english_497.wav,0,peel,256,40,3,5,français,m,3,0.3,-95.13281119,0.47878412
5bc8dccd0f10750001d70a1c,114,2,2024-02-27T11:17:02.277Z,english_497.wav,0,peel,256,40,3,5,français,m,4,0.32341667,-23.7064256,0.88125504
5bc8dccd0f10750001d70a1c,115,2,2024-02-27T11:17:02.277Z,english_814.wav,0,pill,11,40,3,5,français,m,0,0.0,-63.32480856,1.93717082
5bc8dccd0f10750001d70a1c,115,2,2024-02-27T11:17:02.277Z,english_814.wav,0,pill,11,40,3,5,français,m,1,0.1,34.42157774,0.66627456
5bc8dccd0f10750001d70a1c,115,2,2024-02-27T11:17:02.277Z,english_814.wav,0,pill,11,40,3,5,français,m,2,0.2,-1.27362148,1.33718687
5bc8dccd0f10750001d70a1c,115,2,2024-02-27T11:17:02.277Z,english_814.wav,0,pill,11,40,3,5,français,m,3,0.3,11.18388565,1.12749716
5bc8dccd0f10750001d70a1c,115,2,2024-02-27T11:17:02.277Z,english_814.wav,0,pill,11,40,3,5,français,m,4,0.32341667,-9.56708644,0.66623879
5bc8dccd0f10750001d70a1c,116,2,2024-02-27T11:17:02.277Z,english_252.wav,0,pill,102,40,3,5,français,m,0,0.0,79.75601627,0.77799761
5bc8dccd0f10750001d70a1c,116,2,2024-02-27T11:17:02.277Z,english_252.wav,0,pill,102,40,3,5,français,m,1,0.1,17.00183399,1.07711339
5bc8dccd0f10750001d70a1c,116,2,2024-02-27T11:17:02.277Z,english_252.wav,0,pill,102,40,3,5,français,m,2,0.2,-25.42800597,0.7917181
5bc8dccd0f10750001d70a1c,116,2,2024-02-27T11:17:02.277Z,english_252.wav,0,pill,102,40,3,5,français,m,3,0.3,-47.65138194,1.47632881
5bc8dccd0f10750001d70a1c,116,2,2024-02-27T11:17:02.277Z,english_252.wav,0,pill,102,40,3,5,français,m,4,0.32341667,35.10652067,1.65919103
5bc8dccd0f10750001d70a1c,117,2,2024-02-27T11:17:02.277Z,english_301.wav,0,pill,4,40,3,5,français,m,0,0.0,-78.18927369,1.31935747
5bc8dccd0f10750001d70a1c,117,2,2024-02-27T11:17:02.277Z,english_301.wav,0,pill,4,40,3,5,français,m,1,0.1,-3.52439177,1.41636911
5bc8dccd0f10750001d70a1c,117,2,2024-02-27T11:17:02.277Z,english_301.wav,0,pill,4,40,3,5,français,m,2,0.2,-23.22473782,1.38842862
5bc8dccd0f10750001d70a1c,117,2,2024-02-27T11:17:02.277Z,english_301.wav,0,pill,4,40,3,5,français,m,3,0.3,-11.7220967,1.25169603
5bc8dccd0f10750001d70a1c,117,2,2024-02-27T11:17:02.277Z,english_301.wav,0,pill,4,40,3,5,français,m,4,0.32341667,-5.78047748,1.38740104
5bc8dccd0f10750001d70a1c,118,2,2024-02-27T11:17:02.277Z,english_955.wav,0,pill,77,40,3,5,français,m,0,0.0,-93.58498903,1.26703381
5bc8dccd0f10750001d70a1c,118,2,2024-02-27T11:17:02.277Z,english_955.wav,0,pill,77,40,3,5,français,m,1,0.1,-11.56731864,0.51967441
5bc8dccd0f10750001d70a1c,118,2,2024-02-27T11:17:02.277Z,english_955.wav,0,pill,77,40,3,5,français,m,2,0.2,60.37787928,1.0313906
5bc8dccd0f10750001d70a1c,118,2,2024-02-27T11:17:02.277Z,english_955.wav,0,pill,77,40,3,5,français,m,3,0.3,83.42366765,1.58878747
5bc8dccd0f10750001d70a1c,118,2,2024-02-27T11:17:02.277Z,english_955.wav,0,pill,77,40,3,5,français,m,4,0.32341667,-60.32056418,1.0025339
5bc8dccd0f10750001d70a1c,119,2,2024-02-27T11:17:02.277Z,english_826.wav,0,pill,120,40,3,5,français,m,0,0.0,24.96468068,1.6444456
5bc8dccd0f10750001d70a1c,119,2,2024-02-27T11:17:02.277Z,english_826.wav,0,pill,120,40,3,5,français,m,1,0.1,1.37616969,0.97947611
5bc8dccd0f10750001d70a1c,119,2,2024-02-27T11:17:02.277Z,english_826.wav,0,pill,120,40,3,5,français,m,2,0.2,-71.19975556,0.49097947
5bc8dccd0f10750001d70a1c,119,2,2024-02-27T11:17:02.277Z,english_826.wav,0,pill,120,40,3,5,français,m,3,0.3,-48.49913399,0.98819908
5bc8dccd0f10750001d70a1c,119,2,2024-02-27T11:17:02.277Z,english_826.wav,0,pill,120,40,3,5,français,m,4,0.32341667,40.69153462,1.05842158
5bc8dccd0f10750001d70a1c,120,2,2024-02-27T11:17:02.277Z,english_892.wav,0,peel,7,40,3,5,français,m,0,0.0,38.63128374,0.97893944
5bc8dccd0f10750001d70a1c,120,2,2024-02-27T11:17:02.277Z,english_892.wav,0,peel,7,40,3,5,français,m,1,0.1,22.49899687,0.66551001
5bc8dccd0f10750001d70a1c,120,2,2024-02-27T11:17:02.277Z,english_892.wav,0,peel,7,40,3,5,français,m,2,0.2,28.84135264,0.36795179
5bc8dccd0f10750001d70a1c,120,2,2024-02-27T11:17:02.277Z,english_892.wav,0,peel,7,40,3,5,français,m,3,0.3,81.19740532,1.0840826
5bc8dccd0f10750001d70a1c,120,2,2024-02-27T11:17:02.277Z,english_892.wav,0,peel,7,40,3,5,français,m,4,0.32341667,22.37782167,0.83637256
5bc8dccd0f10750001d70a1c,121,2,2024-02-27T11:17:02.277Z,english_614.wav,0,peel,148,40,3,5,français,m,0,0.0,78.57791509,1.76663636
5bc8dccd0f10750001d70a1c,121,2,2024-02-27T11:17:02.277Z,english_614.wav,0,peel,148,40,3,5,français,m,1,0.1,-6.15631212,0.7337869
5bc8dccd0f10750001d70a1c,121,2,2024-02-27T11:17:02.277Z,english_614.wav,0,peel,148,40,3,5,français,m,2,0.2,-15.34092719,1.62880485
5bc8dccd0f10750001d70a1c,121,2,2024-02-27T11:17:02.277Z,english_614.wav,0,peel,148,40,3,5,français,m,3,0.3,21.91351344,0.61213133
5bc8dccd0f10750001d70a1c,121,2,2024-02-27T11:17:02.277Z,english_614.wav,0,peel,148,40,3,5,français,m,4,0.32341667,-10.50820757,0.41097232
5bc8dccd0f10750001d70a1c,122,2,2024-02-27T11:17:02.277Z,english_568.wav,0,peel,118,40,3,5,français,m,0,0.0,-80.38325009,1.52383372
5bc8dccd0f10750001d70a1c,122,2,2024-02-27T11:17:02.277Z,english_568.wav,0,peel,118,40,3,5,français,m,1,0.1,65.28340143,0.37337456
5bc8dccd0f10750001d70a1c,122,2,2024-02-27T11:17:02.277Z,english_568.wav,0,peel,118,40,3,5,français,m,2,0.2,22.57833022,0.67023469
5bc8dccd0f10750001d70a1c,122,2,2024-02-27T11:17:02.277Z,english_568.wav,0,peel,118,40,3,5,français,m,3,0.3,-55.44872251,1.98652091
5bc8dccd0f10750001d70a1c,122,2,2024-02-27T11:17:02.277Z,english_568.wav,0,peel,118,40,3,5,français,m,4,0.32341667,-94.3142815,1.15861726
5bc8dccd0f10750001d70a1c,123,2,2024-02-27T11:17:02.277Z,english_602.wav,0,peel,181,40,3,5,français,m,0,0.0,-53.18857274,1.95117352
5bc8dccd0f10750001d70a1c,123,2,2024-02-27T11:17:02.277Z,english_602.wav,0,peel,181,40,3,5,français,m,1,0.1,-52.96167371,1.1427253
5bc8dccd0f10750001d70a1c,123,2,2024-02-27T11:17:02.277Z,english_602.wav,0,peel,181,40,3,5,français,m,2,0.2,38.20784676,1.10694813
5bc8dccd0f10750001d70a1c,123,2,2024-02-27T11:17:02.277Z,english_602.wav,0,peel,181,40,3,5,français,m,3,0.3,46.0178344,0.8717932
5bc8dccd0f10750001d70a1c,123,2,2024-02-27T11:17:02.277Z,english_602.wav,0,peel,181,40,3,5,français,m,4,0.32341667,78.11630752,0.71626065
5bc8dccd0f10750001d70a1c,124,2,2024-02-27T11:17:02.277Z,english_840.wav,0,peel,86,40,3,5,français,m,0,0.0,-27.11425843,1.31301797
5bc8dccd0f10750001d70a1c,124,2,2024-02-27T11:17:02.277Z,english_840.wav,0,peel,86,40,3,5,français,m,1,0.1,-47.31494811,0.54280133
5bc8dccd0f10750001d70a1c,124,2,2024-02-27T11:17:02.277Z,english_840.wav,0,peel,86,40,3,5,français,m,2,0.2,-88.66887426,0.14090987
5bc8dccd0f10750001d70a1c,124,2,2024-02-27T11:17:02.277Z,english_840.wav,0,peel,86,40,3,5,français,m,3,0.3,7.86940595,0.11950116
5bc8dccd0f10750001d70a1c,124,2,2024-02-27T11:17:02.277Z,english_840.wav,0,peel,86,40,3,5,français,m,4,0.32341667,87.61758205,1.48166624
5bc8dccd0f10750001d70a1c,125,2,2024-02-27T11:17:02.277Z,english_119.wav,0,pill,119,40,3,5,français,m,0,0.0,-72.13623542,1.33116293
5bc8dccd0f10750001d70a1c,125,2,2024-02-27T11:17:02.277Z,english_119.wav,0,pill,119,40,3,5,français,m,1,0.1,-47.93500709,0.14257244
5bc8dccd0f10750001d70a1c,125,2,2024-02-27T11:17:02.277Z,english_119.wav,0,pill,119,40,3,5,français,m,2,0.2,91.39212861,1.10285667
5bc8dccd0f10750001d70a1c,125,2,2024-02-27T11:17:02.277Z,english_119.wav,0,pill,119,40,3,5,français,m,3,0.3,-4.62561099,0.57572872
5bc8dccd0f10750001d70a1c,125,2,2024-02-27T11:17:02.277Z,english_119.wav,0,pill,119,40,3,5,français,m,4,0.32341667,-33.86599352,1.36512269
5bc8dccd0f10750001d70a1c,126,2,2024-02-27T11:17:02.277Z,english_488.wav,0,peel,90,40,3,5,français,m,0,0.0,7.19120882,0.55609806
5bc8dccd0f10750001d70a1c,126,2,2024-02-27T11:17:02.277Z,english_488.wav,0,peel,90,40,3,5,français,m,1,0.1,11.64873536,1.36121935
5bc8dccd0f10750001d70a1c,126,2,2024-02-27T11:17:02.277Z,english_488.wav,0,peel,90,40,3,5,français,m,2,0.2,59.26032861,0.93872915
5bc8dccd0f10750001d70a1c,126,2,2024-02-27T11:17:02.277Z,english_488.wav,0,peel,90,40,3,5,français,m,3,0.3,-31.0631162,1.52041262
5bc8dccd0f10750001d70a1c,126,2,2024-02-27T11:17:02.277Z,english_488.wav,0,peel,90,40,3,5,français,m,4,0.32341667,23.8619583,1.83140972
5bc8dccd0f10750001d70a1c,127,2,2024-02-27T11:17:02.277Z,english_392.wav,0,peel,81,40,3,5,français,m,0,0.0,-12.90562814,1.13144201
5bc8dccd0f10750001d70a1c,127,2,2024-02-27T11:17:02.277Z,english_392.wav,0,peel,81,40,3,5,français,m,1,0.1,-1.29416779,0.98893381
5bc8dccd0f10750001d70a1c,127,2,2024-02-27T11:17:02.277Z,english_392.wav,0,peel,81,40,3,5,français,m,2,0.2,-53.34155903,0.07204825
5bc8dccd0f10750001d70a1c,127,2,2024-02-27T11:17:02.277Z,english_392.wav,0,peel,81,40,3,5,français,m,3,0.3,-48.65153398,1.52779633
5bc8dccd0f10750001d70a1c,127,2,2024-02-27T11:17:02.277Z,english_392.wav,0,peel,81,40,3,5,français,m,4,0.32341667,-43.47653164,1.32355089
5bc8dccd0f10750001d70a1c,128,2,2024-02-27T11:17:02.277Z,english_365.wav,0,pill,296,40,3,5,français,m,0,0.0,58.11205919,0.53708026
5bc8dccd0f10750001d70a1c,128,2,2024-02-27T11:17:02.277Z,english_365.wav,0,pill,296,40,3,5,français,m,1,0.1,-61.04014877,1.10456153
5bc8dccd0f10750001d70a1c,128,2,2024-02-27T11:17:02.277Z,english_365.wav,0,pill,296,40,3,5,français,m,2,0.2,12.43042802,1.31731937
5bc8dccd0f10750001d70a1c,128,2,2024-02-27T11:17:02.277Z,english_365.wav,0,pill,296,40,3,5,français,m,3,0.3,17.00746388,1.02387946
5bc8dccd0f10750001d70a1c,128,2,2024-02-27T11:17:02.277Z,english_365.wav,0,pill,296,40,3,5,français,m,4,0.32341667,-69.10644956,1.31633463
5bc8dccd0f10750001d70a1c,129,2,2024-02-27T11:17:02.277Z,english_731.wav,0,peel,197,40,3,5,français,m,0,0.0,91.74609406,0.2840719
5bc8dccd0f10750001d70a1c,129,2,2024-02-27T11:17:02.277Z,english_731.wav,0,peel,197,40,3,5,français,m,1,0.1,96.5637085,1.75324284
5bc8dccd0f10750001d70a1c,129,2,2024-02-27T11:17:02.277Z,english_731.wav,0,peel,197,40,3,5,français,m,2,0.2,-58.02596537,1.43086201
5bc8dccd0f10750001d70a1c,129,2,2024-02-27T11:17:02.277Z,english_731.wav,0,peel,197,40,3,5,français,m,3,0.3,21.59328018,1.68336342
5bc8dccd0f10750001d70a1c,129,2,2024-02-27T11:17:02.277Z,english_731.wav,0,peel,197,40,3,5,français,m,4,0.32341667,13.26044458,0.60031718
5bc8dccd0f10750001d70a1c,130,2,2024-02-27T11:17:02.277Z,english_823.wav,0,peel,73,40,3,5,français,m,0,0.0,24.6891334,1.19409205
5bc8dccd0f10750001d70a1c,130,2,2024-02-27T11:17:02.277Z,english_823.wav,0,peel,73,40,3,5,français,m,1,0.1,86.03794788,0.72053846
5bc8dccd0f10750001d70a1c,130,2,2024-02-27T11:17:02.277Z,english_823.wav,0,peel,73,40,3,5,français,m,2,0.2,45.97308045,0.2138623
5bc8dccd0f10750001d70a1c,130,2,2024-02-27T11:17:02.277Z,english_823.wav,0,peel,73,40,3,5,français,m,3,0.3,39.11596791,1.56743943
5bc8dccd0f10750001d70a1c,130,2,2024-02-27T11:17:02.277Z,english_823.wav,0,peel,73,40,3,5,français,m,4,0.32341667,10.29734006,1.24065623
5bc8dccd0f10750001d70a1c,131,2,2024-02-27T11:17:02.277Z,english_940.wav,0,peel,124,40,3,5,français,m,0,0.0,47.11462569,0.32214594
5bc8dccd0f10750001d70a1c,131,2,2024-02-27T11:17:02.277Z,english_940.wav,0,peel,124,40,3,5,français,m,1,0.1,11.81885745,0.21999868
5bc8dccd0f10750001d70a1c,131,2,2024-02-27T11:17:02.277Z,english_940.wav,0,peel,124,40,3,5,français,m,2,0.2,-1.49931669,0.34357292
5bc8dccd0f10750001d70a1c,131,2,2024-02-27T11:17:02.277Z,english_940.wav,0,peel,124,40,3,5,français,m,3,0.3,45.92466934,1.61274527
5bc8dccd0f10750001d70a1c,131,2,2024-02-27T11:17:02.277Z,english_940.wav,0,peel,124,40,3,5,français,m,4,0.32341667,-72.78738407,0.9185628
5bc8dccd0f10750001d70a1c,132,2,2024-02-27T11:17:02.277Z,english_626.wav,0,pill,96,40,3,5,français,m,0,0.0,4.25415757,0.7037323
5bc8dccd0f10750001d70a1c,132,2,2024-02-27T11:17:02.277Z,english_626.wav,0,pill,96,40,3,5,français,m,1,0.1,-41.27415217,1.26912647
5bc8dccd0f10750001d70a1c,132,2,2024-02-27T11:17:02.277Z,english_626.wav,0,pill,96,40,3,5,français,m,2,0.2,-74.74598363,0.17760594
5bc8dccd0f10750001d70a1c,132,2,2024-02-27T11:17:02.277Z,english_626.wav,0,pill,96,40,3,5,français,m,3,0.3,-15.94741517,1.12963497
5bc8dccd0f10750001d70a1c,132,2,2024-02-27T11:17:02.277Z,english_626.wav,0,pill,96,40,3,5,français,m,4,0.32341667,43.51897949,0.85087029
5bc8dccd0f10750001d70a1c,133,2,2024-02-27T11:17:02.277Z,english_343.wav,0,peel,70,40,3,5,français,m,0,0.0,-26.15456552,0.99905336
5bc8dccd0f10750001d70a1c,133,2,2024-02-27T11:17:02.277Z,english_343.wav,0,peel,70,40,3,5,français,m,1,0.1,-4.26522308,0.59066439
5bc8dccd0f10750001d70a1c,133,2,2024-02-27T11:17:02.277Z,english_343.wav,0,peel,70,40,3,5,français,m,2,0.2,55.3227334,1.69088488
5bc8dccd0f10750001d70a1c,133,2,2024-02-27T11:17:02.277Z,english_343.wav,0,peel,70,40,3,5,français,m,3,0.3,-26.26518208,1.70645599
5bc8dccd0f10750001d70a1c,133,2,2024-02-27T11:17:02.277Z,english_343.wav,0,peel,70,40,3,5,français,m,4,0.32341667,-18.3065251,0.13143106
5bc8dccd0f10750001d70a1c,134,2,2024-02-27T11:17:02.277Z,english_835.wav,0,pill,115,40,3,5,français,m,0,0.0,-14.38506183,1.1584592
5bc8dccd0f10750001d70a1c,134,2,2024-02-27T11:17:02.277Z,english_835.wav,0,pill,115,40,3,5,français,m,1,0.1,-85.63264453,0.74788643
5bc8dccd0f10750001d70a1c,134,2,2024-02-27T11:17:02.277Z,english_835.wav,0,pill,115,40,3,5,français,m,2,0.2,-9.08737486,0.99645811
5bc8dccd0f10750001d70a1c,134,2,2024-02-27T11:17:02.277Z,english_835.wav,0,pill,115,40,3,5,français,m,3,0.3,-52.4382226,1.13057998
5bc8dccd0f10750001d70a1c,134,2,2024-02-27T11:17:02.277Z,english_835.wav,0,pill,115,40,3,5,français,m,4,0.32341667,30.89255677,0.17868889
5bc8dccd0f10750001d70a1c,135,2,2024-02-27T11:17:02.277Z,english_152.wav,0,pill,1,40,3,5,français,m,0,0.0,-21.97873044,1.75752799
5bc8dccd0f10750001d70a1c,135,2,2024-02-27T11:17:02.277Z,english_152.wav,0,pill,1,40,3,5,français,m,1,0.1,85.66675034,1.21467008
5bc8dccd0f10750001d70a1c,135,2,2024-02-27T11:17:02.277Z,english_152.wav,0,pill,1,40,3,5,français,m,2,0.2,-66.57447909,0.82299352
5bc8dccd0f10750001d70a1c,135,2,2024-02-27T11:17:02.277Z,english_152.wav,0,pill,1,40,3,5,français,m,3,0.3,-33.8772441,0.48869868
5bc8dccd0f10750001d70a1c,135,2,2024-02-27T11:17:02.277Z,english_152.wav,0,pill,1,40,3,5,français,m,4,0.32341667,-46.50239179,0.31705885
5bc8dccd0f10750001d70a1c,136,2,2024-02-27T11:17:02.277Z,english_373.wav,0,pill,181,40,3,5,français,m,0,0.0,-63.66458186,0.61104768
5bc8dccd0f10750001d70a1c,136,2,2024-02-27T11:17:02.277Z,english_373.wav,0,pill,181,40,3,5,français,m,1,0.1,-61.42386056,1.64905001
5bc8dccd0f10750001d70a1c,136,2,2024-02-27T11:17:02.277Z,english_373.wav,0,pill,181,40,3,5,français,m,2,0.2,-78.74831974,1.44355649
5bc8dccd0f10750001d70a1c,136,2,2024-02-27T11:17:02.277Z,english_373.wav,0,pill,181,40,3,5,français,m,3,0.3,-23.23108213,1.63671726
5bc8dccd0f10750001d70a1c,136,2,2024-02-27T11:17:02.277Z,english_373.wav,0,pill,181,40,3,5,français,m,4,0.32341667,-77.15694383,1.96911306
5bc8dccd0f10750001d70a1c,137,2,2024-02-27T11:17:02.277Z,english_526.wav,0,pill,124,40,3,5,français,m,0,0.0,-32.34532461,0.924261
5bc8dccd0f10750001d70a1c,137,2,2024-02-27T11:17:02.277Z,english_526.wav,0,pill,124,40,3,5,français,m,1,0.1,-46.6208459,0.25414499
5bc8dccd0f10750001d70a1c,137,2,2024-02-27T11:17:02.277Z,english_526.wav,0,pill,124,40,3,5,français,m,2,0.2,-42.84927068,1.01925886
5bc8dccd0f10750001d70a1c,137,2,2024-02-27T11:17:02.277Z,english_526.wav,0,pill,124,40,3,5,français,m,3,0.3,3.47643827,0.65966822
5bc8dccd0f10750001d70a1c,137,2,2024-02-27T11:17:02.277Z,english_526.wav,0,pill,124,40,3,5,français,m,4,0.32341667,52.79087598,1.50872035
5bc8dccd0f10750001d70a1c,138,2,2024-02-27T11:17:02.277Z,english_906.wav,0,peel,242,40,3,5,français,m,0,0.0,-40.48589107,1.22436898
5bc8dccd0f10750001d70a1c,138,2,2024-02-27T11:17:02.277Z,english_906.wav,0,peel,242,40,3,5,français,m,1,0.1,47.48995475,1.54823641
5bc8dccd0f10750001d70a1c,138,2,2024-02-27T11:17:02.277Z,english_906.wav,0,peel,242,40,3,5,français,m,2,0.2,-46.73743802,1.02590908
5bc8dccd0f10750001d70a1c,138,2,2024-02-27T11:17:02.277Z,english_906.wav,0,peel,242,40,3,5,français,m,3,0.3,-97.96557374,1.74877791
5bc8dccd0f10750001d70a1c,138,2,2024-02-27T11:17:02.277Z,english_906.wav,0,peel,242,40,3,5,français,m,4,0.32341667,18.48293991,0.76585735
5bc8dccd0f10750001d70a1c,139,2,2024-02-27T11:17:02.277Z,english_773.wav,0,peel,102,40,3,5,français,m,0,0.0,-97.46951928,0.54003315
5bc8dccd0f10750001d70a1c,139,2,2024-02-27T11:17:02.277Z,english_773.wav,0,peel,102,40,3,5,français,m,1,0.1,85.58858853,1.35505424
5bc8dccd0f10750001d70a1c,139,2,2024-02-27T11:17:02.277Z,english_773.wav,0,peel,102,40,3,5,français,m,2,0.2,-54.69649905,1.09283168
5bc8dccd0f10750001d70a1c,139,2,2024-02-27T11:17:02.277Z,english_773.wav,0,peel,102,40,3,5,français,m,3,0.3,-97.24656559,1.42526307
5bc8dccd0f10750001d70a1c,139,2,2024-02-27T11:17:02.277Z,english_773.wav,0,peel,102,40,3,5,français,m,4,0.32341667,40.28006613,0.69844725
5bc8dccd0f10750001d70a1c,140,2,2024-02-27T11:17:02.277Z,english_838.wav,0,pill,187,40,3,5,français,m,0,0.0,-46.43239877,0.57293762
5bc8dccd0f10750001d70a1c,140,2,2024-02-27T11:17:02.277Z,english_838.wav,0,pill,187,40,3,5,français,m,1,0.1,-0.77549132,1.65450135
5bc8dccd0f10750001d70a1c,140,2,2024-02-27T11:17:02.277Z,english_838.wav,0,pill,187,40,3,5,français,m,2,0.2,-47.56158581,0.30574951
5bc8dccd0f10750001d70a1c,140,2,2024-02-27T11:17:02.277Z,english_838.wav,0,pill,187,40,3,5,français,m,3,0.3,7.18116474,0.96315644
5bc8dccd0f10750001d70a1c,140,2,2024-02-27T11:17:02.277Z,english_838.wav,0,pill,187,40,3,5,français,m,4,0.32341667,-87.38880816,0.83017899
5bc8dccd0f10750001d70a1c,141,2,2024-02-27T11:17:02.277Z,english_669.wav,0,pill,220,40,3,5,français,m,0,0.0,-58.38123624,0.53455866
5bc8dccd0f10750001d70a1c,141,2,2024-02-27T11:17:02.277Z,english_669.wav,0,pill,220,40,3,5,français,m,1,0.1,-80.20155876,0.64376179
5bc8dccd0f10750001d70a1c,141,2,2024-02-27T11:17:02.277Z,english_669.wav,0,pill,220,40,3,5,français,m,2,0.2,-25.59737246,0.76694756
5bc8dccd0f10750001d70a1c,141,2,2024-02-27T11:17:02.277Z,english_669.wav,0,pill,220,40,3,5,français,m,3,0.3,-30.25633946,1.36842807
5bc8dccd0f10750001d70a1c,141,2,2024-02-27T11:17:02.277Z,english_669.wav,0,pill,220,40,3,5,français,m,4,0.32341667,-70.78768349,0.06434218
5bc8dccd0f10750001d70a1c,142,2,2024-02-27T11:17:02.277Z,english_256.wav,0,peel,216,40,3,5,français,m,0,0.0,22.60769813,1.84037168
5bc8dccd0f10750001d70a1c,142,2,2024-02-27T11:17:02.277Z,english_256.wav,0,peel,216,40,3,5,français,m,1,0.1,-95.01444593,0.47687766
5bc8dccd0f10750001d70a1c,142,2,2024-02-27T11:17:02.277Z,english_256.wav,0,peel,216,40,3,5,français,m,2,0.2,-19.91310746,0.85339151
5bc8dccd0f10750001d70a1c,142,2,2024-02-27T11:17:02.277Z,english_256.wav,0,peel,216,40,3,5,français,m,3,0.3,-6.39209363,0.75097161
5bc8dccd0f10750001d70a1c,142,2,2024-02-27T11:17:02.277Z,english_256.wav,0,peel,216,40,3,5,français,m,4,0.32341667,24.02209282,1.98695073
5bc8dccd0f10750001d70a1c,143,2,2024-02-27T11:17:02.277Z,english_155.wav,0,pill,13,40,3,5,français,m,0,0.0,53.87474094,1.93436975
5bc8dccd0f10750001d70a1c,143,2,2024-02-27T11:17:02.277Z,english_155.wav,0,pill,13,40,3,5,français,m,1,0.1,74.81745726,0.64472983
5bc8dccd0f10750001d70a1c,143,2,2024-02-27T11:17:02.277Z,english_155.wav,0,pill,13,40,3,5,français,m,2,0.2,8.25192738,1.6098708
5bc8dccd0f10750001d70a1c,143,2,2024-02-27T11:17:02.277Z,english_155.wav,0,pill,13,40,3,5,français,m,3,0.3,-52.88121257,1.15705679
5bc8dccd0f10750001d70a1c,143,2,2024-02-27T11:17:02.277Z,english_155.wav,0,pill,13,40,3,5,français,m,4,0.32341667,48.31209788,0.66500292
5bc8dccd0f10750001d70a1c,144,2,2024-02-27T11:17:02.277Z,english_289.wav,0,pill,121,40,3,5,français,m,0,0.0,-55.97739865,0.95213243
5bc8dccd0f10750001d70a1c,144,2,2024-02-27T11:17:02.277Z,english_289.wav,0,pill,121,40,3,5,français,m,1,0.1,-97.9801122,0.81858491
5bc8dccd0f10750001d70a1c,144,2,2024-02-27T11:17:02.277Z,english_289.wav,0,pill,121,40,3,5,français,m,2,0.2,44.28679287,1.16094748
5bc8dccd0f10750001d70a1c,144,2,2024-02-27T11:17:02.277Z,english_289.wav,0,pill,121,40,3,5,français,m,3,0.3,-74.0895039,0.92969459
5bc8dccd0f10750001d70a1c,144,2,2024-02-27T11:17:02.277Z,english_289.wav,0,pill,121,40,3,5,français,m,4,0.32341667,-44.25845537,0.41504245
5bc8dccd0f10750001d70a1c,145,2,2024-02-27T11:17:02.277Z,english_797.wav,0,peel,70,40,3,5,français,m,0,0.0,-10.77604935,1.75152448
5bc8dccd0f10750001d70a1c,145,2,2024-02-27T11:17:02.277Z,english_797.wav,0,peel,70,40,3,5,français,m,1,0.1,76.52998448,0.25625033
5bc8dccd0f10750001d70a1c,145,2,2024-02-27T11:17:02.277Z,english_797.wav,0,peel,70,40,3,5,français,m,2,0.2,-52.30950648,1.63910521
5bc8dccd0f10750001d70a1c,145,2,2024-02-27T11:17:02.277Z,english_797.wav,0,peel,70,40,3,5,français,m,3,0.3,-19.27189704,1.44412191
5bc8dccd0f10750001d70a1c,145,2,2024-02-27T11:17:02.277Z,english_797.wav,0,peel,70,40,3,5,français,m,4,0.32341667,-68.52312916,1.41513857
5bc8dccd0f10750001d70a1c,146,2,2024-02-27T11:17:02.277Z,english_921.wav,0,peel,148,40,3,5,français,m,0,0.0,60.93482672,0.06624465
5bc8dccd0f10750001d70a1c,146,2,2024-02-27T11:17:02.277Z,english_921.wav,0,peel,148,40,3,5,français,m,1,0.1,-71.63665921,1.88925143
5bc8dccd0f10750001d70a1c,146,2,2024-02-27T11:17:02.277Z,english_921.wav,0,peel,148,40,3,5,français,m,2,0.2,-30.77028929,0.40013084
5bc8dccd0f10750001d70a1c,146,2,2024-02-27T11:17:02.277Z,english_921.wav,0,peel,148,40,3,5,français,m,3,0.3,-44.68164597,1.26601564
5bc8dccd0f10750001d70a1c,146,2,2024-02-27T11:17:02.277Z,english_921.wav,0,peel,148,40,3,5,français,m,4,0.32341667,34.59415858,1.98956357
5bc8dccd0f10750001d70a1c,147,2,2024-02-27T11:17:02.277Z,english_666.wav,0,peel,16,40,3,5,français,m,0,0.0,-6.63307831,0.44221414
5bc8dccd0f10750001d70a1c,147,2,2024-02-27T11:17:02.277Z,english_666.wav,0,peel,16,40,3,5,français,m,1,0.1,-47.66524373,1.62559692
5bc8dccd0f10750001d70a1c,147,2,2024-02-27T11:17:02.277Z,english_666.wav,0,peel,16,40,3,5,français,m,2,0.2,66.93817534,0.27313334
5bc8dccd0f10750001d70a1c,147,2,2024-02-27T11:17:02.277Z,english_666.wav,0,peel,16,40,3,5,français,m,3,0.3,-1.338646,0.46846925
5bc8dccd0f10750001d70a1c,147,2,2024-02-27T11:17:02.277Z,english_666.wav,0,peel,16,40,3,5,français,m,4,0.32341667,-14.31927765,1.08883823
5bc8dccd0f10750001d70a1c,148,2,2024-02-27T11:17:02.277Z,english_92.wav,0,peel,1,40,3,5,français,m,0,0.0,31.88505953,1.50112375
5bc8dccd0f10750001d70a1c,148,2,2024-02-27T11:17:02.277Z,english_92.wav,0,peel,1,40,3,5,français,m,1,0.1,-5.62534355,0.35596674
5bc8dccd0f10750001d70a1c,148,2,2024-02-27T11:17:02.277Z,english_92.wav,0,peel,1,40,3,5,français,m,2,0.2,-66.19250112,1.12270031
5bc8dccd0f10750001d70a1c,148,2,2024-02-27T11:17:02.277Z,english_92.wav,0,peel,1,40,3,5,français,m,3,0.3,-77.62644198,1.09837269
5bc8dccd0f10750001d70a1c,148,2,2024-02-27T11:17:02.277Z,english_92.wav,0,peel,1,40,3,5,français,m,4,0.32341667,-66.61656061,1.16274455
5bc8dccd0f10750001d70a1c,149,2,2024-02-27T11:17:02.277Z,english_643.wav,0,peel,137,40,3,5,français,m,0,0.0,-40.15003434,1.60262153
5bc8dccd0f10750001d70a1c,149,2,2024-02-27T11:17:02.277Z,english_643.wav,0,peel,137,40,3,5,français,m,1,0.1,-24.12893917,1.7682358
5bc8dccd0f10750001d70a1c,149,2,2024-02-27T11:17:02.277Z,english_643.wav,0,peel,137,40,3,5,français,m,2,0.2,-40.66556796,0.31725537
5bc8dccd0f10750001d70a1c,149,2,2024-02-27T11:17:02.277Z,english_643.wav,0,peel,137,40,3,5,français,m,3,0.3,75.01987067,0.56722121
5bc8dccd0f10750001d70a1c,149,2,2024-02-27T11:17:02.277Z,english_643.wav,0,peel,137,40,3,5,français,m,4,0.32341667,29.71481383,1.87277365
5bc8dccd0f10750001d70a1c,150,3,2024-02-27T11:17:02.277Z,english_346.wav,0,peel,48,40,3,5,français,m,0,0.0,29.51078372,1.24489428
5bc8dccd0f10750001d70a1c,150,3,2024-02-27T11:17:02.277Z,english_346.wav,0,peel,48,40,3,5,français,m,1,0.1,86.25753287,1.77356048
5bc8dccd0f10750001d70a1c,150,3,2024-02-27T11:17:02.277Z,english_346.wav,0,peel,48,40,3,5,français,m,2,0.2,95.6553577,1.30862901
5bc8dccd0f10750001d70a1c,150,3,2024-02-27T11:17:02.277Z,english_346.wav,0,peel,48,40,3,5,français,m,3,0.3,-65.97707071,0.68318311
5bc8dccd0f10750001d70a1c,150,3,2024-02-27T11:17:02.277Z,english_346.wav,0,peel,48,40,3,5,français,m,4,0.32341667,49.79896228,1.63073528
5bc8dccd0f10750001d70a1c,151,3,2024-02-27T11:17:02.277Z,english_983.wav,0,peel,40,40,3,5,français,m,0,0.0,32.38711768,0.79408654
5bc8dccd0f10750001d70a1c,151,3,2024-02-27T11:17:02.277Z,english_983.wav,0,peel,40,40,3,5,français,m,1,0.1,-65.51600844,1.57845546
5bc8dccd0f10750001d70a1c,151,3,2024-02-27T11:17:02.277Z,english_983.wav,0,peel,40,40,3,5,français,m,2,0.2,12.03576385,1.23356187
5bc8dccd0f10750001d70a1c,151,3,2024-02-27T11:17:02.277Z,english_983.wav,0,peel,40,40,3,5,français,m,3,0.3,-64.14785636,0.65581831
5bc8dccd0f10750001d70a1c,151,3,2024-02-27T11:17:02.277Z,english_983.wav,0,peel,40,40,3,5,français,m,4,0.32341667,-72.48499617,0.27936162
5bc8dccd0f10750001d70a1c,152,3,2024-02-27T11:17:02.277Z,english_489.wav,0,pill,67,40,3,5,français,m,0,0.0,5.7057461,0.60142671
5bc8dccd0f10750001d70a1c,152,3,2024-02-27T11:17:02.277Z,english_489.wav,0,pill,67,40,3,5,français,m,1,0.1,-88.87009038,1.38499056
5bc8dccd0f10750001d70a1c,152,3,2024-02-27T11:17:02.277Z,english_489.wav,0,pill,67,40,3,5,français,m,2,0.2,73.69789316,0.38073994
5bc8dccd0f10750001d70a1c,152,3,2024-02-27T11:17:02.277Z,english_489.wav,0,pill,67,40,3,5,français,m,3,0.3,8.66804208,0.90212706
5bc8dccd0f10750001d70a1c,152,3,2024-02-27T11:17:02.277Z,english_489.wav,0,pill,67,40,3,5,français,m,4,0.32341667,-19.53009002,1.00729778
5bc8dccd0f10750001d70a1c,153,3,2024-02-27T11:17:02.277Z,english_352.wav,0,pill,47,40,3,5,français,m,0,0.0,71.64354449,0.18312459
