subj,trial,block,date,stim,stim_order,response,rt,age,english,french,language,sex,param_index,segment,pitch,stretch
657b128079618c853ed056b4,0,0,2024-02-27T11:10:37.483Z,english_412.wav,0,peel,2412,62,4,5,français,m,0,0.0,-82.38375592,0.41347899
657b128079618c853ed056b4,0,0,2024-02-27T11:10:37.483Z,english_412.wav,0,peel,2412,62,4,5,français,m,1,0.1,-35.89348303,0.05505218
657b128079618c853ed056b4,0,0,2024-02-27T11:10:37.483Z,english_412.wav,0,peel,2412,62,4,5,français,m,2,0.2,-78.50422887,1.28972039
657b128079618c853ed056b4,0,0,2024-02-27T11:10:37.483Z,english_412.wav,0,peel,2412,62,4,5,français,m,3,0.3,8.19618882,0.97331843
657b128079618c853ed056b4,0,0,2024-02-27T11:10:37.483Z,english_412.wav,0,peel,2412,62,4,5,français,m,4,0.32341667,88.30694734,0.22558246
657b128079618c853ed056b4,1,0,2024-02-27T11:10:37.483Z,english_940.wav,0,peel,3102,62,4,5,français,m,0,0.0,47.11462569,0.32214594
657b128079618c853ed056b4,1,0,2024-02-27T11:10:37.483Z,english_940.wav,0,peel,3102,62,4,5,français,m,1,0.1,11.81885745,0.21999868
657b128079618c853ed056b4,1,0,2024-02-27T11:10:37.483Z,english_940.wav,0,peel,3102,62,4,5,français,m,2,0.2,-1.49931669,0.34357292
657b128079618c853ed056b4,1,0,2024-02-27T11:10:37.483Z,english_940.wav,0,peel,3102,62,4,5,français,m,3,0.3,45.92466934,1.61274527
657b128079618c853ed056b4,1,0,2024-02-27T11:10:37.483Z,english_940.wav,0,peel,3102,62,4,5,français,m,4,0.32341667,-72.78738407,0.9185628
657b128079618c853ed056b4,2,0,2024-02-27T11:10:37.483Z,english_664.wav,0,peel,1539,62,4,5,français,m,0,0.0,-76.94516773,1.88823832
657b128079618c853ed056b4,2,0,2024-02-27T11:10:37.483Z,english_664.wav,0,peel,1539,62,4,5,français,m,1,0.1,-6.4858311,1.41396893
657b128079618c853ed056b4,2,0,2024-02-27T11:10:37.483Z,english_664.wav,0,peel,1539,62,4,5,français,m,2,0.2,46.60528691,0.11773869
657b128079618c853ed056b4,2,0,2024-02-27T11:10:37.483Z,english_664.wav,0,peel,1539,62,4,5,français,m,3,0.3,9.48323043,1.80376032
657b128079618c853ed056b4,2,0,2024-02-27T11:10:37.483Z,english_664.wav,0,peel,1539,62,4,5,français,m,4,0.32341667,89.85696022,1.43209877
657b128079618c853ed056b4,3,0,2024-02-27T11:10:37.483Z,english_44.wav,0,peel,1024,62,4,5,français,m,0,0.0,-68.86201344,1.38154723
657b128079618c853ed056b4,3,0,2024-02-27T11:10:37.483Z,english_44.wav,0,peel,1024,62,4,5,français,m,1,0.1,36.61833882,0.11193842
657b128079618c853ed056b4,3,0,2024-02-27T11:10:37.483Z,english_44.wav,0,peel,1024,62,4,5,français,m,2,0.2,-60.65796264,0.83798569
657b128079618c853ed056b4,3,0,2024-02-27T11:10:37.483Z,english_44.wav,0,peel,1024,62,4,5,français,m,3,0.3,-99.582901,0.3073865
657b128079618c853ed056b4,3,0,2024-02-27T11:10:37.483Z,english_44.wav,0,peel,1024,62,4,5,français,m,4,0.32341667,68.59920212,1.10922951
657b128079618c853ed056b4,4,0,2024-02-27T11:10:37.483Z,english_771.wav,0,peel,787,62,4,5,français,m,0,0.0,52.29619013,1.65909918
657b128079618c853ed056b4,4,0,2024-02-27T11:10:37.483Z,english_771.wav,0,peel,787,62,4,5,français,m,1,0.1,55.26271333,1.05958749
657b128079618c853ed056b4,4,0,2024-02-27T11:10:37.483Z,english_771.wav,0,peel,787,62,4,5,français,m,2,0.2,49.2587818,1.33758239
657b128079618c853ed056b4,4,0,2024-02-27T11:10:37.483Z,english_771.wav,0,peel,787,62,4,5,français,m,3,0.3,48.45532009,1.75478958
657b128079618c853ed056b4,4,0,2024-02-27T11:10:37.483Z,english_771.wav,0,peel,787,62,4,5,français,m,4,0.32341667,-98.45631565,0.37013483
657b128079618c853ed056b4,5,0,2024-02-27T11:10:37.483Z,english_878.wav,0,pill,1290,62,4,5,français,m,0,0.0,84.19501339,0.22676298
657b128079618c853ed056b4,5,0,2024-02-27T11:10:37.483Z,english_878.wav,0,pill,1290,62,4,5,français,m,1,0.1,76.71234668,0.28568495
657b128079618c853ed056b4,5,0,2024-02-27T11:10:37.483Z,english_878.wav,0,pill,1290,62,4,5,français,m,2,0.2,-74.61835319,0.74220819
657b128079618c853ed056b4,5,0,2024-02-27T11:10:37.483Z,english_878.wav,0,pill,1290,62,4,5,français,m,3,0.3,83.79758366,1.72755148
657b128079618c853ed056b4,5,0,2024-02-27T11:10:37.483Z,english_878.wav,0,pill,1290,62,4,5,français,m,4,0.32341667,-29.32243698,1.88938616
657b128079618c853ed056b4,6,0,2024-02-27T11:10:37.483Z,english_962.wav,0,peel,644,62,4,5,français,m,0,0.0,-55.512918,1.78332996
657b128079618c853ed056b4,6,0,2024-02-27T11:10:37.483Z,english_962.wav,0,peel,644,62,4,5,français,m,1,0.1,90.34773129,1.25956614
657b128079618c853ed056b4,6,0,2024-02-27T11:10:37.483Z,english_962.wav,0,peel,644,62,4,5,français,m,2,0.2,-3.10818459,0.72891593
657b128079618c853ed056b4,6,0,2024-02-27T11:10:37.483Z,english_962.wav,0,peel,644,62,4,5,français,m,3,0.3,50.27619033,1.49954356
657b128079618c853ed056b4,6,0,2024-02-27T11:10:37.483Z,english_962.wav,0,peel,644,62,4,5,français,m,4,0.32341667,-47.3196173,0.96339983
657b128079618c853ed056b4,7,0,2024-02-27T11:10:37.483Z,english_62.wav,0,peel,413,62,4,5,français,m,0,0.0,17.28527913,1.12530616
657b128079618c853ed056b4,7,0,2024-02-27T11:10:37.483Z,english_62.wav,0,peel,413,62,4,5,français,m,1,0.1,8.63936001,1.09357984
657b128079618c853ed056b4,7,0,2024-02-27T11:10:37.483Z,english_62.wav,0,peel,413,62,4,5,français,m,2,0.2,-69.0074729,1.07648496
657b128079618c853ed056b4,7,0,2024-02-27T11:10:37.483Z,english_62.wav,0,peel,413,62,4,5,français,m,3,0.3,-18.85502465,0.36768209
657b128079618c853ed056b4,7,0,2024-02-27T11:10:37.483Z,english_62.wav,0,peel,413,62,4,5,français,m,4,0.32341667,59.46739627,0.39033463
657b128079618c853ed056b4,8,0,2024-02-27T11:10:37.483Z,english_660.wav,0,pill,517,62,4,5,français,m,0,0.0,-18.17224728,0.25133372
657b128079618c853ed056b4,8,0,2024-02-27T11:10:37.483Z,english_660.wav,0,pill,517,62,4,5,français,m,1,0.1,-51.94390165,0.1756709
657b128079618c853ed056b4,8,0,2024-02-27T11:10:37.483Z,english_660.wav,0,pill,517,62,4,5,français,m,2,0.2,-79.57293034,0.660284
657b128079618c853ed056b4,8,0,2024-02-27T11:10:37.483Z,english_660.wav,0,pill,517,62,4,5,français,m,3,0.3,67.99606973,1.08301436
657b128079618c853ed056b4,8,0,2024-02-27T11:10:37.483Z,english_660.wav,0,pill,517,62,4,5,français,m,4,0.32341667,-2.00416122,0.81155284
657b128079618c853ed056b4,9,0,2024-02-27T11:10:37.483Z,english_787.wav,0,peel,762,62,4,5,français,m,0,0.0,57.99353047,1.96251481
657b128079618c853ed056b4,9,0,2024-02-27T11:10:37.483Z,english_787.wav,0,peel,762,62,4,5,français,m,1,0.1,-40.79525362,0.94444479
657b128079618c853ed056b4,9,0,2024-02-27T11:10:37.483Z,english_787.wav,0,peel,762,62,4,5,français,m,2,0.2,23.78072576,0.924778
657b128079618c853ed056b4,9,0,2024-02-27T11:10:37.483Z,english_787.wav,0,peel,762,62,4,5,français,m,3,0.3,72.96982422,0.31383508
657b128079618c853ed056b4,9,0,2024-02-27T11:10:37.483Z,english_787.wav,0,peel,762,62,4,5,français,m,4,0.32341667,53.76957631,0.68947425
657b128079618c853ed056b4,10,0,2024-02-27T11:10:37.483Z,english_747.wav,0,peel,912,62,4,5,français,m,0,0.0,-77.73977436,1.00478752
657b128079618c853ed056b4,10,0,2024-02-27T11:10:37.483Z,english_747.wav,0,peel,912,62,4,5,français,m,1,0.1,-18.96284798,0.15717617
657b128079618c853ed056b4,10,0,2024-02-27T11:10:37.483Z,english_747.wav,0,peel,912,62,4,5,français,m,2,0.2,-36.55549612,1.90654565
657b128079618c853ed056b4,10,0,2024-02-27T11:10:37.483Z,english_747.wav,0,peel,912,62,4,5,français,m,3,0.3,89.20291952,0.7651101
657b128079618c853ed056b4,10,0,2024-02-27T11:10:37.483Z,english_747.wav,0,peel,912,62,4,5,français,m,4,0.32341667,-97.78574386,0.92755825
657b128079618c853ed056b4,11,0,2024-02-27T11:10:37.483Z,english_817.wav,0,peel,884,62,4,5,français,m,0,0.0,58.06319333,0.77394069
657b128079618c853ed056b4,11,0,2024-02-27T11:10:37.483Z,english_817.wav,0,peel,884,62,4,5,français,m,1,0.1,0.91206114,0.81778066
657b128079618c853ed056b4,11,0,2024-02-27T11:10:37.483Z,english_817.wav,0,peel,884,62,4,5,français,m,2,0.2,-27.80824757,1.48752315
657b128079618c853ed056b4,11,0,2024-02-27T11:10:37.483Z,english_817.wav,0,peel,884,62,4,5,français,m,3,0.3,-73.7491051,0.41888886
657b128079618c853ed056b4,11,0,2024-02-27T11:10:37.483Z,english_817.wav,0,peel,884,62,4,5,français,m,4,0.32341667,69.75698508,0.93012443
657b128079618c853ed056b4,12,0,2024-02-27T11:10:37.483Z,english_11.wav,0,pill,625,62,4,5,français,m,0,0.0,-20.45826732,1.19869378
657b128079618c853ed056b4,12,0,2024-02-27T11:10:37.483Z,english_11.wav,0,pill,625,62,4,5,français,m,1,0.1,-31.26113472,0.2059713
657b128079618c853ed056b4,12,0,2024-02-27T11:10:37.483Z,english_11.wav,0,pill,625,62,4,5,français,m,2,0.2,84.03210455,0.62296143
657b128079618c853ed056b4,12,0,2024-02-27T11:10:37.483Z,english_11.wav,0,pill,625,62,4,5,français,m,3,0.3,30.35463164,1.49781179
657b128079618c853ed056b4,12,0,2024-02-27T11:10:37.483Z,english_11.wav,0,pill,625,62,4,5,français,m,4,0.32341667,-63.36217442,0.18750748
657b128079618c853ed056b4,13,0,2024-02-27T11:10:37.483Z,english_961.wav,0,peel,1576,62,4,5,français,m,0,0.0,20.81275789,1.87720953
657b128079618c853ed056b4,13,0,2024-02-27T11:10:37.483Z,english_961.wav,0,peel,1576,62,4,5,français,m,1,0.1,46.48072234,1.43497285
657b128079618c853ed056b4,13,0,2024-02-27T11:10:37.483Z,english_961.wav,0,peel,1576,62,4,5,français,m,2,0.2,79.36291712,1.9095844
657b128079618c853ed056b4,13,0,2024-02-27T11:10:37.483Z,english_961.wav,0,peel,1576,62,4,5,français,m,3,0.3,7.86976501,0.20821065
657b128079618c853ed056b4,13,0,2024-02-27T11:10:37.483Z,english_961.wav,0,peel,1576,62,4,5,français,m,4,0.32341667,-45.45751668,0.0640973
657b128079618c853ed056b4,14,0,2024-02-27T11:10:37.483Z,english_398.wav,0,pill,1554,62,4,5,français,m,0,0.0,-72.24204172,0.50855809
657b128079618c853ed056b4,14,0,2024-02-27T11:10:37.483Z,english_398.wav,0,pill,1554,62,4,5,français,m,1,0.1,29.80242672,0.68040596
657b128079618c853ed056b4,14,0,2024-02-27T11:10:37.483Z,english_398.wav,0,pill,1554,62,4,5,français,m,2,0.2,-29.26741326,1.59063958
657b128079618c853ed056b4,14,0,2024-02-27T11:10:37.483Z,english_398.wav,0,pill,1554,62,4,5,français,m,3,0.3,30.68380911,1.71035635
657b128079618c853ed056b4,14,0,2024-02-27T11:10:37.483Z,english_398.wav,0,pill,1554,62,4,5,français,m,4,0.32341667,-23.61694816,1.737831
657b128079618c853ed056b4,15,0,2024-02-27T11:10:37.483Z,english_805.wav,0,pill,672,62,4,5,français,m,0,0.0,-11.97504695,0.06029378
657b128079618c853ed056b4,15,0,2024-02-27T11:10:37.483Z,english_805.wav,0,pill,672,62,4,5,français,m,1,0.1,96.82911573,0.81391401
657b128079618c853ed056b4,15,0,2024-02-27T11:10:37.483Z,english_805.wav,0,pill,672,62,4,5,français,m,2,0.2,7.51835152,1.33531055
657b128079618c853ed056b4,15,0,2024-02-27T11:10:37.483Z,english_805.wav,0,pill,672,62,4,5,français,m,3,0.3,2.47378187,1.7608484
657b128079618c853ed056b4,15,0,2024-02-27T11:10:37.483Z,english_805.wav,0,pill,672,62,4,5,français,m,4,0.32341667,-43.26336213,1.4289718
657b128079618c853ed056b4,16,0,2024-02-27T11:10:37.483Z,english_789.wav,0,peel,832,62,4,5,français,m,0,0.0,70.69388181,1.62690516
657b128079618c853ed056b4,16,0,2024-02-27T11:10:37.483Z,english_789.wav,0,peel,832,62,4,5,français,m,1,0.1,-91.45782136,1.02092359
657b128079618c853ed056b4,16,0,2024-02-27T11:10:37.483Z,english_789.wav,0,peel,832,62,4,5,français,m,2,0.2,-94.67801392,0.93437639
657b128079618c853ed056b4,16,0,2024-02-27T11:10:37.483Z,english_789.wav,0,peel,832,62,4,5,français,m,3,0.3,83.76501612,1.8239896
657b128079618c853ed056b4,16,0,2024-02-27T11:10:37.483Z,english_789.wav,0,peel,832,62,4,5,français,m,4,0.32341667,-4.60584958,1.29596798
657b128079618c853ed056b4,17,0,2024-02-27T11:10:37.483Z,english_454.wav,0,peel,342,62,4,5,français,m,0,0.0,-98.00335762,0.93958317
657b128079618c853ed056b4,17,0,2024-02-27T11:10:37.483Z,english_454.wav,0,peel,342,62,4,5,français,m,1,0.1,-44.25936911,1.42755355
657b128079618c853ed056b4,17,0,2024-02-27T11:10:37.483Z,english_454.wav,0,peel,342,62,4,5,français,m,2,0.2,-49.70952942,0.6160235
657b128079618c853ed056b4,17,0,2024-02-27T11:10:37.483Z,english_454.wav,0,peel,342,62,4,5,français,m,3,0.3,-16.66945989,1.95370106
657b128079618c853ed056b4,17,0,2024-02-27T11:10:37.483Z,english_454.wav,0,peel,342,62,4,5,français,m,4,0.32341667,16.63176458,0.26107778
657b128079618c853ed056b4,18,0,2024-02-27T11:10:37.483Z,english_41.wav,0,peel,409,62,4,5,français,m,0,0.0,42.21237724,0.98996482
657b128079618c853ed056b4,18,0,2024-02-27T11:10:37.483Z,english_41.wav,0,peel,409,62,4,5,français,m,1,0.1,33.8271633,0.77076848
657b128079618c853ed056b4,18,0,2024-02-27T11:10:37.483Z,english_41.wav,0,peel,409,62,4,5,français,m,2,0.2,20.96644351,0.37402384
657b128079618c853ed056b4,18,0,2024-02-27T11:10:37.483Z,english_41.wav,0,peel,409,62,4,5,français,m,3,0.3,-53.61985723,1.98545705
657b128079618c853ed056b4,18,0,2024-02-27T11:10:37.483Z,english_41.wav,0,peel,409,62,4,5,français,m,4,0.32341667,-55.68725705,1.53352273
657b128079618c853ed056b4,19,0,2024-02-27T11:10:37.483Z,english_945.wav,0,pill,490,62,4,5,français,m,0,0.0,63.16075011,1.8314946
657b128079618c853ed056b4,19,0,2024-02-27T11:10:37.483Z,english_945.wav,0,pill,490,62,4,5,français,m,1,0.1,87.55520176,1.3737613
657b128079618c853ed056b4,19,0,2024-02-27T11:10:37.483Z,english_945.wav,0,pill,490,62,4,5,français,m,2,0.2,-69.60467193,0.61639792
657b128079618c853ed056b4,19,0,2024-02-27T11:10:37.483Z,english_945.wav,0,pill,490,62,4,5,français,m,3,0.3,-69.25530384,1.67239747
657b128079618c853ed056b4,19,0,2024-02-27T11:10:37.483Z,english_945.wav,0,pill,490,62,4,5,français,m,4,0.32341667,-47.64160087,1.88344595
657b128079618c853ed056b4,20,0,2024-02-27T11:10:37.483Z,english_496.wav,0,pill,827,62,4,5,français,m,0,0.0,-50.36729616,1.24588939
657b128079618c853ed056b4,20,0,2024-02-27T11:10:37.483Z,english_496.wav,0,pill,827,62,4,5,français,m,1,0.1,43.15166092,1.651593
657b128079618c853ed056b4,20,0,2024-02-27T11:10:37.483Z,english_496.wav,0,pill,827,62,4,5,français,m,2,0.2,-89.08132341,0.94120535
657b128079618c853ed056b4,20,0,2024-02-27T11:10:37.483Z,english_496.wav,0,pill,827,62,4,5,français,m,3,0.3,-31.93753525,0.55989053
657b128079618c853ed056b4,20,0,2024-02-27T11:10:37.483Z,english_496.wav,0,pill,827,62,4,5,français,m,4,0.32341667,-79.66514086,1.95233748
657b128079618c853ed056b4,21,0,2024-02-27T11:10:37.483Z,english_363.wav,0,pill,533,62,4,5,français,m,0,0.0,-8.62246293,0.22304778
657b128079618c853ed056b4,21,0,2024-02-27T11:10:37.483Z,english_363.wav,0,pill,533,62,4,5,français,m,1,0.1,-37.95317313,0.51009023
657b128079618c853ed056b4,21,0,2024-02-27T11:10:37.483Z,english_363.wav,0,pill,533,62,4,5,français,m,2,0.2,-98.56362786,1.67320701
657b128079618c853ed056b4,21,0,2024-02-27T11:10:37.483Z,english_363.wav,0,pill,533,62,4,5,français,m,3,0.3,79.4101663,0.32318158
657b128079618c853ed056b4,21,0,2024-02-27T11:10:37.483Z,english_363.wav,0,pill,533,62,4,5,français,m,4,0.32341667,-19.01593507,1.23606141
657b128079618c853ed056b4,22,0,2024-02-27T11:10:37.483Z,english_933.wav,0,peel,936,62,4,5,français,m,0,0.0,-48.12258855,1.54767366
657b128079618c853ed056b4,22,0,2024-02-27T11:10:37.483Z,english_933.wav,0,peel,936,62,4,5,français,m,1,0.1,27.26905516,0.30219473
657b128079618c853ed056b4,22,0,2024-02-27T11:10:37.483Z,english_933.wav,0,peel,936,62,4,5,français,m,2,0.2,0.35087756,1.50410475
657b128079618c853ed056b4,22,0,2024-02-27T11:10:37.483Z,english_933.wav,0,peel,936,62,4,5,français,m,3,0.3,94.96402149,1.44820406
657b128079618c853ed056b4,22,0,2024-02-27T11:10:37.483Z,english_933.wav,0,peel,936,62,4,5,français,m,4,0.32341667,61.52669097,0.05049928
657b128079618c853ed056b4,23,0,2024-02-27T11:10:37.483Z,english_827.wav,0,peel,1980,62,4,5,français,m,0,0.0,-49.24128803,1.70838213
657b128079618c853ed056b4,23,0,2024-02-27T11:10:37.483Z,english_827.wav,0,peel,1980,62,4,5,français,m,1,0.1,62.6158679,0.88048656
657b128079618c853ed056b4,23,0,2024-02-27T11:10:37.483Z,english_827.wav,0,peel,1980,62,4,5,français,m,2,0.2,-85.72053716,1.47530841
657b128079618c853ed056b4,23,0,2024-02-27T11:10:37.483Z,english_827.wav,0,peel,1980,62,4,5,français,m,3,0.3,-65.54354982,0.04991031
657b128079618c853ed056b4,23,0,2024-02-27T11:10:37.483Z,english_827.wav,0,peel,1980,62,4,5,français,m,4,0.32341667,-42.30235352,0.1531298
657b128079618c853ed056b4,24,0,2024-02-27T11:10:37.483Z,english_495.wav,0,peel,468,62,4,5,français,m,0,0.0,-5.58861003,1.32978923
657b128079618c853ed056b4,24,0,2024-02-27T11:10:37.483Z,english_495.wav,0,peel,468,62,4,5,français,m,1,0.1,8.95176437,0.81778757
657b128079618c853ed056b4,24,0,2024-02-27T11:10:37.483Z,english_495.wav,0,peel,468,62,4,5,français,m,2,0.2,39.42206983,0.66481361
657b128079618c853ed056b4,24,0,2024-02-27T11:10:37.483Z,english_495.wav,0,peel,468,62,4,5,français,m,3,0.3,-84.38976819,0.35850052
657b128079618c853ed056b4,24,0,2024-02-27T11:10:37.483Z,english_495.wav,0,peel,468,62,4,5,français,m,4,0.32341667,-2.90431636,0.23899864
657b128079618c853ed056b4,25,0,2024-02-27T11:10:37.483Z,english_507.wav,0,peel,574,62,4,5,français,m,0,0.0,-61.1842488,1.97653192
657b128079618c853ed056b4,25,0,2024-02-27T11:10:37.483Z,english_507.wav,0,peel,574,62,4,5,français,m,1,0.1,-67.40048172,1.52355847
657b128079618c853ed056b4,25,0,2024-02-27T11:10:37.483Z,english_507.wav,0,peel,574,62,4,5,français,m,2,0.2,12.41471853,0.98006415
657b128079618c853ed056b4,25,0,2024-02-27T11:10:37.483Z,english_507.wav,0,peel,574,62,4,5,français,m,3,0.3,-23.82579329,0.44372312
657b128079618c853ed056b4,25,0,2024-02-27T11:10:37.483Z,english_507.wav,0,peel,574,62,4,5,français,m,4,0.32341667,9.53005369,0.65281453
657b128079618c853ed056b4,26,0,2024-02-27T11:10:37.483Z,english_423.wav,0,peel,518,62,4,5,français,m,0,0.0,48.83941012,1.35290702
657b128079618c853ed056b4,26,0,2024-02-27T11:10:37.483Z,english_423.wav,0,peel,518,62,4,5,français,m,1,0.1,26.57948938,1.33919202
657b128079618c853ed056b4,26,0,2024-02-27T11:10:37.483Z,english_423.wav,0,peel,518,62,4,5,français,m,2,0.2,56.70545245,1.37149513
657b128079618c853ed056b4,26,0,2024-02-27T11:10:37.483Z,english_423.wav,0,peel,518,62,4,5,français,m,3,0.3,-62.41131033,1.11357765
657b128079618c853ed056b4,26,0,2024-02-27T11:10:37.483Z,english_423.wav,0,peel,518,62,4,5,français,m,4,0.32341667,78.49803502,1.20699722
657b128079618c853ed056b4,27,0,2024-02-27T11:10:37.483Z,english_474.wav,0,peel,845,62,4,5,français,m,0,0.0,42.88606971,0.87351765
657b128079618c853ed056b4,27,0,2024-02-27T11:10:37.483Z,english_474.wav,0,peel,845,62,4,5,français,m,1,0.1,6.82691085,1.08551449
657b128079618c853ed056b4,27,0,2024-02-27T11:10:37.483Z,english_474.wav,0,peel,845,62,4,5,français,m,2,0.2,-33.80031927,1.99847166
657b128079618c853ed056b4,27,0,2024-02-27T11:10:37.483Z,english_474.wav,0,peel,845,62,4,5,français,m,3,0.3,-97.18672796,0.27470298
657b128079618c853ed056b4,27,0,2024-02-27T11:10:37.483Z,english_474.wav,0,peel,845,62,4,5,français,m,4,0.32341667,-4.7462475,0.02962094
657b128079618c853ed056b4,28,0,2024-02-27T11:10:37.483Z,english_201.wav,0,peel,384,62,4,5,français,m,0,0.0,-11.66329209,1.59313322
657b128079618c853ed056b4,28,0,2024-02-27T11:10:37.483Z,english_201.wav,0,peel,384,62,4,5,français,m,1,0.1,-73.85436231,1.78385616
657b128079618c853ed056b4,28,0,2024-02-27T11:10:37.483Z,english_201.wav,0,peel,384,62,4,5,français,m,2,0.2,-12.5199597,0.57641365
657b128079618c853ed056b4,28,0,2024-02-27T11:10:37.483Z,english_201.wav,0,peel,384,62,4,5,français,m,3,0.3,-44.18013019,1.54371285
657b128079618c853ed056b4,28,0,2024-02-27T11:10:37.483Z,english_201.wav,0,peel,384,62,4,5,français,m,4,0.32341667,47.68284229,1.11944384
657b128079618c853ed056b4,29,0,2024-02-27T11:10:37.483Z,english_782.wav,0,peel,1723,62,4,5,français,m,0,0.0,-98.70381677,1.47488053
657b128079618c853ed056b4,29,0,2024-02-27T11:10:37.483Z,english_782.wav,0,peel,1723,62,4,5,français,m,1,0.1,-69.82387258,0.7270016
657b128079618c853ed056b4,29,0,2024-02-27T11:10:37.483Z,english_782.wav,0,peel,1723,62,4,5,français,m,2,0.2,35.26613747,0.08778447
657b128079618c853ed056b4,29,0,2024-02-27T11:10:37.483Z,english_782.wav,0,peel,1723,62,4,5,français,m,3,0.3,-81.38004879,1.16903228
657b128079618c853ed056b4,29,0,2024-02-27T11:10:37.483Z,english_782.wav,0,peel,1723,62,4,5,français,m,4,0.32341667,-61.83067014,0.92727902
657b128079618c853ed056b4,30,0,2024-02-27T11:10:37.483Z,english_115.wav,0,pill,2589,62,4,5,français,m,0,0.0,-6.4126324,0.37361158
657b128079618c853ed056b4,30,0,2024-02-27T11:10:37.483Z,english_115.wav,0,pill,2589,62,4,5,français,m,1,0.1,-78.70213007,1.5865766
657b128079618c853ed056b4,30,0,2024-02-27T11:10:37.483Z,english_115.wav,0,pill,2589,62,4,5,français,m,2,0.2,-0.36204046,1.00360432
657b128079618c853ed056b4,30,0,2024-02-27T11:10:37.483Z,english_115.wav,0,pill,2589,62,4,5,français,m,3,0.3,-47.97210547,1.3933449
657b128079618c853ed056b4,30,0,2024-02-27T11:10:37.483Z,english_115.wav,0,pill,2589,62,4,5,français,m,4,0.32341667,3.06964689,1.1205092
657b128079618c853ed056b4,31,0,2024-02-27T11:10:37.483Z,english_268.wav,0,peel,409,62,4,5,français,m,0,0.0,55.18591224,1.47327052
657b128079618c853ed056b4,31,0,2024-02-27T11:10:37.483Z,english_268.wav,0,peel,409,62,4,5,français,m,1,0.1,47.37483414,0.95932673
657b128079618c853ed056b4,31,0,2024-02-27T11:10:37.483Z,english_268.wav,0,peel,409,62,4,5,français,m,2,0.2,46.97410588,1.80275919
657b128079618c853ed056b4,31,0,2024-02-27T11:10:37.483Z,english_268.wav,0,peel,409,62,4,5,français,m,3,0.3,-64.08979313,1.6474991
657b128079618c853ed056b4,31,0,2024-02-27T11:10:37.483Z,english_268.wav,0,peel,409,62,4,5,français,m,4,0.32341667,35.8590447,1.56533667
657b128079618c853ed056b4,32,0,2024-02-27T11:10:37.483Z,english_598.wav,0,pill,439,62,4,5,français,m,0,0.0,4.26365523,0.04069017
657b128079618c853ed056b4,32,0,2024-02-27T11:10:37.483Z,english_598.wav,0,pill,439,62,4,5,français,m,1,0.1,-29.634957,1.27980102
657b128079618c853ed056b4,32,0,2024-02-27T11:10:37.483Z,english_598.wav,0,pill,439,62,4,5,français,m,2,0.2,-17.49120793,0.98781586
657b128079618c853ed056b4,32,0,2024-02-27T11:10:37.483Z,english_598.wav,0,pill,439,62,4,5,français,m,3,0.3,-34.93876912,1.55939702
657b128079618c853ed056b4,32,0,2024-02-27T11:10:37.483Z,english_598.wav,0,pill,439,62,4,5,français,m,4,0.32341667,49.49845506,1.74128412
657b128079618c853ed056b4,33,0,2024-02-27T11:10:37.483Z,english_909.wav,0,peel,1279,62,4,5,français,m,0,0.0,-19.4205152,0.17681169
657b128079618c853ed056b4,33,0,2024-02-27T11:10:37.483Z,english_909.wav,0,peel,1279,62,4,5,français,m,1,0.1,-31.830868,1.02014656
657b128079618c853ed056b4,33,0,2024-02-27T11:10:37.483Z,english_909.wav,0,peel,1279,62,4,5,français,m,2,0.2,71.05598051,1.59945112
657b128079618c853ed056b4,33,0,2024-02-27T11:10:37.483Z,english_909.wav,0,peel,1279,62,4,5,français,m,3,0.3,-13.09259164,1.33685121
657b128079618c853ed056b4,33,0,2024-02-27T11:10:37.483Z,english_909.wav,0,peel,1279,62,4,5,français,m,4,0.32341667,-99.47743822,0.41114962
657b128079618c853ed056b4,34,0,2024-02-27T11:10:37.483Z,english_903.wav,0,peel,632,62,4,5,français,m,0,0.0,73.58848698,0.30588109
657b128079618c853ed056b4,34,0,2024-02-27T11:10:37.483Z,english_903.wav,0,peel,632,62,4,5,français,m,1,0.1,-95.58060262,0.88963747
657b128079618c853ed056b4,34,0,2024-02-27T11:10:37.483Z,english_903.wav,0,peel,632,62,4,5,français,m,2,0.2,17.41642173,1.73634476
657b128079618c853ed056b4,34,0,2024-02-27T11:10:37.483Z,english_903.wav,0,peel,632,62,4,5,français,m,3,0.3,94.35223882,0.71257749
657b128079618c853ed056b4,34,0,2024-02-27T11:10:37.483Z,english_903.wav,0,peel,632,62,4,5,français,m,4,0.32341667,-49.48803877,1.4824474
657b128079618c853ed056b4,35,0,2024-02-27T11:10:37.483Z,english_870.wav,0,peel,1038,62,4,5,français,m,0,0.0,-85.66751388,1.70746054
657b128079618c853ed056b4,35,0,2024-02-27T11:10:37.483Z,english_870.wav,0,peel,1038,62,4,5,français,m,1,0.1,30.55194498,0.68953906
657b128079618c853ed056b4,35,0,2024-02-27T11:10:37.483Z,english_870.wav,0,peel,1038,62,4,5,français,m,2,0.2,-98.28008273,1.62274852
657b128079618c853ed056b4,35,0,2024-02-27T11:10:37.483Z,english_870.wav,0,peel,1038,62,4,5,français,m,3,0.3,-58.1418371,0.74531017
657b128079618c853ed056b4,35,0,2024-02-27T11:10:37.483Z,english_870.wav,0,peel,1038,62,4,5,français,m,4,0.32341667,81.20200135,1.06596266
657b128079618c853ed056b4,36,0,2024-02-27T11:10:37.483Z,english_889.wav,0,peel,923,62,4,5,français,m,0,0.0,-92.0683747,0.69619005
657b128079618c853ed056b4,36,0,2024-02-27T11:10:37.483Z,english_889.wav,0,peel,923,62,4,5,français,m,1,0.1,92.92883541,1.46059979
657b128079618c853ed056b4,36,0,2024-02-27T11:10:37.483Z,english_889.wav,0,peel,923,62,4,5,français,m,2,0.2,-38.78028918,1.13034103
657b128079618c853ed056b4,36,0,2024-02-27T11:10:37.483Z,english_889.wav,0,peel,923,62,4,5,français,m,3,0.3,33.48812202,1.0639125
657b128079618c853ed056b4,36,0,2024-02-27T11:10:37.483Z,english_889.wav,0,peel,923,62,4,5,français,m,4,0.32341667,68.79643169,0.42066581
657b128079618c853ed056b4,37,0,2024-02-27T11:10:37.483Z,english_65.wav,0,peel,2478,62,4,5,français,m,0,0.0,-46.88015867,0.62230507
657b128079618c853ed056b4,37,0,2024-02-27T11:10:37.483Z,english_65.wav,0,peel,2478,62,4,5,français,m,1,0.1,54.34027197,1.12355997
657b128079618c853ed056b4,37,0,2024-02-27T11:10:37.483Z,english_65.wav,0,peel,2478,62,4,5,français,m,2,0.2,-65.46386729,1.0507031
657b128079618c853ed056b4,37,0,2024-02-27T11:10:37.483Z,english_65.wav,0,peel,2478,62,4,5,français,m,3,0.3,-66.7533487,0.71238348
657b128079618c853ed056b4,37,0,2024-02-27T11:10:37.483Z,english_65.wav,0,peel,2478,62,4,5,français,m,4,0.32341667,-12.18147599,0.41048607
657b128079618c853ed056b4,38,0,2024-02-27T11:10:37.483Z,english_619.wav,0,peel,661,62,4,5,français,m,0,0.0,38.53351318,1.25542912
657b128079618c853ed056b4,38,0,2024-02-27T11:10:37.483Z,english_619.wav,0,peel,661,62,4,5,français,m,1,0.1,-11.21157995,0.83005785
657b128079618c853ed056b4,38,0,2024-02-27T11:10:37.483Z,english_619.wav,0,peel,661,62,4,5,français,m,2,0.2,29.79887689,1.51254928
657b128079618c853ed056b4,38,0,2024-02-27T11:10:37.483Z,english_619.wav,0,peel,661,62,4,5,français,m,3,0.3,48.6384615,0.37972577
657b128079618c853ed056b4,38,0,2024-02-27T11:10:37.483Z,english_619.wav,0,peel,661,62,4,5,français,m,4,0.32341667,-66.5905708,0.44889873
657b128079618c853ed056b4,39,0,2024-02-27T11:10:37.483Z,english_215.wav,0,peel,454,62,4,5,français,m,0,0.0,-93.71362427,1.31176069
657b128079618c853ed056b4,39,0,2024-02-27T11:10:37.483Z,english_215.wav,0,peel,454,62,4,5,français,m,1,0.1,20.4696733,1.25536714
657b128079618c853ed056b4,39,0,2024-02-27T11:10:37.483Z,english_215.wav,0,peel,454,62,4,5,français,m,2,0.2,-66.57352715,1.5696385
657b128079618c853ed056b4,39,0,2024-02-27T11:10:37.483Z,english_215.wav,0,peel,454,62,4,5,français,m,3,0.3,-0.6079782,0.03144419
657b128079618c853ed056b4,39,0,2024-02-27T11:10:37.483Z,english_215.wav,0,peel,454,62,4,5,français,m,4,0.32341667,-5.73921948,0.79048669
657b128079618c853ed056b4,40,0,2024-02-27T11:10:37.483Z,english_968.wav,0,pill,545,62,4,5,français,m,0,0.0,-36.76350372,0.52322451
657b128079618c853ed056b4,40,0,2024-02-27T11:10:37.483Z,english_968.wav,0,pill,545,62,4,5,français,m,1,0.1,-99.8991193,0.66419732
657b128079618c853ed056b4,40,0,2024-02-27T11:10:37.483Z,english_968.wav,0,pill,545,62,4,5,français,m,2,0.2,27.503089,0.44232096
657b128079618c853ed056b4,40,0,2024-02-27T11:10:37.483Z,english_968.wav,0,pill,545,62,4,5,français,m,3,0.3,-34.85106147,1.90778707
657b128079618c853ed056b4,40,0,2024-02-27T11:10:37.483Z,english_968.wav,0,pill,545,62,4,5,français,m,4,0.32341667,68.2869663,0.59652698
657b128079618c853ed056b4,41,0,2024-02-27T11:10:37.483Z,english_877.wav,0,peel,500,62,4,5,français,m,0,0.0,49.36401037,1.25510861
657b128079618c853ed056b4,41,0,2024-02-27T11:10:37.483Z,english_877.wav,0,peel,500,62,4,5,français,m,1,0.1,15.17280231,0.84700305
657b128079618c853ed056b4,41,0,2024-02-27T11:10:37.483Z,english_877.wav,0,peel,500,62,4,5,français,m,2,0.2,22.36436744,0.32703774
657b128079618c853ed056b4,41,0,2024-02-27T11:10:37.483Z,english_877.wav,0,peel,500,62,4,5,français,m,3,0.3,-25.51979868,1.72637958
657b128079618c853ed056b4,41,0,2024-02-27T11:10:37.483Z,english_877.wav,0,peel,500,62,4,5,français,m,4,0.32341667,-55.72443313,0.52117686
657b128079618c853ed056b4,42,0,2024-02-27T11:10:37.483Z,english_279.wav,0,peel,770,62,4,5,français,m,0,0.0,-20.90398108,0.60114424
657b128079618c853ed056b4,42,0,2024-02-27T11:10:37.483Z,english_279.wav,0,peel,770,62,4,5,français,m,1,0.1,98.83098338,0.92336304
657b128079618c853ed056b4,42,0,2024-02-27T11:10:37.483Z,english_279.wav,0,peel,770,62,4,5,français,m,2,0.2,-95.37608427,1.39045705
657b128079618c853ed056b4,42,0,2024-02-27T11:10:37.483Z,english_279.wav,0,peel,770,62,4,5,français,m,3,0.3,-52.65380993,0.64938935
657b128079618c853ed056b4,42,0,2024-02-27T11:10:37.483Z,english_279.wav,0,peel,770,62,4,5,français,m,4,0.32341667,47.72500112,1.57478054
657b128079618c853ed056b4,43,0,2024-02-27T11:10:37.483Z,english_200.wav,0,peel,571,62,4,5,français,m,0,0.0,48.98677304,1.07797747
657b128079618c853ed056b4,43,0,2024-02-27T11:10:37.483Z,english_200.wav,0,peel,571,62,4,5,français,m,1,0.1,13.54292536,1.23698451
657b128079618c853ed056b4,43,0,2024-02-27T11:10:37.483Z,english_200.wav,0,peel,571,62,4,5,français,m,2,0.2,15.98335964,0.85343662
657b128079618c853ed056b4,43,0,2024-02-27T11:10:37.483Z,english_200.wav,0,peel,571,62,4,5,français,m,3,0.3,-46.7743147,1.38707984
657b128079618c853ed056b4,43,0,2024-02-27T11:10:37.483Z,english_200.wav,0,peel,571,62,4,5,français,m,4,0.32341667,-12.18386714,0.65409939
657b128079618c853ed056b4,44,0,2024-02-27T11:10:37.483Z,english_815.wav,0,peel,590,62,4,5,français,m,0,0.0,-76.1669867,0.29426078
657b128079618c853ed056b4,44,0,2024-02-27T11:10:37.483Z,english_815.wav,0,peel,590,62,4,5,français,m,1,0.1,-40.517901,0.96858733
657b128079618c853ed056b4,44,0,2024-02-27T11:10:37.483Z,english_815.wav,0,peel,590,62,4,5,français,m,2,0.2,-46.68959253,0.83382199
657b128079618c853ed056b4,44,0,2024-02-27T11:10:37.483Z,english_815.wav,0,peel,590,62,4,5,français,m,3,0.3,-79.23468646,1.13727176
657b128079618c853ed056b4,44,0,2024-02-27T11:10:37.483Z,english_815.wav,0,peel,590,62,4,5,français,m,4,0.32341667,-63.63497058,0.09357312
657b128079618c853ed056b4,45,0,2024-02-27T11:10:37.483Z,english_259.wav,0,peel,1227,62,4,5,français,m,0,0.0,7.90187791,1.3064553
657b128079618c853ed056b4,45,0,2024-02-27T11:10:37.483Z,english_259.wav,0,peel,1227,62,4,5,français,m,1,0.1,31.67295647,1.01100372
657b128079618c853ed056b4,45,0,2024-02-27T11:10:37.483Z,english_259.wav,0,peel,1227,62,4,5,français,m,2,0.2,-53.65780041,0.35520266
657b128079618c853ed056b4,45,0,2024-02-27T11:10:37.483Z,english_259.wav,0,peel,1227,62,4,5,français,m,3,0.3,-72.94929757,1.35187683
657b128079618c853ed056b4,45,0,2024-02-27T11:10:37.483Z,english_259.wav,0,peel,1227,62,4,5,français,m,4,0.32341667,58.35152721,1.39599087
657b128079618c853ed056b4,46,0,2024-02-27T11:10:37.483Z,english_403.wav,0,peel,494,62,4,5,français,m,0,0.0,-92.65414009,1.93574734
657b128079618c853ed056b4,46,0,2024-02-27T11:10:37.483Z,english_403.wav,0,peel,494,62,4,5,français,m,1,0.1,75.99659731,0.36447309
657b128079618c853ed056b4,46,0,2024-02-27T11:10:37.483Z,english_403.wav,0,peel,494,62,4,5,français,m,2,0.2,-27.37801557,1.02888701
657b128079618c853ed056b4,46,0,2024-02-27T11:10:37.483Z,english_403.wav,0,peel,494,62,4,5,français,m,3,0.3,-80.04540334,0.02385722
657b128079618c853ed056b4,46,0,2024-02-27T11:10:37.483Z,english_403.wav,0,peel,494,62,4,5,français,m,4,0.32341667,30.50648557,1.40553938
657b128079618c853ed056b4,47,0,2024-02-27T11:10:37.483Z,english_236.wav,0,peel,532,62,4,5,français,m,0,0.0,14.26564849,0.89253674
657b128079618c853ed056b4,47,0,2024-02-27T11:10:37.483Z,english_236.wav,0,peel,532,62,4,5,français,m,1,0.1,60.97219358,0.38957934
657b128079618c853ed056b4,47,0,2024-02-27T11:10:37.483Z,english_236.wav,0,peel,532,62,4,5,français,m,2,0.2,-12.39626346,1.55558051
657b128079618c853ed056b4,47,0,2024-02-27T11:10:37.483Z,english_236.wav,0,peel,532,62,4,5,français,m,3,0.3,-62.87774076,0.2682718
657b128079618c853ed056b4,47,0,2024-02-27T11:10:37.483Z,english_236.wav,0,peel,532,62,4,5,français,m,4,0.32341667,-75.97684705,1.92182597
657b128079618c853ed056b4,48,0,2024-02-27T11:10:37.483Z,english_599.wav,0,peel,481,62,4,5,français,m,0,0.0,-57.09760884,1.03382432
657b128079618c853ed056b4,48,0,2024-02-27T11:10:37.483Z,english_599.wav,0,peel,481,62,4,5,français,m,1,0.1,31.85682387,1.26885403
657b128079618c853ed056b4,48,0,2024-02-27T11:10:37.483Z,english_599.wav,0,peel,481,62,4,5,français,m,2,0.2,-6.73425875,1.24717465
657b128079618c853ed056b4,48,0,2024-02-27T11:10:37.483Z,english_599.wav,0,peel,481,62,4,5,français,m,3,0.3,47.95830633,1.34338376
657b128079618c853ed056b4,48,0,2024-02-27T11:10:37.483Z,english_599.wav,0,peel,481,62,4,5,français,m,4,0.32341667,-83.8084816,0.34550335
657b128079618c853ed056b4,49,0,2024-02-27T11:10:37.483Z,english_589.wav,0,peel,655,62,4,5,français,m,0,0.0,58.55453646,1.98928345
657b128079618c853ed056b4,49,0,2024-02-27T11:10:37.483Z,english_589.wav,0,peel,655,62,4,5,français,m,1,0.1,30.45164265,1.49107718
657b128079618c853ed056b4,49,0,2024-02-27T11:10:37.483Z,english_589.wav,0,peel,655,62,4,5,français,m,2,0.2,-45.43400091,0.52639062
657b128079618c853ed056b4,49,0,2024-02-27T11:10:37.483Z,english_589.wav,0,peel,655,62,4,5,français,m,3,0.3,84.99084473,0.34590986
657b128079618c853ed056b4,49,0,2024-02-27T11:10:37.483Z,english_589.wav,0,peel,655,62,4,5,français,m,4,0.32341667,65.45411119,0.67022481
657b128079618c853ed056b4,50,1,2024-02-27T11:10:37.483Z,english_457.wav,0,pill,2644,62,4,5,français,m,0,0.0,-73.30847947,0.35525387
657b128079618c853ed056b4,50,1,2024-02-27T11:10:37.483Z,english_457.wav,0,pill,2644,62,4,5,français,m,1,0.1,-25.74413936,0.90483023
657b128079618c853ed056b4,50,1,2024-02-27T11:10:37.483Z,english_457.wav,0,pill,2644,62,4,5,français,m,2,0.2,8.82772976,1.30004432
657b128079618c853ed056b4,50,1,2024-02-27T11:10:37.483Z,english_457.wav,0,pill,2644,62,4,5,français,m,3,0.3,-2.30416086,0.93422762
657b128079618c853ed056b4,50,1,2024-02-27T11:10:37.483Z,english_457.wav,0,pill,2644,62,4,5,français,m,4,0.32341667,-34.04493945,1.31504388
657b128079618c853ed056b4,51,1,2024-02-27T11:10:37.483Z,english_552.wav,0,pill,560,62,4,5,français,m,0,0.0,-54.22317773,0.14479657
657b128079618c853ed056b4,51,1,2024-02-27T11:10:37.483Z,english_552.wav,0,pill,560,62,4,5,français,m,1,0.1,23.75537749,1.96762023
657b128079618c853ed056b4,51,1,2024-02-27T11:10:37.483Z,english_552.wav,0,pill,560,62,4,5,français,m,2,0.2,-67.43154965,0.75812729
657b128079618c853ed056b4,51,1,2024-02-27T11:10:37.483Z,english_552.wav,0,pill,560,62,4,5,français,m,3,0.3,-83.62242399,0.84420129
657b128079618c853ed056b4,51,1,2024-02-27T11:10:37.483Z,english_552.wav,0,pill,560,62,4,5,français,m,4,0.32341667,64.2322812,0.73382384
657b128079618c853ed056b4,52,1,2024-02-27T11:10:37.483Z,english_209.wav,0,pill,393,62,4,5,français,m,0,0.0,14.15361396,1.44232267
657b128079618c853ed056b4,52,1,2024-02-27T11:10:37.483Z,english_209.wav,0,pill,393,62,4,5,français,m,1,0.1,85.95109622,1.49291498
657b128079618c853ed056b4,52,1,2024-02-27T11:10:37.483Z,english_209.wav,0,pill,393,62,4,5,français,m,2,0.2,18.04804687,1.19611731
657b128079618c853ed056b4,52,1,2024-02-27T11:10:37.483Z,english_209.wav,0,pill,393,62,4,5,français,m,3,0.3,28.2522976,1.49647535
657b128079618c853ed056b4,52,1,2024-02-27T11:10:37.483Z,english_209.wav,0,pill,393,62,4,5,français,m,4,0.32341667,5.36776296,0.30324849
657b128079618c853ed056b4,53,1,2024-02-27T11:10:37.483Z,english_241.wav,0,peel,590,62,4,5,français,m,0,0.0,68.9743722,1.94478574
657b128079618c853ed056b4,53,1,2024-02-27T11:10:37.483Z,english_241.wav,0,peel,590,62,4,5,français,m,1,0.1,68.48567391,1.84895789
657b128079618c853ed056b4,53,1,2024-02-27T11:10:37.483Z,english_241.wav,0,peel,590,62,4,5,français,m,2,0.2,12.6952975,1.1085625
657b128079618c853ed056b4,53,1,2024-02-27T11:10:37.483Z,english_241.wav,0,peel,590,62,4,5,français,m,3,0.3,61.42298605,1.36682755
657b128079618c853ed056b4,53,1,2024-02-27T11:10:37.483Z,english_241.wav,0,peel,590,62,4,5,français,m,4,0.32341667,-18.578671,0.93494379
657b128079618c853ed056b4,54,1,2024-02-27T11:10:37.483Z,english_341.wav,0,pill,899,62,4,5,français,m,0,0.0,-3.29192029,0.92007635
657b128079618c853ed056b4,54,1,2024-02-27T11:10:37.483Z,english_341.wav,0,pill,899,62,4,5,français,m,1,0.1,-63.07334109,0.76766635
657b128079618c853ed056b4,54,1,2024-02-27T11:10:37.483Z,english_341.wav,0,pill,899,62,4,5,français,m,2,0.2,-52.81319379,0.00478881
657b128079618c853ed056b4,54,1,2024-02-27T11:10:37.483Z,english_341.wav,0,pill,899,62,4,5,français,m,3,0.3,47.65296252,0.69804387
657b128079618c853ed056b4,54,1,2024-02-27T11:10:37.483Z,english_341.wav,0,pill,899,62,4,5,français,m,4,0.32341667,-2.67842738,0.15231077
657b128079618c853ed056b4,55,1,2024-02-27T11:10:37.483Z,english_550.wav,0,peel,1480,62,4,5,français,m,0,0.0,19.46608022,0.78600887
657b128079618c853ed056b4,55,1,2024-02-27T11:10:37.483Z,english_550.wav,0,peel,1480,62,4,5,français,m,1,0.1,-94.3556307,1.03273328
657b128079618c853ed056b4,55,1,2024-02-27T11:10:37.483Z,english_550.wav,0,peel,1480,62,4,5,français,m,2,0.2,-80.90695222,0.36941932
657b128079618c853ed056b4,55,1,2024-02-27T11:10:37.483Z,english_550.wav,0,peel,1480,62,4,5,français,m,3,0.3,-65.36230075,0.47038634
657b128079618c853ed056b4,55,1,2024-02-27T11:10:37.483Z,english_550.wav,0,peel,1480,62,4,5,français,m,4,0.32341667,-18.45722395,0.11798167
657b128079618c853ed056b4,56,1,2024-02-27T11:10:37.483Z,english_267.wav,0,peel,432,62,4,5,français,m,0,0.0,-83.13365237,1.47105267
657b128079618c853ed056b4,56,1,2024-02-27T11:10:37.483Z,english_267.wav,0,peel,432,62,4,5,français,m,1,0.1,76.30308178,0.87521108
657b128079618c853ed056b4,56,1,2024-02-27T11:10:37.483Z,english_267.wav,0,peel,432,62,4,5,français,m,2,0.2,53.87961391,1.04060287
657b128079618c853ed056b4,56,1,2024-02-27T11:10:37.483Z,english_267.wav,0,peel,432,62,4,5,français,m,3,0.3,62.72167491,0.25080793
657b128079618c853ed056b4,56,1,2024-02-27T11:10:37.483Z,english_267.wav,0,peel,432,62,4,5,français,m,4,0.32341667,-33.79574379,1.11989054
657b128079618c853ed056b4,57,1,2024-02-27T11:10:37.483Z,english_850.wav,0,peel,422,62,4,5,français,m,0,0.0,79.79173837,1.46721922
657b128079618c853ed056b4,57,1,2024-02-27T11:10:37.483Z,english_850.wav,0,peel,422,62,4,5,français,m,1,0.1,-44.24877139,0.57242606
657b128079618c853ed056b4,57,1,2024-02-27T11:10:37.483Z,english_850.wav,0,peel,422,62,4,5,français,m,2,0.2,74.77623955,0.15597525
657b128079618c853ed056b4,57,1,2024-02-27T11:10:37.483Z,english_850.wav,0,peel,422,62,4,5,français,m,3,0.3,-86.32612653,1.3358867
657b128079618c853ed056b4,57,1,2024-02-27T11:10:37.483Z,english_850.wav,0,peel,422,62,4,5,français,m,4,0.32341667,-11.10230867,1.14618682
657b128079618c853ed056b4,58,1,2024-02-27T11:10:37.483Z,english_301.wav,0,peel,462,62,4,5,français,m,0,0.0,-78.18927369,1.31935747
657b128079618c853ed056b4,58,1,2024-02-27T11:10:37.483Z,english_301.wav,0,peel,462,62,4,5,français,m,1,0.1,-3.52439177,1.41636911
657b128079618c853ed056b4,58,1,2024-02-27T11:10:37.483Z,english_301.wav,0,peel,462,62,4,5,français,m,2,0.2,-23.22473782,1.38842862
657b128079618c853ed056b4,58,1,2024-02-27T11:10:37.483Z,english_301.wav,0,peel,462,62,4,5,français,m,3,0.3,-11.7220967,1.25169603
657b128079618c853ed056b4,58,1,2024-02-27T11:10:37.483Z,english_301.wav,0,peel,462,62,4,5,français,m,4,0.32341667,-5.78047748,1.38740104
657b128079618c853ed056b4,59,1,2024-02-27T11:10:37.483Z,english_725.wav,0,pill,2996,62,4,5,français,m,0,0.0,26.80600371,0.25466557
657b128079618c853ed056b4,59,1,2024-02-27T11:10:37.483Z,english_725.wav,0,pill,2996,62,4,5,français,m,1,0.1,82.24352357,0.77088778
657b128079618c853ed056b4,59,1,2024-02-27T11:10:37.483Z,english_725.wav,0,pill,2996,62,4,5,français,m,2,0.2,-3.79901328,0.70697722
657b128079618c853ed056b4,59,1,2024-02-27T11:10:37.483Z,english_725.wav,0,pill,2996,62,4,5,français,m,3,0.3,68.54562933,1.24247197
657b128079618c853ed056b4,59,1,2024-02-27T11:10:37.483Z,english_725.wav,0,pill,2996,62,4,5,français,m,4,0.32341667,-39.79698803,1.34526742
657b128079618c853ed056b4,60,1,2024-02-27T11:10:37.483Z,english_769.wav,0,pill,409,62,4,5,français,m,0,0.0,-12.68288087,1.59358978
657b128079618c853ed056b4,60,1,2024-02-27T11:10:37.483Z,english_769.wav,0,pill,409,62,4,5,français,m,1,0.1,13.58895245,0.16681031
657b128079618c853ed056b4,60,1,2024-02-27T11:10:37.483Z,english_769.wav,0,pill,409,62,4,5,français,m,2,0.2,-5.57429841,0.74292099
657b128079618c853ed056b4,60,1,2024-02-27T11:10:37.483Z,english_769.wav,0,pill,409,62,4,5,français,m,3,0.3,-26.44516544,0.17250104
657b128079618c853ed056b4,60,1,2024-02-27T11:10:37.483Z,english_769.wav,0,pill,409,62,4,5,français,m,4,0.32341667,85.93285426,0.16730253
657b128079618c853ed056b4,61,1,2024-02-27T11:10:37.483Z,english_340.wav,0,pill,653,62,4,5,français,m,0,0.0,42.62794877,1.44385011
657b128079618c853ed056b4,61,1,2024-02-27T11:10:37.483Z,english_340.wav,0,pill,653,62,4,5,français,m,1,0.1,67.09042835,1.29329602
657b128079618c853ed056b4,61,1,2024-02-27T11:10:37.483Z,english_340.wav,0,pill,653,62,4,5,français,m,2,0.2,-80.28719593,1.71068781
657b128079618c853ed056b4,61,1,2024-02-27T11:10:37.483Z,english_340.wav,0,pill,653,62,4,5,français,m,3,0.3,-47.97556268,0.48872717
657b128079618c853ed056b4,61,1,2024-02-27T11:10:37.483Z,english_340.wav,0,pill,653,62,4,5,français,m,4,0.32341667,32.7013797,1.09000269
657b128079618c853ed056b4,62,1,2024-02-27T11:10:37.483Z,english_168.wav,0,pill,1204,62,4,5,français,m,0,0.0,-69.10300998,1.14537751
657b128079618c853ed056b4,62,1,2024-02-27T11:10:37.483Z,english_168.wav,0,pill,1204,62,4,5,français,m,1,0.1,-24.44784794,1.06854972
657b128079618c853ed056b4,62,1,2024-02-27T11:10:37.483Z,english_168.wav,0,pill,1204,62,4,5,français,m,2,0.2,35.31321785,0.45192262
657b128079618c853ed056b4,62,1,2024-02-27T11:10:37.483Z,english_168.wav,0,pill,1204,62,4,5,français,m,3,0.3,-41.77498511,0.2846318
657b128079618c853ed056b4,62,1,2024-02-27T11:10:37.483Z,english_168.wav,0,pill,1204,62,4,5,français,m,4,0.32341667,19.92389913,0.9853942
657b128079618c853ed056b4,63,1,2024-02-27T11:10:37.483Z,english_970.wav,0,pill,270,62,4,5,français,m,0,0.0,37.22911191,0.60712849
657b128079618c853ed056b4,63,1,2024-02-27T11:10:37.483Z,english_970.wav,0,pill,270,62,4,5,français,m,1,0.1,36.57191813,1.26781741
657b128079618c853ed056b4,63,1,2024-02-27T11:10:37.483Z,english_970.wav,0,pill,270,62,4,5,français,m,2,0.2,20.2344678,1.29373459
657b128079618c853ed056b4,63,1,2024-02-27T11:10:37.483Z,english_970.wav,0,pill,270,62,4,5,français,m,3,0.3,-86.31030026,0.18112256
657b128079618c853ed056b4,63,1,2024-02-27T11:10:37.483Z,english_970.wav,0,pill,270,62,4,5,français,m,4,0.32341667,-83.96880691,1.07780169
657b128079618c853ed056b4,64,1,2024-02-27T11:10:37.483Z,english_151.wav,0,pill,337,62,4,5,français,m,0,0.0,-8.78950662,1.36403682
657b128079618c853ed056b4,64,1,2024-02-27T11:10:37.483Z,english_151.wav,0,pill,337,62,4,5,français,m,1,0.1,-1.70650264,1.76375426
657b128079618c853ed056b4,64,1,2024-02-27T11:10:37.483Z,english_151.wav,0,pill,337,62,4,5,français,m,2,0.2,-17.50286784,1.43087438
657b128079618c853ed056b4,64,1,2024-02-27T11:10:37.483Z,english_151.wav,0,pill,337,62,4,5,français,m,3,0.3,88.78233286,1.18017331
657b128079618c853ed056b4,64,1,2024-02-27T11:10:37.483Z,english_151.wav,0,pill,337,62,4,5,français,m,4,0.32341667,55.08117545,1.30400061
657b128079618c853ed056b4,65,1,2024-02-27T11:10:37.483Z,english_981.wav,0,pill,376,62,4,5,français,m,0,0.0,-19.49446297,1.96452006
657b128079618c853ed056b4,65,1,2024-02-27T11:10:37.483Z,english_981.wav,0,pill,376,62,4,5,français,m,1,0.1,-69.0386812,1.2006287
657b128079618c853ed056b4,65,1,2024-02-27T11:10:37.483Z,english_981.wav,0,pill,376,62,4,5,français,m,2,0.2,-25.77088537,0.98600753
657b128079618c853ed056b4,65,1,2024-02-27T11:10:37.483Z,english_981.wav,0,pill,376,62,4,5,français,m,3,0.3,65.67633712,0.21362544
657b128079618c853ed056b4,65,1,2024-02-27T11:10:37.483Z,english_981.wav,0,pill,376,62,4,5,français,m,4,0.32341667,-6.1640169,0.33780549
657b128079618c853ed056b4,66,1,2024-02-27T11:10:37.483Z,english_693.wav,0,pill,758,62,4,5,français,m,0,0.0,-83.71635172,0.35753224
657b128079618c853ed056b4,66,1,2024-02-27T11:10:37.483Z,english_693.wav,0,pill,758,62,4,5,français,m,1,0.1,32.46406691,1.09553371
657b128079618c853ed056b4,66,1,2024-02-27T11:10:37.483Z,english_693.wav,0,pill,758,62,4,5,français,m,2,0.2,8.27548994,1.67166692
657b128079618c853ed056b4,66,1,2024-02-27T11:10:37.483Z,english_693.wav,0,pill,758,62,4,5,français,m,3,0.3,15.80660539,1.61413862
657b128079618c853ed056b4,66,1,2024-02-27T11:10:37.483Z,english_693.wav,0,pill,758,62,4,5,français,m,4,0.32341667,74.32681132,1.90943184
657b128079618c853ed056b4,67,1,2024-02-27T11:10:37.483Z,english_159.wav,0,pill,932,62,4,5,français,m,0,0.0,-83.7072706,0.09138871
657b128079618c853ed056b4,67,1,2024-02-27T11:10:37.483Z,english_159.wav,0,pill,932,62,4,5,français,m,1,0.1,-62.69238784,0.63335487
657b128079618c853ed056b4,67,1,2024-02-27T11:10:37.483Z,english_159.wav,0,pill,932,62,4,5,français,m,2,0.2,22.09248507,1.23550763
657b128079618c853ed056b4,67,1,2024-02-27T11:10:37.483Z,english_159.wav,0,pill,932,62,4,5,français,m,3,0.3,-80.94681782,1.83356136
657b128079618c853ed056b4,67,1,2024-02-27T11:10:37.483Z,english_159.wav,0,pill,932,62,4,5,français,m,4,0.32341667,-55.76861956,0.76796393
657b128079618c853ed056b4,68,1,2024-02-27T11:10:37.483Z,english_944.wav,0,peel,2674,62,4,5,français,m,0,0.0,70.24274457,0.61048125
657b128079618c853ed056b4,68,1,2024-02-27T11:10:37.483Z,english_944.wav,0,peel,2674,62,4,5,français,m,1,0.1,-48.79231442,1.63310511
657b128079618c853ed056b4,68,1,2024-02-27T11:10:37.483Z,english_944.wav,0,peel,2674,62,4,5,français,m,2,0.2,-6.42324239,0.21687347
657b128079618c853ed056b4,68,1,2024-02-27T11:10:37.483Z,english_944.wav,0,peel,2674,62,4,5,français,m,3,0.3,-7.7338836,0.45027042
657b128079618c853ed056b4,68,1,2024-02-27T11:10:37.483Z,english_944.wav,0,peel,2674,62,4,5,français,m,4,0.32341667,69.46240638,0.90306897
657b128079618c853ed056b4,69,1,2024-02-27T11:10:37.483Z,english_248.wav,0,pill,1446,62,4,5,français,m,0,0.0,62.49888219,0.01612638
657b128079618c853ed056b4,69,1,2024-02-27T11:10:37.483Z,english_248.wav,0,pill,1446,62,4,5,français,m,1,0.1,-37.43052778,0.65001727
657b128079618c853ed056b4,69,1,2024-02-27T11:10:37.483Z,english_248.wav,0,pill,1446,62,4,5,français,m,2,0.2,50.26474258,1.10053755
657b128079618c853ed056b4,69,1,2024-02-27T11:10:37.483Z,english_248.wav,0,pill,1446,62,4,5,français,m,3,0.3,-90.47385391,0.93833438
657b128079618c853ed056b4,69,1,2024-02-27T11:10:37.483Z,english_248.wav,0,pill,1446,62,4,5,français,m,4,0.32341667,-16.4169983,1.90627888
657b128079618c853ed056b4,70,1,2024-02-27T11:10:37.483Z,english_539.wav,0,peel,334,62,4,5,français,m,0,0.0,-67.77604021,0.83598486
657b128079618c853ed056b4,70,1,2024-02-27T11:10:37.483Z,english_539.wav,0,peel,334,62,4,5,français,m,1,0.1,61.22104537,1.51877163
657b128079618c853ed056b4,70,1,2024-02-27T11:10:37.483Z,english_539.wav,0,peel,334,62,4,5,français,m,2,0.2,38.09257369,1.73578169
657b128079618c853ed056b4,70,1,2024-02-27T11:10:37.483Z,english_539.wav,0,peel,334,62,4,5,français,m,3,0.3,-20.76875757,0.52680037
657b128079618c853ed056b4,70,1,2024-02-27T11:10:37.483Z,english_539.wav,0,peel,334,62,4,5,français,m,4,0.32341667,-47.71444482,1.99278149
657b128079618c853ed056b4,71,1,2024-02-27T11:10:37.483Z,english_866.wav,0,peel,709,62,4,5,français,m,0,0.0,-75.90204766,0.10539101
657b128079618c853ed056b4,71,1,2024-02-27T11:10:37.483Z,english_866.wav,0,peel,709,62,4,5,français,m,1,0.1,-89.66881049,1.63294926
657b128079618c853ed056b4,71,1,2024-02-27T11:10:37.483Z,english_866.wav,0,peel,709,62,4,5,français,m,2,0.2,-86.78535298,0.21421971
657b128079618c853ed056b4,71,1,2024-02-27T11:10:37.483Z,english_866.wav,0,peel,709,62,4,5,français,m,3,0.3,50.96369643,1.47001367
657b128079618c853ed056b4,71,1,2024-02-27T11:10:37.483Z,english_866.wav,0,peel,709,62,4,5,français,m,4,0.32341667,36.94157773,1.56453662
657b128079618c853ed056b4,72,1,2024-02-27T11:10:37.483Z,english_684.wav,0,peel,653,62,4,5,français,m,0,0.0,0.36394418,1.65924935
657b128079618c853ed056b4,72,1,2024-02-27T11:10:37.483Z,english_684.wav,0,peel,653,62,4,5,français,m,1,0.1,28.47964645,1.32149406
657b128079618c853ed056b4,72,1,2024-02-27T11:10:37.483Z,english_684.wav,0,peel,653,62,4,5,français,m,2,0.2,60.47995017,0.32417562
657b128079618c853ed056b4,72,1,2024-02-27T11:10:37.483Z,english_684.wav,0,peel,653,62,4,5,français,m,3,0.3,-33.43266819,1.42108385
657b128079618c853ed056b4,72,1,2024-02-27T11:10:37.483Z,english_684.wav,0,peel,653,62,4,5,français,m,4,0.32341667,-31.86672206,1.29243289
657b128079618c853ed056b4,73,1,2024-02-27T11:10:37.483Z,english_95.wav,0,peel,664,62,4,5,français,m,0,0.0,-9.17523314,0.73915747
657b128079618c853ed056b4,73,1,2024-02-27T11:10:37.483Z,english_95.wav,0,peel,664,62,4,5,français,m,1,0.1,-95.16832451,1.01172325
657b128079618c853ed056b4,73,1,2024-02-27T11:10:37.483Z,english_95.wav,0,peel,664,62,4,5,français,m,2,0.2,-21.6130257,1.19817679
657b128079618c853ed056b4,73,1,2024-02-27T11:10:37.483Z,english_95.wav,0,peel,664,62,4,5,français,m,3,0.3,0.51006416,1.53285694
657b128079618c853ed056b4,73,1,2024-02-27T11:10:37.483Z,english_95.wav,0,peel,664,62,4,5,français,m,4,0.32341667,43.00131518,1.08383215
657b128079618c853ed056b4,74,1,2024-02-27T11:10:37.483Z,english_266.wav,0,peel,329,62,4,5,français,m,0,0.0,16.70772117,0.81064175
657b128079618c853ed056b4,74,1,2024-02-27T11:10:37.483Z,english_266.wav,0,peel,329,62,4,5,français,m,1,0.1,-61.82971906,1.48442032
657b128079618c853ed056b4,74,1,2024-02-27T11:10:37.483Z,english_266.wav,0,peel,329,62,4,5,français,m,2,0.2,-31.41060896,1.39445033
657b128079618c853ed056b4,74,1,2024-02-27T11:10:37.483Z,english_266.wav,0,peel,329,62,4,5,français,m,3,0.3,-8.94045194,1.01594082
657b128079618c853ed056b4,74,1,2024-02-27T11:10:37.483Z,english_266.wav,0,peel,329,62,4,5,français,m,4,0.32341667,-27.43066022,0.75934284
657b128079618c853ed056b4,75,1,2024-02-27T11:10:37.483Z,english_854.wav,0,peel,176,62,4,5,français,m,0,0.0,-3.2532791,1.78139632
657b128079618c853ed056b4,75,1,2024-02-27T11:10:37.483Z,english_854.wav,0,peel,176,62,4,5,français,m,1,0.1,19.40039505,1.50161717
657b128079618c853ed056b4,75,1,2024-02-27T11:10:37.483Z,english_854.wav,0,peel,176,62,4,5,français,m,2,0.2,-14.62360686,0.8978804
657b128079618c853ed056b4,75,1,2024-02-27T11:10:37.483Z,english_854.wav,0,peel,176,62,4,5,français,m,3,0.3,-63.13820282,1.66267041
657b128079618c853ed056b4,75,1,2024-02-27T11:10:37.483Z,english_854.wav,0,peel,176,62,4,5,français,m,4,0.32341667,44.42181264,1.68588082
657b128079618c853ed056b4,76,1,2024-02-27T11:10:37.483Z,english_857.wav,0,peel,320,62,4,5,français,m,0,0.0,-33.07031843,1.04325491
657b128079618c853ed056b4,76,1,2024-02-27T11:10:37.483Z,english_857.wav,0,peel,320,62,4,5,français,m,1,0.1,12.9349985,0.44078978
657b128079618c853ed056b4,76,1,2024-02-27T11:10:37.483Z,english_857.wav,0,peel,320,62,4,5,français,m,2,0.2,4.33682254,1.36028147
657b128079618c853ed056b4,76,1,2024-02-27T11:10:37.483Z,english_857.wav,0,peel,320,62,4,5,français,m,3,0.3,90.68056828,1.16905302
657b128079618c853ed056b4,76,1,2024-02-27T11:10:37.483Z,english_857.wav,0,peel,320,62,4,5,français,m,4,0.32341667,37.69781409,1.24618942
657b128079618c853ed056b4,77,1,2024-02-27T11:10:37.483Z,english_164.wav,0,peel,380,62,4,5,français,m,0,0.0,-18.99376005,1.91320144
657b128079618c853ed056b4,77,1,2024-02-27T11:10:37.483Z,english_164.wav,0,peel,380,62,4,5,français,m,1,0.1,-38.65269109,0.23857652
657b128079618c853ed056b4,77,1,2024-02-27T11:10:37.483Z,english_164.wav,0,peel,380,62,4,5,français,m,2,0.2,64.75288033,1.41883879
657b128079618c853ed056b4,77,1,2024-02-27T11:10:37.483Z,english_164.wav,0,peel,380,62,4,5,français,m,3,0.3,-33.8407164,1.34667564
657b128079618c853ed056b4,77,1,2024-02-27T11:10:37.483Z,english_164.wav,0,peel,380,62,4,5,français,m,4,0.32341667,27.96502681,0.04602263
657b128079618c853ed056b4,78,1,2024-02-27T11:10:37.483Z,english_26.wav,0,peel,424,62,4,5,français,m,0,0.0,54.38966875,1.86679487
657b128079618c853ed056b4,78,1,2024-02-27T11:10:37.483Z,english_26.wav,0,peel,424,62,4,5,français,m,1,0.1,0.3460174,0.79762949
657b128079618c853ed056b4,78,1,2024-02-27T11:10:37.483Z,english_26.wav,0,peel,424,62,4,5,français,m,2,0.2,-72.33258957,0.93682052
657b128079618c853ed056b4,78,1,2024-02-27T11:10:37.483Z,english_26.wav,0,peel,424,62,4,5,français,m,3,0.3,67.09142092,1.42469209
657b128079618c853ed056b4,78,1,2024-02-27T11:10:37.483Z,english_26.wav,0,peel,424,62,4,5,français,m,4,0.32341667,16.00565239,1.17807545
657b128079618c853ed056b4,79,1,2024-02-27T11:10:37.483Z,english_229.wav,0,pill,5718,62,4,5,français,m,0,0.0,51.56916705,1.25898044
657b128079618c853ed056b4,79,1,2024-02-27T11:10:37.483Z,english_229.wav,0,pill,5718,62,4,5,français,m,1,0.1,-51.28327497,0.34588319
657b128079618c853ed056b4,79,1,2024-02-27T11:10:37.483Z,english_229.wav,0,pill,5718,62,4,5,français,m,2,0.2,97.78221202,1.91985924
657b128079618c853ed056b4,79,1,2024-02-27T11:10:37.483Z,english_229.wav,0,pill,5718,62,4,5,français,m,3,0.3,-75.98126047,0.82059623
657b128079618c853ed056b4,79,1,2024-02-27T11:10:37.483Z,english_229.wav,0,pill,5718,62,4,5,français,m,4,0.32341667,-44.05308002,1.38191391
657b128079618c853ed056b4,80,1,2024-02-27T11:10:37.483Z,english_894.wav,0,pill,503,62,4,5,français,m,0,0.0,55.36181915,0.37154348
657b128079618c853ed056b4,80,1,2024-02-27T11:10:37.483Z,english_894.wav,0,pill,503,62,4,5,français,m,1,0.1,1.74798824,0.78809476
657b128079618c853ed056b4,80,1,2024-02-27T11:10:37.483Z,english_894.wav,0,pill,503,62,4,5,français,m,2,0.2,53.5320483,0.08099688
657b128079618c853ed056b4,80,1,2024-02-27T11:10:37.483Z,english_894.wav,0,pill,503,62,4,5,français,m,3,0.3,-10.60196251,1.90254096
657b128079618c853ed056b4,80,1,2024-02-27T11:10:37.483Z,english_894.wav,0,pill,503,62,4,5,français,m,4,0.32341667,46.95013059,0.68783971
657b128079618c853ed056b4,81,1,2024-02-27T11:10:37.483Z,english_846.wav,0,pill,495,62,4,5,français,m,0,0.0,61.87306923,1.6800264
657b128079618c853ed056b4,81,1,2024-02-27T11:10:37.483Z,english_846.wav,0,pill,495,62,4,5,français,m,1,0.1,-5.64177324,0.32387551
657b128079618c853ed056b4,81,1,2024-02-27T11:10:37.483Z,english_846.wav,0,pill,495,62,4,5,français,m,2,0.2,86.75305487,0.09122421
657b128079618c853ed056b4,81,1,2024-02-27T11:10:37.483Z,english_846.wav,0,pill,495,62,4,5,français,m,3,0.3,-27.71752308,0.55014386
657b128079618c853ed056b4,81,1,2024-02-27T11:10:37.483Z,english_846.wav,0,pill,495,62,4,5,français,m,4,0.32341667,-26.78048177,0.82256102
657b128079618c853ed056b4,82,1,2024-02-27T11:10:37.483Z,english_530.wav,0,pill,373,62,4,5,français,m,0,0.0,21.55057906,0.25130805
657b128079618c853ed056b4,82,1,2024-02-27T11:10:37.483Z,english_530.wav,0,pill,373,62,4,5,français,m,1,0.1,-20.17265513,0.96020899
657b128079618c853ed056b4,82,1,2024-02-27T11:10:37.483Z,english_530.wav,0,pill,373,62,4,5,français,m,2,0.2,-52.07974762,1.55252741
657b128079618c853ed056b4,82,1,2024-02-27T11:10:37.483Z,english_530.wav,0,pill,373,62,4,5,français,m,3,0.3,87.36384387,1.19622655
657b128079618c853ed056b4,82,1,2024-02-27T11:10:37.483Z,english_530.wav,0,pill,373,62,4,5,français,m,4,0.32341667,-72.92256984,0.75880724
657b128079618c853ed056b4,83,1,2024-02-27T11:10:37.483Z,english_748.wav,0,pill,301,62,4,5,français,m,0,0.0,0.23647087,0.91094575
657b128079618c853ed056b4,83,1,2024-02-27T11:10:37.483Z,english_748.wav,0,pill,301,62,4,5,français,m,1,0.1,45.60572596,1.68800655
657b128079618c853ed056b4,83,1,2024-02-27T11:10:37.483Z,english_748.wav,0,pill,301,62,4,5,français,m,2,0.2,6.14588966,1.37684191
657b128079618c853ed056b4,83,1,2024-02-27T11:10:37.483Z,english_748.wav,0,pill,301,62,4,5,français,m,3,0.3,-10.39850874,0.70556294
657b128079618c853ed056b4,83,1,2024-02-27T11:10:37.483Z,english_748.wav,0,pill,301,62,4,5,français,m,4,0.32341667,-7.86503132,1.52987196
657b128079618c853ed056b4,84,1,2024-02-27T11:10:37.483Z,english_6.wav,0,pill,346,62,4,5,français,m,0,0.0,-8.2116192,1.24832701
657b128079618c853ed056b4,84,1,2024-02-27T11:10:37.483Z,english_6.wav,0,pill,346,62,4,5,français,m,1,0.1,-28.50933877,0.74984456
657b128079618c853ed056b4,84,1,2024-02-27T11:10:37.483Z,english_6.wav,0,pill,346,62,4,5,français,m,2,0.2,-90.20174912,1.37568362
657b128079618c853ed056b4,84,1,2024-02-27T11:10:37.483Z,english_6.wav,0,pill,346,62,4,5,français,m,3,0.3,-7.18062469,0.47637706
657b128079618c853ed056b4,84,1,2024-02-27T11:10:37.483Z,english_6.wav,0,pill,346,62,4,5,français,m,4,0.32341667,-36.83558467,0.68255954
657b128079618c853ed056b4,85,1,2024-02-27T11:10:37.483Z,english_456.wav,0,pill,345,62,4,5,français,m,0,0.0,43.57092671,0.12750432
657b128079618c853ed056b4,85,1,2024-02-27T11:10:37.483Z,english_456.wav,0,pill,345,62,4,5,français,m,1,0.1,59.73787768,0.97340157
657b128079618c853ed056b4,85,1,2024-02-27T11:10:37.483Z,english_456.wav,0,pill,345,62,4,5,français,m,2,0.2,82.18665257,0.43547726
657b128079618c853ed056b4,85,1,2024-02-27T11:10:37.483Z,english_456.wav,0,pill,345,62,4,5,français,m,3,0.3,84.09992258,1.17970357
657b128079618c853ed056b4,85,1,2024-02-27T11:10:37.483Z,english_456.wav,0,pill,345,62,4,5,français,m,4,0.32341667,14.68455092,0.64309566
657b128079618c853ed056b4,86,1,2024-02-27T11:10:37.483Z,english_431.wav,0,pill,295,62,4,5,français,m,0,0.0,-28.91437381,1.3282391
657b128079618c853ed056b4,86,1,2024-02-27T11:10:37.483Z,english_431.wav,0,pill,295,62,4,5,français,m,1,0.1,30.6479342,1.9405757
657b128079618c853ed056b4,86,1,2024-02-27T11:10:37.483Z,english_431.wav,0,pill,295,62,4,5,français,m,2,0.2,41.25713347,1.67607787
657b128079618c853ed056b4,86,1,2024-02-27T11:10:37.483Z,english_431.wav,0,pill,295,62,4,5,français,m,3,0.3,9.19018397,0.62213613
657b128079618c853ed056b4,86,1,2024-02-27T11:10:37.483Z,english_431.wav,0,pill,295,62,4,5,français,m,4,0.32341667,-61.77590044,0.50881411
657b128079618c853ed056b4,87,1,2024-02-27T11:10:37.483Z,english_119.wav,0,pill,725,62,4,5,français,m,0,0.0,-72.13623542,1.33116293
657b128079618c853ed056b4,87,1,2024-02-27T11:10:37.483Z,english_119.wav,0,pill,725,62,4,5,français,m,1,0.1,-47.93500709,0.14257244
657b128079618c853ed056b4,87,1,2024-02-27T11:10:37.483Z,english_119.wav,0,pill,725,62,4,5,français,m,2,0.2,91.39212861,1.10285667
657b128079618c853ed056b4,87,1,2024-02-27T11:10:37.483Z,english_119.wav,0,pill,725,62,4,5,français,m,3,0.3,-4.62561099,0.57572872
657b128079618c853ed056b4,87,1,2024-02-27T11:10:37.483Z,english_119.wav,0,pill,725,62,4,5,français,m,4,0.32341667,-33.86599352,1.36512269
657b128079618c853ed056b4,88,1,2024-02-27T11:10:37.483Z,english_222.wav,0,pill,594,62,4,5,français,m,0,0.0,-5.8882644,0.97478352
657b128079618c853ed056b4,88,1,2024-02-27T11:10:37.483Z,english_222.wav,0,pill,594,62,4,5,français,m,1,0.1,-15.4334302,1.79573252
657b128079618c853ed056b4,88,1,2024-02-27T11:10:37.483Z,english_222.wav,0,pill,594,62,4,5,français,m,2,0.2,-39.50203868,1.71948726
657b128079618c853ed056b4,88,1,2024-02-27T11:10:37.483Z,english_222.wav,0,pill,594,62,4,5,français,m,3,0.3,67.79027175,0.41699719
657b128079618c853ed056b4,88,1,2024-02-27T11:10:37.483Z,english_222.wav,0,pill,594,62,4,5,français,m,4,0.32341667,-43.17344259,0.26315099
657b128079618c853ed056b4,89,1,2024-02-27T11:10:37.483Z,english_206.wav,0,pill,360,62,4,5,français,m,0,0.0,29.86029141,0.9413203
657b128079618c853ed056b4,89,1,2024-02-27T11:10:37.483Z,english_206.wav,0,pill,360,62,4,5,français,m,1,0.1,-65.49550847,1.58501733
657b128079618c853ed056b4,89,1,2024-02-27T11:10:37.483Z,english_206.wav,0,pill,360,62,4,5,français,m,2,0.2,-8.37849199,1.84833856
657b128079618c853ed056b4,89,1,2024-02-27T11:10:37.483Z,english_206.wav,0,pill,360,62,4,5,français,m,3,0.3,16.32170521,1.12864021
657b128079618c853ed056b4,89,1,2024-02-27T11:10:37.483Z,english_206.wav,0,pill,360,62,4,5,français,m,4,0.32341667,-96.55544023,0.85017735
657b128079618c853ed056b4,90,1,2024-02-27T11:10:37.483Z,english_284.wav,0,pill,646,62,4,5,français,m,0,0.0,-77.15161711,0.74585549
657b128079618c853ed056b4,90,1,2024-02-27T11:10:37.483Z,english_284.wav,0,pill,646,62,4,5,français,m,1,0.1,80.53955212,0.017077
657b128079618c853ed056b4,90,1,2024-02-27T11:10:37.483Z,english_284.wav,0,pill,646,62,4,5,français,m,2,0.2,-73.74967403,0.284322
657b128079618c853ed056b4,90,1,2024-02-27T11:10:37.483Z,english_284.wav,0,pill,646,62,4,5,français,m,3,0.3,-47.67008962,1.04459593
657b128079618c853ed056b4,90,1,2024-02-27T11:10:37.483Z,english_284.wav,0,pill,646,62,4,5,français,m,4,0.32341667,40.40758666,0.8536958
657b128079618c853ed056b4,91,1,2024-02-27T11:10:37.483Z,english_261.wav,0,pill,702,62,4,5,français,m,0,0.0,-19.34212076,1.20182597
657b128079618c853ed056b4,91,1,2024-02-27T11:10:37.483Z,english_261.wav,0,pill,702,62,4,5,français,m,1,0.1,-90.49371254,0.701642
657b128079618c853ed056b4,91,1,2024-02-27T11:10:37.483Z,english_261.wav,0,pill,702,62,4,5,français,m,2,0.2,-2.84874079,0.72931556
657b128079618c853ed056b4,91,1,2024-02-27T11:10:37.483Z,english_261.wav,0,pill,702,62,4,5,français,m,3,0.3,26.59732755,0.86687176
657b128079618c853ed056b4,91,1,2024-02-27T11:10:37.483Z,english_261.wav,0,pill,702,62,4,5,français,m,4,0.32341667,39.97770901,1.42617677
657b128079618c853ed056b4,92,1,2024-02-27T11:10:37.483Z,english_773.wav,0,pill,411,62,4,5,français,m,0,0.0,-97.46951928,0.54003315
657b128079618c853ed056b4,92,1,2024-02-27T11:10:37.483Z,english_773.wav,0,pill,411,62,4,5,français,m,1,0.1,85.58858853,1.35505424
657b128079618c853ed056b4,92,1,2024-02-27T11:10:37.483Z,english_773.wav,0,pill,411,62,4,5,français,m,2,0.2,-54.69649905,1.09283168
657b128079618c853ed056b4,92,1,2024-02-27T11:10:37.483Z,english_773.wav,0,pill,411,62,4,5,français,m,3,0.3,-97.24656559,1.42526307
657b128079618c853ed056b4,92,1,2024-02-27T11:10:37.483Z,english_773.wav,0,pill,411,62,4,5,français,m,4,0.32341667,40.28006613,0.69844725
657b128079618c853ed056b4,93,1,2024-02-27T11:10:37.483Z,english_230.wav,0,pill,366,62,4,5,français,m,0,0.0,59.01519707,0.66464778
657b128079618c853ed056b4,93,1,2024-02-27T11:10:37.483Z,english_230.wav,0,pill,366,62,4,5,français,m,1,0.1,-74.67447784,1.09498554
657b128079618c853ed056b4,93,1,2024-02-27T11:10:37.483Z,english_230.wav,0,pill,366,62,4,5,français,m,2,0.2,78.11378701,0.24708562
657b128079618c853ed056b4,93,1,2024-02-27T11:10:37.483Z,english_230.wav,0,pill,366,62,4,5,français,m,3,0.3,26.79367619,1.40152246
657b128079618c853ed056b4,93,1,2024-02-27T11:10:37.483Z,english_230.wav,0,pill,366,62,4,5,français,m,4,0.32341667,29.92451654,1.02203861
657b128079618c853ed056b4,94,1,2024-02-27T11:10:37.483Z,english_87.wav,0,peel,1112,62,4,5,français,m,0,0.0,54.83056612,1.56132998
657b128079618c853ed056b4,94,1,2024-02-27T11:10:37.483Z,english_87.wav,0,peel,1112,62,4,5,français,m,1,0.1,56.31531505,1.28614089
657b128079618c853ed056b4,94,1,2024-02-27T11:10:37.483Z,english_87.wav,0,peel,1112,62,4,5,français,m,2,0.2,-65.55002777,1.44579989
657b128079618c853ed056b4,94,1,2024-02-27T11:10:37.483Z,english_87.wav,0,peel,1112,62,4,5,français,m,3,0.3,-25.15788212,0.3607766
657b128079618c853ed056b4,94,1,2024-02-27T11:10:37.483Z,english_87.wav,0,peel,1112,62,4,5,français,m,4,0.32341667,22.72349562,0.17745198
657b128079618c853ed056b4,95,1,2024-02-27T11:10:37.483Z,english_745.wav,0,pill,1036,62,4,5,français,m,0,0.0,-57.64472866,1.88925258
657b128079618c853ed056b4,95,1,2024-02-27T11:10:37.483Z,english_745.wav,0,pill,1036,62,4,5,français,m,1,0.1,-14.80975681,0.26333653
657b128079618c853ed056b4,95,1,2024-02-27T11:10:37.483Z,english_745.wav,0,pill,1036,62,4,5,français,m,2,0.2,44.46939178,1.01945351
657b128079618c853ed056b4,95,1,2024-02-27T11:10:37.483Z,english_745.wav,0,pill,1036,62,4,5,français,m,3,0.3,56.80280999,0.00901457
657b128079618c853ed056b4,95,1,2024-02-27T11:10:37.483Z,english_745.wav,0,pill,1036,62,4,5,français,m,4,0.32341667,-16.53068296,0.38778228
657b128079618c853ed056b4,96,1,2024-02-27T11:10:37.483Z,english_274.wav,0,peel,1075,62,4,5,français,m,0,0.0,-30.61452779,0.78021116
657b128079618c853ed056b4,96,1,2024-02-27T11:10:37.483Z,english_274.wav,0,peel,1075,62,4,5,français,m,1,0.1,-42.14612233,1.93993358
657b128079618c853ed056b4,96,1,2024-02-27T11:10:37.483Z,english_274.wav,0,peel,1075,62,4,5,français,m,2,0.2,32.00602795,0.32963606
657b128079618c853ed056b4,96,1,2024-02-27T11:10:37.483Z,english_274.wav,0,peel,1075,62,4,5,français,m,3,0.3,-37.74375581,1.46133782
657b128079618c853ed056b4,96,1,2024-02-27T11:10:37.483Z,english_274.wav,0,peel,1075,62,4,5,français,m,4,0.32341667,-54.5397802,1.53178785
657b128079618c853ed056b4,97,1,2024-02-27T11:10:37.483Z,english_362.wav,0,peel,360,62,4,5,français,m,0,0.0,12.71485551,1.44490364
657b128079618c853ed056b4,97,1,2024-02-27T11:10:37.483Z,english_362.wav,0,peel,360,62,4,5,français,m,1,0.1,-18.83660308,1.3029027
657b128079618c853ed056b4,97,1,2024-02-27T11:10:37.483Z,english_362.wav,0,peel,360,62,4,5,français,m,2,0.2,-52.07271323,1.10609828
657b128079618c853ed056b4,97,1,2024-02-27T11:10:37.483Z,english_362.wav,0,peel,360,62,4,5,français,m,3,0.3,-29.96931661,1.18379787
657b128079618c853ed056b4,97,1,2024-02-27T11:10:37.483Z,english_362.wav,0,peel,360,62,4,5,français,m,4,0.32341667,-9.99178163,1.80996789
657b128079618c853ed056b4,98,1,2024-02-27T11:10:37.483Z,english_144.wav,0,pill,569,62,4,5,français,m,0,0.0,-68.95587174,0.23806678
657b128079618c853ed056b4,98,1,2024-02-27T11:10:37.483Z,english_144.wav,0,pill,569,62,4,5,français,m,1,0.1,-74.16141139,0.77020267
657b128079618c853ed056b4,98,1,2024-02-27T11:10:37.483Z,english_144.wav,0,pill,569,62,4,5,français,m,2,0.2,-19.31034794,0.33858197
657b128079618c853ed056b4,98,1,2024-02-27T11:10:37.483Z,english_144.wav,0,pill,569,62,4,5,français,m,3,0.3,-77.96768175,1.42512122
657b128079618c853ed056b4,98,1,2024-02-27T11:10:37.483Z,english_144.wav,0,pill,569,62,4,5,français,m,4,0.32341667,3.46911061,0.57629619
657b128079618c853ed056b4,99,1,2024-02-27T11:10:37.483Z,english_432.wav,0,peel,455,62,4,5,français,m,0,0.0,34.04923955,0.51661687
657b128079618c853ed056b4,99,1,2024-02-27T11:10:37.483Z,english_432.wav,0,peel,455,62,4,5,français,m,1,0.1,-20.16773507,0.2259012
657b128079618c853ed056b4,99,1,2024-02-27T11:10:37.483Z,english_432.wav,0,peel,455,62,4,5,français,m,2,0.2,58.06800811,1.98214485
657b128079618c853ed056b4,99,1,2024-02-27T11:10:37.483Z,english_432.wav,0,peel,455,62,4,5,français,m,3,0.3,46.82268278,1.23025235
657b128079618c853ed056b4,99,1,2024-02-27T11:10:37.483Z,english_432.wav,0,peel,455,62,4,5,français,m,4,0.32341667,16.04458546,1.72803009
657b128079618c853ed056b4,100,2,2024-02-27T11:10:37.483Z,english_317.wav,0,peel,2017,62,4,5,français,m,0,0.0,-26.75650792,1.75672771
657b128079618c853ed056b4,100,2,2024-02-27T11:10:37.483Z,english_317.wav,0,peel,2017,62,4,5,français,m,1,0.1,9.07297032,1.82949168
657b128079618c853ed056b4,100,2,2024-02-27T11:10:37.483Z,english_317.wav,0,peel,2017,62,4,5,français,m,2,0.2,17.58512652,1.6954519
657b128079618c853ed056b4,100,2,2024-02-27T11:10:37.483Z,english_317.wav,0,peel,2017,62,4,5,français,m,3,0.3,29.57201507,0.7122411
657b128079618c853ed056b4,100,2,2024-02-27T11:10:37.483Z,english_317.wav,0,peel,2017,62,4,5,français,m,4,0.32341667,56.4667582,1.26753728
657b128079618c853ed056b4,101,2,2024-02-27T11:10:37.483Z,english_868.wav,0,peel,1707,62,4,5,français,m,0,0.0,-32.61379415,0.76599538
657b128079618c853ed056b4,101,2,2024-02-27T11:10:37.483Z,english_868.wav,0,peel,1707,62,4,5,français,m,1,0.1,-13.61007492,0.34348987
657b128079618c853ed056b4,101,2,2024-02-27T11:10:37.483Z,english_868.wav,0,peel,1707,62,4,5,français,m,2,0.2,-35.23756027,0.26787397
657b128079618c853ed056b4,101,2,2024-02-27T11:10:37.483Z,english_868.wav,0,peel,1707,62,4,5,français,m,3,0.3,83.12333319,0.46343078
657b128079618c853ed056b4,101,2,2024-02-27T11:10:37.483Z,english_868.wav,0,peel,1707,62,4,5,français,m,4,0.32341667,62.80865362,1.59158725
657b128079618c853ed056b4,102,2,2024-02-27T11:10:37.483Z,english_911.wav,0,peel,408,62,4,5,français,m,0,0.0,62.6913709,0.89860539
657b128079618c853ed056b4,102,2,2024-02-27T11:10:37.483Z,english_911.wav,0,peel,408,62,4,5,français,m,1,0.1,-28.7089255,0.06791792
657b128079618c853ed056b4,102,2,2024-02-27T11:10:37.483Z,english_911.wav,0,peel,408,62,4,5,français,m,2,0.2,-71.03383871,1.00076401
657b128079618c853ed056b4,102,2,2024-02-27T11:10:37.483Z,english_911.wav,0,peel,408,62,4,5,français,m,3,0.3,93.02773855,1.24961505
657b128079618c853ed056b4,102,2,2024-02-27T11:10:37.483Z,english_911.wav,0,peel,408,62,4,5,français,m,4,0.32341667,93.73973981,1.26639778
657b128079618c853ed056b4,103,2,2024-02-27T11:10:37.483Z,english_799.wav,0,peel,308,62,4,5,français,m,0,0.0,-48.4958847,1.9233431
657b128079618c853ed056b4,103,2,2024-02-27T11:10:37.483Z,english_799.wav,0,peel,308,62,4,5,français,m,1,0.1,-9.52866418,1.11542891
657b128079618c853ed056b4,103,2,2024-02-27T11:10:37.483Z,english_799.wav,0,peel,308,62,4,5,français,m,2,0.2,1.94176449,0.95865462
657b128079618c853ed056b4,103,2,2024-02-27T11:10:37.483Z,english_799.wav,0,peel,308,62,4,5,français,m,3,0.3,5.71676827,0.6616034
657b128079618c853ed056b4,103,2,2024-02-27T11:10:37.483Z,english_799.wav,0,peel,308,62,4,5,français,m,4,0.32341667,30.27282792,1.91183458
657b128079618c853ed056b4,104,2,2024-02-27T11:10:37.483Z,english_303.wav,0,pill,2833,62,4,5,français,m,0,0.0,67.00540241,1.22520816
657b128079618c853ed056b4,104,2,2024-02-27T11:10:37.483Z,english_303.wav,0,pill,2833,62,4,5,français,m,1,0.1,32.95821842,1.22732479
657b128079618c853ed056b4,104,2,2024-02-27T11:10:37.483Z,english_303.wav,0,pill,2833,62,4,5,français,m,2,0.2,-23.67517146,0.54923068
657b128079618c853ed056b4,104,2,2024-02-27T11:10:37.483Z,english_303.wav,0,pill,2833,62,4,5,français,m,3,0.3,-66.94926695,0.8977578
657b128079618c853ed056b4,104,2,2024-02-27T11:10:37.483Z,english_303.wav,0,pill,2833,62,4,5,français,m,4,0.32341667,65.71723135,1.41807679
657b128079618c853ed056b4,105,2,2024-02-27T11:10:37.483Z,english_920.wav,0,pill,379,62,4,5,français,m,0,0.0,95.7501832,1.54313256
657b128079618c853ed056b4,105,2,2024-02-27T11:10:37.483Z,english_920.wav,0,pill,379,62,4,5,français,m,1,0.1,-3.19831823,1.33500472
657b128079618c853ed056b4,105,2,2024-02-27T11:10:37.483Z,english_920.wav,0,pill,379,62,4,5,français,m,2,0.2,-16.96134457,1.12819963
657b128079618c853ed056b4,105,2,2024-02-27T11:10:37.483Z,english_920.wav,0,pill,379,62,4,5,français,m,3,0.3,-28.81747413,1.72147256
657b128079618c853ed056b4,105,2,2024-02-27T11:10:37.483Z,english_920.wav,0,pill,379,62,4,5,français,m,4,0.32341667,42.63505928,0.57593815
657b128079618c853ed056b4,106,2,2024-02-27T11:10:37.483Z,english_237.wav,0,pill,571,62,4,5,français,m,0,0.0,-40.35335157,0.42178982
657b128079618c853ed056b4,106,2,2024-02-27T11:10:37.483Z,english_237.wav,0,pill,571,62,4,5,français,m,1,0.1,42.86374565,0.6060796
657b128079618c853ed056b4,106,2,2024-02-27T11:10:37.483Z,english_237.wav,0,pill,571,62,4,5,français,m,2,0.2,7.79480372,0.58312984
657b128079618c853ed056b4,106,2,2024-02-27T11:10:37.483Z,english_237.wav,0,pill,571,62,4,5,français,m,3,0.3,-48.50613844,1.50499267
657b128079618c853ed056b4,106,2,2024-02-27T11:10:37.483Z,english_237.wav,0,pill,571,62,4,5,français,m,4,0.32341667,17.78174719,1.72211243
657b128079618c853ed056b4,107,2,2024-02-27T11:10:37.483Z,english_814.wav,0,pill,650,62,4,5,français,m,0,0.0,-63.32480856,1.93717082
657b128079618c853ed056b4,107,2,2024-02-27T11:10:37.483Z,english_814.wav,0,pill,650,62,4,5,français,m,1,0.1,34.42157774,0.66627456
657b128079618c853ed056b4,107,2,2024-02-27T11:10:37.483Z,english_814.wav,0,pill,650,62,4,5,français,m,2,0.2,-1.27362148,1.33718687
657b128079618c853ed056b4,107,2,2024-02-27T11:10:37.483Z,english_814.wav,0,pill,650,62,4,5,français,m,3,0.3,11.18388565,1.12749716
657b128079618c853ed056b4,107,2,2024-02-27T11:10:37.483Z,english_814.wav,0,pill,650,62,4,5,français,m,4,0.32341667,-9.56708644,0.66623879
657b128079618c853ed056b4,108,2,2024-02-27T11:10:37.483Z,english_793.wav,0,pill,1184,62,4,5,français,m,0,0.0,-3.59370976,0.95327953
657b128079618c853ed056b4,108,2,2024-02-27T11:10:37.483Z,english_793.wav,0,pill,1184,62,4,5,français,m,1,0.1,-92.44382947,0.8890172
657b128079618c853ed056b4,108,2,2024-02-27T11:10:37.483Z,english_793.wav,0,pill,1184,62,4,5,français,m,2,0.2,-89.84008222,0.47547445
657b128079618c853ed056b4,108,2,2024-02-27T11:10:37.483Z,english_793.wav,0,pill,1184,62,4,5,français,m,3,0.3,96.09352514,1.09208031
657b128079618c853ed056b4,108,2,2024-02-27T11:10:37.483Z,english_793.wav,0,pill,1184,62,4,5,français,m,4,0.32341667,42.94050617,0.63383093
657b128079618c853ed056b4,109,2,2024-02-27T11:10:37.483Z,english_117.wav,0,peel,351,62,4,5,français,m,0,0.0,-98.72491255,1.42659946
657b128079618c853ed056b4,109,2,2024-02-27T11:10:37.483Z,english_117.wav,0,peel,351,62,4,5,français,m,1,0.1,-15.15642563,1.64599539
657b128079618c853ed056b4,109,2,2024-02-27T11:10:37.483Z,english_117.wav,0,peel,351,62,4,5,français,m,2,0.2,24.45806353,0.97767705
657b128079618c853ed056b4,109,2,2024-02-27T11:10:37.483Z,english_117.wav,0,peel,351,62,4,5,français,m,3,0.3,-80.67224668,0.37962884
657b128079618c853ed056b4,109,2,2024-02-27T11:10:37.483Z,english_117.wav,0,peel,351,62,4,5,français,m,4,0.32341667,-97.50349755,0.74274723
657b128079618c853ed056b4,110,2,2024-02-27T11:10:37.483Z,english_355.wav,0,peel,964,62,4,5,français,m,0,0.0,33.6784286,1.28512049
657b128079618c853ed056b4,110,2,2024-02-27T11:10:37.483Z,english_355.wav,0,peel,964,62,4,5,français,m,1,0.1,30.74796889,1.04729355
657b128079618c853ed056b4,110,2,2024-02-27T11:10:37.483Z,english_355.wav,0,peel,964,62,4,5,français,m,2,0.2,71.39310534,0.74339822
657b128079618c853ed056b4,110,2,2024-02-27T11:10:37.483Z,english_355.wav,0,peel,964,62,4,5,français,m,3,0.3,38.16266559,0.86152361
657b128079618c853ed056b4,110,2,2024-02-27T11:10:37.483Z,english_355.wav,0,peel,964,62,4,5,français,m,4,0.32341667,-39.8799084,1.83215587
657b128079618c853ed056b4,111,2,2024-02-27T11:10:37.483Z,english_359.wav,0,peel,1224,62,4,5,français,m,0,0.0,95.13315851,1.5844105
657b128079618c853ed056b4,111,2,2024-02-27T11:10:37.483Z,english_359.wav,0,peel,1224,62,4,5,français,m,1,0.1,95.71495863,0.46491803
657b128079618c853ed056b4,111,2,2024-02-27T11:10:37.483Z,english_359.wav,0,peel,1224,62,4,5,français,m,2,0.2,4.56295435,1.17107987
657b128079618c853ed056b4,111,2,2024-02-27T11:10:37.483Z,english_359.wav,0,peel,1224,62,4,5,français,m,3,0.3,-11.93773809,0.63485582
657b128079618c853ed056b4,111,2,2024-02-27T11:10:37.483Z,english_359.wav,0,peel,1224,62,4,5,français,m,4,0.32341667,-75.72789111,0.10666132
657b128079618c853ed056b4,112,2,2024-02-27T11:10:37.483Z,english_597.wav,0,peel,1850,62,4,5,français,m,0,0.0,-83.66792118,0.17389721
657b128079618c853ed056b4,112,2,2024-02-27T11:10:37.483Z,english_597.wav,0,peel,1850,62,4,5,français,m,1,0.1,-19.98744657,0.39349672
657b128079618c853ed056b4,112,2,2024-02-27T11:10:37.483Z,english_597.wav,0,peel,1850,62,4,5,français,m,2,0.2,-30.38458549,1.97590818
657b128079618c853ed056b4,112,2,2024-02-27T11:10:37.483Z,english_597.wav,0,peel,1850,62,4,5,français,m,3,0.3,-63.4406446,1.84988074
657b128079618c853ed056b4,112,2,2024-02-27T11:10:37.483Z,english_597.wav,0,peel,1850,62,4,5,français,m,4,0.32341667,25.67812426,1.17620678
657b128079618c853ed056b4,113,2,2024-02-27T11:10:37.483Z,english_713.wav,0,peel,719,62,4,5,français,m,0,0.0,18.77281956,1.04868626
657b128079618c853ed056b4,113,2,2024-02-27T11:10:37.483Z,english_713.wav,0,peel,719,62,4,5,français,m,1,0.1,40.78610286,0.48332939
657b128079618c853ed056b4,113,2,2024-02-27T11:10:37.483Z,english_713.wav,0,peel,719,62,4,5,français,m,2,0.2,84.18153491,0.83217717
657b128079618c853ed056b4,113,2,2024-02-27T11:10:37.483Z,english_713.wav,0,peel,719,62,4,5,français,m,3,0.3,47.00827256,1.90318663
657b128079618c853ed056b4,113,2,2024-02-27T11:10:37.483Z,english_713.wav,0,peel,719,62,4,5,français,m,4,0.32341667,66.01008384,0.50055362
657b128079618c853ed056b4,114,2,2024-02-27T11:10:37.483Z,english_729.wav,0,peel,529,62,4,5,français,m,0,0.0,31.16849918,1.30127688
657b128079618c853ed056b4,114,2,2024-02-27T11:10:37.483Z,english_729.wav,0,peel,529,62,4,5,français,m,1,0.1,-74.04657477,1.28998605
657b128079618c853ed056b4,114,2,2024-02-27T11:10:37.483Z,english_729.wav,0,peel,529,62,4,5,français,m,2,0.2,98.28479208,0.71365363
657b128079618c853ed056b4,114,2,2024-02-27T11:10:37.483Z,english_729.wav,0,peel,529,62,4,5,français,m,3,0.3,45.68234461,0.61436371
657b128079618c853ed056b4,114,2,2024-02-27T11:10:37.483Z,english_729.wav,0,peel,529,62,4,5,français,m,4,0.32341667,-23.12232547,0.96520681
657b128079618c853ed056b4,115,2,2024-02-27T11:10:37.483Z,english_845.wav,0,pill,726,62,4,5,français,m,0,0.0,-39.21264236,0.82761504
657b128079618c853ed056b4,115,2,2024-02-27T11:10:37.483Z,english_845.wav,0,pill,726,62,4,5,français,m,1,0.1,99.78041888,0.53375751
657b128079618c853ed056b4,115,2,2024-02-27T11:10:37.483Z,english_845.wav,0,pill,726,62,4,5,français,m,2,0.2,-59.29104422,1.24236426
657b128079618c853ed056b4,115,2,2024-02-27T11:10:37.483Z,english_845.wav,0,pill,726,62,4,5,français,m,3,0.3,57.0409613,1.27736464
657b128079618c853ed056b4,115,2,2024-02-27T11:10:37.483Z,english_845.wav,0,pill,726,62,4,5,français,m,4,0.32341667,-93.6361214,0.79024728
657b128079618c853ed056b4,116,2,2024-02-27T11:10:37.483Z,english_983.wav,0,pill,764,62,4,5,français,m,0,0.0,32.38711768,0.79408654
657b128079618c853ed056b4,116,2,2024-02-27T11:10:37.483Z,english_983.wav,0,pill,764,62,4,5,français,m,1,0.1,-65.51600844,1.57845546
657b128079618c853ed056b4,116,2,2024-02-27T11:10:37.483Z,english_983.wav,0,pill,764,62,4,5,français,m,2,0.2,12.03576385,1.23356187
657b128079618c853ed056b4,116,2,2024-02-27T11:10:37.483Z,english_983.wav,0,pill,764,62,4,5,français,m,3,0.3,-64.14785636,0.65581831
657b128079618c853ed056b4,116,2,2024-02-27T11:10:37.483Z,english_983.wav,0,pill,764,62,4,5,français,m,4,0.32341667,-72.48499617,0.27936162
657b128079618c853ed056b4,117,2,2024-02-27T11:10:37.483Z,english_505.wav,0,pill,733,62,4,5,français,m,0,0.0,-14.1569725,0.45361713
657b128079618c853ed056b4,117,2,2024-02-27T11:10:37.483Z,english_505.wav,0,pill,733,62,4,5,français,m,1,0.1,55.52926248,0.94516805
657b128079618c853ed056b4,117,2,2024-02-27T11:10:37.483Z,english_505.wav,0,pill,733,62,4,5,français,m,2,0.2,53.00334781,0.85342654
657b128079618c853ed056b4,117,2,2024-02-27T11:10:37.483Z,english_505.wav,0,pill,733,62,4,5,français,m,3,0.3,75.03788466,1.32942474
657b128079618c853ed056b4,117,2,2024-02-27T11:10:37.483Z,english_505.wav,0,pill,733,62,4,5,français,m,4,0.32341667,-7.91266729,0.93790665
657b128079618c853ed056b4,118,2,2024-02-27T11:10:37.483Z,english_712.wav,0,pill,809,62,4,5,français,m,0,0.0,-69.83835125,1.15670948
657b128079618c853ed056b4,118,2,2024-02-27T11:10:37.483Z,english_712.wav,0,pill,809,62,4,5,français,m,1,0.1,-89.98535393,0.40201287
657b128079618c853ed056b4,118,2,2024-02-27T11:10:37.483Z,english_712.wav,0,pill,809,62,4,5,français,m,2,0.2,47.33040466,0.06412681
657b128079618c853ed056b4,118,2,2024-02-27T11:10:37.483Z,english_712.wav,0,pill,809,62,4,5,français,m,3,0.3,-32.03166139,1.50973484
657b128079618c853ed056b4,118,2,2024-02-27T11:10:37.483Z,english_712.wav,0,pill,809,62,4,5,français,m,4,0.32341667,-5.29851616,1.18377017
657b128079618c853ed056b4,119,2,2024-02-27T11:10:37.483Z,english_646.wav,0,peel,1533,62,4,5,français,m,0,0.0,65.65927644,1.85038449
657b128079618c853ed056b4,119,2,2024-02-27T11:10:37.483Z,english_646.wav,0,peel,1533,62,4,5,français,m,1,0.1,-31.23211399,1.10748568
657b128079618c853ed056b4,119,2,2024-02-27T11:10:37.483Z,english_646.wav,0,peel,1533,62,4,5,français,m,2,0.2,62.59110385,1.14052106
657b128079618c853ed056b4,119,2,2024-02-27T11:10:37.483Z,english_646.wav,0,peel,1533,62,4,5,français,m,3,0.3,-86.43369357,1.38971404
657b128079618c853ed056b4,119,2,2024-02-27T11:10:37.483Z,english_646.wav,0,peel,1533,62,4,5,français,m,4,0.32341667,41.84315348,0.49971738
657b128079618c853ed056b4,120,2,2024-02-27T11:10:37.483Z,english_708.wav,0,peel,397,62,4,5,français,m,0,0.0,-27.19248895,0.74061838
657b128079618c853ed056b4,120,2,2024-02-27T11:10:37.483Z,english_708.wav,0,peel,397,62,4,5,français,m,1,0.1,84.25795725,1.13599963
657b128079618c853ed056b4,120,2,2024-02-27T11:10:37.483Z,english_708.wav,0,peel,397,62,4,5,français,m,2,0.2,-19.19551503,1.10086254
657b128079618c853ed056b4,120,2,2024-02-27T11:10:37.483Z,english_708.wav,0,peel,397,62,4,5,français,m,3,0.3,29.88012033,0.53054382
657b128079618c853ed056b4,120,2,2024-02-27T11:10:37.483Z,english_708.wav,0,peel,397,62,4,5,français,m,4,0.32341667,46.0858662,1.51974387
657b128079618c853ed056b4,121,2,2024-02-27T11:10:37.483Z,english_67.wav,0,peel,821,62,4,5,français,m,0,0.0,70.16279698,0.73199358
657b128079618c853ed056b4,121,2,2024-02-27T11:10:37.483Z,english_67.wav,0,peel,821,62,4,5,français,m,1,0.1,33.8182948,0.88382403
657b128079618c853ed056b4,121,2,2024-02-27T11:10:37.483Z,english_67.wav,0,peel,821,62,4,5,français,m,2,0.2,-49.10498957,1.67993254
657b128079618c853ed056b4,121,2,2024-02-27T11:10:37.483Z,english_67.wav,0,peel,821,62,4,5,français,m,3,0.3,-4.93823124,0.24455532
657b128079618c853ed056b4,121,2,2024-02-27T11:10:37.483Z,english_67.wav,0,peel,821,62,4,5,français,m,4,0.32341667,24.09614703,1.99747442
657b128079618c853ed056b4,122,2,2024-02-27T11:10:37.483Z,english_327.wav,0,pill,1392,62,4,5,français,m,0,0.0,-65.34261839,0.94624792
657b128079618c853ed056b4,122,2,2024-02-27T11:10:37.483Z,english_327.wav,0,pill,1392,62,4,5,français,m,1,0.1,-88.88296173,0.88463276
657b128079618c853ed056b4,122,2,2024-02-27T11:10:37.483Z,english_327.wav,0,pill,1392,62,4,5,français,m,2,0.2,-52.48624316,0.8064175
657b128079618c853ed056b4,122,2,2024-02-27T11:10:37.483Z,english_327.wav,0,pill,1392,62,4,5,français,m,3,0.3,35.3894457,1.08656597
657b128079618c853ed056b4,122,2,2024-02-27T11:10:37.483Z,english_327.wav,0,pill,1392,62,4,5,français,m,4,0.32341667,-31.26503482,0.95323019
657b128079618c853ed056b4,123,2,2024-02-27T11:10:37.483Z,english_859.wav,0,pill,667,62,4,5,français,m,0,0.0,71.31858369,0.11764496
657b128079618c853ed056b4,123,2,2024-02-27T11:10:37.483Z,english_859.wav,0,pill,667,62,4,5,français,m,1,0.1,-33.60875554,0.29827778
657b128079618c853ed056b4,123,2,2024-02-27T11:10:37.483Z,english_859.wav,0,pill,667,62,4,5,français,m,2,0.2,-64.15502461,0.43254339
657b128079618c853ed056b4,123,2,2024-02-27T11:10:37.483Z,english_859.wav,0,pill,667,62,4,5,français,m,3,0.3,-36.22537369,0.12368506
657b128079618c853ed056b4,123,2,2024-02-27T11:10:37.483Z,english_859.wav,0,pill,667,62,4,5,français,m,4,0.32341667,-23.59955866,0.97858169
657b128079618c853ed056b4,124,2,2024-02-27T11:10:37.483Z,english_544.wav,0,peel,721,62,4,5,français,m,0,0.0,96.80704334,1.85115917
657b128079618c853ed056b4,124,2,2024-02-27T11:10:37.483Z,english_544.wav,0,peel,721,62,4,5,français,m,1,0.1,70.5198752,0.8718407
657b128079618c853ed056b4,124,2,2024-02-27T11:10:37.483Z,english_544.wav,0,peel,721,62,4,5,français,m,2,0.2,78.21609099,1.82238935
657b128079618c853ed056b4,124,2,2024-02-27T11:10:37.483Z,english_544.wav,0,peel,721,62,4,5,français,m,3,0.3,-95.7752672,0.25719172
657b128079618c853ed056b4,124,2,2024-02-27T11:10:37.483Z,english_544.wav,0,peel,721,62,4,5,français,m,4,0.32341667,-56.58918052,0.72929157
657b128079618c853ed056b4,125,2,2024-02-27T11:10:37.483Z,english_661.wav,0,pill,583,62,4,5,français,m,0,0.0,14.15805194,1.06290545
657b128079618c853ed056b4,125,2,2024-02-27T11:10:37.483Z,english_661.wav,0,pill,583,62,4,5,français,m,1,0.1,-77.97020538,1.12952287
657b128079618c853ed056b4,125,2,2024-02-27T11:10:37.483Z,english_661.wav,0,pill,583,62,4,5,français,m,2,0.2,-31.78835068,1.47556517
657b128079618c853ed056b4,125,2,2024-02-27T11:10:37.483Z,english_661.wav,0,pill,583,62,4,5,français,m,3,0.3,1.84085651,0.41137052
657b128079618c853ed056b4,125,2,2024-02-27T11:10:37.483Z,english_661.wav,0,pill,583,62,4,5,français,m,4,0.32341667,31.49677972,1.48872703
657b128079618c853ed056b4,126,2,2024-02-27T11:10:37.483Z,english_767.wav,0,pill,1345,62,4,5,français,m,0,0.0,29.63321135,0.17563718
657b128079618c853ed056b4,126,2,2024-02-27T11:10:37.483Z,english_767.wav,0,pill,1345,62,4,5,français,m,1,0.1,-31.63783795,0.61981002
657b128079618c853ed056b4,126,2,2024-02-27T11:10:37.483Z,english_767.wav,0,pill,1345,62,4,5,français,m,2,0.2,56.53254366,1.38773128
657b128079618c853ed056b4,126,2,2024-02-27T11:10:37.483Z,english_767.wav,0,pill,1345,62,4,5,français,m,3,0.3,52.69149806,1.37795514
657b128079618c853ed056b4,126,2,2024-02-27T11:10:37.483Z,english_767.wav,0,pill,1345,62,4,5,français,m,4,0.32341667,-0.8536295,1.97315338
657b128079618c853ed056b4,127,2,2024-02-27T11:10:37.483Z,english_402.wav,0,pill,1211,62,4,5,français,m,0,0.0,-69.75327375,0.88104294
657b128079618c853ed056b4,127,2,2024-02-27T11:10:37.483Z,english_402.wav,0,pill,1211,62,4,5,français,m,1,0.1,-37.13247603,1.50830761
657b128079618c853ed056b4,127,2,2024-02-27T11:10:37.483Z,english_402.wav,0,pill,1211,62,4,5,français,m,2,0.2,95.06865819,0.86613458
657b128079618c853ed056b4,127,2,2024-02-27T11:10:37.483Z,english_402.wav,0,pill,1211,62,4,5,français,m,3,0.3,-83.65219271,1.46195184
657b128079618c853ed056b4,127,2,2024-02-27T11:10:37.483Z,english_402.wav,0,pill,1211,62,4,5,français,m,4,0.32341667,-39.65623645,1.78030697
657b128079618c853ed056b4,128,2,2024-02-27T11:10:37.483Z,english_517.wav,0,pill,696,62,4,5,français,m,0,0.0,11.23661905,0.76208972
657b128079618c853ed056b4,128,2,2024-02-27T11:10:37.483Z,english_517.wav,0,pill,696,62,4,5,français,m,1,0.1,58.81241605,0.18193562
657b128079618c853ed056b4,128,2,2024-02-27T11:10:37.483Z,english_517.wav,0,pill,696,62,4,5,français,m,2,0.2,38.38790279,1.85963831
657b128079618c853ed056b4,128,2,2024-02-27T11:10:37.483Z,english_517.wav,0,pill,696,62,4,5,français,m,3,0.3,-74.61462092,0.20223028
657b128079618c853ed056b4,128,2,2024-02-27T11:10:37.483Z,english_517.wav,0,pill,696,62,4,5,français,m,4,0.32341667,-36.69086471,1.46287498
657b128079618c853ed056b4,129,2,2024-02-27T11:10:37.483Z,english_701.wav,0,pill,506,62,4,5,français,m,0,0.0,87.15265727,1.41120649
657b128079618c853ed056b4,129,2,2024-02-27T11:10:37.483Z,english_701.wav,0,pill,506,62,4,5,français,m,1,0.1,38.39882515,0.44004622
657b128079618c853ed056b4,129,2,2024-02-27T11:10:37.483Z,english_701.wav,0,pill,506,62,4,5,français,m,2,0.2,64.60201562,1.15462264
657b128079618c853ed056b4,129,2,2024-02-27T11:10:37.483Z,english_701.wav,0,pill,506,62,4,5,français,m,3,0.3,12.58613119,1.17454355
657b128079618c853ed056b4,129,2,2024-02-27T11:10:37.483Z,english_701.wav,0,pill,506,62,4,5,français,m,4,0.32341667,46.94968762,1.38716818
657b128079618c853ed056b4,130,2,2024-02-27T11:10:37.483Z,english_740.wav,0,pill,599,62,4,5,français,m,0,0.0,17.63845752,0.65519257
657b128079618c853ed056b4,130,2,2024-02-27T11:10:37.483Z,english_740.wav,0,pill,599,62,4,5,français,m,1,0.1,36.88289119,0.996231
657b128079618c853ed056b4,130,2,2024-02-27T11:10:37.483Z,english_740.wav,0,pill,599,62,4,5,français,m,2,0.2,-63.85348159,0.85360158
657b128079618c853ed056b4,130,2,2024-02-27T11:10:37.483Z,english_740.wav,0,pill,599,62,4,5,français,m,3,0.3,-97.96670479,1.42654033
657b128079618c853ed056b4,130,2,2024-02-27T11:10:37.483Z,english_740.wav,0,pill,599,62,4,5,français,m,4,0.32341667,43.035587,1.01691569
657b128079618c853ed056b4,131,2,2024-02-27T11:10:37.483Z,english_478.wav,0,pill,333,62,4,5,français,m,0,0.0,-70.9954821,0.91489342
657b128079618c853ed056b4,131,2,2024-02-27T11:10:37.483Z,english_478.wav,0,pill,333,62,4,5,français,m,1,0.1,18.763036,1.0325944
657b128079618c853ed056b4,131,2,2024-02-27T11:10:37.483Z,english_478.wav,0,pill,333,62,4,5,français,m,2,0.2,84.30682023,1.47139294
657b128079618c853ed056b4,131,2,2024-02-27T11:10:37.483Z,english_478.wav,0,pill,333,62,4,5,français,m,3,0.3,96.70790152,0.31719256
657b128079618c853ed056b4,131,2,2024-02-27T11:10:37.483Z,english_478.wav,0,pill,333,62,4,5,français,m,4,0.32341667,-65.75430749,1.1469235
657b128079618c853ed056b4,132,2,2024-02-27T11:10:37.483Z,english_897.wav,0,pill,544,62,4,5,français,m,0,0.0,-6.17515852,1.45954458
657b128079618c853ed056b4,132,2,2024-02-27T11:10:37.483Z,english_897.wav,0,pill,544,62,4,5,français,m,1,0.1,-25.56252799,1.4662158
657b128079618c853ed056b4,132,2,2024-02-27T11:10:37.483Z,english_897.wav,0,pill,544,62,4,5,français,m,2,0.2,-51.51756482,1.09304129
657b128079618c853ed056b4,132,2,2024-02-27T11:10:37.483Z,english_897.wav,0,pill,544,62,4,5,français,m,3,0.3,-57.3776393,1.17713492
657b128079618c853ed056b4,132,2,2024-02-27T11:10:37.483Z,english_897.wav,0,pill,544,62,4,5,français,m,4,0.32341667,-65.82780913,1.23726335
657b128079618c853ed056b4,133,2,2024-02-27T11:10:37.483Z,english_458.wav,0,pill,332,62,4,5,français,m,0,0.0,-49.69821038,0.39452057
657b128079618c853ed056b4,133,2,2024-02-27T11:10:37.483Z,english_458.wav,0,pill,332,62,4,5,français,m,1,0.1,-49.80647014,1.24604375
657b128079618c853ed056b4,133,2,2024-02-27T11:10:37.483Z,english_458.wav,0,pill,332,62,4,5,français,m,2,0.2,11.98261521,0.42272405
657b128079618c853ed056b4,133,2,2024-02-27T11:10:37.483Z,english_458.wav,0,pill,332,62,4,5,français,m,3,0.3,59.43319096,0.21259233
657b128079618c853ed056b4,133,2,2024-02-27T11:10:37.483Z,english_458.wav,0,pill,332,62,4,5,français,m,4,0.32341667,-34.5671642,1.13235362
657b128079618c853ed056b4,134,2,2024-02-27T11:10:37.483Z,english_128.wav,0,pill,425,62,4,5,français,m,0,0.0,-84.07301703,0.96445051
657b128079618c853ed056b4,134,2,2024-02-27T11:10:37.483Z,english_128.wav,0,pill,425,62,4,5,français,m,1,0.1,0.2051398,0.77165422
657b128079618c853ed056b4,134,2,2024-02-27T11:10:37.483Z,english_128.wav,0,pill,425,62,4,5,français,m,2,0.2,50.77588291,0.60279997
657b128079618c853ed056b4,134,2,2024-02-27T11:10:37.483Z,english_128.wav,0,pill,425,62,4,5,français,m,3,0.3,3.27834455,0.59915485
657b128079618c853ed056b4,134,2,2024-02-27T11:10:37.483Z,english_128.wav,0,pill,425,62,4,5,français,m,4,0.32341667,59.5943459,0.43521132
657b128079618c853ed056b4,135,2,2024-02-27T11:10:37.483Z,english_955.wav,0,peel,336,62,4,5,français,m,0,0.0,-93.58498903,1.26703381
657b128079618c853ed056b4,135,2,2024-02-27T11:10:37.483Z,english_955.wav,0,peel,336,62,4,5,français,m,1,0.1,-11.56731864,0.51967441
657b128079618c853ed056b4,135,2,2024-02-27T11:10:37.483Z,english_955.wav,0,peel,336,62,4,5,français,m,2,0.2,60.37787928,1.0313906
657b128079618c853ed056b4,135,2,2024-02-27T11:10:37.483Z,english_955.wav,0,peel,336,62,4,5,français,m,3,0.3,83.42366765,1.58878747
657b128079618c853ed056b4,135,2,2024-02-27T11:10:37.483Z,english_955.wav,0,peel,336,62,4,5,français,m,4,0.32341667,-60.32056418,1.0025339
657b128079618c853ed056b4,136,2,2024-02-27T11:10:37.483Z,english_445.wav,0,peel,333,62,4,5,français,m,0,0.0,88.00598922,1.42174052
657b128079618c853ed056b4,136,2,2024-02-27T11:10:37.483Z,english_445.wav,0,peel,333,62,4,5,français,m,1,0.1,96.51328737,1.49122509
657b128079618c853ed056b4,136,2,2024-02-27T11:10:37.483Z,english_445.wav,0,peel,333,62,4,5,français,m,2,0.2,29.11093561,0.62095286
657b128079618c853ed056b4,136,2,2024-02-27T11:10:37.483Z,english_445.wav,0,peel,333,62,4,5,français,m,3,0.3,69.6076589,1.14630865
657b128079618c853ed056b4,136,2,2024-02-27T11:10:37.483Z,english_445.wav,0,peel,333,62,4,5,français,m,4,0.32341667,-59.73938179,1.38538671
657b128079618c853ed056b4,137,2,2024-02-27T11:10:37.483Z,english_141.wav,0,pill,655,62,4,5,français,m,0,0.0,-85.83390244,1.36546316
657b128079618c853ed056b4,137,2,2024-02-27T11:10:37.483Z,english_141.wav,0,pill,655,62,4,5,français,m,1,0.1,-83.68236309,0.39424104
657b128079618c853ed056b4,137,2,2024-02-27T11:10:37.483Z,english_141.wav,0,pill,655,62,4,5,français,m,2,0.2,-69.95552588,1.31629396
657b128079618c853ed056b4,137,2,2024-02-27T11:10:37.483Z,english_141.wav,0,pill,655,62,4,5,français,m,3,0.3,-14.67715053,0.23786768
657b128079618c853ed056b4,137,2,2024-02-27T11:10:37.483Z,english_141.wav,0,pill,655,62,4,5,français,m,4,0.32341667,73.76142723,0.2069198
657b128079618c853ed056b4,138,2,2024-02-27T11:10:37.483Z,english_108.wav,0,peel,724,62,4,5,français,m,0,0.0,-20.69942707,0.77052949
657b128079618c853ed056b4,138,2,2024-02-27T11:10:37.483Z,english_108.wav,0,peel,724,62,4,5,français,m,1,0.1,-59.42152954,1.01445352
657b128079618c853ed056b4,138,2,2024-02-27T11:10:37.483Z,english_108.wav,0,peel,724,62,4,5,français,m,2,0.2,-8.09170222,0.42363715
657b128079618c853ed056b4,138,2,2024-02-27T11:10:37.483Z,english_108.wav,0,peel,724,62,4,5,français,m,3,0.3,21.99826779,1.45799831
657b128079618c853ed056b4,138,2,2024-02-27T11:10:37.483Z,english_108.wav,0,peel,724,62,4,5,français,m,4,0.32341667,56.38973361,1.71498507
657b128079618c853ed056b4,139,2,2024-02-27T11:10:37.483Z,english_191.wav,0,peel,651,62,4,5,français,m,0,0.0,5.22709543,0.24693927
657b128079618c853ed056b4,139,2,2024-02-27T11:10:37.483Z,english_191.wav,0,peel,651,62,4,5,français,m,1,0.1,-51.29785688,1.61528443
657b128079618c853ed056b4,139,2,2024-02-27T11:10:37.483Z,english_191.wav,0,peel,651,62,4,5,français,m,2,0.2,14.39503603,0.10158113
657b128079618c853ed056b4,139,2,2024-02-27T11:10:37.483Z,english_191.wav,0,peel,651,62,4,5,français,m,3,0.3,60.50312404,1.02883866
657b128079618c853ed056b4,139,2,2024-02-27T11:10:37.483Z,english_191.wav,0,peel,651,62,4,5,français,m,4,0.32341667,68.15927452,0.69870432
657b128079618c853ed056b4,140,2,2024-02-27T11:10:37.483Z,english_287.wav,0,peel,440,62,4,5,français,m,0,0.0,-5.71925808,1.04112926
657b128079618c853ed056b4,140,2,2024-02-27T11:10:37.483Z,english_287.wav,0,peel,440,62,4,5,français,m,1,0.1,-94.78041007,0.35149142
657b128079618c853ed056b4,140,2,2024-02-27T11:10:37.483Z,english_287.wav,0,peel,440,62,4,5,français,m,2,0.2,8.34641368,0.86781598
657b128079618c853ed056b4,140,2,2024-02-27T11:10:37.483Z,english_287.wav,0,peel,440,62,4,5,français,m,3,0.3,36.34893025,1.897904
657b128079618c853ed056b4,140,2,2024-02-27T11:10:37.483Z,english_287.wav,0,peel,440,62,4,5,français,m,4,0.32341667,-22.47689594,0.5607403
657b128079618c853ed056b4,141,2,2024-02-27T11:10:37.483Z,english_347.wav,0,peel,549,62,4,5,français,m,0,0.0,34.89178431,1.32203506
657b128079618c853ed056b4,141,2,2024-02-27T11:10:37.483Z,english_347.wav,0,peel,549,62,4,5,français,m,1,0.1,53.24978685,0.28714436
657b128079618c853ed056b4,141,2,2024-02-27T11:10:37.483Z,english_347.wav,0,peel,549,62,4,5,français,m,2,0.2,4.11185022,1.66093526
657b128079618c853ed056b4,141,2,2024-02-27T11:10:37.483Z,english_347.wav,0,peel,549,62,4,5,français,m,3,0.3,89.26663646,1.29826057
657b128079618c853ed056b4,141,2,2024-02-27T11:10:37.483Z,english_347.wav,0,peel,549,62,4,5,français,m,4,0.32341667,-53.02646266,0.05504814
657b128079618c853ed056b4,142,2,2024-02-27T11:10:37.483Z,english_572.wav,0,peel,529,62,4,5,français,m,0,0.0,-16.16189062,1.82210005
657b128079618c853ed056b4,142,2,2024-02-27T11:10:37.483Z,english_572.wav,0,peel,529,62,4,5,français,m,1,0.1,-40.8511413,0.80249033
657b128079618c853ed056b4,142,2,2024-02-27T11:10:37.483Z,english_572.wav,0,peel,529,62,4,5,français,m,2,0.2,-77.3747243,0.69959732
657b128079618c853ed056b4,142,2,2024-02-27T11:10:37.483Z,english_572.wav,0,peel,529,62,4,5,français,m,3,0.3,87.62803369,0.43311894
657b128079618c853ed056b4,142,2,2024-02-27T11:10:37.483Z,english_572.wav,0,peel,529,62,4,5,français,m,4,0.32341667,81.6005998,1.25204325
657b128079618c853ed056b4,143,2,2024-02-27T11:10:37.483Z,english_250.wav,0,peel,1057,62,4,5,français,m,0,0.0,15.9272347,0.97372592
657b128079618c853ed056b4,143,2,2024-02-27T11:10:37.483Z,english_250.wav,0,peel,1057,62,4,5,français,m,1,0.1,-20.77070657,1.45189783
657b128079618c853ed056b4,143,2,2024-02-27T11:10:37.483Z,english_250.wav,0,peel,1057,62,4,5,français,m,2,0.2,-20.08480075,0.50513237
657b128079618c853ed056b4,143,2,2024-02-27T11:10:37.483Z,english_250.wav,0,peel,1057,62,4,5,français,m,3,0.3,-29.82576937,1.38910207
657b128079618c853ed056b4,143,2,2024-02-27T11:10:37.483Z,english_250.wav,0,peel,1057,62,4,5,français,m,4,0.32341667,87.83532187,1.51614456
657b128079618c853ed056b4,144,2,2024-02-27T11:10:37.483Z,english_374.wav,0,peel,741,62,4,5,français,m,0,0.0,-43.98521466,1.11607514
657b128079618c853ed056b4,144,2,2024-02-27T11:10:37.483Z,english_374.wav,0,peel,741,62,4,5,français,m,1,0.1,-24.87181663,0.38249505
657b128079618c853ed056b4,144,2,2024-02-27T11:10:37.483Z,english_374.wav,0,peel,741,62,4,5,français,m,2,0.2,-29.31566683,1.56774755
657b128079618c853ed056b4,144,2,2024-02-27T11:10:37.483Z,english_374.wav,0,peel,741,62,4,5,français,m,3,0.3,-43.36019392,1.33837662
657b128079618c853ed056b4,144,2,2024-02-27T11:10:37.483Z,english_374.wav,0,peel,741,62,4,5,français,m,4,0.32341667,-35.5175379,0.68793086
657b128079618c853ed056b4,145,2,2024-02-27T11:10:37.483Z,english_526.wav,0,peel,918,62,4,5,français,m,0,0.0,-32.34532461,0.924261
657b128079618c853ed056b4,145,2,2024-02-27T11:10:37.483Z,english_526.wav,0,peel,918,62,4,5,français,m,1,0.1,-46.6208459,0.25414499
657b128079618c853ed056b4,145,2,2024-02-27T11:10:37.483Z,english_526.wav,0,peel,918,62,4,5,français,m,2,0.2,-42.84927068,1.01925886
657b128079618c853ed056b4,145,2,2024-02-27T11:10:37.483Z,english_526.wav,0,peel,918,62,4,5,français,m,3,0.3,3.47643827,0.65966822
657b128079618c853ed056b4,145,2,2024-02-27T11:10:37.483Z,english_526.wav,0,peel,918,62,4,5,français,m,4,0.32341667,52.79087598,1.50872035
657b128079618c853ed056b4,146,2,2024-02-27T11:10:37.483Z,english_464.wav,0,peel,595,62,4,5,français,m,0,0.0,53.08614354,0.76512863
657b128079618c853ed056b4,146,2,2024-02-27T11:10:37.483Z,english_464.wav,0,peel,595,62,4,5,français,m,1,0.1,30.21863436,1.75958979
657b128079618c853ed056b4,146,2,2024-02-27T11:10:37.483Z,english_464.wav,0,peel,595,62,4,5,français,m,2,0.2,-72.79337117,0.91412587
657b128079618c853ed056b4,146,2,2024-02-27T11:10:37.483Z,english_464.wav,0,peel,595,62,4,5,français,m,3,0.3,91.0452741,1.02089091
657b128079618c853ed056b4,146,2,2024-02-27T11:10:37.483Z,english_464.wav,0,peel,595,62,4,5,français,m,4,0.32341667,-31.40181873,1.37846458
657b128079618c853ed056b4,147,2,2024-02-27T11:10:37.483Z,english_910.wav,0,peel,906,62,4,5,français,m,0,0.0,-5.78748479,0.61840584
657b128079618c853ed056b4,147,2,2024-02-27T11:10:37.483Z,english_910.wav,0,peel,906,62,4,5,français,m,1,0.1,25.040103,1.20431928
657b128079618c853ed056b4,147,2,2024-02-27T11:10:37.483Z,english_910.wav,0,peel,906,62,4,5,français,m,2,0.2,-40.66398147,1.66594732
657b128079618c853ed056b4,147,2,2024-02-27T11:10:37.483Z,english_910.wav,0,peel,906,62,4,5,français,m,3,0.3,-99.21011725,0.99007018
657b128079618c853ed056b4,147,2,2024-02-27T11:10:37.483Z,english_910.wav,0,peel,906,62,4,5,français,m,4,0.32341667,30.82754841,0.23705338
657b128079618c853ed056b4,148,2,2024-02-27T11:10:37.483Z,english_925.wav,0,pill,2223,62,4,5,français,m,0,0.0,-23.38055082,1.07708889
657b128079618c853ed056b4,148,2,2024-02-27T11:10:37.483Z,english_925.wav,0,pill,2223,62,4,5,français,m,1,0.1,12.69502826,1.65606803
657b128079618c853ed056b4,148,2,2024-02-27T11:10:37.483Z,english_925.wav,0,pill,2223,62,4,5,français,m,2,0.2,77.53463838,0.48648737
657b128079618c853ed056b4,148,2,2024-02-27T11:10:37.483Z,english_925.wav,0,pill,2223,62,4,5,français,m,3,0.3,58.05299948,0.8939016
657b128079618c853ed056b4,148,2,2024-02-27T11:10:37.483Z,english_925.wav,0,pill,2223,62,4,5,français,m,4,0.32341667,54.12197927,0.72199492
657b128079618c853ed056b4,149,2,2024-02-27T11:10:37.483Z,english_443.wav,0,pill,420,62,4,5,français,m,0,0.0,0.608638,1.06022382
657b128079618c853ed056b4,149,2,2024-02-27T11:10:37.483Z,english_443.wav,0,pill,420,62,4,5,français,m,1,0.1,15.80398242,1.02694767
657b128079618c853ed056b4,149,2,2024-02-27T11:10:37.483Z,english_443.wav,0,pill,420,62,4,5,français,m,2,0.2,-53.8454718,0.72801533
657b128079618c853ed056b4,149,2,2024-02-27T11:10:37.483Z,english_443.wav,0,pill,420,62,4,5,français,m,3,0.3,32.36058062,1.22153209
657b128079618c853ed056b4,149,2,2024-02-27T11:10:37.483Z,english_443.wav,0,pill,420,62,4,5,français,m,4,0.32341667,41.23353215,0.58841963
657b128079618c853ed056b4,150,3,2024-02-27T11:10:37.483Z,english_31.wav,0,pill,854,62,4,5,français,m,0,0.0,21.28810337,1.2057056
657b128079618c853ed056b4,150,3,2024-02-27T11:10:37.483Z,english_31.wav,0,pill,854,62,4,5,français,m,1,0.1,68.821868,0.99381392
657b128079618c853ed056b4,150,3,2024-02-27T11:10:37.483Z,english_31.wav,0,pill,854,62,4,5,français,m,2,0.2,-73.02143346,0.87600828
657b128079618c853ed056b4,150,3,2024-02-27T11:10:37.483Z,english_31.wav,0,pill,854,62,4,5,français,m,3,0.3,68.60173581,1.15844697
657b128079618c853ed056b4,150,3,2024-02-27T11:10:37.483Z,english_31.wav,0,pill,854,62,4,5,français,m,4,0.32341667,51.47999234,1.3722803
657b128079618c853ed056b4,151,3,2024-02-27T11:10:37.483Z,english_29.wav,0,pill,616,62,4,5,français,m,0,0.0,-2.71310826,1.50712016
657b128079618c853ed056b4,151,3,2024-02-27T11:10:37.483Z,english_29.wav,0,pill,616,62,4,5,français,m,1,0.1,17.7201972,0.83644439
657b128079618c853ed056b4,151,3,2024-02-27T11:10:37.483Z,english_29.wav,0,pill,616,62,4,5,français,m,2,0.2,-20.17501418,0.76078741
657b128079618c853ed056b4,151,3,2024-02-27T11:10:37.483Z,english_29.wav,0,pill,616,62,4,5,français,m,3,0.3,12.48271646,0.17009155
657b128079618c853ed056b4,151,3,2024-02-27T11:10:37.483Z,english_29.wav,0,pill,616,62,4,5,français,m,4,0.32341667,29.42079391,1.26727983
657b128079618c853ed056b4,152,3,2024-02-27T11:10:37.483Z,english_183.wav,0,pill,681,62,4,5,français,m,0,0.0,-43.98322413,0.65201846
657b128079618c853ed056b4,152,3,2024-02-27T11:10:37.483Z,english_183.wav,0,pill,681,62,4,5,français,m,1,0.1,-25.77671075,1.22292345
