subj,trial,block,date,stim,stim_order,response,rt,age,english,french,language,sex,param_index,segment,pitch,stretch
5d164f9b1a4be700176367bd,0,0,2024-02-27T12:09:03.897Z,english_482.wav,0,pill,3935,27,4,5,français,m,0,0.0,-75.58658814,1.00366747
5d164f9b1a4be700176367bd,0,0,2024-02-27T12:09:03.897Z,english_482.wav,0,pill,3935,27,4,5,français,m,1,0.1,-97.88900999,1.47597923
5d164f9b1a4be700176367bd,0,0,2024-02-27T12:09:03.897Z,english_482.wav,0,pill,3935,27,4,5,français,m,2,0.2,-4.46161317,1.10854794
5d164f9b1a4be700176367bd,0,0,2024-02-27T12:09:03.897Z,english_482.wav,0,pill,3935,27,4,5,français,m,3,0.3,31.34799552,1.07348452
5d164f9b1a4be700176367bd,0,0,2024-02-27T12:09:03.897Z,english_482.wav,0,pill,3935,27,4,5,français,m,4,0.32341667,-51.80510351,0.67390339
5d164f9b1a4be700176367bd,1,0,2024-02-27T12:09:03.897Z,english_881.wav,0,pill,1310,27,4,5,français,m,0,0.0,7.28069095,1.60234882
5d164f9b1a4be700176367bd,1,0,2024-02-27T12:09:03.897Z,english_881.wav,0,pill,1310,27,4,5,français,m,1,0.1,-64.28928902,0.93497238
5d164f9b1a4be700176367bd,1,0,2024-02-27T12:09:03.897Z,english_881.wav,0,pill,1310,27,4,5,français,m,2,0.2,-2.07432692,0.58107235
5d164f9b1a4be700176367bd,1,0,2024-02-27T12:09:03.897Z,english_881.wav,0,pill,1310,27,4,5,français,m,3,0.3,51.5536886,1.34691236
5d164f9b1a4be700176367bd,1,0,2024-02-27T12:09:03.897Z,english_881.wav,0,pill,1310,27,4,5,français,m,4,0.32341667,65.74991707,0.85842561
5d164f9b1a4be700176367bd,2,0,2024-02-27T12:09:03.897Z,english_426.wav,0,pill,844,27,4,5,français,m,0,0.0,84.66887763,0.58495982
5d164f9b1a4be700176367bd,2,0,2024-02-27T12:09:03.897Z,english_426.wav,0,pill,844,27,4,5,français,m,1,0.1,6.08176803,0.31710055
5d164f9b1a4be700176367bd,2,0,2024-02-27T12:09:03.897Z,english_426.wav,0,pill,844,27,4,5,français,m,2,0.2,90.82211143,1.7123379
5d164f9b1a4be700176367bd,2,0,2024-02-27T12:09:03.897Z,english_426.wav,0,pill,844,27,4,5,français,m,3,0.3,42.04787562,1.38911617
5d164f9b1a4be700176367bd,2,0,2024-02-27T12:09:03.897Z,english_426.wav,0,pill,844,27,4,5,français,m,4,0.32341667,-40.19306584,1.84862951
5d164f9b1a4be700176367bd,3,0,2024-02-27T12:09:03.897Z,english_776.wav,0,peel,3831,27,4,5,français,m,0,0.0,29.86548478,0.57139857
5d164f9b1a4be700176367bd,3,0,2024-02-27T12:09:03.897Z,english_776.wav,0,peel,3831,27,4,5,français,m,1,0.1,2.8025705,1.94435619
5d164f9b1a4be700176367bd,3,0,2024-02-27T12:09:03.897Z,english_776.wav,0,peel,3831,27,4,5,français,m,2,0.2,-38.4768188,0.3951066
5d164f9b1a4be700176367bd,3,0,2024-02-27T12:09:03.897Z,english_776.wav,0,peel,3831,27,4,5,français,m,3,0.3,-89.49838949,0.29859462
5d164f9b1a4be700176367bd,3,0,2024-02-27T12:09:03.897Z,english_776.wav,0,peel,3831,27,4,5,français,m,4,0.32341667,30.18488016,1.93939037
5d164f9b1a4be700176367bd,4,0,2024-02-27T12:09:03.897Z,english_183.wav,0,pill,2236,27,4,5,français,m,0,0.0,-43.98322413,0.65201846
5d164f9b1a4be700176367bd,4,0,2024-02-27T12:09:03.897Z,english_183.wav,0,pill,2236,27,4,5,français,m,1,0.1,-25.77671075,1.22292345
5d164f9b1a4be700176367bd,4,0,2024-02-27T12:09:03.897Z,english_183.wav,0,pill,2236,27,4,5,français,m,2,0.2,39.5110442,1.45876179
5d164f9b1a4be700176367bd,4,0,2024-02-27T12:09:03.897Z,english_183.wav,0,pill,2236,27,4,5,français,m,3,0.3,-32.19697736,0.98656907
5d164f9b1a4be700176367bd,4,0,2024-02-27T12:09:03.897Z,english_183.wav,0,pill,2236,27,4,5,français,m,4,0.32341667,10.88673449,1.0349791
5d164f9b1a4be700176367bd,5,0,2024-02-27T12:09:03.897Z,english_485.wav,0,pill,366,27,4,5,français,m,0,0.0,-7.08941798,1.8206563
5d164f9b1a4be700176367bd,5,0,2024-02-27T12:09:03.897Z,english_485.wav,0,pill,366,27,4,5,français,m,1,0.1,-70.64579204,0.10660577
5d164f9b1a4be700176367bd,5,0,2024-02-27T12:09:03.897Z,english_485.wav,0,pill,366,27,4,5,français,m,2,0.2,23.79115045,1.92760945
5d164f9b1a4be700176367bd,5,0,2024-02-27T12:09:03.897Z,english_485.wav,0,pill,366,27,4,5,français,m,3,0.3,0.80487994,0.77499174
5d164f9b1a4be700176367bd,5,0,2024-02-27T12:09:03.897Z,english_485.wav,0,pill,366,27,4,5,français,m,4,0.32341667,4.72097057,1.20070888
5d164f9b1a4be700176367bd,6,0,2024-02-27T12:09:03.897Z,english_411.wav,0,pill,880,27,4,5,français,m,0,0.0,75.357241,0.83773649
5d164f9b1a4be700176367bd,6,0,2024-02-27T12:09:03.897Z,english_411.wav,0,pill,880,27,4,5,français,m,1,0.1,-55.75688593,0.80885485
5d164f9b1a4be700176367bd,6,0,2024-02-27T12:09:03.897Z,english_411.wav,0,pill,880,27,4,5,français,m,2,0.2,61.10111178,0.61144368
5d164f9b1a4be700176367bd,6,0,2024-02-27T12:09:03.897Z,english_411.wav,0,pill,880,27,4,5,français,m,3,0.3,90.25367142,0.73863407
5d164f9b1a4be700176367bd,6,0,2024-02-27T12:09:03.897Z,english_411.wav,0,pill,880,27,4,5,français,m,4,0.32341667,26.85831553,0.4624235
5d164f9b1a4be700176367bd,7,0,2024-02-27T12:09:03.897Z,english_697.wav,0,pill,846,27,4,5,français,m,0,0.0,34.8877197,0.10761674
5d164f9b1a4be700176367bd,7,0,2024-02-27T12:09:03.897Z,english_697.wav,0,pill,846,27,4,5,français,m,1,0.1,-0.0129750448,0.88035305
5d164f9b1a4be700176367bd,7,0,2024-02-27T12:09:03.897Z,english_697.wav,0,pill,846,27,4,5,français,m,2,0.2,48.8877829,0.12183403
5d164f9b1a4be700176367bd,7,0,2024-02-27T12:09:03.897Z,english_697.wav,0,pill,846,27,4,5,français,m,3,0.3,68.5745634,0.55306263
5d164f9b1a4be700176367bd,7,0,2024-02-27T12:09:03.897Z,english_697.wav,0,pill,846,27,4,5,français,m,4,0.323416667,18.9536775,1.83833688
5d164f9b1a4be700176367bd,8,0,2024-02-27T12:09:03.897Z,english_344.wav,0,pill,718,27,4,5,français,m,0,0.0,-81.18103124,1.80730522
5d164f9b1a4be700176367bd,8,0,2024-02-27T12:09:03.897Z,english_344.wav,0,pill,718,27,4,5,français,m,1,0.1,-15.12635331,1.30606229
5d164f9b1a4be700176367bd,8,0,2024-02-27T12:09:03.897Z,english_344.wav,0,pill,718,27,4,5,français,m,2,0.2,92.11407185,0.89739403
5d164f9b1a4be700176367bd,8,0,2024-02-27T12:09:03.897Z,english_344.wav,0,pill,718,27,4,5,français,m,3,0.3,-26.28325028,0.17834637
5d164f9b1a4be700176367bd,8,0,2024-02-27T12:09:03.897Z,english_344.wav,0,pill,718,27,4,5,français,m,4,0.32341667,-10.89648072,0.48618419
5d164f9b1a4be700176367bd,9,0,2024-02-27T12:09:03.897Z,english_290.wav,0,pill,493,27,4,5,français,m,0,0.0,73.71968657,0.30552726
5d164f9b1a4be700176367bd,9,0,2024-02-27T12:09:03.897Z,english_290.wav,0,pill,493,27,4,5,français,m,1,0.1,-59.85317413,1.31636279
5d164f9b1a4be700176367bd,9,0,2024-02-27T12:09:03.897Z,english_290.wav,0,pill,493,27,4,5,français,m,2,0.2,71.1426587,0.54925413
5d164f9b1a4be700176367bd,9,0,2024-02-27T12:09:03.897Z,english_290.wav,0,pill,493,27,4,5,français,m,3,0.3,-18.50007061,1.26204455
5d164f9b1a4be700176367bd,9,0,2024-02-27T12:09:03.897Z,english_290.wav,0,pill,493,27,4,5,français,m,4,0.32341667,-65.91143137,0.60528556
5d164f9b1a4be700176367bd,10,0,2024-02-27T12:09:03.897Z,english_404.wav,0,pill,463,27,4,5,français,m,0,0.0,32.93077195,0.80618862
5d164f9b1a4be700176367bd,10,0,2024-02-27T12:09:03.897Z,english_404.wav,0,pill,463,27,4,5,français,m,1,0.1,51.79107477,1.03327995
5d164f9b1a4be700176367bd,10,0,2024-02-27T12:09:03.897Z,english_404.wav,0,pill,463,27,4,5,français,m,2,0.2,-61.91466198,1.39590152
5d164f9b1a4be700176367bd,10,0,2024-02-27T12:09:03.897Z,english_404.wav,0,pill,463,27,4,5,français,m,3,0.3,33.45957754,1.8615638
5d164f9b1a4be700176367bd,10,0,2024-02-27T12:09:03.897Z,english_404.wav,0,pill,463,27,4,5,français,m,4,0.32341667,-82.23793256,0.80137687
5d164f9b1a4be700176367bd,11,0,2024-02-27T12:09:03.897Z,english_591.wav,0,peel,1266,27,4,5,français,m,0,0.0,-17.23532002,0.16408748
5d164f9b1a4be700176367bd,11,0,2024-02-27T12:09:03.897Z,english_591.wav,0,peel,1266,27,4,5,français,m,1,0.1,-55.20494434,0.21361432
5d164f9b1a4be700176367bd,11,0,2024-02-27T12:09:03.897Z,english_591.wav,0,peel,1266,27,4,5,français,m,2,0.2,-36.65883109,0.19384467
5d164f9b1a4be700176367bd,11,0,2024-02-27T12:09:03.897Z,english_591.wav,0,peel,1266,27,4,5,français,m,3,0.3,75.34514139,0.82850175
5d164f9b1a4be700176367bd,11,0,2024-02-27T12:09:03.897Z,english_591.wav,0,peel,1266,27,4,5,français,m,4,0.32341667,31.2832342,1.471328
5d164f9b1a4be700176367bd,12,0,2024-02-27T12:09:03.897Z,english_908.wav,0,pill,234,27,4,5,français,m,0,0.0,48.62867987,1.27180628
5d164f9b1a4be700176367bd,12,0,2024-02-27T12:09:03.897Z,english_908.wav,0,pill,234,27,4,5,français,m,1,0.1,15.18588807,0.65893562
5d164f9b1a4be700176367bd,12,0,2024-02-27T12:09:03.897Z,english_908.wav,0,pill,234,27,4,5,français,m,2,0.2,-42.37345339,1.07678682
5d164f9b1a4be700176367bd,12,0,2024-02-27T12:09:03.897Z,english_908.wav,0,pill,234,27,4,5,français,m,3,0.3,10.74033392,1.66111239
5d164f9b1a4be700176367bd,12,0,2024-02-27T12:09:03.897Z,english_908.wav,0,pill,234,27,4,5,français,m,4,0.32341667,-40.14378972,0.30218678
5d164f9b1a4be700176367bd,13,0,2024-02-27T12:09:03.897Z,english_678.wav,0,pill,586,27,4,5,français,m,0,0.0,87.86222938,1.6760541
5d164f9b1a4be700176367bd,13,0,2024-02-27T12:09:03.897Z,english_678.wav,0,pill,586,27,4,5,français,m,1,0.1,-47.14792626,0.22369522
5d164f9b1a4be700176367bd,13,0,2024-02-27T12:09:03.897Z,english_678.wav,0,pill,586,27,4,5,français,m,2,0.2,-6.84659798,1.1260271
5d164f9b1a4be700176367bd,13,0,2024-02-27T12:09:03.897Z,english_678.wav,0,pill,586,27,4,5,français,m,3,0.3,87.67045201,1.53941447
5d164f9b1a4be700176367bd,13,0,2024-02-27T12:09:03.897Z,english_678.wav,0,pill,586,27,4,5,français,m,4,0.32341667,-51.71213936,1.37136581
5d164f9b1a4be700176367bd,14,0,2024-02-27T12:09:03.897Z,english_587.wav,0,pill,570,27,4,5,français,m,0,0.0,-33.32102811,0.7972352
5d164f9b1a4be700176367bd,14,0,2024-02-27T12:09:03.897Z,english_587.wav,0,pill,570,27,4,5,français,m,1,0.1,46.1287001,1.97425238
5d164f9b1a4be700176367bd,14,0,2024-02-27T12:09:03.897Z,english_587.wav,0,pill,570,27,4,5,français,m,2,0.2,-62.23894368,0.99609006
5d164f9b1a4be700176367bd,14,0,2024-02-27T12:09:03.897Z,english_587.wav,0,pill,570,27,4,5,français,m,3,0.3,36.67711132,1.18577707
5d164f9b1a4be700176367bd,14,0,2024-02-27T12:09:03.897Z,english_587.wav,0,pill,570,27,4,5,français,m,4,0.32341667,-11.53320103,1.64089558
5d164f9b1a4be700176367bd,15,0,2024-02-27T12:09:03.897Z,english_286.wav,0,pill,476,27,4,5,français,m,0,0.0,-94.9495111,0.49849168
5d164f9b1a4be700176367bd,15,0,2024-02-27T12:09:03.897Z,english_286.wav,0,pill,476,27,4,5,français,m,1,0.1,-25.05656786,1.27672914
5d164f9b1a4be700176367bd,15,0,2024-02-27T12:09:03.897Z,english_286.wav,0,pill,476,27,4,5,français,m,2,0.2,59.61150177,0.14515846
5d164f9b1a4be700176367bd,15,0,2024-02-27T12:09:03.897Z,english_286.wav,0,pill,476,27,4,5,français,m,3,0.3,-32.97544875,1.67164973
5d164f9b1a4be700176367bd,15,0,2024-02-27T12:09:03.897Z,english_286.wav,0,pill,476,27,4,5,français,m,4,0.32341667,7.58095242,0.86492177
5d164f9b1a4be700176367bd,16,0,2024-02-27T12:09:03.897Z,english_704.wav,0,pill,462,27,4,5,français,m,0,0.0,-24.48288207,0.92043902
5d164f9b1a4be700176367bd,16,0,2024-02-27T12:09:03.897Z,english_704.wav,0,pill,462,27,4,5,français,m,1,0.1,-9.94163531,0.96595902
5d164f9b1a4be700176367bd,16,0,2024-02-27T12:09:03.897Z,english_704.wav,0,pill,462,27,4,5,français,m,2,0.2,74.85271107,1.40327859
5d164f9b1a4be700176367bd,16,0,2024-02-27T12:09:03.897Z,english_704.wav,0,pill,462,27,4,5,français,m,3,0.3,-38.44921803,1.07325586
5d164f9b1a4be700176367bd,16,0,2024-02-27T12:09:03.897Z,english_704.wav,0,pill,462,27,4,5,français,m,4,0.32341667,-21.20994959,1.87555588
5d164f9b1a4be700176367bd,17,0,2024-02-27T12:09:03.897Z,english_356.wav,0,pill,742,27,4,5,français,m,0,0.0,87.74309864,0.22820547
5d164f9b1a4be700176367bd,17,0,2024-02-27T12:09:03.897Z,english_356.wav,0,pill,742,27,4,5,français,m,1,0.1,-4.48264388,1.49009691
5d164f9b1a4be700176367bd,17,0,2024-02-27T12:09:03.897Z,english_356.wav,0,pill,742,27,4,5,français,m,2,0.2,90.19031952,1.39023362
5d164f9b1a4be700176367bd,17,0,2024-02-27T12:09:03.897Z,english_356.wav,0,pill,742,27,4,5,français,m,3,0.3,-69.40540064,1.78473098
5d164f9b1a4be700176367bd,17,0,2024-02-27T12:09:03.897Z,english_356.wav,0,pill,742,27,4,5,français,m,4,0.32341667,65.10278108,0.80628385
5d164f9b1a4be700176367bd,18,0,2024-02-27T12:09:03.897Z,english_284.wav,0,peel,869,27,4,5,français,m,0,0.0,-77.15161711,0.74585549
5d164f9b1a4be700176367bd,18,0,2024-02-27T12:09:03.897Z,english_284.wav,0,peel,869,27,4,5,français,m,1,0.1,80.53955212,0.017077
5d164f9b1a4be700176367bd,18,0,2024-02-27T12:09:03.897Z,english_284.wav,0,peel,869,27,4,5,français,m,2,0.2,-73.74967403,0.284322
5d164f9b1a4be700176367bd,18,0,2024-02-27T12:09:03.897Z,english_284.wav,0,peel,869,27,4,5,français,m,3,0.3,-47.67008962,1.04459593
5d164f9b1a4be700176367bd,18,0,2024-02-27T12:09:03.897Z,english_284.wav,0,peel,869,27,4,5,français,m,4,0.32341667,40.40758666,0.8536958
5d164f9b1a4be700176367bd,19,0,2024-02-27T12:09:03.897Z,english_320.wav,0,pill,1082,27,4,5,français,m,0,0.0,-85.59568725,1.40519879
5d164f9b1a4be700176367bd,19,0,2024-02-27T12:09:03.897Z,english_320.wav,0,pill,1082,27,4,5,français,m,1,0.1,-85.79055124,0.4213256
5d164f9b1a4be700176367bd,19,0,2024-02-27T12:09:03.897Z,english_320.wav,0,pill,1082,27,4,5,français,m,2,0.2,-34.52195848,0.82537755
5d164f9b1a4be700176367bd,19,0,2024-02-27T12:09:03.897Z,english_320.wav,0,pill,1082,27,4,5,français,m,3,0.3,14.03031204,0.50617831
5d164f9b1a4be700176367bd,19,0,2024-02-27T12:09:03.897Z,english_320.wav,0,pill,1082,27,4,5,français,m,4,0.32341667,45.83597199,1.22725326
5d164f9b1a4be700176367bd,20,0,2024-02-27T12:09:03.897Z,english_278.wav,0,pill,665,27,4,5,français,m,0,0.0,-49.55521664,0.96598769
5d164f9b1a4be700176367bd,20,0,2024-02-27T12:09:03.897Z,english_278.wav,0,pill,665,27,4,5,français,m,1,0.1,60.24292507,1.32709354
5d164f9b1a4be700176367bd,20,0,2024-02-27T12:09:03.897Z,english_278.wav,0,pill,665,27,4,5,français,m,2,0.2,34.32984246,0.84496159
5d164f9b1a4be700176367bd,20,0,2024-02-27T12:09:03.897Z,english_278.wav,0,pill,665,27,4,5,français,m,3,0.3,91.69210883,1.50157491
5d164f9b1a4be700176367bd,20,0,2024-02-27T12:09:03.897Z,english_278.wav,0,pill,665,27,4,5,français,m,4,0.32341667,78.84715657,1.85534648
5d164f9b1a4be700176367bd,21,0,2024-02-27T12:09:03.897Z,english_200.wav,0,pill,461,27,4,5,français,m,0,0.0,48.98677304,1.07797747
5d164f9b1a4be700176367bd,21,0,2024-02-27T12:09:03.897Z,english_200.wav,0,pill,461,27,4,5,français,m,1,0.1,13.54292536,1.23698451
5d164f9b1a4be700176367bd,21,0,2024-02-27T12:09:03.897Z,english_200.wav,0,pill,461,27,4,5,français,m,2,0.2,15.98335964,0.85343662
5d164f9b1a4be700176367bd,21,0,2024-02-27T12:09:03.897Z,english_200.wav,0,pill,461,27,4,5,français,m,3,0.3,-46.7743147,1.38707984
5d164f9b1a4be700176367bd,21,0,2024-02-27T12:09:03.897Z,english_200.wav,0,pill,461,27,4,5,français,m,4,0.32341667,-12.18386714,0.65409939
5d164f9b1a4be700176367bd,22,0,2024-02-27T12:09:03.897Z,english_439.wav,0,pill,299,27,4,5,français,m,0,0.0,-34.98153375,0.51703437
5d164f9b1a4be700176367bd,22,0,2024-02-27T12:09:03.897Z,english_439.wav,0,pill,299,27,4,5,français,m,1,0.1,58.81829455,0.92552513
5d164f9b1a4be700176367bd,22,0,2024-02-27T12:09:03.897Z,english_439.wav,0,pill,299,27,4,5,français,m,2,0.2,-39.64168408,1.94754337
5d164f9b1a4be700176367bd,22,0,2024-02-27T12:09:03.897Z,english_439.wav,0,pill,299,27,4,5,français,m,3,0.3,-65.89684329,0.19153473
5d164f9b1a4be700176367bd,22,0,2024-02-27T12:09:03.897Z,english_439.wav,0,pill,299,27,4,5,français,m,4,0.32341667,-18.09409032,1.29438445
5d164f9b1a4be700176367bd,23,0,2024-02-27T12:09:03.897Z,english_210.wav,0,pill,406,27,4,5,français,m,0,0.0,43.03172008,0.27268056
5d164f9b1a4be700176367bd,23,0,2024-02-27T12:09:03.897Z,english_210.wav,0,pill,406,27,4,5,français,m,1,0.1,58.48529179,0.59270989
5d164f9b1a4be700176367bd,23,0,2024-02-27T12:09:03.897Z,english_210.wav,0,pill,406,27,4,5,français,m,2,0.2,57.29337371,1.57355776
5d164f9b1a4be700176367bd,23,0,2024-02-27T12:09:03.897Z,english_210.wav,0,pill,406,27,4,5,français,m,3,0.3,-45.34642936,1.97663548
5d164f9b1a4be700176367bd,23,0,2024-02-27T12:09:03.897Z,english_210.wav,0,pill,406,27,4,5,français,m,4,0.32341667,-3.49486879,1.39997912
5d164f9b1a4be700176367bd,24,0,2024-02-27T12:09:03.897Z,english_323.wav,0,pill,373,27,4,5,français,m,0,0.0,92.33188111,1.59668922
5d164f9b1a4be700176367bd,24,0,2024-02-27T12:09:03.897Z,english_323.wav,0,pill,373,27,4,5,français,m,1,0.1,4.22577609,1.75306106
5d164f9b1a4be700176367bd,24,0,2024-02-27T12:09:03.897Z,english_323.wav,0,pill,373,27,4,5,français,m,2,0.2,-35.48560344,1.06071567
5d164f9b1a4be700176367bd,24,0,2024-02-27T12:09:03.897Z,english_323.wav,0,pill,373,27,4,5,français,m,3,0.3,7.73763769,1.9328625
5d164f9b1a4be700176367bd,24,0,2024-02-27T12:09:03.897Z,english_323.wav,0,pill,373,27,4,5,français,m,4,0.32341667,55.62458321,1.27347405
5d164f9b1a4be700176367bd,25,0,2024-02-27T12:09:03.897Z,english_638.wav,0,peel,1019,27,4,5,français,m,0,0.0,6.92468799,1.1702122
5d164f9b1a4be700176367bd,25,0,2024-02-27T12:09:03.897Z,english_638.wav,0,peel,1019,27,4,5,français,m,1,0.1,52.10042521,0.51269982
5d164f9b1a4be700176367bd,25,0,2024-02-27T12:09:03.897Z,english_638.wav,0,peel,1019,27,4,5,français,m,2,0.2,-39.07293948,0.1912204
5d164f9b1a4be700176367bd,25,0,2024-02-27T12:09:03.897Z,english_638.wav,0,peel,1019,27,4,5,français,m,3,0.3,38.46029754,0.91406415
5d164f9b1a4be700176367bd,25,0,2024-02-27T12:09:03.897Z,english_638.wav,0,peel,1019,27,4,5,français,m,4,0.32341667,-16.6630855,1.67689755
5d164f9b1a4be700176367bd,26,0,2024-02-27T12:09:03.897Z,english_701.wav,0,pill,370,27,4,5,français,m,0,0.0,87.15265727,1.41120649
5d164f9b1a4be700176367bd,26,0,2024-02-27T12:09:03.897Z,english_701.wav,0,pill,370,27,4,5,français,m,1,0.1,38.39882515,0.44004622
5d164f9b1a4be700176367bd,26,0,2024-02-27T12:09:03.897Z,english_701.wav,0,pill,370,27,4,5,français,m,2,0.2,64.60201562,1.15462264
5d164f9b1a4be700176367bd,26,0,2024-02-27T12:09:03.897Z,english_701.wav,0,pill,370,27,4,5,français,m,3,0.3,12.58613119,1.17454355
5d164f9b1a4be700176367bd,26,0,2024-02-27T12:09:03.897Z,english_701.wav,0,pill,370,27,4,5,français,m,4,0.32341667,46.94968762,1.38716818
5d164f9b1a4be700176367bd,27,0,2024-02-27T12:09:03.897Z,english_120.wav,0,pill,480,27,4,5,français,m,0,0.0,55.2306484,0.43658612
5d164f9b1a4be700176367bd,27,0,2024-02-27T12:09:03.897Z,english_120.wav,0,pill,480,27,4,5,français,m,1,0.1,82.00530973,0.03999251
5d164f9b1a4be700176367bd,27,0,2024-02-27T12:09:03.897Z,english_120.wav,0,pill,480,27,4,5,français,m,2,0.2,-5.84837635,0.80827096
5d164f9b1a4be700176367bd,27,0,2024-02-27T12:09:03.897Z,english_120.wav,0,pill,480,27,4,5,français,m,3,0.3,66.20489525,1.78669421
5d164f9b1a4be700176367bd,27,0,2024-02-27T12:09:03.897Z,english_120.wav,0,pill,480,27,4,5,français,m,4,0.32341667,-73.22302923,1.04341795
5d164f9b1a4be700176367bd,28,0,2024-02-27T12:09:03.897Z,english_45.wav,0,pill,380,27,4,5,français,m,0,0.0,72.55677234,0.302627
5d164f9b1a4be700176367bd,28,0,2024-02-27T12:09:03.897Z,english_45.wav,0,pill,380,27,4,5,français,m,1,0.1,34.43244276,1.957389
5d164f9b1a4be700176367bd,28,0,2024-02-27T12:09:03.897Z,english_45.wav,0,pill,380,27,4,5,français,m,2,0.2,12.66368291,1.1456601
5d164f9b1a4be700176367bd,28,0,2024-02-27T12:09:03.897Z,english_45.wav,0,pill,380,27,4,5,français,m,3,0.3,47.17471186,1.77472104
5d164f9b1a4be700176367bd,28,0,2024-02-27T12:09:03.897Z,english_45.wav,0,pill,380,27,4,5,français,m,4,0.32341667,-48.2883803,1.7760992
5d164f9b1a4be700176367bd,29,0,2024-02-27T12:09:03.897Z,english_990.wav,0,peel,1109,27,4,5,français,m,0,0.0,-17.98511021,0.6190444
5d164f9b1a4be700176367bd,29,0,2024-02-27T12:09:03.897Z,english_990.wav,0,peel,1109,27,4,5,français,m,1,0.1,-90.3005676,0.77548775
5d164f9b1a4be700176367bd,29,0,2024-02-27T12:09:03.897Z,english_990.wav,0,peel,1109,27,4,5,français,m,2,0.2,4.37005684,0.55013224
5d164f9b1a4be700176367bd,29,0,2024-02-27T12:09:03.897Z,english_990.wav,0,peel,1109,27,4,5,français,m,3,0.3,83.93705034,0.66784051
5d164f9b1a4be700176367bd,29,0,2024-02-27T12:09:03.897Z,english_990.wav,0,peel,1109,27,4,5,français,m,4,0.32341667,-36.57803625,0.32384409
5d164f9b1a4be700176367bd,30,0,2024-02-27T12:09:03.897Z,english_759.wav,0,pill,1042,27,4,5,français,m,0,0.0,22.56482953,0.32974928
5d164f9b1a4be700176367bd,30,0,2024-02-27T12:09:03.897Z,english_759.wav,0,pill,1042,27,4,5,français,m,1,0.1,-26.57515882,0.74944663
5d164f9b1a4be700176367bd,30,0,2024-02-27T12:09:03.897Z,english_759.wav,0,pill,1042,27,4,5,français,m,2,0.2,58.52096087,0.73148935
5d164f9b1a4be700176367bd,30,0,2024-02-27T12:09:03.897Z,english_759.wav,0,pill,1042,27,4,5,français,m,3,0.3,67.88336338,0.69769471
5d164f9b1a4be700176367bd,30,0,2024-02-27T12:09:03.897Z,english_759.wav,0,pill,1042,27,4,5,français,m,4,0.32341667,-98.7178367,1.46371733
5d164f9b1a4be700176367bd,31,0,2024-02-27T12:09:03.897Z,english_70.wav,0,pill,467,27,4,5,français,m,0,0.0,-53.09237622,1.21678364
5d164f9b1a4be700176367bd,31,0,2024-02-27T12:09:03.897Z,english_70.wav,0,pill,467,27,4,5,français,m,1,0.1,85.97526897,0.94111324
5d164f9b1a4be700176367bd,31,0,2024-02-27T12:09:03.897Z,english_70.wav,0,pill,467,27,4,5,français,m,2,0.2,25.5645184,1.03926055
5d164f9b1a4be700176367bd,31,0,2024-02-27T12:09:03.897Z,english_70.wav,0,pill,467,27,4,5,français,m,3,0.3,1.25172137,0.29519406
5d164f9b1a4be700176367bd,31,0,2024-02-27T12:09:03.897Z,english_70.wav,0,pill,467,27,4,5,français,m,4,0.32341667,93.59431896,0.80175783
5d164f9b1a4be700176367bd,32,0,2024-02-27T12:09:03.897Z,english_167.wav,0,pill,1111,27,4,5,français,m,0,0.0,57.26975159,0.44729063
5d164f9b1a4be700176367bd,32,0,2024-02-27T12:09:03.897Z,english_167.wav,0,pill,1111,27,4,5,français,m,1,0.1,54.31010869,1.623568
5d164f9b1a4be700176367bd,32,0,2024-02-27T12:09:03.897Z,english_167.wav,0,pill,1111,27,4,5,français,m,2,0.2,99.57020207,0.28743218
5d164f9b1a4be700176367bd,32,0,2024-02-27T12:09:03.897Z,english_167.wav,0,pill,1111,27,4,5,français,m,3,0.3,27.92735821,0.71837494
5d164f9b1a4be700176367bd,32,0,2024-02-27T12:09:03.897Z,english_167.wav,0,pill,1111,27,4,5,français,m,4,0.32341667,73.13424206,1.35815305
5d164f9b1a4be700176367bd,33,0,2024-02-27T12:09:03.897Z,english_822.wav,0,pill,468,27,4,5,français,m,0,0.0,22.19463519,1.34957498
5d164f9b1a4be700176367bd,33,0,2024-02-27T12:09:03.897Z,english_822.wav,0,pill,468,27,4,5,français,m,1,0.1,46.02970585,1.18534363
5d164f9b1a4be700176367bd,33,0,2024-02-27T12:09:03.897Z,english_822.wav,0,pill,468,27,4,5,français,m,2,0.2,44.31281831,0.88966115
5d164f9b1a4be700176367bd,33,0,2024-02-27T12:09:03.897Z,english_822.wav,0,pill,468,27,4,5,français,m,3,0.3,27.24156044,1.22476657
5d164f9b1a4be700176367bd,33,0,2024-02-27T12:09:03.897Z,english_822.wav,0,pill,468,27,4,5,français,m,4,0.32341667,41.58842879,0.51847317
5d164f9b1a4be700176367bd,34,0,2024-02-27T12:09:03.897Z,english_689.wav,0,peel,492,27,4,5,français,m,0,0.0,42.02822248,1.89069384
5d164f9b1a4be700176367bd,34,0,2024-02-27T12:09:03.897Z,english_689.wav,0,peel,492,27,4,5,français,m,1,0.1,-61.92185233,0.33123617
5d164f9b1a4be700176367bd,34,0,2024-02-27T12:09:03.897Z,english_689.wav,0,peel,492,27,4,5,français,m,2,0.2,-8.45156809,0.5478675
5d164f9b1a4be700176367bd,34,0,2024-02-27T12:09:03.897Z,english_689.wav,0,peel,492,27,4,5,français,m,3,0.3,15.09500637,0.80334133
5d164f9b1a4be700176367bd,34,0,2024-02-27T12:09:03.897Z,english_689.wav,0,peel,492,27,4,5,français,m,4,0.32341667,8.33163023,1.42024866
5d164f9b1a4be700176367bd,35,0,2024-02-27T12:09:03.897Z,english_222.wav,0,pill,431,27,4,5,français,m,0,0.0,-5.8882644,0.97478352
5d164f9b1a4be700176367bd,35,0,2024-02-27T12:09:03.897Z,english_222.wav,0,pill,431,27,4,5,français,m,1,0.1,-15.4334302,1.79573252
5d164f9b1a4be700176367bd,35,0,2024-02-27T12:09:03.897Z,english_222.wav,0,pill,431,27,4,5,français,m,2,0.2,-39.50203868,1.71948726
5d164f9b1a4be700176367bd,35,0,2024-02-27T12:09:03.897Z,english_222.wav,0,pill,431,27,4,5,français,m,3,0.3,67.79027175,0.41699719
5d164f9b1a4be700176367bd,35,0,2024-02-27T12:09:03.897Z,english_222.wav,0,pill,431,27,4,5,français,m,4,0.32341667,-43.17344259,0.26315099
5d164f9b1a4be700176367bd,36,0,2024-02-27T12:09:03.897Z,english_304.wav,0,pill,641,27,4,5,français,m,0,0.0,-80.7192326,0.54130022
5d164f9b1a4be700176367bd,36,0,2024-02-27T12:09:03.897Z,english_304.wav,0,pill,641,27,4,5,français,m,1,0.1,34.14230443,0.20766845
5d164f9b1a4be700176367bd,36,0,2024-02-27T12:09:03.897Z,english_304.wav,0,pill,641,27,4,5,français,m,2,0.2,-43.78548789,1.25157904
5d164f9b1a4be700176367bd,36,0,2024-02-27T12:09:03.897Z,english_304.wav,0,pill,641,27,4,5,français,m,3,0.3,85.79520644,0.76195837
5d164f9b1a4be700176367bd,36,0,2024-02-27T12:09:03.897Z,english_304.wav,0,pill,641,27,4,5,français,m,4,0.32341667,-29.32737886,0.20991234
5d164f9b1a4be700176367bd,37,0,2024-02-27T12:09:03.897Z,english_745.wav,0,peel,643,27,4,5,français,m,0,0.0,-57.64472866,1.88925258
5d164f9b1a4be700176367bd,37,0,2024-02-27T12:09:03.897Z,english_745.wav,0,peel,643,27,4,5,français,m,1,0.1,-14.80975681,0.26333653
5d164f9b1a4be700176367bd,37,0,2024-02-27T12:09:03.897Z,english_745.wav,0,peel,643,27,4,5,français,m,2,0.2,44.46939178,1.01945351
5d164f9b1a4be700176367bd,37,0,2024-02-27T12:09:03.897Z,english_745.wav,0,peel,643,27,4,5,français,m,3,0.3,56.80280999,0.00901457
5d164f9b1a4be700176367bd,37,0,2024-02-27T12:09:03.897Z,english_745.wav,0,peel,643,27,4,5,français,m,4,0.32341667,-16.53068296,0.38778228
5d164f9b1a4be700176367bd,38,0,2024-02-27T12:09:03.897Z,english_152.wav,0,peel,1192,27,4,5,français,m,0,0.0,-21.97873044,1.75752799
5d164f9b1a4be700176367bd,38,0,2024-02-27T12:09:03.897Z,english_152.wav,0,peel,1192,27,4,5,français,m,1,0.1,85.66675034,1.21467008
5d164f9b1a4be700176367bd,38,0,2024-02-27T12:09:03.897Z,english_152.wav,0,peel,1192,27,4,5,français,m,2,0.2,-66.57447909,0.82299352
5d164f9b1a4be700176367bd,38,0,2024-02-27T12:09:03.897Z,english_152.wav,0,peel,1192,27,4,5,français,m,3,0.3,-33.8772441,0.48869868
5d164f9b1a4be700176367bd,38,0,2024-02-27T12:09:03.897Z,english_152.wav,0,peel,1192,27,4,5,français,m,4,0.32341667,-46.50239179,0.31705885
5d164f9b1a4be700176367bd,39,0,2024-02-27T12:09:03.897Z,english_569.wav,0,peel,443,27,4,5,français,m,0,0.0,-44.4695194,1.56768834
5d164f9b1a4be700176367bd,39,0,2024-02-27T12:09:03.897Z,english_569.wav,0,peel,443,27,4,5,français,m,1,0.1,50.36705327,0.42032873
5d164f9b1a4be700176367bd,39,0,2024-02-27T12:09:03.897Z,english_569.wav,0,peel,443,27,4,5,français,m,2,0.2,-76.17438636,0.31133764
5d164f9b1a4be700176367bd,39,0,2024-02-27T12:09:03.897Z,english_569.wav,0,peel,443,27,4,5,français,m,3,0.3,55.47083669,0.91900801
5d164f9b1a4be700176367bd,39,0,2024-02-27T12:09:03.897Z,english_569.wav,0,peel,443,27,4,5,français,m,4,0.32341667,-10.68913609,1.26529561
5d164f9b1a4be700176367bd,40,0,2024-02-27T12:09:03.897Z,english_781.wav,0,pill,623,27,4,5,français,m,0,0.0,22.64916165,0.31928057
5d164f9b1a4be700176367bd,40,0,2024-02-27T12:09:03.897Z,english_781.wav,0,pill,623,27,4,5,français,m,1,0.1,6.89582518,1.4040275
5d164f9b1a4be700176367bd,40,0,2024-02-27T12:09:03.897Z,english_781.wav,0,pill,623,27,4,5,français,m,2,0.2,-79.07711894,0.86558079
5d164f9b1a4be700176367bd,40,0,2024-02-27T12:09:03.897Z,english_781.wav,0,pill,623,27,4,5,français,m,3,0.3,66.534152,0.14510309
5d164f9b1a4be700176367bd,40,0,2024-02-27T12:09:03.897Z,english_781.wav,0,pill,623,27,4,5,français,m,4,0.32341667,93.30494506,0.79620595
5d164f9b1a4be700176367bd,41,0,2024-02-27T12:09:03.897Z,english_38.wav,0,pill,392,27,4,5,français,m,0,0.0,-2.78484508,0.45448836
5d164f9b1a4be700176367bd,41,0,2024-02-27T12:09:03.897Z,english_38.wav,0,pill,392,27,4,5,français,m,1,0.1,-57.68912839,0.86252605
5d164f9b1a4be700176367bd,41,0,2024-02-27T12:09:03.897Z,english_38.wav,0,pill,392,27,4,5,français,m,2,0.2,-17.27242754,1.61904865
5d164f9b1a4be700176367bd,41,0,2024-02-27T12:09:03.897Z,english_38.wav,0,pill,392,27,4,5,français,m,3,0.3,-2.64514482,1.39130822
5d164f9b1a4be700176367bd,41,0,2024-02-27T12:09:03.897Z,english_38.wav,0,pill,392,27,4,5,français,m,4,0.32341667,55.14373267,1.59066599
5d164f9b1a4be700176367bd,42,0,2024-02-27T12:09:03.897Z,english_578.wav,0,peel,670,27,4,5,français,m,0,0.0,-76.90925642,1.21901793
5d164f9b1a4be700176367bd,42,0,2024-02-27T12:09:03.897Z,english_578.wav,0,peel,670,27,4,5,français,m,1,0.1,-68.48676994,1.4118495
5d164f9b1a4be700176367bd,42,0,2024-02-27T12:09:03.897Z,english_578.wav,0,peel,670,27,4,5,français,m,2,0.2,36.30884798,0.05521057
5d164f9b1a4be700176367bd,42,0,2024-02-27T12:09:03.897Z,english_578.wav,0,peel,670,27,4,5,français,m,3,0.3,-36.82491274,1.45629656
5d164f9b1a4be700176367bd,42,0,2024-02-27T12:09:03.897Z,english_578.wav,0,peel,670,27,4,5,français,m,4,0.32341667,-4.04717442,1.80268091
5d164f9b1a4be700176367bd,43,0,2024-02-27T12:09:03.897Z,english_357.wav,0,peel,602,27,4,5,français,m,0,0.0,76.35734026,1.14590216
5d164f9b1a4be700176367bd,43,0,2024-02-27T12:09:03.897Z,english_357.wav,0,peel,602,27,4,5,français,m,1,0.1,-86.84267031,0.53472093
5d164f9b1a4be700176367bd,43,0,2024-02-27T12:09:03.897Z,english_357.wav,0,peel,602,27,4,5,français,m,2,0.2,-64.6676431,0.54723503
5d164f9b1a4be700176367bd,43,0,2024-02-27T12:09:03.897Z,english_357.wav,0,peel,602,27,4,5,français,m,3,0.3,-69.9472318,1.29334783
5d164f9b1a4be700176367bd,43,0,2024-02-27T12:09:03.897Z,english_357.wav,0,peel,602,27,4,5,français,m,4,0.32341667,87.84988665,1.74725804
5d164f9b1a4be700176367bd,44,0,2024-02-27T12:09:03.897Z,english_236.wav,0,pill,863,27,4,5,français,m,0,0.0,14.26564849,0.89253674
5d164f9b1a4be700176367bd,44,0,2024-02-27T12:09:03.897Z,english_236.wav,0,pill,863,27,4,5,français,m,1,0.1,60.97219358,0.38957934
5d164f9b1a4be700176367bd,44,0,2024-02-27T12:09:03.897Z,english_236.wav,0,pill,863,27,4,5,français,m,2,0.2,-12.39626346,1.55558051
5d164f9b1a4be700176367bd,44,0,2024-02-27T12:09:03.897Z,english_236.wav,0,pill,863,27,4,5,français,m,3,0.3,-62.87774076,0.2682718
5d164f9b1a4be700176367bd,44,0,2024-02-27T12:09:03.897Z,english_236.wav,0,pill,863,27,4,5,français,m,4,0.32341667,-75.97684705,1.92182597
5d164f9b1a4be700176367bd,45,0,2024-02-27T12:09:03.897Z,english_241.wav,0,pill,250,27,4,5,français,m,0,0.0,68.9743722,1.94478574
5d164f9b1a4be700176367bd,45,0,2024-02-27T12:09:03.897Z,english_241.wav,0,pill,250,27,4,5,français,m,1,0.1,68.48567391,1.84895789
5d164f9b1a4be700176367bd,45,0,2024-02-27T12:09:03.897Z,english_241.wav,0,pill,250,27,4,5,français,m,2,0.2,12.6952975,1.1085625
5d164f9b1a4be700176367bd,45,0,2024-02-27T12:09:03.897Z,english_241.wav,0,pill,250,27,4,5,français,m,3,0.3,61.42298605,1.36682755
5d164f9b1a4be700176367bd,45,0,2024-02-27T12:09:03.897Z,english_241.wav,0,pill,250,27,4,5,français,m,4,0.32341667,-18.578671,0.93494379
5d164f9b1a4be700176367bd,46,0,2024-02-27T12:09:03.897Z,english_619.wav,0,pill,492,27,4,5,français,m,0,0.0,38.53351318,1.25542912
5d164f9b1a4be700176367bd,46,0,2024-02-27T12:09:03.897Z,english_619.wav,0,pill,492,27,4,5,français,m,1,0.1,-11.21157995,0.83005785
5d164f9b1a4be700176367bd,46,0,2024-02-27T12:09:03.897Z,english_619.wav,0,pill,492,27,4,5,français,m,2,0.2,29.79887689,1.51254928
5d164f9b1a4be700176367bd,46,0,2024-02-27T12:09:03.897Z,english_619.wav,0,pill,492,27,4,5,français,m,3,0.3,48.6384615,0.37972577
5d164f9b1a4be700176367bd,46,0,2024-02-27T12:09:03.897Z,english_619.wav,0,pill,492,27,4,5,français,m,4,0.32341667,-66.5905708,0.44889873
5d164f9b1a4be700176367bd,47,0,2024-02-27T12:09:03.897Z,english_850.wav,0,pill,675,27,4,5,français,m,0,0.0,79.79173837,1.46721922
5d164f9b1a4be700176367bd,47,0,2024-02-27T12:09:03.897Z,english_850.wav,0,pill,675,27,4,5,français,m,1,0.1,-44.24877139,0.57242606
5d164f9b1a4be700176367bd,47,0,2024-02-27T12:09:03.897Z,english_850.wav,0,pill,675,27,4,5,français,m,2,0.2,74.77623955,0.15597525
5d164f9b1a4be700176367bd,47,0,2024-02-27T12:09:03.897Z,english_850.wav,0,pill,675,27,4,5,français,m,3,0.3,-86.32612653,1.3358867
5d164f9b1a4be700176367bd,47,0,2024-02-27T12:09:03.897Z,english_850.wav,0,pill,675,27,4,5,français,m,4,0.32341667,-11.10230867,1.14618682
5d164f9b1a4be700176367bd,48,0,2024-02-27T12:09:03.897Z,english_821.wav,0,pill,377,27,4,5,français,m,0,0.0,-4.04234253,1.62928948
5d164f9b1a4be700176367bd,48,0,2024-02-27T12:09:03.897Z,english_821.wav,0,pill,377,27,4,5,français,m,1,0.1,50.39518932,0.78033958
5d164f9b1a4be700176367bd,48,0,2024-02-27T12:09:03.897Z,english_821.wav,0,pill,377,27,4,5,français,m,2,0.2,58.18996785,1.56476115
5d164f9b1a4be700176367bd,48,0,2024-02-27T12:09:03.897Z,english_821.wav,0,pill,377,27,4,5,français,m,3,0.3,-22.07293427,0.56557752
5d164f9b1a4be700176367bd,48,0,2024-02-27T12:09:03.897Z,english_821.wav,0,pill,377,27,4,5,français,m,4,0.32341667,56.43229939,0.93389964
5d164f9b1a4be700176367bd,49,0,2024-02-27T12:09:03.897Z,english_770.wav,0,pill,359,27,4,5,français,m,0,0.0,-33.21947329,1.48551245
5d164f9b1a4be700176367bd,49,0,2024-02-27T12:09:03.897Z,english_770.wav,0,pill,359,27,4,5,français,m,1,0.1,63.53746239,1.21485607
5d164f9b1a4be700176367bd,49,0,2024-02-27T12:09:03.897Z,english_770.wav,0,pill,359,27,4,5,français,m,2,0.2,-62.38231874,1.11129762
5d164f9b1a4be700176367bd,49,0,2024-02-27T12:09:03.897Z,english_770.wav,0,pill,359,27,4,5,français,m,3,0.3,57.5515188,1.59702794
5d164f9b1a4be700176367bd,49,0,2024-02-27T12:09:03.897Z,english_770.wav,0,pill,359,27,4,5,français,m,4,0.32341667,-11.94001254,1.16110171
5d164f9b1a4be700176367bd,50,1,2024-02-27T12:09:03.897Z,english_436.wav,0,pill,623,27,4,5,français,m,0,0.0,58.73131257,0.30497449
5d164f9b1a4be700176367bd,50,1,2024-02-27T12:09:03.897Z,english_436.wav,0,pill,623,27,4,5,français,m,1,0.1,65.29204538,1.04665744
5d164f9b1a4be700176367bd,50,1,2024-02-27T12:09:03.897Z,english_436.wav,0,pill,623,27,4,5,français,m,2,0.2,7.63213906,1.03883923
5d164f9b1a4be700176367bd,50,1,2024-02-27T12:09:03.897Z,english_436.wav,0,pill,623,27,4,5,français,m,3,0.3,-2.54756362,0.97345352
5d164f9b1a4be700176367bd,50,1,2024-02-27T12:09:03.897Z,english_436.wav,0,pill,623,27,4,5,français,m,4,0.32341667,-11.40614268,0.16121918
5d164f9b1a4be700176367bd,51,1,2024-02-27T12:09:03.897Z,english_919.wav,0,pill,458,27,4,5,français,m,0,0.0,-78.03270024,1.18744007
5d164f9b1a4be700176367bd,51,1,2024-02-27T12:09:03.897Z,english_919.wav,0,pill,458,27,4,5,français,m,1,0.1,24.9634274,0.32639994
5d164f9b1a4be700176367bd,51,1,2024-02-27T12:09:03.897Z,english_919.wav,0,pill,458,27,4,5,français,m,2,0.2,-36.24618286,1.14830442
5d164f9b1a4be700176367bd,51,1,2024-02-27T12:09:03.897Z,english_919.wav,0,pill,458,27,4,5,français,m,3,0.3,-67.38261266,0.75322619
5d164f9b1a4be700176367bd,51,1,2024-02-27T12:09:03.897Z,english_919.wav,0,pill,458,27,4,5,français,m,4,0.32341667,86.21803917,0.69239757
5d164f9b1a4be700176367bd,52,1,2024-02-27T12:09:03.897Z,english_649.wav,0,pill,318,27,4,5,français,m,0,0.0,65.82222467,0.56154429
5d164f9b1a4be700176367bd,52,1,2024-02-27T12:09:03.897Z,english_649.wav,0,pill,318,27,4,5,français,m,1,0.1,-9.35575527,0.64767017
5d164f9b1a4be700176367bd,52,1,2024-02-27T12:09:03.897Z,english_649.wav,0,pill,318,27,4,5,français,m,2,0.2,-91.83315911,0.84538271
5d164f9b1a4be700176367bd,52,1,2024-02-27T12:09:03.897Z,english_649.wav,0,pill,318,27,4,5,français,m,3,0.3,79.30022345,0.4979411
5d164f9b1a4be700176367bd,52,1,2024-02-27T12:09:03.897Z,english_649.wav,0,pill,318,27,4,5,français,m,4,0.32341667,45.86180924,0.89353148
5d164f9b1a4be700176367bd,53,1,2024-02-27T12:09:03.897Z,english_668.wav,0,pill,536,27,4,5,français,m,0,0.0,48.8265236,0.43768829
5d164f9b1a4be700176367bd,53,1,2024-02-27T12:09:03.897Z,english_668.wav,0,pill,536,27,4,5,français,m,1,0.1,97.68090991,0.31983773
5d164f9b1a4be700176367bd,53,1,2024-02-27T12:09:03.897Z,english_668.wav,0,pill,536,27,4,5,français,m,2,0.2,47.50182685,1.24438546
5d164f9b1a4be700176367bd,53,1,2024-02-27T12:09:03.897Z,english_668.wav,0,pill,536,27,4,5,français,m,3,0.3,81.7432518,0.49120307
5d164f9b1a4be700176367bd,53,1,2024-02-27T12:09:03.897Z,english_668.wav,0,pill,536,27,4,5,français,m,4,0.32341667,28.08178094,0.60639718
5d164f9b1a4be700176367bd,54,1,2024-02-27T12:09:03.897Z,english_513.wav,0,pill,946,27,4,5,français,m,0,0.0,76.78578212,0.02403043
5d164f9b1a4be700176367bd,54,1,2024-02-27T12:09:03.897Z,english_513.wav,0,pill,946,27,4,5,français,m,1,0.1,20.42124481,0.85164369
5d164f9b1a4be700176367bd,54,1,2024-02-27T12:09:03.897Z,english_513.wav,0,pill,946,27,4,5,français,m,2,0.2,83.32251122,1.08658436
5d164f9b1a4be700176367bd,54,1,2024-02-27T12:09:03.897Z,english_513.wav,0,pill,946,27,4,5,français,m,3,0.3,47.28432413,0.40639055
5d164f9b1a4be700176367bd,54,1,2024-02-27T12:09:03.897Z,english_513.wav,0,pill,946,27,4,5,français,m,4,0.32341667,-50.64117466,1.29336046
5d164f9b1a4be700176367bd,55,1,2024-02-27T12:09:03.897Z,english_761.wav,0,pill,353,27,4,5,français,m,0,0.0,-7.84319468,0.39728316
5d164f9b1a4be700176367bd,55,1,2024-02-27T12:09:03.897Z,english_761.wav,0,pill,353,27,4,5,français,m,1,0.1,77.10262164,0.76675063
5d164f9b1a4be700176367bd,55,1,2024-02-27T12:09:03.897Z,english_761.wav,0,pill,353,27,4,5,français,m,2,0.2,23.07677451,1.40075404
5d164f9b1a4be700176367bd,55,1,2024-02-27T12:09:03.897Z,english_761.wav,0,pill,353,27,4,5,français,m,3,0.3,-22.28856666,0.53792203
5d164f9b1a4be700176367bd,55,1,2024-02-27T12:09:03.897Z,english_761.wav,0,pill,353,27,4,5,français,m,4,0.32341667,18.71779046,1.06229189
5d164f9b1a4be700176367bd,56,1,2024-02-27T12:09:03.897Z,english_765.wav,0,peel,400,27,4,5,français,m,0,0.0,-52.71695997,0.24697616
5d164f9b1a4be700176367bd,56,1,2024-02-27T12:09:03.897Z,english_765.wav,0,peel,400,27,4,5,français,m,1,0.1,-0.72548599,1.34458244
5d164f9b1a4be700176367bd,56,1,2024-02-27T12:09:03.897Z,english_765.wav,0,peel,400,27,4,5,français,m,2,0.2,-25.46106624,0.2833524
5d164f9b1a4be700176367bd,56,1,2024-02-27T12:09:03.897Z,english_765.wav,0,peel,400,27,4,5,français,m,3,0.3,-15.36834083,0.99517128
5d164f9b1a4be700176367bd,56,1,2024-02-27T12:09:03.897Z,english_765.wav,0,peel,400,27,4,5,français,m,4,0.32341667,-34.08212533,0.81265208
5d164f9b1a4be700176367bd,57,1,2024-02-27T12:09:03.897Z,english_60.wav,0,pill,603,27,4,5,français,m,0,0.0,82.53369854,0.66834278
5d164f9b1a4be700176367bd,57,1,2024-02-27T12:09:03.897Z,english_60.wav,0,pill,603,27,4,5,français,m,1,0.1,60.14491878,1.16350573
5d164f9b1a4be700176367bd,57,1,2024-02-27T12:09:03.897Z,english_60.wav,0,pill,603,27,4,5,français,m,2,0.2,-26.84704149,1.24827189
5d164f9b1a4be700176367bd,57,1,2024-02-27T12:09:03.897Z,english_60.wav,0,pill,603,27,4,5,français,m,3,0.3,-19.8784386,0.70182905
5d164f9b1a4be700176367bd,57,1,2024-02-27T12:09:03.897Z,english_60.wav,0,pill,603,27,4,5,français,m,4,0.32341667,-26.04492652,0.20173025
5d164f9b1a4be700176367bd,58,1,2024-02-27T12:09:03.897Z,english_419.wav,0,peel,650,27,4,5,français,m,0,0.0,74.10926047,0.423980314
5d164f9b1a4be700176367bd,58,1,2024-02-27T12:09:03.897Z,english_419.wav,0,peel,650,27,4,5,français,m,1,0.1,-50.44969368,1.12483838
5d164f9b1a4be700176367bd,58,1,2024-02-27T12:09:03.897Z,english_419.wav,0,peel,650,27,4,5,français,m,2,0.2,-38.37630765,0.473465541
5d164f9b1a4be700176367bd,58,1,2024-02-27T12:09:03.897Z,english_419.wav,0,peel,650,27,4,5,français,m,3,0.3,-57.54140712,0.000838613621
5d164f9b1a4be700176367bd,58,1,2024-02-27T12:09:03.897Z,english_419.wav,0,peel,650,27,4,5,français,m,4,0.32341667,48.12555486,0.389285402
5d164f9b1a4be700176367bd,59,1,2024-02-27T12:09:03.897Z,english_128.wav,0,peel,538,27,4,5,français,m,0,0.0,-84.07301703,0.96445051
5d164f9b1a4be700176367bd,59,1,2024-02-27T12:09:03.897Z,english_128.wav,0,peel,538,27,4,5,français,m,1,0.1,0.2051398,0.77165422
5d164f9b1a4be700176367bd,59,1,2024-02-27T12:09:03.897Z,english_128.wav,0,peel,538,27,4,5,français,m,2,0.2,50.77588291,0.60279997
5d164f9b1a4be700176367bd,59,1,2024-02-27T12:09:03.897Z,english_128.wav,0,peel,538,27,4,5,français,m,3,0.3,3.27834455,0.59915485
5d164f9b1a4be700176367bd,59,1,2024-02-27T12:09:03.897Z,english_128.wav,0,peel,538,27,4,5,français,m,4,0.32341667,59.5943459,0.43521132
5d164f9b1a4be700176367bd,60,1,2024-02-27T12:09:03.897Z,english_438.wav,0,peel,505,27,4,5,français,m,0,0.0,31.75305261,1.38451981
5d164f9b1a4be700176367bd,60,1,2024-02-27T12:09:03.897Z,english_438.wav,0,peel,505,27,4,5,français,m,1,0.1,20.27112767,1.99020027
5d164f9b1a4be700176367bd,60,1,2024-02-27T12:09:03.897Z,english_438.wav,0,peel,505,27,4,5,français,m,2,0.2,66.65258945,0.15645945
5d164f9b1a4be700176367bd,60,1,2024-02-27T12:09:03.897Z,english_438.wav,0,peel,505,27,4,5,français,m,3,0.3,70.72003494,1.37678514
5d164f9b1a4be700176367bd,60,1,2024-02-27T12:09:03.897Z,english_438.wav,0,peel,505,27,4,5,français,m,4,0.32341667,59.11013505,0.82730153
5d164f9b1a4be700176367bd,61,1,2024-02-27T12:09:03.897Z,english_202.wav,0,pill,576,27,4,5,français,m,0,0.0,-30.7410802,1.48506999
5d164f9b1a4be700176367bd,61,1,2024-02-27T12:09:03.897Z,english_202.wav,0,pill,576,27,4,5,français,m,1,0.1,-19.68361402,1.61937363
5d164f9b1a4be700176367bd,61,1,2024-02-27T12:09:03.897Z,english_202.wav,0,pill,576,27,4,5,français,m,2,0.2,-9.93463647,0.73964021
5d164f9b1a4be700176367bd,61,1,2024-02-27T12:09:03.897Z,english_202.wav,0,pill,576,27,4,5,français,m,3,0.3,-7.1971022,1.93955383
5d164f9b1a4be700176367bd,61,1,2024-02-27T12:09:03.897Z,english_202.wav,0,pill,576,27,4,5,français,m,4,0.32341667,-23.97797133,1.43199581
5d164f9b1a4be700176367bd,62,1,2024-02-27T12:09:03.897Z,english_789.wav,0,pill,465,27,4,5,français,m,0,0.0,70.69388181,1.62690516
5d164f9b1a4be700176367bd,62,1,2024-02-27T12:09:03.897Z,english_789.wav,0,pill,465,27,4,5,français,m,1,0.1,-91.45782136,1.02092359
5d164f9b1a4be700176367bd,62,1,2024-02-27T12:09:03.897Z,english_789.wav,0,pill,465,27,4,5,français,m,2,0.2,-94.67801392,0.93437639
5d164f9b1a4be700176367bd,62,1,2024-02-27T12:09:03.897Z,english_789.wav,0,pill,465,27,4,5,français,m,3,0.3,83.76501612,1.8239896
5d164f9b1a4be700176367bd,62,1,2024-02-27T12:09:03.897Z,english_789.wav,0,pill,465,27,4,5,français,m,4,0.32341667,-4.60584958,1.29596798
5d164f9b1a4be700176367bd,63,1,2024-02-27T12:09:03.897Z,english_305.wav,0,pill,404,27,4,5,français,m,0,0.0,-23.95553444,0.70401859
5d164f9b1a4be700176367bd,63,1,2024-02-27T12:09:03.897Z,english_305.wav,0,pill,404,27,4,5,français,m,1,0.1,-97.95184299,0.00875292
5d164f9b1a4be700176367bd,63,1,2024-02-27T12:09:03.897Z,english_305.wav,0,pill,404,27,4,5,français,m,2,0.2,95.23338475,1.8427633
5d164f9b1a4be700176367bd,63,1,2024-02-27T12:09:03.897Z,english_305.wav,0,pill,404,27,4,5,français,m,3,0.3,10.74081096,1.83453859
5d164f9b1a4be700176367bd,63,1,2024-02-27T12:09:03.897Z,english_305.wav,0,pill,404,27,4,5,français,m,4,0.32341667,24.9757793,1.77535614
5d164f9b1a4be700176367bd,64,1,2024-02-27T12:09:03.897Z,english_700.wav,0,peel,450,27,4,5,français,m,0,0.0,-76.89056698,0.13963816
5d164f9b1a4be700176367bd,64,1,2024-02-27T12:09:03.897Z,english_700.wav,0,peel,450,27,4,5,français,m,1,0.1,-93.17552037,0.76842729
5d164f9b1a4be700176367bd,64,1,2024-02-27T12:09:03.897Z,english_700.wav,0,peel,450,27,4,5,français,m,2,0.2,51.24439156,0.49149542
5d164f9b1a4be700176367bd,64,1,2024-02-27T12:09:03.897Z,english_700.wav,0,peel,450,27,4,5,français,m,3,0.3,89.4516499,1.08714417
5d164f9b1a4be700176367bd,64,1,2024-02-27T12:09:03.897Z,english_700.wav,0,peel,450,27,4,5,français,m,4,0.32341667,-68.48659069,1.35188588
5d164f9b1a4be700176367bd,65,1,2024-02-27T12:09:03.897Z,english_309.wav,0,peel,448,27,4,5,français,m,0,0.0,59.8258624,0.58100331
5d164f9b1a4be700176367bd,65,1,2024-02-27T12:09:03.897Z,english_309.wav,0,peel,448,27,4,5,français,m,1,0.1,73.70427758,0.81024997
5d164f9b1a4be700176367bd,65,1,2024-02-27T12:09:03.897Z,english_309.wav,0,peel,448,27,4,5,français,m,2,0.2,-8.71125849,0.10827203
5d164f9b1a4be700176367bd,65,1,2024-02-27T12:09:03.897Z,english_309.wav,0,peel,448,27,4,5,français,m,3,0.3,-86.6882155,0.09670208
5d164f9b1a4be700176367bd,65,1,2024-02-27T12:09:03.897Z,english_309.wav,0,peel,448,27,4,5,français,m,4,0.32341667,-90.77340978,1.53063904
5d164f9b1a4be700176367bd,66,1,2024-02-27T12:09:03.897Z,english_553.wav,0,pill,328,27,4,5,français,m,0,0.0,-18.85071283,1.30647824
5d164f9b1a4be700176367bd,66,1,2024-02-27T12:09:03.897Z,english_553.wav,0,pill,328,27,4,5,français,m,1,0.1,56.72439372,1.55205535
5d164f9b1a4be700176367bd,66,1,2024-02-27T12:09:03.897Z,english_553.wav,0,pill,328,27,4,5,français,m,2,0.2,-32.51510613,1.79127341
5d164f9b1a4be700176367bd,66,1,2024-02-27T12:09:03.897Z,english_553.wav,0,pill,328,27,4,5,français,m,3,0.3,-81.56708954,0.1795284
5d164f9b1a4be700176367bd,66,1,2024-02-27T12:09:03.897Z,english_553.wav,0,pill,328,27,4,5,français,m,4,0.32341667,42.80590219,0.48805839
5d164f9b1a4be700176367bd,67,1,2024-02-27T12:09:03.897Z,english_168.wav,0,peel,486,27,4,5,français,m,0,0.0,-69.10300998,1.14537751
5d164f9b1a4be700176367bd,67,1,2024-02-27T12:09:03.897Z,english_168.wav,0,peel,486,27,4,5,français,m,1,0.1,-24.44784794,1.06854972
5d164f9b1a4be700176367bd,67,1,2024-02-27T12:09:03.897Z,english_168.wav,0,peel,486,27,4,5,français,m,2,0.2,35.31321785,0.45192262
5d164f9b1a4be700176367bd,67,1,2024-02-27T12:09:03.897Z,english_168.wav,0,peel,486,27,4,5,français,m,3,0.3,-41.77498511,0.2846318
5d164f9b1a4be700176367bd,67,1,2024-02-27T12:09:03.897Z,english_168.wav,0,peel,486,27,4,5,français,m,4,0.32341667,19.92389913,0.9853942
5d164f9b1a4be700176367bd,68,1,2024-02-27T12:09:03.897Z,english_534.wav,0,peel,457,27,4,5,français,m,0,0.0,-42.4271338,1.1267565
5d164f9b1a4be700176367bd,68,1,2024-02-27T12:09:03.897Z,english_534.wav,0,peel,457,27,4,5,français,m,1,0.1,-80.6424644,0.6842577
5d164f9b1a4be700176367bd,68,1,2024-02-27T12:09:03.897Z,english_534.wav,0,peel,457,27,4,5,français,m,2,0.2,59.29592388,0.01459656
5d164f9b1a4be700176367bd,68,1,2024-02-27T12:09:03.897Z,english_534.wav,0,peel,457,27,4,5,français,m,3,0.3,75.02007223,1.03701198
5d164f9b1a4be700176367bd,68,1,2024-02-27T12:09:03.897Z,english_534.wav,0,peel,457,27,4,5,français,m,4,0.32341667,-57.55026449,1.25840342
5d164f9b1a4be700176367bd,69,1,2024-02-27T12:09:03.897Z,english_764.wav,0,peel,413,27,4,5,français,m,0,0.0,7.00590276,1.84020442
5d164f9b1a4be700176367bd,69,1,2024-02-27T12:09:03.897Z,english_764.wav,0,peel,413,27,4,5,français,m,1,0.1,-69.33047837,0.1607256
5d164f9b1a4be700176367bd,69,1,2024-02-27T12:09:03.897Z,english_764.wav,0,peel,413,27,4,5,français,m,2,0.2,-20.89747671,1.70981587
5d164f9b1a4be700176367bd,69,1,2024-02-27T12:09:03.897Z,english_764.wav,0,peel,413,27,4,5,français,m,3,0.3,-96.63564891,1.13854431
5d164f9b1a4be700176367bd,69,1,2024-02-27T12:09:03.897Z,english_764.wav,0,peel,413,27,4,5,français,m,4,0.32341667,78.55111455,1.5536836
5d164f9b1a4be700176367bd,70,1,2024-02-27T12:09:03.897Z,english_312.wav,0,peel,388,27,4,5,français,m,0,0.0,44.01610098,1.36033213
5d164f9b1a4be700176367bd,70,1,2024-02-27T12:09:03.897Z,english_312.wav,0,peel,388,27,4,5,français,m,1,0.1,-34.76139374,0.08557756
5d164f9b1a4be700176367bd,70,1,2024-02-27T12:09:03.897Z,english_312.wav,0,peel,388,27,4,5,français,m,2,0.2,-43.47986862,1.06509633
5d164f9b1a4be700176367bd,70,1,2024-02-27T12:09:03.897Z,english_312.wav,0,peel,388,27,4,5,français,m,3,0.3,-9.79517271,0.67257935
5d164f9b1a4be700176367bd,70,1,2024-02-27T12:09:03.897Z,english_312.wav,0,peel,388,27,4,5,français,m,4,0.32341667,85.48914895,0.12614926
5d164f9b1a4be700176367bd,71,1,2024-02-27T12:09:03.897Z,english_87.wav,0,pill,719,27,4,5,français,m,0,0.0,54.83056612,1.56132998
5d164f9b1a4be700176367bd,71,1,2024-02-27T12:09:03.897Z,english_87.wav,0,pill,719,27,4,5,français,m,1,0.1,56.31531505,1.28614089
5d164f9b1a4be700176367bd,71,1,2024-02-27T12:09:03.897Z,english_87.wav,0,pill,719,27,4,5,français,m,2,0.2,-65.55002777,1.44579989
5d164f9b1a4be700176367bd,71,1,2024-02-27T12:09:03.897Z,english_87.wav,0,pill,719,27,4,5,français,m,3,0.3,-25.15788212,0.3607766
5d164f9b1a4be700176367bd,71,1,2024-02-27T12:09:03.897Z,english_87.wav,0,pill,719,27,4,5,français,m,4,0.32341667,22.72349562,0.17745198
5d164f9b1a4be700176367bd,72,1,2024-02-27T12:09:03.897Z,english_205.wav,0,peel,485,27,4,5,français,m,0,0.0,55.03693902,1.41699591
5d164f9b1a4be700176367bd,72,1,2024-02-27T12:09:03.897Z,english_205.wav,0,peel,485,27,4,5,français,m,1,0.1,59.05347117,0.25749205
5d164f9b1a4be700176367bd,72,1,2024-02-27T12:09:03.897Z,english_205.wav,0,peel,485,27,4,5,français,m,2,0.2,-51.93258482,1.78695407
5d164f9b1a4be700176367bd,72,1,2024-02-27T12:09:03.897Z,english_205.wav,0,peel,485,27,4,5,français,m,3,0.3,-18.66886592,0.11157042
5d164f9b1a4be700176367bd,72,1,2024-02-27T12:09:03.897Z,english_205.wav,0,peel,485,27,4,5,français,m,4,0.32341667,-25.16213195,1.74030417
5d164f9b1a4be700176367bd,73,1,2024-02-27T12:09:03.897Z,english_137.wav,0,pill,592,27,4,5,français,m,0,0.0,-81.54177422,0.16940048
5d164f9b1a4be700176367bd,73,1,2024-02-27T12:09:03.897Z,english_137.wav,0,pill,592,27,4,5,français,m,1,0.1,48.50229113,1.33204053
5d164f9b1a4be700176367bd,73,1,2024-02-27T12:09:03.897Z,english_137.wav,0,pill,592,27,4,5,français,m,2,0.2,-43.40912925,1.8593258
5d164f9b1a4be700176367bd,73,1,2024-02-27T12:09:03.897Z,english_137.wav,0,pill,592,27,4,5,français,m,3,0.3,54.89578869,1.77805515
5d164f9b1a4be700176367bd,73,1,2024-02-27T12:09:03.897Z,english_137.wav,0,pill,592,27,4,5,français,m,4,0.32341667,90.09778797,1.80981769
5d164f9b1a4be700176367bd,74,1,2024-02-27T12:09:03.897Z,english_201.wav,0,pill,530,27,4,5,français,m,0,0.0,-11.66329209,1.59313322
5d164f9b1a4be700176367bd,74,1,2024-02-27T12:09:03.897Z,english_201.wav,0,pill,530,27,4,5,français,m,1,0.1,-73.85436231,1.78385616
5d164f9b1a4be700176367bd,74,1,2024-02-27T12:09:03.897Z,english_201.wav,0,pill,530,27,4,5,français,m,2,0.2,-12.5199597,0.57641365
5d164f9b1a4be700176367bd,74,1,2024-02-27T12:09:03.897Z,english_201.wav,0,pill,530,27,4,5,français,m,3,0.3,-44.18013019,1.54371285
5d164f9b1a4be700176367bd,74,1,2024-02-27T12:09:03.897Z,english_201.wav,0,pill,530,27,4,5,français,m,4,0.32341667,47.68284229,1.11944384
5d164f9b1a4be700176367bd,75,1,2024-02-27T12:09:03.897Z,english_364.wav,0,pill,505,27,4,5,français,m,0,0.0,19.50953027,1.75500584
5d164f9b1a4be700176367bd,75,1,2024-02-27T12:09:03.897Z,english_364.wav,0,pill,505,27,4,5,français,m,1,0.1,48.44847612,1.3553812
5d164f9b1a4be700176367bd,75,1,2024-02-27T12:09:03.897Z,english_364.wav,0,pill,505,27,4,5,français,m,2,0.2,-85.20645473,0.86672295
5d164f9b1a4be700176367bd,75,1,2024-02-27T12:09:03.897Z,english_364.wav,0,pill,505,27,4,5,français,m,3,0.3,97.47454191,1.42489128
5d164f9b1a4be700176367bd,75,1,2024-02-27T12:09:03.897Z,english_364.wav,0,pill,505,27,4,5,français,m,4,0.32341667,-45.42958463,1.19673805
5d164f9b1a4be700176367bd,76,1,2024-02-27T12:09:03.897Z,english_163.wav,0,pill,435,27,4,5,français,m,0,0.0,-28.85321754,1.43434597
5d164f9b1a4be700176367bd,76,1,2024-02-27T12:09:03.897Z,english_163.wav,0,pill,435,27,4,5,français,m,1,0.1,9.37410395,1.75766865
5d164f9b1a4be700176367bd,76,1,2024-02-27T12:09:03.897Z,english_163.wav,0,pill,435,27,4,5,français,m,2,0.2,-43.22266742,0.90391943
5d164f9b1a4be700176367bd,76,1,2024-02-27T12:09:03.897Z,english_163.wav,0,pill,435,27,4,5,français,m,3,0.3,48.63715122,1.21743426
5d164f9b1a4be700176367bd,76,1,2024-02-27T12:09:03.897Z,english_163.wav,0,pill,435,27,4,5,français,m,4,0.32341667,-94.22333204,1.8516503
5d164f9b1a4be700176367bd,77,1,2024-02-27T12:09:03.897Z,english_224.wav,0,peel,349,27,4,5,français,m,0,0.0,-3.31597843,0.45157501
5d164f9b1a4be700176367bd,77,1,2024-02-27T12:09:03.897Z,english_224.wav,0,peel,349,27,4,5,français,m,1,0.1,-35.19448657,1.77513434
5d164f9b1a4be700176367bd,77,1,2024-02-27T12:09:03.897Z,english_224.wav,0,peel,349,27,4,5,français,m,2,0.2,-54.62049262,0.36912314
5d164f9b1a4be700176367bd,77,1,2024-02-27T12:09:03.897Z,english_224.wav,0,peel,349,27,4,5,français,m,3,0.3,50.12510099,1.67171916
5d164f9b1a4be700176367bd,77,1,2024-02-27T12:09:03.897Z,english_224.wav,0,peel,349,27,4,5,français,m,4,0.32341667,96.66013203,1.16069525
5d164f9b1a4be700176367bd,78,1,2024-02-27T12:09:03.897Z,english_247.wav,0,peel,385,27,4,5,français,m,0,0.0,48.65693284,0.25539499
5d164f9b1a4be700176367bd,78,1,2024-02-27T12:09:03.897Z,english_247.wav,0,peel,385,27,4,5,français,m,1,0.1,-27.64572099,1.09429421
5d164f9b1a4be700176367bd,78,1,2024-02-27T12:09:03.897Z,english_247.wav,0,peel,385,27,4,5,français,m,2,0.2,-20.19701808,0.88115619
5d164f9b1a4be700176367bd,78,1,2024-02-27T12:09:03.897Z,english_247.wav,0,peel,385,27,4,5,français,m,3,0.3,-10.74442668,1.97859338
5d164f9b1a4be700176367bd,78,1,2024-02-27T12:09:03.897Z,english_247.wav,0,peel,385,27,4,5,français,m,4,0.32341667,91.42432082,0.10638235
5d164f9b1a4be700176367bd,79,1,2024-02-27T12:09:03.897Z,english_218.wav,0,peel,339,27,4,5,français,m,0,0.0,87.3373499,1.94084006
5d164f9b1a4be700176367bd,79,1,2024-02-27T12:09:03.897Z,english_218.wav,0,peel,339,27,4,5,français,m,1,0.1,-14.87903436,0.13305972
5d164f9b1a4be700176367bd,79,1,2024-02-27T12:09:03.897Z,english_218.wav,0,peel,339,27,4,5,français,m,2,0.2,-31.97943339,1.11441312
5d164f9b1a4be700176367bd,79,1,2024-02-27T12:09:03.897Z,english_218.wav,0,peel,339,27,4,5,français,m,3,0.3,-60.49311609,1.83933377
5d164f9b1a4be700176367bd,79,1,2024-02-27T12:09:03.897Z,english_218.wav,0,peel,339,27,4,5,français,m,4,0.32341667,-63.68242647,1.41053301
5d164f9b1a4be700176367bd,80,1,2024-02-27T12:09:03.897Z,english_900.wav,0,pill,451,27,4,5,français,m,0,0.0,-54.93304755,1.64865849
5d164f9b1a4be700176367bd,80,1,2024-02-27T12:09:03.897Z,english_900.wav,0,pill,451,27,4,5,français,m,1,0.1,58.88524349,1.11215591
5d164f9b1a4be700176367bd,80,1,2024-02-27T12:09:03.897Z,english_900.wav,0,pill,451,27,4,5,français,m,2,0.2,-67.87194092,0.89823705
5d164f9b1a4be700176367bd,80,1,2024-02-27T12:09:03.897Z,english_900.wav,0,pill,451,27,4,5,français,m,3,0.3,20.66021993,1.30060406
5d164f9b1a4be700176367bd,80,1,2024-02-27T12:09:03.897Z,english_900.wav,0,pill,451,27,4,5,français,m,4,0.32341667,-10.79853151,1.95850441
5d164f9b1a4be700176367bd,81,1,2024-02-27T12:09:03.897Z,english_970.wav,0,pill,843,27,4,5,français,m,0,0.0,37.22911191,0.60712849
5d164f9b1a4be700176367bd,81,1,2024-02-27T12:09:03.897Z,english_970.wav,0,pill,843,27,4,5,français,m,1,0.1,36.57191813,1.26781741
5d164f9b1a4be700176367bd,81,1,2024-02-27T12:09:03.897Z,english_970.wav,0,pill,843,27,4,5,français,m,2,0.2,20.2344678,1.29373459
5d164f9b1a4be700176367bd,81,1,2024-02-27T12:09:03.897Z,english_970.wav,0,pill,843,27,4,5,français,m,3,0.3,-86.31030026,0.18112256
5d164f9b1a4be700176367bd,81,1,2024-02-27T12:09:03.897Z,english_970.wav,0,pill,843,27,4,5,français,m,4,0.32341667,-83.96880691,1.07780169
5d164f9b1a4be700176367bd,82,1,2024-02-27T12:09:03.897Z,english_825.wav,0,pill,856,27,4,5,français,m,0,0.0,9.96211161,0.17252736
5d164f9b1a4be700176367bd,82,1,2024-02-27T12:09:03.897Z,english_825.wav,0,pill,856,27,4,5,français,m,1,0.1,-28.44120521,0.52830291
5d164f9b1a4be700176367bd,82,1,2024-02-27T12:09:03.897Z,english_825.wav,0,pill,856,27,4,5,français,m,2,0.2,58.95311712,0.51646024
5d164f9b1a4be700176367bd,82,1,2024-02-27T12:09:03.897Z,english_825.wav,0,pill,856,27,4,5,français,m,3,0.3,-14.85414305,0.70859388
5d164f9b1a4be700176367bd,82,1,2024-02-27T12:09:03.897Z,english_825.wav,0,pill,856,27,4,5,français,m,4,0.32341667,85.14956963,0.64434305
5d164f9b1a4be700176367bd,83,1,2024-02-27T12:09:03.897Z,english_738.wav,0,pill,850,27,4,5,français,m,0,0.0,-37.88087101,1.83397703
5d164f9b1a4be700176367bd,83,1,2024-02-27T12:09:03.897Z,english_738.wav,0,pill,850,27,4,5,français,m,1,0.1,-16.85966727,1.52099356
5d164f9b1a4be700176367bd,83,1,2024-02-27T12:09:03.897Z,english_738.wav,0,pill,850,27,4,5,français,m,2,0.2,-79.76891938,1.69283951
5d164f9b1a4be700176367bd,83,1,2024-02-27T12:09:03.897Z,english_738.wav,0,pill,850,27,4,5,français,m,3,0.3,-82.30918252,1.81957343
5d164f9b1a4be700176367bd,83,1,2024-02-27T12:09:03.897Z,english_738.wav,0,pill,850,27,4,5,français,m,4,0.32341667,59.65991076,0.75908376
5d164f9b1a4be700176367bd,84,1,2024-02-27T12:09:03.897Z,english_221.wav,0,pill,553,27,4,5,français,m,0,0.0,85.84184869,1.38100565
5d164f9b1a4be700176367bd,84,1,2024-02-27T12:09:03.897Z,english_221.wav,0,pill,553,27,4,5,français,m,1,0.1,-20.37513589,0.79531516
5d164f9b1a4be700176367bd,84,1,2024-02-27T12:09:03.897Z,english_221.wav,0,pill,553,27,4,5,français,m,2,0.2,-89.75984637,0.9538446
5d164f9b1a4be700176367bd,84,1,2024-02-27T12:09:03.897Z,english_221.wav,0,pill,553,27,4,5,français,m,3,0.3,50.66879934,1.56492426
5d164f9b1a4be700176367bd,84,1,2024-02-27T12:09:03.897Z,english_221.wav,0,pill,553,27,4,5,français,m,4,0.32341667,20.92538743,1.60855456
5d164f9b1a4be700176367bd,85,1,2024-02-27T12:09:03.897Z,english_292.wav,0,pill,649,27,4,5,français,m,0,0.0,-39.45275529,0.85174507
5d164f9b1a4be700176367bd,85,1,2024-02-27T12:09:03.897Z,english_292.wav,0,pill,649,27,4,5,français,m,1,0.1,-35.03464337,0.73996191
5d164f9b1a4be700176367bd,85,1,2024-02-27T12:09:03.897Z,english_292.wav,0,pill,649,27,4,5,français,m,2,0.2,31.68370279,1.42892595
5d164f9b1a4be700176367bd,85,1,2024-02-27T12:09:03.897Z,english_292.wav,0,pill,649,27,4,5,français,m,3,0.3,-53.75991965,0.04968332
5d164f9b1a4be700176367bd,85,1,2024-02-27T12:09:03.897Z,english_292.wav,0,pill,649,27,4,5,français,m,4,0.32341667,12.49992629,0.58931553
5d164f9b1a4be700176367bd,86,1,2024-02-27T12:09:03.897Z,english_71.wav,0,pill,447,27,4,5,français,m,0,0.0,-89.06637534,0.37218892
5d164f9b1a4be700176367bd,86,1,2024-02-27T12:09:03.897Z,english_71.wav,0,pill,447,27,4,5,français,m,1,0.1,-28.638437,1.29479557
5d164f9b1a4be700176367bd,86,1,2024-02-27T12:09:03.897Z,english_71.wav,0,pill,447,27,4,5,français,m,2,0.2,-8.31899436,1.34818575
5d164f9b1a4be700176367bd,86,1,2024-02-27T12:09:03.897Z,english_71.wav,0,pill,447,27,4,5,français,m,3,0.3,67.7820648,1.24266832
5d164f9b1a4be700176367bd,86,1,2024-02-27T12:09:03.897Z,english_71.wav,0,pill,447,27,4,5,français,m,4,0.32341667,4.09606073,1.38884894
5d164f9b1a4be700176367bd,87,1,2024-02-27T12:09:03.897Z,english_141.wav,0,pill,436,27,4,5,français,m,0,0.0,-85.83390244,1.36546316
5d164f9b1a4be700176367bd,87,1,2024-02-27T12:09:03.897Z,english_141.wav,0,pill,436,27,4,5,français,m,1,0.1,-83.68236309,0.39424104
5d164f9b1a4be700176367bd,87,1,2024-02-27T12:09:03.897Z,english_141.wav,0,pill,436,27,4,5,français,m,2,0.2,-69.95552588,1.31629396
5d164f9b1a4be700176367bd,87,1,2024-02-27T12:09:03.897Z,english_141.wav,0,pill,436,27,4,5,français,m,3,0.3,-14.67715053,0.23786768
5d164f9b1a4be700176367bd,87,1,2024-02-27T12:09:03.897Z,english_141.wav,0,pill,436,27,4,5,français,m,4,0.32341667,73.76142723,0.2069198
5d164f9b1a4be700176367bd,88,1,2024-02-27T12:09:03.897Z,english_598.wav,0,pill,580,27,4,5,français,m,0,0.0,4.26365523,0.04069017
5d164f9b1a4be700176367bd,88,1,2024-02-27T12:09:03.897Z,english_598.wav,0,pill,580,27,4,5,français,m,1,0.1,-29.634957,1.27980102
5d164f9b1a4be700176367bd,88,1,2024-02-27T12:09:03.897Z,english_598.wav,0,pill,580,27,4,5,français,m,2,0.2,-17.49120793,0.98781586
5d164f9b1a4be700176367bd,88,1,2024-02-27T12:09:03.897Z,english_598.wav,0,pill,580,27,4,5,français,m,3,0.3,-34.93876912,1.55939702
5d164f9b1a4be700176367bd,88,1,2024-02-27T12:09:03.897Z,english_598.wav,0,pill,580,27,4,5,français,m,4,0.32341667,49.49845506,1.74128412
5d164f9b1a4be700176367bd,89,1,2024-02-27T12:09:03.897Z,english_460.wav,0,pill,445,27,4,5,français,m,0,0.0,-93.21492338,1.97422145
5d164f9b1a4be700176367bd,89,1,2024-02-27T12:09:03.897Z,english_460.wav,0,pill,445,27,4,5,français,m,1,0.1,-65.59669931,0.48313428
5d164f9b1a4be700176367bd,89,1,2024-02-27T12:09:03.897Z,english_460.wav,0,pill,445,27,4,5,français,m,2,0.2,76.47030005,0.91916034
5d164f9b1a4be700176367bd,89,1,2024-02-27T12:09:03.897Z,english_460.wav,0,pill,445,27,4,5,français,m,3,0.3,-24.62267943,0.34121923
5d164f9b1a4be700176367bd,89,1,2024-02-27T12:09:03.897Z,english_460.wav,0,pill,445,27,4,5,français,m,4,0.32341667,17.6428759,0.75894887
5d164f9b1a4be700176367bd,90,1,2024-02-27T12:09:03.897Z,english_953.wav,0,pill,388,27,4,5,français,m,0,0.0,-16.02430182,0.31806788
5d164f9b1a4be700176367bd,90,1,2024-02-27T12:09:03.897Z,english_953.wav,0,pill,388,27,4,5,français,m,1,0.1,29.58660593,0.5983964
5d164f9b1a4be700176367bd,90,1,2024-02-27T12:09:03.897Z,english_953.wav,0,pill,388,27,4,5,français,m,2,0.2,-69.77021268,1.47459901
5d164f9b1a4be700176367bd,90,1,2024-02-27T12:09:03.897Z,english_953.wav,0,pill,388,27,4,5,français,m,3,0.3,10.24378989,1.63555671
5d164f9b1a4be700176367bd,90,1,2024-02-27T12:09:03.897Z,english_953.wav,0,pill,388,27,4,5,français,m,4,0.32341667,-68.66835117,1.74756834
5d164f9b1a4be700176367bd,91,1,2024-02-27T12:09:03.897Z,english_339.wav,0,pill,368,27,4,5,français,m,0,0.0,-58.67599578,0.13141934
5d164f9b1a4be700176367bd,91,1,2024-02-27T12:09:03.897Z,english_339.wav,0,pill,368,27,4,5,français,m,1,0.1,-13.30258388,0.16133177
5d164f9b1a4be700176367bd,91,1,2024-02-27T12:09:03.897Z,english_339.wav,0,pill,368,27,4,5,français,m,2,0.2,-52.40820381,1.13500643
5d164f9b1a4be700176367bd,91,1,2024-02-27T12:09:03.897Z,english_339.wav,0,pill,368,27,4,5,français,m,3,0.3,11.33062491,0.98717522
5d164f9b1a4be700176367bd,91,1,2024-02-27T12:09:03.897Z,english_339.wav,0,pill,368,27,4,5,français,m,4,0.32341667,9.6385593,0.10332776
5d164f9b1a4be700176367bd,92,1,2024-02-27T12:09:03.897Z,english_383.wav,0,pill,549,27,4,5,français,m,0,0.0,-1.49759031,0.61403304
5d164f9b1a4be700176367bd,92,1,2024-02-27T12:09:03.897Z,english_383.wav,0,pill,549,27,4,5,français,m,1,0.1,48.0809444,0.69225556
5d164f9b1a4be700176367bd,92,1,2024-02-27T12:09:03.897Z,english_383.wav,0,pill,549,27,4,5,français,m,2,0.2,-84.09524499,0.33452268
5d164f9b1a4be700176367bd,92,1,2024-02-27T12:09:03.897Z,english_383.wav,0,pill,549,27,4,5,français,m,3,0.3,95.23220486,1.06792504
5d164f9b1a4be700176367bd,92,1,2024-02-27T12:09:03.897Z,english_383.wav,0,pill,549,27,4,5,français,m,4,0.32341667,64.91086902,0.58483827
5d164f9b1a4be700176367bd,93,1,2024-02-27T12:09:03.897Z,english_712.wav,0,peel,419,27,4,5,français,m,0,0.0,-69.83835125,1.15670948
5d164f9b1a4be700176367bd,93,1,2024-02-27T12:09:03.897Z,english_712.wav,0,peel,419,27,4,5,français,m,1,0.1,-89.98535393,0.40201287
5d164f9b1a4be700176367bd,93,1,2024-02-27T12:09:03.897Z,english_712.wav,0,peel,419,27,4,5,français,m,2,0.2,47.33040466,0.06412681
5d164f9b1a4be700176367bd,93,1,2024-02-27T12:09:03.897Z,english_712.wav,0,peel,419,27,4,5,français,m,3,0.3,-32.03166139,1.50973484
5d164f9b1a4be700176367bd,93,1,2024-02-27T12:09:03.897Z,english_712.wav,0,peel,419,27,4,5,français,m,4,0.32341667,-5.29851616,1.18377017
5d164f9b1a4be700176367bd,94,1,2024-02-27T12:09:03.897Z,english_257.wav,0,pill,791,27,4,5,français,m,0,0.0,-68.31428674,1.40239735
5d164f9b1a4be700176367bd,94,1,2024-02-27T12:09:03.897Z,english_257.wav,0,pill,791,27,4,5,français,m,1,0.1,-13.90908686,1.49673114
5d164f9b1a4be700176367bd,94,1,2024-02-27T12:09:03.897Z,english_257.wav,0,pill,791,27,4,5,français,m,2,0.2,54.08743226,1.07658057
5d164f9b1a4be700176367bd,94,1,2024-02-27T12:09:03.897Z,english_257.wav,0,pill,791,27,4,5,français,m,3,0.3,-42.73693867,0.27427112
5d164f9b1a4be700176367bd,94,1,2024-02-27T12:09:03.897Z,english_257.wav,0,pill,791,27,4,5,français,m,4,0.32341667,-1.03846516,1.90516482
5d164f9b1a4be700176367bd,95,1,2024-02-27T12:09:03.897Z,english_461.wav,0,pill,418,27,4,5,français,m,0,0.0,-99.86661298,0.04975834
5d164f9b1a4be700176367bd,95,1,2024-02-27T12:09:03.897Z,english_461.wav,0,pill,418,27,4,5,français,m,1,0.1,65.11959058,1.27856071
5d164f9b1a4be700176367bd,95,1,2024-02-27T12:09:03.897Z,english_461.wav,0,pill,418,27,4,5,français,m,2,0.2,-96.19635976,1.53618081
5d164f9b1a4be700176367bd,95,1,2024-02-27T12:09:03.897Z,english_461.wav,0,pill,418,27,4,5,français,m,3,0.3,56.69155656,1.97602464
5d164f9b1a4be700176367bd,95,1,2024-02-27T12:09:03.897Z,english_461.wav,0,pill,418,27,4,5,français,m,4,0.32341667,-82.13106063,1.41647384
5d164f9b1a4be700176367bd,96,1,2024-02-27T12:09:03.897Z,english_46.wav,0,pill,467,27,4,5,français,m,0,0.0,-29.32250151,0.64118776
5d164f9b1a4be700176367bd,96,1,2024-02-27T12:09:03.897Z,english_46.wav,0,pill,467,27,4,5,français,m,1,0.1,-3.06808063,0.73649566
5d164f9b1a4be700176367bd,96,1,2024-02-27T12:09:03.897Z,english_46.wav,0,pill,467,27,4,5,français,m,2,0.2,90.97923358,1.88790792
5d164f9b1a4be700176367bd,96,1,2024-02-27T12:09:03.897Z,english_46.wav,0,pill,467,27,4,5,français,m,3,0.3,10.7462216,0.26788582
5d164f9b1a4be700176367bd,96,1,2024-02-27T12:09:03.897Z,english_46.wav,0,pill,467,27,4,5,français,m,4,0.32341667,-76.74347892,0.543593
5d164f9b1a4be700176367bd,97,1,2024-02-27T12:09:03.897Z,english_525.wav,0,peel,497,27,4,5,français,m,0,0.0,-21.23223701,1.69398532
5d164f9b1a4be700176367bd,97,1,2024-02-27T12:09:03.897Z,english_525.wav,0,peel,497,27,4,5,français,m,1,0.1,3.49974992,0.25491439
5d164f9b1a4be700176367bd,97,1,2024-02-27T12:09:03.897Z,english_525.wav,0,peel,497,27,4,5,français,m,2,0.2,-75.71526263,0.17370365
5d164f9b1a4be700176367bd,97,1,2024-02-27T12:09:03.897Z,english_525.wav,0,peel,497,27,4,5,français,m,3,0.3,-52.87512147,0.81797459
5d164f9b1a4be700176367bd,97,1,2024-02-27T12:09:03.897Z,english_525.wav,0,peel,497,27,4,5,français,m,4,0.32341667,17.79573657,0.70176203
5d164f9b1a4be700176367bd,98,1,2024-02-27T12:09:03.897Z,english_943.wav,0,peel,450,27,4,5,français,m,0,0.0,-88.39234314,0.07745413
5d164f9b1a4be700176367bd,98,1,2024-02-27T12:09:03.897Z,english_943.wav,0,peel,450,27,4,5,français,m,1,0.1,65.27529367,1.64078214
5d164f9b1a4be700176367bd,98,1,2024-02-27T12:09:03.897Z,english_943.wav,0,peel,450,27,4,5,français,m,2,0.2,-24.85222093,0.23468741
5d164f9b1a4be700176367bd,98,1,2024-02-27T12:09:03.897Z,english_943.wav,0,peel,450,27,4,5,français,m,3,0.3,20.61002448,1.49561498
5d164f9b1a4be700176367bd,98,1,2024-02-27T12:09:03.897Z,english_943.wav,0,peel,450,27,4,5,français,m,4,0.32341667,-74.64601709,1.25217021
5d164f9b1a4be700176367bd,99,1,2024-02-27T12:09:03.897Z,english_490.wav,0,pill,225,27,4,5,français,m,0,0.0,39.23640548,0.12600295
5d164f9b1a4be700176367bd,99,1,2024-02-27T12:09:03.897Z,english_490.wav,0,pill,225,27,4,5,français,m,1,0.1,-42.18123516,0.88631808
5d164f9b1a4be700176367bd,99,1,2024-02-27T12:09:03.897Z,english_490.wav,0,pill,225,27,4,5,français,m,2,0.2,53.94030347,1.76218548
5d164f9b1a4be700176367bd,99,1,2024-02-27T12:09:03.897Z,english_490.wav,0,pill,225,27,4,5,français,m,3,0.3,-65.41993581,1.86160188
5d164f9b1a4be700176367bd,99,1,2024-02-27T12:09:03.897Z,english_490.wav,0,pill,225,27,4,5,français,m,4,0.32341667,90.15742696,1.03493088
5d164f9b1a4be700176367bd,100,2,2024-02-27T12:09:03.897Z,english_401.wav,0,pill,492,27,4,5,français,m,0,0.0,-70.37998858,1.11338134
5d164f9b1a4be700176367bd,100,2,2024-02-27T12:09:03.897Z,english_401.wav,0,pill,492,27,4,5,français,m,1,0.1,49.27188779,1.59691292
5d164f9b1a4be700176367bd,100,2,2024-02-27T12:09:03.897Z,english_401.wav,0,pill,492,27,4,5,français,m,2,0.2,5.09566389,0.88679935
5d164f9b1a4be700176367bd,100,2,2024-02-27T12:09:03.897Z,english_401.wav,0,pill,492,27,4,5,français,m,3,0.3,58.42368176,1.89749174
5d164f9b1a4be700176367bd,100,2,2024-02-27T12:09:03.897Z,english_401.wav,0,pill,492,27,4,5,français,m,4,0.32341667,-43.06407799,1.35831765
5d164f9b1a4be700176367bd,101,2,2024-02-27T12:09:03.897Z,english_289.wav,0,pill,393,27,4,5,français,m,0,0.0,-55.97739865,0.95213243
5d164f9b1a4be700176367bd,101,2,2024-02-27T12:09:03.897Z,english_289.wav,0,pill,393,27,4,5,français,m,1,0.1,-97.9801122,0.81858491
5d164f9b1a4be700176367bd,101,2,2024-02-27T12:09:03.897Z,english_289.wav,0,pill,393,27,4,5,français,m,2,0.2,44.28679287,1.16094748
5d164f9b1a4be700176367bd,101,2,2024-02-27T12:09:03.897Z,english_289.wav,0,pill,393,27,4,5,français,m,3,0.3,-74.0895039,0.92969459
5d164f9b1a4be700176367bd,101,2,2024-02-27T12:09:03.897Z,english_289.wav,0,pill,393,27,4,5,français,m,4,0.32341667,-44.25845537,0.41504245
5d164f9b1a4be700176367bd,102,2,2024-02-27T12:09:03.897Z,english_669.wav,0,peel,337,27,4,5,français,m,0,0.0,-58.38123624,0.53455866
5d164f9b1a4be700176367bd,102,2,2024-02-27T12:09:03.897Z,english_669.wav,0,peel,337,27,4,5,français,m,1,0.1,-80.20155876,0.64376179
5d164f9b1a4be700176367bd,102,2,2024-02-27T12:09:03.897Z,english_669.wav,0,peel,337,27,4,5,français,m,2,0.2,-25.59737246,0.76694756
5d164f9b1a4be700176367bd,102,2,2024-02-27T12:09:03.897Z,english_669.wav,0,peel,337,27,4,5,français,m,3,0.3,-30.25633946,1.36842807
5d164f9b1a4be700176367bd,102,2,2024-02-27T12:09:03.897Z,english_669.wav,0,peel,337,27,4,5,français,m,4,0.32341667,-70.78768349,0.06434218
5d164f9b1a4be700176367bd,103,2,2024-02-27T12:09:03.897Z,english_386.wav,0,peel,256,27,4,5,français,m,0,0.0,74.56899624,1.79299743
5d164f9b1a4be700176367bd,103,2,2024-02-27T12:09:03.897Z,english_386.wav,0,peel,256,27,4,5,français,m,1,0.1,25.94107183,0.16071221
5d164f9b1a4be700176367bd,103,2,2024-02-27T12:09:03.897Z,english_386.wav,0,peel,256,27,4,5,français,m,2,0.2,41.2839149,0.21721497
5d164f9b1a4be700176367bd,103,2,2024-02-27T12:09:03.897Z,english_386.wav,0,peel,256,27,4,5,français,m,3,0.3,14.47866495,1.22036918
5d164f9b1a4be700176367bd,103,2,2024-02-27T12:09:03.897Z,english_386.wav,0,peel,256,27,4,5,français,m,4,0.32341667,-14.73959674,1.81871952
5d164f9b1a4be700176367bd,104,2,2024-02-27T12:09:03.897Z,english_652.wav,0,peel,396,27,4,5,français,m,0,0.0,4.27736911,0.30427218
5d164f9b1a4be700176367bd,104,2,2024-02-27T12:09:03.897Z,english_652.wav,0,peel,396,27,4,5,français,m,1,0.1,18.79087972,0.67520162
5d164f9b1a4be700176367bd,104,2,2024-02-27T12:09:03.897Z,english_652.wav,0,peel,396,27,4,5,français,m,2,0.2,61.32163128,0.66270689
5d164f9b1a4be700176367bd,104,2,2024-02-27T12:09:03.897Z,english_652.wav,0,peel,396,27,4,5,français,m,3,0.3,45.76092148,0.93987847
5d164f9b1a4be700176367bd,104,2,2024-02-27T12:09:03.897Z,english_652.wav,0,peel,396,27,4,5,français,m,4,0.32341667,-45.08671386,1.10617978
5d164f9b1a4be700176367bd,105,2,2024-02-27T12:09:03.897Z,english_135.wav,0,peel,351,27,4,5,français,m,0,0.0,92.53632507,0.8813083
5d164f9b1a4be700176367bd,105,2,2024-02-27T12:09:03.897Z,english_135.wav,0,peel,351,27,4,5,français,m,1,0.1,42.68843281,1.60503348
5d164f9b1a4be700176367bd,105,2,2024-02-27T12:09:03.897Z,english_135.wav,0,peel,351,27,4,5,français,m,2,0.2,87.27237188,0.22265806
5d164f9b1a4be700176367bd,105,2,2024-02-27T12:09:03.897Z,english_135.wav,0,peel,351,27,4,5,français,m,3,0.3,-70.62725941,0.4233462
5d164f9b1a4be700176367bd,105,2,2024-02-27T12:09:03.897Z,english_135.wav,0,peel,351,27,4,5,français,m,4,0.32341667,91.37204548,0.99500327
5d164f9b1a4be700176367bd,106,2,2024-02-27T12:09:03.897Z,english_980.wav,0,peel,366,27,4,5,français,m,0,0.0,-32.33629208,1.21290567
5d164f9b1a4be700176367bd,106,2,2024-02-27T12:09:03.897Z,english_980.wav,0,peel,366,27,4,5,français,m,1,0.1,-4.4140807,0.22350007
5d164f9b1a4be700176367bd,106,2,2024-02-27T12:09:03.897Z,english_980.wav,0,peel,366,27,4,5,français,m,2,0.2,76.81412515,1.68078519
5d164f9b1a4be700176367bd,106,2,2024-02-27T12:09:03.897Z,english_980.wav,0,peel,366,27,4,5,français,m,3,0.3,-16.24877133,0.16816052
5d164f9b1a4be700176367bd,106,2,2024-02-27T12:09:03.897Z,english_980.wav,0,peel,366,27,4,5,français,m,4,0.32341667,-26.44128118,1.48722631
5d164f9b1a4be700176367bd,107,2,2024-02-27T12:09:03.897Z,english_449.wav,0,pill,309,27,4,5,français,m,0,0.0,-46.54576765,0.60085197
5d164f9b1a4be700176367bd,107,2,2024-02-27T12:09:03.897Z,english_449.wav,0,pill,309,27,4,5,français,m,1,0.1,20.05422573,1.74901032
5d164f9b1a4be700176367bd,107,2,2024-02-27T12:09:03.897Z,english_449.wav,0,pill,309,27,4,5,français,m,2,0.2,54.52400621,1.9506545
5d164f9b1a4be700176367bd,107,2,2024-02-27T12:09:03.897Z,english_449.wav,0,pill,309,27,4,5,français,m,3,0.3,73.66855139,1.81044704
5d164f9b1a4be700176367bd,107,2,2024-02-27T12:09:03.897Z,english_449.wav,0,pill,309,27,4,5,français,m,4,0.32341667,-1.88675615,0.93562966
5d164f9b1a4be700176367bd,108,2,2024-02-27T12:09:03.897Z,english_632.wav,0,peel,38,27,4,5,français,m,0,0.0,-56.22391322,1.21249895
5d164f9b1a4be700176367bd,108,2,2024-02-27T12:09:03.897Z,english_632.wav,0,peel,38,27,4,5,français,m,1,0.1,-47.59423942,0.39515719
5d164f9b1a4be700176367bd,108,2,2024-02-27T12:09:03.897Z,english_632.wav,0,peel,38,27,4,5,français,m,2,0.2,91.93727259,1.8528852
5d164f9b1a4be700176367bd,108,2,2024-02-27T12:09:03.897Z,english_632.wav,0,peel,38,27,4,5,français,m,3,0.3,-33.89646621,1.67254104
5d164f9b1a4be700176367bd,108,2,2024-02-27T12:09:03.897Z,english_632.wav,0,peel,38,27,4,5,français,m,4,0.32341667,46.88387871,1.21014685
5d164f9b1a4be700176367bd,109,2,2024-02-27T12:09:03.897Z,english_374.wav,0,peel,277,27,4,5,français,m,0,0.0,-43.98521466,1.11607514
5d164f9b1a4be700176367bd,109,2,2024-02-27T12:09:03.897Z,english_374.wav,0,peel,277,27,4,5,français,m,1,0.1,-24.87181663,0.38249505
5d164f9b1a4be700176367bd,109,2,2024-02-27T12:09:03.897Z,english_374.wav,0,peel,277,27,4,5,français,m,2,0.2,-29.31566683,1.56774755
5d164f9b1a4be700176367bd,109,2,2024-02-27T12:09:03.897Z,english_374.wav,0,peel,277,27,4,5,français,m,3,0.3,-43.36019392,1.33837662
5d164f9b1a4be700176367bd,109,2,2024-02-27T12:09:03.897Z,english_374.wav,0,peel,277,27,4,5,français,m,4,0.32341667,-35.5175379,0.68793086
5d164f9b1a4be700176367bd,110,2,2024-02-27T12:09:03.897Z,english_773.wav,0,peel,177,27,4,5,français,m,0,0.0,-97.46951928,0.54003315
5d164f9b1a4be700176367bd,110,2,2024-02-27T12:09:03.897Z,english_773.wav,0,peel,177,27,4,5,français,m,1,0.1,85.58858853,1.35505424
5d164f9b1a4be700176367bd,110,2,2024-02-27T12:09:03.897Z,english_773.wav,0,peel,177,27,4,5,français,m,2,0.2,-54.69649905,1.09283168
5d164f9b1a4be700176367bd,110,2,2024-02-27T12:09:03.897Z,english_773.wav,0,peel,177,27,4,5,français,m,3,0.3,-97.24656559,1.42526307
5d164f9b1a4be700176367bd,110,2,2024-02-27T12:09:03.897Z,english_773.wav,0,peel,177,27,4,5,français,m,4,0.32341667,40.28006613,0.69844725
5d164f9b1a4be700176367bd,111,2,2024-02-27T12:09:03.897Z,english_917.wav,0,peel,368,27,4,5,français,m,0,0.0,-2.28432431,0.51220006
5d164f9b1a4be700176367bd,111,2,2024-02-27T12:09:03.897Z,english_917.wav,0,peel,368,27,4,5,français,m,1,0.1,-50.4941454,0.3783057
5d164f9b1a4be700176367bd,111,2,2024-02-27T12:09:03.897Z,english_917.wav,0,peel,368,27,4,5,français,m,2,0.2,86.41176613,0.52629226
5d164f9b1a4be700176367bd,111,2,2024-02-27T12:09:03.897Z,english_917.wav,0,peel,368,27,4,5,français,m,3,0.3,-50.97734163,0.68389314
5d164f9b1a4be700176367bd,111,2,2024-02-27T12:09:03.897Z,english_917.wav,0,peel,368,27,4,5,français,m,4,0.32341667,97.13453513,1.73708117
5d164f9b1a4be700176367bd,112,2,2024-02-27T12:09:03.897Z,english_540.wav,0,peel,397,27,4,5,français,m,0,0.0,-46.6752609,1.16352469
5d164f9b1a4be700176367bd,112,2,2024-02-27T12:09:03.897Z,english_540.wav,0,peel,397,27,4,5,français,m,1,0.1,-93.20209644,0.0234781
5d164f9b1a4be700176367bd,112,2,2024-02-27T12:09:03.897Z,english_540.wav,0,peel,397,27,4,5,français,m,2,0.2,64.96419662,0.05926191
5d164f9b1a4be700176367bd,112,2,2024-02-27T12:09:03.897Z,english_540.wav,0,peel,397,27,4,5,français,m,3,0.3,-12.16484387,1.47406284
5d164f9b1a4be700176367bd,112,2,2024-02-27T12:09:03.897Z,english_540.wav,0,peel,397,27,4,5,français,m,4,0.32341667,-44.34688232,0.60104864
5d164f9b1a4be700176367bd,113,2,2024-02-27T12:09:03.897Z,english_703.wav,0,pill,299,27,4,5,français,m,0,0.0,21.25560127,1.22587136
5d164f9b1a4be700176367bd,113,2,2024-02-27T12:09:03.897Z,english_703.wav,0,pill,299,27,4,5,français,m,1,0.1,-5.61566417,1.28752652
5d164f9b1a4be700176367bd,113,2,2024-02-27T12:09:03.897Z,english_703.wav,0,pill,299,27,4,5,français,m,2,0.2,-88.15973778,1.61643937
5d164f9b1a4be700176367bd,113,2,2024-02-27T12:09:03.897Z,english_703.wav,0,pill,299,27,4,5,français,m,3,0.3,39.86499493,1.32560109
5d164f9b1a4be700176367bd,113,2,2024-02-27T12:09:03.897Z,english_703.wav,0,pill,299,27,4,5,français,m,4,0.32341667,64.67338156,0.74206522
5d164f9b1a4be700176367bd,114,2,2024-02-27T12:09:03.897Z,english_23.wav,0,peel,172,27,4,5,français,m,0,0.0,-50.80982819,0.58244855
5d164f9b1a4be700176367bd,114,2,2024-02-27T12:09:03.897Z,english_23.wav,0,peel,172,27,4,5,français,m,1,0.1,76.10516215,1.77510268
5d164f9b1a4be700176367bd,114,2,2024-02-27T12:09:03.897Z,english_23.wav,0,peel,172,27,4,5,français,m,2,0.2,-90.32463898,0.60847707
5d164f9b1a4be700176367bd,114,2,2024-02-27T12:09:03.897Z,english_23.wav,0,peel,172,27,4,5,français,m,3,0.3,15.76928166,0.62114149
5d164f9b1a4be700176367bd,114,2,2024-02-27T12:09:03.897Z,english_23.wav,0,peel,172,27,4,5,français,m,4,0.32341667,-7.56392806,1.60162938
5d164f9b1a4be700176367bd,115,2,2024-02-27T12:09:03.897Z,english_409.wav,0,peel,292,27,4,5,français,m,0,0.0,-24.04105399,0.29560797
5d164f9b1a4be700176367bd,115,2,2024-02-27T12:09:03.897Z,english_409.wav,0,peel,292,27,4,5,français,m,1,0.1,-26.67389605,1.53762848
5d164f9b1a4be700176367bd,115,2,2024-02-27T12:09:03.897Z,english_409.wav,0,peel,292,27,4,5,français,m,2,0.2,23.9966363,0.34602898
5d164f9b1a4be700176367bd,115,2,2024-02-27T12:09:03.897Z,english_409.wav,0,peel,292,27,4,5,français,m,3,0.3,16.61705293,1.21824435
5d164f9b1a4be700176367bd,115,2,2024-02-27T12:09:03.897Z,english_409.wav,0,peel,292,27,4,5,français,m,4,0.32341667,73.09980407,1.55330233
5d164f9b1a4be700176367bd,116,2,2024-02-27T12:09:03.897Z,english_520.wav,0,pill,242,27,4,5,français,m,0,0.0,86.3711843,1.94117834
5d164f9b1a4be700176367bd,116,2,2024-02-27T12:09:03.897Z,english_520.wav,0,pill,242,27,4,5,français,m,1,0.1,30.73905166,1.71866566
5d164f9b1a4be700176367bd,116,2,2024-02-27T12:09:03.897Z,english_520.wav,0,pill,242,27,4,5,français,m,2,0.2,6.06230503,1.15295637
5d164f9b1a4be700176367bd,116,2,2024-02-27T12:09:03.897Z,english_520.wav,0,pill,242,27,4,5,français,m,3,0.3,-72.93527416,0.80072648
5d164f9b1a4be700176367bd,116,2,2024-02-27T12:09:03.897Z,english_520.wav,0,pill,242,27,4,5,français,m,4,0.32341667,40.17700679,1.71054199
5d164f9b1a4be700176367bd,117,2,2024-02-27T12:09:03.897Z,english_993.wav,0,peel,271,27,4,5,français,m,0,0.0,-66.15449332,1.17508471
5d164f9b1a4be700176367bd,117,2,2024-02-27T12:09:03.897Z,english_993.wav,0,peel,271,27,4,5,français,m,1,0.1,33.08083728,0.94744004
5d164f9b1a4be700176367bd,117,2,2024-02-27T12:09:03.897Z,english_993.wav,0,peel,271,27,4,5,français,m,2,0.2,51.46479562,0.74931244
5d164f9b1a4be700176367bd,117,2,2024-02-27T12:09:03.897Z,english_993.wav,0,peel,271,27,4,5,français,m,3,0.3,-80.58676237,0.35628979
5d164f9b1a4be700176367bd,117,2,2024-02-27T12:09:03.897Z,english_993.wav,0,peel,271,27,4,5,français,m,4,0.32341667,81.97884737,1.25416847
5d164f9b1a4be700176367bd,118,2,2024-02-27T12:09:03.897Z,english_324.wav,0,peel,80,27,4,5,français,m,0,0.0,49.07155908,0.10864525
5d164f9b1a4be700176367bd,118,2,2024-02-27T12:09:03.897Z,english_324.wav,0,peel,80,27,4,5,français,m,1,0.1,-58.77252084,1.61132735
5d164f9b1a4be700176367bd,118,2,2024-02-27T12:09:03.897Z,english_324.wav,0,peel,80,27,4,5,français,m,2,0.2,-55.40155542,0.60180616
5d164f9b1a4be700176367bd,118,2,2024-02-27T12:09:03.897Z,english_324.wav,0,peel,80,27,4,5,français,m,3,0.3,19.02224292,0.93555132
5d164f9b1a4be700176367bd,118,2,2024-02-27T12:09:03.897Z,english_324.wav,0,peel,80,27,4,5,français,m,4,0.32341667,21.20382854,0.34417591
5d164f9b1a4be700176367bd,119,2,2024-02-27T12:09:03.897Z,english_838.wav,0,peel,954,27,4,5,français,m,0,0.0,-46.43239877,0.57293762
5d164f9b1a4be700176367bd,119,2,2024-02-27T12:09:03.897Z,english_838.wav,0,peel,954,27,4,5,français,m,1,0.1,-0.77549132,1.65450135
5d164f9b1a4be700176367bd,119,2,2024-02-27T12:09:03.897Z,english_838.wav,0,peel,954,27,4,5,français,m,2,0.2,-47.56158581,0.30574951
5d164f9b1a4be700176367bd,119,2,2024-02-27T12:09:03.897Z,english_838.wav,0,peel,954,27,4,5,français,m,3,0.3,7.18116474,0.96315644
5d164f9b1a4be700176367bd,119,2,2024-02-27T12:09:03.897Z,english_838.wav,0,peel,954,27,4,5,français,m,4,0.32341667,-87.38880816,0.83017899
5d164f9b1a4be700176367bd,120,2,2024-02-27T12:09:03.897Z,english_798.wav,0,peel,275,27,4,5,français,m,0,0.0,-16.40769998,1.85457914
5d164f9b1a4be700176367bd,120,2,2024-02-27T12:09:03.897Z,english_798.wav,0,peel,275,27,4,5,français,m,1,0.1,3.00381127,1.50219522
5d164f9b1a4be700176367bd,120,2,2024-02-27T12:09:03.897Z,english_798.wav,0,peel,275,27,4,5,français,m,2,0.2,-31.24410556,0.78751403
5d164f9b1a4be700176367bd,120,2,2024-02-27T12:09:03.897Z,english_798.wav,0,peel,275,27,4,5,français,m,3,0.3,-53.27973877,1.17339142
5d164f9b1a4be700176367bd,120,2,2024-02-27T12:09:03.897Z,english_798.wav,0,peel,275,27,4,5,français,m,4,0.32341667,91.43563813,1.30184409
5d164f9b1a4be700176367bd,121,2,2024-02-27T12:09:03.897Z,english_803.wav,0,peel,149,27,4,5,français,m,0,0.0,8.73756077,1.22190991
5d164f9b1a4be700176367bd,121,2,2024-02-27T12:09:03.897Z,english_803.wav,0,peel,149,27,4,5,français,m,1,0.1,-41.53503623,1.08276728
5d164f9b1a4be700176367bd,121,2,2024-02-27T12:09:03.897Z,english_803.wav,0,peel,149,27,4,5,français,m,2,0.2,-84.76471985,1.59545905
5d164f9b1a4be700176367bd,121,2,2024-02-27T12:09:03.897Z,english_803.wav,0,peel,149,27,4,5,français,m,3,0.3,-27.96408635,1.3875394
5d164f9b1a4be700176367bd,121,2,2024-02-27T12:09:03.897Z,english_803.wav,0,peel,149,27,4,5,français,m,4,0.32341667,72.02290108,0.92287786
5d164f9b1a4be700176367bd,122,2,2024-02-27T12:09:03.897Z,english_232.wav,0,peel,342,27,4,5,français,m,0,0.0,15.13134779,0.53160298
5d164f9b1a4be700176367bd,122,2,2024-02-27T12:09:03.897Z,english_232.wav,0,peel,342,27,4,5,français,m,1,0.1,-49.29605083,0.4519978
5d164f9b1a4be700176367bd,122,2,2024-02-27T12:09:03.897Z,english_232.wav,0,peel,342,27,4,5,français,m,2,0.2,59.10606455,0.39260156
5d164f9b1a4be700176367bd,122,2,2024-02-27T12:09:03.897Z,english_232.wav,0,peel,342,27,4,5,français,m,3,0.3,48.81708847,0.4692084
5d164f9b1a4be700176367bd,122,2,2024-02-27T12:09:03.897Z,english_232.wav,0,peel,342,27,4,5,français,m,4,0.32341667,14.83590121,0.46233459
5d164f9b1a4be700176367bd,123,2,2024-02-27T12:09:03.897Z,english_782.wav,0,peel,315,27,4,5,français,m,0,0.0,-98.70381677,1.47488053
5d164f9b1a4be700176367bd,123,2,2024-02-27T12:09:03.897Z,english_782.wav,0,peel,315,27,4,5,français,m,1,0.1,-69.82387258,0.7270016
5d164f9b1a4be700176367bd,123,2,2024-02-27T12:09:03.897Z,english_782.wav,0,peel,315,27,4,5,français,m,2,0.2,35.26613747,0.08778447
5d164f9b1a4be700176367bd,123,2,2024-02-27T12:09:03.897Z,english_782.wav,0,peel,315,27,4,5,français,m,3,0.3,-81.38004879,1.16903228
5d164f9b1a4be700176367bd,123,2,2024-02-27T12:09:03.897Z,english_782.wav,0,peel,315,27,4,5,français,m,4,0.32341667,-61.83067014,0.92727902
5d164f9b1a4be700176367bd,124,2,2024-02-27T12:09:03.897Z,english_857.wav,0,peel,344,27,4,5,français,m,0,0.0,-33.07031843,1.04325491
5d164f9b1a4be700176367bd,124,2,2024-02-27T12:09:03.897Z,english_857.wav,0,peel,344,27,4,5,français,m,1,0.1,12.9349985,0.44078978
5d164f9b1a4be700176367bd,124,2,2024-02-27T12:09:03.897Z,english_857.wav,0,peel,344,27,4,5,français,m,2,0.2,4.33682254,1.36028147
5d164f9b1a4be700176367bd,124,2,2024-02-27T12:09:03.897Z,english_857.wav,0,peel,344,27,4,5,français,m,3,0.3,90.68056828,1.16905302
5d164f9b1a4be700176367bd,124,2,2024-02-27T12:09:03.897Z,english_857.wav,0,peel,344,27,4,5,français,m,4,0.32341667,37.69781409,1.24618942
5d164f9b1a4be700176367bd,125,2,2024-02-27T12:09:03.897Z,english_835.wav,0,peel,257,27,4,5,français,m,0,0.0,-14.38506183,1.1584592
5d164f9b1a4be700176367bd,125,2,2024-02-27T12:09:03.897Z,english_835.wav,0,peel,257,27,4,5,français,m,1,0.1,-85.63264453,0.74788643
5d164f9b1a4be700176367bd,125,2,2024-02-27T12:09:03.897Z,english_835.wav,0,peel,257,27,4,5,français,m,2,0.2,-9.08737486,0.99645811
5d164f9b1a4be700176367bd,125,2,2024-02-27T12:09:03.897Z,english_835.wav,0,peel,257,27,4,5,français,m,3,0.3,-52.4382226,1.13057998
5d164f9b1a4be700176367bd,125,2,2024-02-27T12:09:03.897Z,english_835.wav,0,peel,257,27,4,5,français,m,4,0.32341667,30.89255677,0.17868889
5d164f9b1a4be700176367bd,126,2,2024-02-27T12:09:03.897Z,english_358.wav,0,peel,118,27,4,5,français,m,0,0.0,-24.40280242,0.64702298
5d164f9b1a4be700176367bd,126,2,2024-02-27T12:09:03.897Z,english_358.wav,0,peel,118,27,4,5,français,m,1,0.1,62.18566088,0.86836285
5d164f9b1a4be700176367bd,126,2,2024-02-27T12:09:03.897Z,english_358.wav,0,peel,118,27,4,5,français,m,2,0.2,5.26675109,1.05826104
5d164f9b1a4be700176367bd,126,2,2024-02-27T12:09:03.897Z,english_358.wav,0,peel,118,27,4,5,français,m,3,0.3,-31.91571391,1.98011631
5d164f9b1a4be700176367bd,126,2,2024-02-27T12:09:03.897Z,english_358.wav,0,peel,118,27,4,5,français,m,4,0.32341667,27.35112364,0.35058307
5d164f9b1a4be700176367bd,127,2,2024-02-27T12:09:03.897Z,english_972.wav,0,peel,264,27,4,5,français,m,0,0.0,-87.82800068,1.28286493
5d164f9b1a4be700176367bd,127,2,2024-02-27T12:09:03.897Z,english_972.wav,0,peel,264,27,4,5,français,m,1,0.1,-25.45661385,0.89058027
5d164f9b1a4be700176367bd,127,2,2024-02-27T12:09:03.897Z,english_972.wav,0,peel,264,27,4,5,français,m,2,0.2,2.95853851,1.4716374
5d164f9b1a4be700176367bd,127,2,2024-02-27T12:09:03.897Z,english_972.wav,0,peel,264,27,4,5,français,m,3,0.3,84.61583696,0.6386035
5d164f9b1a4be700176367bd,127,2,2024-02-27T12:09:03.897Z,english_972.wav,0,peel,264,27,4,5,français,m,4,0.32341667,42.95706616,1.51056083
5d164f9b1a4be700176367bd,128,2,2024-02-27T12:09:03.897Z,english_748.wav,0,peel,180,27,4,5,français,m,0,0.0,0.23647087,0.91094575
5d164f9b1a4be700176367bd,128,2,2024-02-27T12:09:03.897Z,english_748.wav,0,peel,180,27,4,5,français,m,1,0.1,45.60572596,1.68800655
5d164f9b1a4be700176367bd,128,2,2024-02-27T12:09:03.897Z,english_748.wav,0,peel,180,27,4,5,français,m,2,0.2,6.14588966,1.37684191
5d164f9b1a4be700176367bd,128,2,2024-02-27T12:09:03.897Z,english_748.wav,0,peel,180,27,4,5,français,m,3,0.3,-10.39850874,0.70556294
5d164f9b1a4be700176367bd,128,2,2024-02-27T12:09:03.897Z,english_748.wav,0,peel,180,27,4,5,français,m,4,0.32341667,-7.86503132,1.52987196
5d164f9b1a4be700176367bd,129,2,2024-02-27T12:09:03.897Z,english_526.wav,0,peel,623,27,4,5,français,m,0,0.0,-32.34532461,0.924261
5d164f9b1a4be700176367bd,129,2,2024-02-27T12:09:03.897Z,english_526.wav,0,peel,623,27,4,5,français,m,1,0.1,-46.6208459,0.25414499
5d164f9b1a4be700176367bd,129,2,2024-02-27T12:09:03.897Z,english_526.wav,0,peel,623,27,4,5,français,m,2,0.2,-42.84927068,1.01925886
5d164f9b1a4be700176367bd,129,2,2024-02-27T12:09:03.897Z,english_526.wav,0,peel,623,27,4,5,français,m,3,0.3,3.47643827,0.65966822
5d164f9b1a4be700176367bd,129,2,2024-02-27T12:09:03.897Z,english_526.wav,0,peel,623,27,4,5,français,m,4,0.32341667,52.79087598,1.50872035
5d164f9b1a4be700176367bd,130,2,2024-02-27T12:09:03.897Z,english_650.wav,0,peel,483,27,4,5,français,m,0,0.0,-14.34164867,1.10695192
5d164f9b1a4be700176367bd,130,2,2024-02-27T12:09:03.897Z,english_650.wav,0,peel,483,27,4,5,français,m,1,0.1,-59.47569919,1.2442548
5d164f9b1a4be700176367bd,130,2,2024-02-27T12:09:03.897Z,english_650.wav,0,peel,483,27,4,5,français,m,2,0.2,-47.0995584,0.31281267
5d164f9b1a4be700176367bd,130,2,2024-02-27T12:09:03.897Z,english_650.wav,0,peel,483,27,4,5,français,m,3,0.3,-55.25841156,1.9869399
5d164f9b1a4be700176367bd,130,2,2024-02-27T12:09:03.897Z,english_650.wav,0,peel,483,27,4,5,français,m,4,0.32341667,83.92345375,1.10607629
5d164f9b1a4be700176367bd,131,2,2024-02-27T12:09:03.897Z,english_851.wav,0,peel,210,27,4,5,français,m,0,0.0,-83.90491711,1.65488062
5d164f9b1a4be700176367bd,131,2,2024-02-27T12:09:03.897Z,english_851.wav,0,peel,210,27,4,5,français,m,1,0.1,92.94065497,0.14315595
5d164f9b1a4be700176367bd,131,2,2024-02-27T12:09:03.897Z,english_851.wav,0,peel,210,27,4,5,français,m,2,0.2,-63.47542883,0.84481863
5d164f9b1a4be700176367bd,131,2,2024-02-27T12:09:03.897Z,english_851.wav,0,peel,210,27,4,5,français,m,3,0.3,13.34025436,1.9580918
5d164f9b1a4be700176367bd,131,2,2024-02-27T12:09:03.897Z,english_851.wav,0,peel,210,27,4,5,français,m,4,0.32341667,32.96474042,0.23608581
5d164f9b1a4be700176367bd,132,2,2024-02-27T12:09:03.897Z,english_976.wav,0,peel,509,27,4,5,français,m,0,0.0,-92.49082032,0.30893725
5d164f9b1a4be700176367bd,132,2,2024-02-27T12:09:03.897Z,english_976.wav,0,peel,509,27,4,5,français,m,1,0.1,92.01562452,1.54393752
5d164f9b1a4be700176367bd,132,2,2024-02-27T12:09:03.897Z,english_976.wav,0,peel,509,27,4,5,français,m,2,0.2,-80.55764576,1.31466429
5d164f9b1a4be700176367bd,132,2,2024-02-27T12:09:03.897Z,english_976.wav,0,peel,509,27,4,5,français,m,3,0.3,-70.09009567,1.88171095
5d164f9b1a4be700176367bd,132,2,2024-02-27T12:09:03.897Z,english_976.wav,0,peel,509,27,4,5,français,m,4,0.32341667,-7.5394989,1.71314556
5d164f9b1a4be700176367bd,133,2,2024-02-27T12:09:03.897Z,english_862.wav,0,peel,447,27,4,5,français,m,0,0.0,97.17644144,0.51253178
5d164f9b1a4be700176367bd,133,2,2024-02-27T12:09:03.897Z,english_862.wav,0,peel,447,27,4,5,français,m,1,0.1,26.34966999,0.21080737
5d164f9b1a4be700176367bd,133,2,2024-02-27T12:09:03.897Z,english_862.wav,0,peel,447,27,4,5,français,m,2,0.2,-21.73584106,0.27401534
5d164f9b1a4be700176367bd,133,2,2024-02-27T12:09:03.897Z,english_862.wav,0,peel,447,27,4,5,français,m,3,0.3,70.49109419,1.91980484
5d164f9b1a4be700176367bd,133,2,2024-02-27T12:09:03.897Z,english_862.wav,0,peel,447,27,4,5,français,m,4,0.32341667,43.48373212,0.96077188
5d164f9b1a4be700176367bd,134,2,2024-02-27T12:09:03.897Z,english_949.wav,0,pill,253,27,4,5,français,m,0,0.0,48.32946721,1.50413289
5d164f9b1a4be700176367bd,134,2,2024-02-27T12:09:03.897Z,english_949.wav,0,pill,253,27,4,5,français,m,1,0.1,73.83586198,1.55745414
5d164f9b1a4be700176367bd,134,2,2024-02-27T12:09:03.897Z,english_949.wav,0,pill,253,27,4,5,français,m,2,0.2,-30.27812065,1.00772566
5d164f9b1a4be700176367bd,134,2,2024-02-27T12:09:03.897Z,english_949.wav,0,pill,253,27,4,5,français,m,3,0.3,-32.50397555,0.86702054
5d164f9b1a4be700176367bd,134,2,2024-02-27T12:09:03.897Z,english_949.wav,0,pill,253,27,4,5,français,m,4,0.32341667,96.46984971,1.67836019
5d164f9b1a4be700176367bd,135,2,2024-02-27T12:09:03.897Z,english_296.wav,0,peel,471,27,4,5,français,m,0,0.0,-4.92142852,1.99305172
5d164f9b1a4be700176367bd,135,2,2024-02-27T12:09:03.897Z,english_296.wav,0,peel,471,27,4,5,français,m,1,0.1,-5.74196289,0.92633133
5d164f9b1a4be700176367bd,135,2,2024-02-27T12:09:03.897Z,english_296.wav,0,peel,471,27,4,5,français,m,2,0.2,76.26647078,0.44879969
5d164f9b1a4be700176367bd,135,2,2024-02-27T12:09:03.897Z,english_296.wav,0,peel,471,27,4,5,français,m,3,0.3,-62.74030654,1.47417428
5d164f9b1a4be700176367bd,135,2,2024-02-27T12:09:03.897Z,english_296.wav,0,peel,471,27,4,5,français,m,4,0.32341667,-60.661992,1.05571007
5d164f9b1a4be700176367bd,136,2,2024-02-27T12:09:03.897Z,english_282.wav,0,peel,447,27,4,5,français,m,0,0.0,0.76940706,0.32837311
5d164f9b1a4be700176367bd,136,2,2024-02-27T12:09:03.897Z,english_282.wav,0,peel,447,27,4,5,français,m,1,0.1,85.14494722,0.39977994
5d164f9b1a4be700176367bd,136,2,2024-02-27T12:09:03.897Z,english_282.wav,0,peel,447,27,4,5,français,m,2,0.2,-92.43433596,0.62065738
5d164f9b1a4be700176367bd,136,2,2024-02-27T12:09:03.897Z,english_282.wav,0,peel,447,27,4,5,français,m,3,0.3,-98.42888083,0.06200237
5d164f9b1a4be700176367bd,136,2,2024-02-27T12:09:03.897Z,english_282.wav,0,peel,447,27,4,5,français,m,4,0.32341667,-32.58662549,1.4193679
5d164f9b1a4be700176367bd,137,2,2024-02-27T12:09:03.897Z,english_275.wav,0,pill,582,27,4,5,français,m,0,0.0,-1.14725012,0.71691039
5d164f9b1a4be700176367bd,137,2,2024-02-27T12:09:03.897Z,english_275.wav,0,pill,582,27,4,5,français,m,1,0.1,-90.43848863,0.74614953
5d164f9b1a4be700176367bd,137,2,2024-02-27T12:09:03.897Z,english_275.wav,0,pill,582,27,4,5,français,m,2,0.2,-40.03711279,1.94843862
5d164f9b1a4be700176367bd,137,2,2024-02-27T12:09:03.897Z,english_275.wav,0,pill,582,27,4,5,français,m,3,0.3,-29.12549604,0.32495742
5d164f9b1a4be700176367bd,137,2,2024-02-27T12:09:03.897Z,english_275.wav,0,pill,582,27,4,5,français,m,4,0.32341667,77.33253221,0.61649877
5d164f9b1a4be700176367bd,138,2,2024-02-27T12:09:03.897Z,english_116.wav,0,peel,287,27,4,5,français,m,0,0.0,47.3382154,1.30986561
5d164f9b1a4be700176367bd,138,2,2024-02-27T12:09:03.897Z,english_116.wav,0,peel,287,27,4,5,français,m,1,0.1,-82.57412589,0.36649927
5d164f9b1a4be700176367bd,138,2,2024-02-27T12:09:03.897Z,english_116.wav,0,peel,287,27,4,5,français,m,2,0.2,24.81754674,1.53598436
5d164f9b1a4be700176367bd,138,2,2024-02-27T12:09:03.897Z,english_116.wav,0,peel,287,27,4,5,français,m,3,0.3,61.93416492,1.65694634
5d164f9b1a4be700176367bd,138,2,2024-02-27T12:09:03.897Z,english_116.wav,0,peel,287,27,4,5,français,m,4,0.32341667,-97.8286579,0.40343631
5d164f9b1a4be700176367bd,139,2,2024-02-27T12:09:03.897Z,english_693.wav,0,pill,268,27,4,5,français,m,0,0.0,-83.71635172,0.35753224
5d164f9b1a4be700176367bd,139,2,2024-02-27T12:09:03.897Z,english_693.wav,0,pill,268,27,4,5,français,m,1,0.1,32.46406691,1.09553371
5d164f9b1a4be700176367bd,139,2,2024-02-27T12:09:03.897Z,english_693.wav,0,pill,268,27,4,5,français,m,2,0.2,8.27548994,1.67166692
5d164f9b1a4be700176367bd,139,2,2024-02-27T12:09:03.897Z,english_693.wav,0,pill,268,27,4,5,français,m,3,0.3,15.80660539,1.61413862
5d164f9b1a4be700176367bd,139,2,2024-02-27T12:09:03.897Z,english_693.wav,0,pill,268,27,4,5,français,m,4,0.32341667,74.32681132,1.90943184
5d164f9b1a4be700176367bd,140,2,2024-02-27T12:09:03.897Z,english_365.wav,0,pill,437,27,4,5,français,m,0,0.0,58.11205919,0.53708026
5d164f9b1a4be700176367bd,140,2,2024-02-27T12:09:03.897Z,english_365.wav,0,pill,437,27,4,5,français,m,1,0.1,-61.04014877,1.10456153
5d164f9b1a4be700176367bd,140,2,2024-02-27T12:09:03.897Z,english_365.wav,0,pill,437,27,4,5,français,m,2,0.2,12.43042802,1.31731937
5d164f9b1a4be700176367bd,140,2,2024-02-27T12:09:03.897Z,english_365.wav,0,pill,437,27,4,5,français,m,3,0.3,17.00746388,1.02387946
5d164f9b1a4be700176367bd,140,2,2024-02-27T12:09:03.897Z,english_365.wav,0,pill,437,27,4,5,français,m,4,0.32341667,-69.10644956,1.31633463
5d164f9b1a4be700176367bd,141,2,2024-02-27T12:09:03.897Z,english_563.wav,0,pill,611,27,4,5,français,m,0,0.0,19.758909,0.0609285
5d164f9b1a4be700176367bd,141,2,2024-02-27T12:09:03.897Z,english_563.wav,0,pill,611,27,4,5,français,m,1,0.1,33.70416131,1.63852294
5d164f9b1a4be700176367bd,141,2,2024-02-27T12:09:03.897Z,english_563.wav,0,pill,611,27,4,5,français,m,2,0.2,-28.26228599,0.53834051
5d164f9b1a4be700176367bd,141,2,2024-02-27T12:09:03.897Z,english_563.wav,0,pill,611,27,4,5,français,m,3,0.3,77.25360299,0.54558093
5d164f9b1a4be700176367bd,141,2,2024-02-27T12:09:03.897Z,english_563.wav,0,pill,611,27,4,5,français,m,4,0.32341667,-40.65982077,0.29994173
5d164f9b1a4be700176367bd,142,2,2024-02-27T12:09:03.897Z,english_901.wav,0,peel,568,27,4,5,français,m,0,0.0,-14.81770559,1.5194741
5d164f9b1a4be700176367bd,142,2,2024-02-27T12:09:03.897Z,english_901.wav,0,peel,568,27,4,5,français,m,1,0.1,-27.73561163,1.98674938
5d164f9b1a4be700176367bd,142,2,2024-02-27T12:09:03.897Z,english_901.wav,0,peel,568,27,4,5,français,m,2,0.2,-22.44015454,0.54356598
5d164f9b1a4be700176367bd,142,2,2024-02-27T12:09:03.897Z,english_901.wav,0,peel,568,27,4,5,français,m,3,0.3,-41.34815185,1.30497628
5d164f9b1a4be700176367bd,142,2,2024-02-27T12:09:03.897Z,english_901.wav,0,peel,568,27,4,5,français,m,4,0.32341667,10.13492358,0.61526789
5d164f9b1a4be700176367bd,143,2,2024-02-27T12:09:03.897Z,english_732.wav,0,peel,218,27,4,5,français,m,0,0.0,-12.49530298,1.28394154
5d164f9b1a4be700176367bd,143,2,2024-02-27T12:09:03.897Z,english_732.wav,0,peel,218,27,4,5,français,m,1,0.1,77.35683448,1.95772399
5d164f9b1a4be700176367bd,143,2,2024-02-27T12:09:03.897Z,english_732.wav,0,peel,218,27,4,5,français,m,2,0.2,46.14200593,1.14408971
5d164f9b1a4be700176367bd,143,2,2024-02-27T12:09:03.897Z,english_732.wav,0,peel,218,27,4,5,français,m,3,0.3,-17.19403126,0.21034957
5d164f9b1a4be700176367bd,143,2,2024-02-27T12:09:03.897Z,english_732.wav,0,peel,218,27,4,5,français,m,4,0.32341667,-81.60069167,0.50538316
5d164f9b1a4be700176367bd,144,2,2024-02-27T12:09:03.897Z,english_162.wav,0,peel,199,27,4,5,français,m,0,0.0,-93.72635155,0.46304305
5d164f9b1a4be700176367bd,144,2,2024-02-27T12:09:03.897Z,english_162.wav,0,peel,199,27,4,5,français,m,1,0.1,-77.68974918,1.90149112
5d164f9b1a4be700176367bd,144,2,2024-02-27T12:09:03.897Z,english_162.wav,0,peel,199,27,4,5,français,m,2,0.2,15.19581884,1.02605911
5d164f9b1a4be700176367bd,144,2,2024-02-27T12:09:03.897Z,english_162.wav,0,peel,199,27,4,5,français,m,3,0.3,64.44828449,1.67084882
5d164f9b1a4be700176367bd,144,2,2024-02-27T12:09:03.897Z,english_162.wav,0,peel,199,27,4,5,français,m,4,0.32341667,-98.3856278,0.11792656
5d164f9b1a4be700176367bd,145,2,2024-02-27T12:09:03.897Z,english_250.wav,0,peel,133,27,4,5,français,m,0,0.0,15.9272347,0.97372592
5d164f9b1a4be700176367bd,145,2,2024-02-27T12:09:03.897Z,english_250.wav,0,peel,133,27,4,5,français,m,1,0.1,-20.77070657,1.45189783
5d164f9b1a4be700176367bd,145,2,2024-02-27T12:09:03.897Z,english_250.wav,0,peel,133,27,4,5,français,m,2,0.2,-20.08480075,0.50513237
5d164f9b1a4be700176367bd,145,2,2024-02-27T12:09:03.897Z,english_250.wav,0,peel,133,27,4,5,français,m,3,0.3,-29.82576937,1.38910207
5d164f9b1a4be700176367bd,145,2,2024-02-27T12:09:03.897Z,english_250.wav,0,peel,133,27,4,5,français,m,4,0.32341667,87.83532187,1.51614456
5d164f9b1a4be700176367bd,146,2,2024-02-27T12:09:03.897Z,english_902.wav,0,peel,146,27,4,5,français,m,0,0.0,-4.27617126,0.16330526
5d164f9b1a4be700176367bd,146,2,2024-02-27T12:09:03.897Z,english_902.wav,0,peel,146,27,4,5,français,m,1,0.1,-5.01127315,0.62492789
5d164f9b1a4be700176367bd,146,2,2024-02-27T12:09:03.897Z,english_902.wav,0,peel,146,27,4,5,français,m,2,0.2,83.22080084,1.08638924
5d164f9b1a4be700176367bd,146,2,2024-02-27T12:09:03.897Z,english_902.wav,0,peel,146,27,4,5,français,m,3,0.3,77.56473772,1.61764227
5d164f9b1a4be700176367bd,146,2,2024-02-27T12:09:03.897Z,english_902.wav,0,peel,146,27,4,5,français,m,4,0.32341667,-13.02741535,1.72075309
5d164f9b1a4be700176367bd,147,2,2024-02-27T12:09:03.897Z,english_36.wav,0,peel,530,27,4,5,français,m,0,0.0,8.79498818,0.0614271
5d164f9b1a4be700176367bd,147,2,2024-02-27T12:09:03.897Z,english_36.wav,0,peel,530,27,4,5,français,m,1,0.1,-18.99628775,0.22652961
5d164f9b1a4be700176367bd,147,2,2024-02-27T12:09:03.897Z,english_36.wav,0,peel,530,27,4,5,français,m,2,0.2,-17.40156662,0.46484299
5d164f9b1a4be700176367bd,147,2,2024-02-27T12:09:03.897Z,english_36.wav,0,peel,530,27,4,5,français,m,3,0.3,-85.73958234,0.81464033
5d164f9b1a4be700176367bd,147,2,2024-02-27T12:09:03.897Z,english_36.wav,0,peel,530,27,4,5,français,m,4,0.32341667,45.44069908,0.21843777
5d164f9b1a4be700176367bd,148,2,2024-02-27T12:09:03.897Z,english_499.wav,0,pill,408,27,4,5,français,m,0,0.0,-62.75547094,0.4212983
5d164f9b1a4be700176367bd,148,2,2024-02-27T12:09:03.897Z,english_499.wav,0,pill,408,27,4,5,français,m,1,0.1,28.73361796,1.54082224
5d164f9b1a4be700176367bd,148,2,2024-02-27T12:09:03.897Z,english_499.wav,0,pill,408,27,4,5,français,m,2,0.2,-71.86053711,1.07919976
5d164f9b1a4be700176367bd,148,2,2024-02-27T12:09:03.897Z,english_499.wav,0,pill,408,27,4,5,français,m,3,0.3,-44.40399931,1.20425095
5d164f9b1a4be700176367bd,148,2,2024-02-27T12:09:03.897Z,english_499.wav,0,pill,408,27,4,5,français,m,4,0.32341667,-2.72335033,0.4618338
5d164f9b1a4be700176367bd,149,2,2024-02-27T12:09:03.897Z,english_28.wav,0,peel,277,27,4,5,français,m,0,0.0,46.68805065,0.37315412
5d164f9b1a4be700176367bd,149,2,2024-02-27T12:09:03.897Z,english_28.wav,0,peel,277,27,4,5,français,m,1,0.1,-19.91180265,0.08560602
5d164f9b1a4be700176367bd,149,2,2024-02-27T12:09:03.897Z,english_28.wav,0,peel,277,27,4,5,français,m,2,0.2,30.74929008,0.67724734
5d164f9b1a4be700176367bd,149,2,2024-02-27T12:09:03.897Z,english_28.wav,0,peel,277,27,4,5,français,m,3,0.3,14.01537548,0.53332652
5d164f9b1a4be700176367bd,149,2,2024-02-27T12:09:03.897Z,english_28.wav,0,peel,277,27,4,5,français,m,4,0.32341667,-32.95915121,1.33480721
5d164f9b1a4be700176367bd,150,3,2024-02-27T12:09:03.897Z,english_86.wav,0,peel,521,27,4,5,français,m,0,0.0,-48.59393833,1.45450552
5d164f9b1a4be700176367bd,150,3,2024-02-27T12:09:03.897Z,english_86.wav,0,peel,521,27,4,5,français,m,1,0.1,77.37095157,1.8635573
5d164f9b1a4be700176367bd,150,3,2024-02-27T12:09:03.897Z,english_86.wav,0,peel,521,27,4,5,français,m,2,0.2,44.19816726,1.174515
5d164f9b1a4be700176367bd,150,3,2024-02-27T12:09:03.897Z,english_86.wav,0,peel,521,27,4,5,français,m,3,0.3,-99.780271,1.46785746
5d164f9b1a4be700176367bd,150,3,2024-02-27T12:09:03.897Z,english_86.wav,0,peel,521,27,4,5,français,m,4,0.32341667,38.96545556,0.99607158
5d164f9b1a4be700176367bd,151,3,2024-02-27T12:09:03.897Z,english_198.wav,0,pill,268,27,4,5,français,m,0,0.0,-3.53881338,0.6033193
5d164f9b1a4be700176367bd,151,3,2024-02-27T12:09:03.897Z,english_198.wav,0,pill,268,27,4,5,français,m,1,0.1,58.04445454,0.57837506
5d164f9b1a4be700176367bd,151,3,2024-02-27T12:09:03.897Z,english_198.wav,0,pill,268,27,4,5,français,m,2,0.2,67.39523563,1.37850613
5d164f9b1a4be700176367bd,151,3,2024-02-27T12:09:03.897Z,english_198.wav,0,pill,268,27,4,5,français,m,3,0.3,56.58835275,0.73107668
5d164f9b1a4be700176367bd,151,3,2024-02-27T12:09:03.897Z,english_198.wav,0,pill,268,27,4,5,français,m,4,0.32341667,7.34595052,0.42006089
5d164f9b1a4be700176367bd,152,3,2024-02-27T12:09:03.897Z,english_159.wav,0,peel,245,27,4,5,français,m,0,0.0,-83.7072706,0.09138871
5d164f9b1a4be700176367bd,152,3,2024-02-27T12:09:03.897Z,english_159.wav,0,peel,245,27,4,5,français,m,1,0.1,-62.69238784,0.63335487
5d164f9b1a4be700176367bd,152,3,2024-02-27T12:09:03.897Z,english_159.wav,0,peel,245,27,4,5,français,m,2,0.2,22.09248507,1.23550763
