subj,trial,block,date,stim,stim_order,response,rt,age,english,french,language,sex,param_index,segment,pitch,stretch
599f00c54d25e800012fc9a6,0,0,2024-02-27T11:40:08.699Z,english_375.wav,0,peel,1395,42,5,5,français,male,0,0.0,18.096335,0.30735121
599f00c54d25e800012fc9a6,0,0,2024-02-27T11:40:08.699Z,english_375.wav,0,peel,1395,42,5,5,français,male,1,0.1,-55.77885891,1.17808606
599f00c54d25e800012fc9a6,0,0,2024-02-27T11:40:08.699Z,english_375.wav,0,peel,1395,42,5,5,français,male,2,0.2,-79.80603762,1.03107785
599f00c54d25e800012fc9a6,0,0,2024-02-27T11:40:08.699Z,english_375.wav,0,peel,1395,42,5,5,français,male,3,0.3,-57.7566014,0.46519988
599f00c54d25e800012fc9a6,0,0,2024-02-27T11:40:08.699Z,english_375.wav,0,peel,1395,42,5,5,français,male,4,0.32341667,74.14673873,1.41875211
599f00c54d25e800012fc9a6,1,0,2024-02-27T11:40:08.699Z,english_44.wav,0,peel,310,42,5,5,français,male,0,0.0,-68.86201344,1.38154723
599f00c54d25e800012fc9a6,1,0,2024-02-27T11:40:08.699Z,english_44.wav,0,peel,310,42,5,5,français,male,1,0.1,36.61833882,0.11193842
599f00c54d25e800012fc9a6,1,0,2024-02-27T11:40:08.699Z,english_44.wav,0,peel,310,42,5,5,français,male,2,0.2,-60.65796264,0.83798569
599f00c54d25e800012fc9a6,1,0,2024-02-27T11:40:08.699Z,english_44.wav,0,peel,310,42,5,5,français,male,3,0.3,-99.582901,0.3073865
599f00c54d25e800012fc9a6,1,0,2024-02-27T11:40:08.699Z,english_44.wav,0,peel,310,42,5,5,français,male,4,0.32341667,68.59920212,1.10922951
599f00c54d25e800012fc9a6,2,0,2024-02-27T11:40:08.699Z,english_939.wav,0,peel,269,42,5,5,français,male,0,0.0,-23.2558256,0.1774722
599f00c54d25e800012fc9a6,2,0,2024-02-27T11:40:08.699Z,english_939.wav,0,peel,269,42,5,5,français,male,1,0.1,-16.62065377,0.56271239
599f00c54d25e800012fc9a6,2,0,2024-02-27T11:40:08.699Z,english_939.wav,0,peel,269,42,5,5,français,male,2,0.2,-49.54734698,1.42782479
599f00c54d25e800012fc9a6,2,0,2024-02-27T11:40:08.699Z,english_939.wav,0,peel,269,42,5,5,français,male,3,0.3,22.82101289,0.76516147
599f00c54d25e800012fc9a6,2,0,2024-02-27T11:40:08.699Z,english_939.wav,0,peel,269,42,5,5,français,male,4,0.32341667,28.63490654,1.70219777
599f00c54d25e800012fc9a6,3,0,2024-02-27T11:40:08.699Z,english_703.wav,0,peel,282,42,5,5,français,male,0,0.0,21.25560127,1.22587136
599f00c54d25e800012fc9a6,3,0,2024-02-27T11:40:08.699Z,english_703.wav,0,peel,282,42,5,5,français,male,1,0.1,-5.61566417,1.28752652
599f00c54d25e800012fc9a6,3,0,2024-02-27T11:40:08.699Z,english_703.wav,0,peel,282,42,5,5,français,male,2,0.2,-88.15973778,1.61643937
599f00c54d25e800012fc9a6,3,0,2024-02-27T11:40:08.699Z,english_703.wav,0,peel,282,42,5,5,français,male,3,0.3,39.86499493,1.32560109
599f00c54d25e800012fc9a6,3,0,2024-02-27T11:40:08.699Z,english_703.wav,0,peel,282,42,5,5,français,male,4,0.32341667,64.67338156,0.74206522
599f00c54d25e800012fc9a6,4,0,2024-02-27T11:40:08.699Z,english_786.wav,0,pill,398,42,5,5,français,male,0,0.0,50.77560123,0.9907589
599f00c54d25e800012fc9a6,4,0,2024-02-27T11:40:08.699Z,english_786.wav,0,pill,398,42,5,5,français,male,1,0.1,-87.08435808,0.48193409
599f00c54d25e800012fc9a6,4,0,2024-02-27T11:40:08.699Z,english_786.wav,0,pill,398,42,5,5,français,male,2,0.2,-36.07136163,1.01949061
599f00c54d25e800012fc9a6,4,0,2024-02-27T11:40:08.699Z,english_786.wav,0,pill,398,42,5,5,français,male,3,0.3,98.77618087,1.06334926
599f00c54d25e800012fc9a6,4,0,2024-02-27T11:40:08.699Z,english_786.wav,0,pill,398,42,5,5,français,male,4,0.32341667,86.70070823,0.94164836
599f00c54d25e800012fc9a6,5,0,2024-02-27T11:40:08.699Z,english_89.wav,0,pill,330,42,5,5,français,male,0,0.0,-42.28936571,1.68633095
599f00c54d25e800012fc9a6,5,0,2024-02-27T11:40:08.699Z,english_89.wav,0,pill,330,42,5,5,français,male,1,0.1,12.96738115,0.49078122
599f00c54d25e800012fc9a6,5,0,2024-02-27T11:40:08.699Z,english_89.wav,0,pill,330,42,5,5,français,male,2,0.2,-0.92476461,0.75584791
599f00c54d25e800012fc9a6,5,0,2024-02-27T11:40:08.699Z,english_89.wav,0,pill,330,42,5,5,français,male,3,0.3,54.46155283,1.37155139
599f00c54d25e800012fc9a6,5,0,2024-02-27T11:40:08.699Z,english_89.wav,0,pill,330,42,5,5,français,male,4,0.32341667,-5.27724964,0.6613642
599f00c54d25e800012fc9a6,6,0,2024-02-27T11:40:08.699Z,english_924.wav,0,peel,376,42,5,5,français,male,0,0.0,63.64154058,1.83477076
599f00c54d25e800012fc9a6,6,0,2024-02-27T11:40:08.699Z,english_924.wav,0,peel,376,42,5,5,français,male,1,0.1,-60.55254199,0.21366754
599f00c54d25e800012fc9a6,6,0,2024-02-27T11:40:08.699Z,english_924.wav,0,peel,376,42,5,5,français,male,2,0.2,-47.94670646,1.07859551
599f00c54d25e800012fc9a6,6,0,2024-02-27T11:40:08.699Z,english_924.wav,0,peel,376,42,5,5,français,male,3,0.3,-76.50696127,1.9507375
599f00c54d25e800012fc9a6,6,0,2024-02-27T11:40:08.699Z,english_924.wav,0,peel,376,42,5,5,français,male,4,0.32341667,44.23103111,1.33476666
599f00c54d25e800012fc9a6,7,0,2024-02-27T11:40:08.699Z,english_124.wav,0,peel,248,42,5,5,français,male,0,0.0,-16.92140416,1.25482105
599f00c54d25e800012fc9a6,7,0,2024-02-27T11:40:08.699Z,english_124.wav,0,peel,248,42,5,5,français,male,1,0.1,97.41289205,1.97830042
599f00c54d25e800012fc9a6,7,0,2024-02-27T11:40:08.699Z,english_124.wav,0,peel,248,42,5,5,français,male,2,0.2,-78.49167412,1.09846955
599f00c54d25e800012fc9a6,7,0,2024-02-27T11:40:08.699Z,english_124.wav,0,peel,248,42,5,5,français,male,3,0.3,-3.48618202,0.36540564
599f00c54d25e800012fc9a6,7,0,2024-02-27T11:40:08.699Z,english_124.wav,0,peel,248,42,5,5,français,male,4,0.32341667,5.32047068,0.96325389
599f00c54d25e800012fc9a6,8,0,2024-02-27T11:40:08.699Z,english_261.wav,0,pill,351,42,5,5,français,male,0,0.0,-19.34212076,1.20182597
599f00c54d25e800012fc9a6,8,0,2024-02-27T11:40:08.699Z,english_261.wav,0,pill,351,42,5,5,français,male,1,0.1,-90.49371254,0.701642
599f00c54d25e800012fc9a6,8,0,2024-02-27T11:40:08.699Z,english_261.wav,0,pill,351,42,5,5,français,male,2,0.2,-2.84874079,0.72931556
599f00c54d25e800012fc9a6,8,0,2024-02-27T11:40:08.699Z,english_261.wav,0,pill,351,42,5,5,français,male,3,0.3,26.59732755,0.86687176
599f00c54d25e800012fc9a6,8,0,2024-02-27T11:40:08.699Z,english_261.wav,0,pill,351,42,5,5,français,male,4,0.32341667,39.97770901,1.42617677
599f00c54d25e800012fc9a6,9,0,2024-02-27T11:40:08.699Z,english_302.wav,0,peel,128,42,5,5,français,male,0,0.0,-63.95927305,1.3663617
599f00c54d25e800012fc9a6,9,0,2024-02-27T11:40:08.699Z,english_302.wav,0,peel,128,42,5,5,français,male,1,0.1,-82.44028643,1.24112643
599f00c54d25e800012fc9a6,9,0,2024-02-27T11:40:08.699Z,english_302.wav,0,peel,128,42,5,5,français,male,2,0.2,-63.33590257,1.83999602
599f00c54d25e800012fc9a6,9,0,2024-02-27T11:40:08.699Z,english_302.wav,0,peel,128,42,5,5,français,male,3,0.3,-82.33590521,0.89576132
599f00c54d25e800012fc9a6,9,0,2024-02-27T11:40:08.699Z,english_302.wav,0,peel,128,42,5,5,français,male,4,0.32341667,-77.43124585,1.51483357
599f00c54d25e800012fc9a6,10,0,2024-02-27T11:40:08.699Z,english_692.wav,0,peel,232,42,5,5,français,male,0,0.0,-29.13306787,0.55849531
599f00c54d25e800012fc9a6,10,0,2024-02-27T11:40:08.699Z,english_692.wav,0,peel,232,42,5,5,français,male,1,0.1,-41.86406343,1.96517265
599f00c54d25e800012fc9a6,10,0,2024-02-27T11:40:08.699Z,english_692.wav,0,peel,232,42,5,5,français,male,2,0.2,-94.94051661,0.19953253
599f00c54d25e800012fc9a6,10,0,2024-02-27T11:40:08.699Z,english_692.wav,0,peel,232,42,5,5,français,male,3,0.3,78.40426091,1.89357941
599f00c54d25e800012fc9a6,10,0,2024-02-27T11:40:08.699Z,english_692.wav,0,peel,232,42,5,5,français,male,4,0.32341667,-47.11562344,1.37874109
599f00c54d25e800012fc9a6,11,0,2024-02-27T11:40:08.699Z,english_534.wav,0,pill,268,42,5,5,français,male,0,0.0,-42.4271338,1.1267565
599f00c54d25e800012fc9a6,11,0,2024-02-27T11:40:08.699Z,english_534.wav,0,pill,268,42,5,5,français,male,1,0.1,-80.6424644,0.6842577
599f00c54d25e800012fc9a6,11,0,2024-02-27T11:40:08.699Z,english_534.wav,0,pill,268,42,5,5,français,male,2,0.2,59.29592388,0.01459656
599f00c54d25e800012fc9a6,11,0,2024-02-27T11:40:08.699Z,english_534.wav,0,pill,268,42,5,5,français,male,3,0.3,75.02007223,1.03701198
599f00c54d25e800012fc9a6,11,0,2024-02-27T11:40:08.699Z,english_534.wav,0,pill,268,42,5,5,français,male,4,0.32341667,-57.55026449,1.25840342
599f00c54d25e800012fc9a6,12,0,2024-02-27T11:40:08.699Z,english_390.wav,0,peel,469,42,5,5,français,male,0,0.0,-50.40750922,1.41643644
599f00c54d25e800012fc9a6,12,0,2024-02-27T11:40:08.699Z,english_390.wav,0,peel,469,42,5,5,français,male,1,0.1,-38.67641955,0.84399933
599f00c54d25e800012fc9a6,12,0,2024-02-27T11:40:08.699Z,english_390.wav,0,peel,469,42,5,5,français,male,2,0.2,-37.03459725,1.67796426
599f00c54d25e800012fc9a6,12,0,2024-02-27T11:40:08.699Z,english_390.wav,0,peel,469,42,5,5,français,male,3,0.3,-24.07335547,0.43781117
599f00c54d25e800012fc9a6,12,0,2024-02-27T11:40:08.699Z,english_390.wav,0,peel,469,42,5,5,français,male,4,0.32341667,75.09366884,0.01225463
599f00c54d25e800012fc9a6,13,0,2024-02-27T11:40:08.699Z,english_92.wav,0,peel,945,42,5,5,français,male,0,0.0,31.88505953,1.50112375
599f00c54d25e800012fc9a6,13,0,2024-02-27T11:40:08.699Z,english_92.wav,0,peel,945,42,5,5,français,male,1,0.1,-5.62534355,0.35596674
599f00c54d25e800012fc9a6,13,0,2024-02-27T11:40:08.699Z,english_92.wav,0,peel,945,42,5,5,français,male,2,0.2,-66.19250112,1.12270031
599f00c54d25e800012fc9a6,13,0,2024-02-27T11:40:08.699Z,english_92.wav,0,peel,945,42,5,5,français,male,3,0.3,-77.62644198,1.09837269
599f00c54d25e800012fc9a6,13,0,2024-02-27T11:40:08.699Z,english_92.wav,0,peel,945,42,5,5,français,male,4,0.32341667,-66.61656061,1.16274455
599f00c54d25e800012fc9a6,14,0,2024-02-27T11:40:08.699Z,english_127.wav,0,peel,217,42,5,5,français,male,0,0.0,-69.70750805,0.25070661
599f00c54d25e800012fc9a6,14,0,2024-02-27T11:40:08.699Z,english_127.wav,0,peel,217,42,5,5,français,male,1,0.1,-23.17484413,1.1475992
599f00c54d25e800012fc9a6,14,0,2024-02-27T11:40:08.699Z,english_127.wav,0,peel,217,42,5,5,français,male,2,0.2,16.27024862,1.99299371
599f00c54d25e800012fc9a6,14,0,2024-02-27T11:40:08.699Z,english_127.wav,0,peel,217,42,5,5,français,male,3,0.3,-50.08342814,0.57749513
599f00c54d25e800012fc9a6,14,0,2024-02-27T11:40:08.699Z,english_127.wav,0,peel,217,42,5,5,français,male,4,0.32341667,22.60332787,1.27832678
599f00c54d25e800012fc9a6,15,0,2024-02-27T11:40:08.699Z,english_496.wav,0,peel,215,42,5,5,français,male,0,0.0,-50.36729616,1.24588939
599f00c54d25e800012fc9a6,15,0,2024-02-27T11:40:08.699Z,english_496.wav,0,peel,215,42,5,5,français,male,1,0.1,43.15166092,1.651593
599f00c54d25e800012fc9a6,15,0,2024-02-27T11:40:08.699Z,english_496.wav,0,peel,215,42,5,5,français,male,2,0.2,-89.08132341,0.94120535
599f00c54d25e800012fc9a6,15,0,2024-02-27T11:40:08.699Z,english_496.wav,0,peel,215,42,5,5,français,male,3,0.3,-31.93753525,0.55989053
599f00c54d25e800012fc9a6,15,0,2024-02-27T11:40:08.699Z,english_496.wav,0,peel,215,42,5,5,français,male,4,0.32341667,-79.66514086,1.95233748
599f00c54d25e800012fc9a6,16,0,2024-02-27T11:40:08.699Z,english_823.wav,0,pill,269,42,5,5,français,male,0,0.0,24.6891334,1.19409205
599f00c54d25e800012fc9a6,16,0,2024-02-27T11:40:08.699Z,english_823.wav,0,pill,269,42,5,5,français,male,1,0.1,86.03794788,0.72053846
599f00c54d25e800012fc9a6,16,0,2024-02-27T11:40:08.699Z,english_823.wav,0,pill,269,42,5,5,français,male,2,0.2,45.97308045,0.2138623
599f00c54d25e800012fc9a6,16,0,2024-02-27T11:40:08.699Z,english_823.wav,0,pill,269,42,5,5,français,male,3,0.3,39.11596791,1.56743943
599f00c54d25e800012fc9a6,16,0,2024-02-27T11:40:08.699Z,english_823.wav,0,pill,269,42,5,5,français,male,4,0.32341667,10.29734006,1.24065623
599f00c54d25e800012fc9a6,17,0,2024-02-27T11:40:08.699Z,english_718.wav,0,peel,214,42,5,5,français,male,0,0.0,-62.54470118,0.40124114
599f00c54d25e800012fc9a6,17,0,2024-02-27T11:40:08.699Z,english_718.wav,0,peel,214,42,5,5,français,male,1,0.1,-40.70811043,0.49945062
599f00c54d25e800012fc9a6,17,0,2024-02-27T11:40:08.699Z,english_718.wav,0,peel,214,42,5,5,français,male,2,0.2,-11.25435391,1.54880463
599f00c54d25e800012fc9a6,17,0,2024-02-27T11:40:08.699Z,english_718.wav,0,peel,214,42,5,5,français,male,3,0.3,-68.52161814,0.39118497
599f00c54d25e800012fc9a6,17,0,2024-02-27T11:40:08.699Z,english_718.wav,0,peel,214,42,5,5,français,male,4,0.32341667,-77.89834334,0.07447668
599f00c54d25e800012fc9a6,18,0,2024-02-27T11:40:08.699Z,english_782.wav,0,peel,402,42,5,5,français,male,0,0.0,-98.70381677,1.47488053
599f00c54d25e800012fc9a6,18,0,2024-02-27T11:40:08.699Z,english_782.wav,0,peel,402,42,5,5,français,male,1,0.1,-69.82387258,0.7270016
599f00c54d25e800012fc9a6,18,0,2024-02-27T11:40:08.699Z,english_782.wav,0,peel,402,42,5,5,français,male,2,0.2,35.26613747,0.08778447
599f00c54d25e800012fc9a6,18,0,2024-02-27T11:40:08.699Z,english_782.wav,0,peel,402,42,5,5,français,male,3,0.3,-81.38004879,1.16903228
599f00c54d25e800012fc9a6,18,0,2024-02-27T11:40:08.699Z,english_782.wav,0,peel,402,42,5,5,français,male,4,0.32341667,-61.83067014,0.92727902
599f00c54d25e800012fc9a6,19,0,2024-02-27T11:40:08.699Z,english_938.wav,0,pill,287,42,5,5,français,male,0,0.0,55.68553541,1.13527087
599f00c54d25e800012fc9a6,19,0,2024-02-27T11:40:08.699Z,english_938.wav,0,pill,287,42,5,5,français,male,1,0.1,19.57508628,0.57526943
599f00c54d25e800012fc9a6,19,0,2024-02-27T11:40:08.699Z,english_938.wav,0,pill,287,42,5,5,français,male,2,0.2,99.59707332,0.71873046
599f00c54d25e800012fc9a6,19,0,2024-02-27T11:40:08.699Z,english_938.wav,0,pill,287,42,5,5,français,male,3,0.3,-43.3789335,0.88566698
599f00c54d25e800012fc9a6,19,0,2024-02-27T11:40:08.699Z,english_938.wav,0,pill,287,42,5,5,français,male,4,0.32341667,90.00594125,0.39461425
599f00c54d25e800012fc9a6,20,0,2024-02-27T11:40:08.699Z,english_87.wav,0,peel,175,42,5,5,français,male,0,0.0,54.83056612,1.56132998
599f00c54d25e800012fc9a6,20,0,2024-02-27T11:40:08.699Z,english_87.wav,0,peel,175,42,5,5,français,male,1,0.1,56.31531505,1.28614089
599f00c54d25e800012fc9a6,20,0,2024-02-27T11:40:08.699Z,english_87.wav,0,peel,175,42,5,5,français,male,2,0.2,-65.55002777,1.44579989
599f00c54d25e800012fc9a6,20,0,2024-02-27T11:40:08.699Z,english_87.wav,0,peel,175,42,5,5,français,male,3,0.3,-25.15788212,0.3607766
599f00c54d25e800012fc9a6,20,0,2024-02-27T11:40:08.699Z,english_87.wav,0,peel,175,42,5,5,français,male,4,0.32341667,22.72349562,0.17745198
599f00c54d25e800012fc9a6,21,0,2024-02-27T11:40:08.699Z,english_237.wav,0,pill,352,42,5,5,français,male,0,0.0,-40.35335157,0.42178982
599f00c54d25e800012fc9a6,21,0,2024-02-27T11:40:08.699Z,english_237.wav,0,pill,352,42,5,5,français,male,1,0.1,42.86374565,0.6060796
599f00c54d25e800012fc9a6,21,0,2024-02-27T11:40:08.699Z,english_237.wav,0,pill,352,42,5,5,français,male,2,0.2,7.79480372,0.58312984
599f00c54d25e800012fc9a6,21,0,2024-02-27T11:40:08.699Z,english_237.wav,0,pill,352,42,5,5,français,male,3,0.3,-48.50613844,1.50499267
599f00c54d25e800012fc9a6,21,0,2024-02-27T11:40:08.699Z,english_237.wav,0,pill,352,42,5,5,français,male,4,0.32341667,17.78174719,1.72211243
599f00c54d25e800012fc9a6,22,0,2024-02-27T11:40:08.699Z,english_858.wav,0,peel,186,42,5,5,français,male,0,0.0,45.12570132,0.50395823
599f00c54d25e800012fc9a6,22,0,2024-02-27T11:40:08.699Z,english_858.wav,0,peel,186,42,5,5,français,male,1,0.1,-46.71359417,1.50658612
599f00c54d25e800012fc9a6,22,0,2024-02-27T11:40:08.699Z,english_858.wav,0,peel,186,42,5,5,français,male,2,0.2,-60.32464978,0.86887416
599f00c54d25e800012fc9a6,22,0,2024-02-27T11:40:08.699Z,english_858.wav,0,peel,186,42,5,5,français,male,3,0.3,-70.46241098,0.20520469
599f00c54d25e800012fc9a6,22,0,2024-02-27T11:40:08.699Z,english_858.wav,0,peel,186,42,5,5,français,male,4,0.32341667,76.51169453,1.05885662
599f00c54d25e800012fc9a6,23,0,2024-02-27T11:40:08.699Z,english_744.wav,0,peel,366,42,5,5,français,male,0,0.0,43.39686976,0.75505854
599f00c54d25e800012fc9a6,23,0,2024-02-27T11:40:08.699Z,english_744.wav,0,peel,366,42,5,5,français,male,1,0.1,-61.67573043,1.01311725
599f00c54d25e800012fc9a6,23,0,2024-02-27T11:40:08.699Z,english_744.wav,0,peel,366,42,5,5,français,male,2,0.2,0.51873183,0.73457108
599f00c54d25e800012fc9a6,23,0,2024-02-27T11:40:08.699Z,english_744.wav,0,peel,366,42,5,5,français,male,3,0.3,12.88130512,0.90154102
599f00c54d25e800012fc9a6,23,0,2024-02-27T11:40:08.699Z,english_744.wav,0,peel,366,42,5,5,français,male,4,0.32341667,57.31714449,1.01338509
599f00c54d25e800012fc9a6,24,0,2024-02-27T11:40:08.699Z,english_522.wav,0,peel,242,42,5,5,français,male,0,0.0,11.68148217,0.44643579
599f00c54d25e800012fc9a6,24,0,2024-02-27T11:40:08.699Z,english_522.wav,0,peel,242,42,5,5,français,male,1,0.1,-74.55265788,0.16885459
599f00c54d25e800012fc9a6,24,0,2024-02-27T11:40:08.699Z,english_522.wav,0,peel,242,42,5,5,français,male,2,0.2,95.15954448,1.67161326
599f00c54d25e800012fc9a6,24,0,2024-02-27T11:40:08.699Z,english_522.wav,0,peel,242,42,5,5,français,male,3,0.3,-17.14209769,0.53349848
599f00c54d25e800012fc9a6,24,0,2024-02-27T11:40:08.699Z,english_522.wav,0,peel,242,42,5,5,français,male,4,0.32341667,-35.38302731,0.4645726
599f00c54d25e800012fc9a6,25,0,2024-02-27T11:40:08.699Z,english_958.wav,0,peel,238,42,5,5,français,male,0,0.0,17.32592779,0.33109802
599f00c54d25e800012fc9a6,25,0,2024-02-27T11:40:08.699Z,english_958.wav,0,peel,238,42,5,5,français,male,1,0.1,89.03376041,1.83345348
599f00c54d25e800012fc9a6,25,0,2024-02-27T11:40:08.699Z,english_958.wav,0,peel,238,42,5,5,français,male,2,0.2,-24.89219777,1.95859429
599f00c54d25e800012fc9a6,25,0,2024-02-27T11:40:08.699Z,english_958.wav,0,peel,238,42,5,5,français,male,3,0.3,-92.10798137,1.50296341
599f00c54d25e800012fc9a6,25,0,2024-02-27T11:40:08.699Z,english_958.wav,0,peel,238,42,5,5,français,male,4,0.32341667,3.27828718,0.1474067
599f00c54d25e800012fc9a6,26,0,2024-02-27T11:40:08.699Z,english_665.wav,0,pill,550,42,5,5,français,male,0,0.0,-25.08423312,1.80265724
599f00c54d25e800012fc9a6,26,0,2024-02-27T11:40:08.699Z,english_665.wav,0,pill,550,42,5,5,français,male,1,0.1,-88.66042782,0.10063576
599f00c54d25e800012fc9a6,26,0,2024-02-27T11:40:08.699Z,english_665.wav,0,pill,550,42,5,5,français,male,2,0.2,-73.67467666,0.92910111
599f00c54d25e800012fc9a6,26,0,2024-02-27T11:40:08.699Z,english_665.wav,0,pill,550,42,5,5,français,male,3,0.3,66.53606028,0.83814709
599f00c54d25e800012fc9a6,26,0,2024-02-27T11:40:08.699Z,english_665.wav,0,pill,550,42,5,5,français,male,4,0.32341667,-75.03630793,0.77033789
599f00c54d25e800012fc9a6,27,0,2024-02-27T11:40:08.699Z,english_184.wav,0,peel,375,42,5,5,français,male,0,0.0,29.65201825,1.69567788
599f00c54d25e800012fc9a6,27,0,2024-02-27T11:40:08.699Z,english_184.wav,0,peel,375,42,5,5,français,male,1,0.1,16.48348791,1.26735627
599f00c54d25e800012fc9a6,27,0,2024-02-27T11:40:08.699Z,english_184.wav,0,peel,375,42,5,5,français,male,2,0.2,3.77448983,0.95352895
599f00c54d25e800012fc9a6,27,0,2024-02-27T11:40:08.699Z,english_184.wav,0,peel,375,42,5,5,français,male,3,0.3,62.87502431,1.7991474
599f00c54d25e800012fc9a6,27,0,2024-02-27T11:40:08.699Z,english_184.wav,0,peel,375,42,5,5,français,male,4,0.32341667,-8.82418577,0.98992659
599f00c54d25e800012fc9a6,28,0,2024-02-27T11:40:08.699Z,english_580.wav,0,pill,482,42,5,5,français,male,0,0.0,92.13406767,1.93694744
599f00c54d25e800012fc9a6,28,0,2024-02-27T11:40:08.699Z,english_580.wav,0,pill,482,42,5,5,français,male,1,0.1,-85.58685866,0.28773753
599f00c54d25e800012fc9a6,28,0,2024-02-27T11:40:08.699Z,english_580.wav,0,pill,482,42,5,5,français,male,2,0.2,57.10945482,0.86433335
599f00c54d25e800012fc9a6,28,0,2024-02-27T11:40:08.699Z,english_580.wav,0,pill,482,42,5,5,français,male,3,0.3,32.92004132,0.96651265
599f00c54d25e800012fc9a6,28,0,2024-02-27T11:40:08.699Z,english_580.wav,0,pill,482,42,5,5,français,male,4,0.32341667,52.08708517,1.25003658
599f00c54d25e800012fc9a6,29,0,2024-02-27T11:40:08.699Z,english_76.wav,0,peel,413,42,5,5,français,male,0,0.0,24.78743387,1.26829138
599f00c54d25e800012fc9a6,29,0,2024-02-27T11:40:08.699Z,english_76.wav,0,peel,413,42,5,5,français,male,1,0.1,-7.95135802,1.4446717
599f00c54d25e800012fc9a6,29,0,2024-02-27T11:40:08.699Z,english_76.wav,0,peel,413,42,5,5,français,male,2,0.2,-9.56689875,0.88177173
599f00c54d25e800012fc9a6,29,0,2024-02-27T11:40:08.699Z,english_76.wav,0,peel,413,42,5,5,français,male,3,0.3,-78.25819759,1.63003096
599f00c54d25e800012fc9a6,29,0,2024-02-27T11:40:08.699Z,english_76.wav,0,peel,413,42,5,5,français,male,4,0.32341667,26.4311908,1.97074408
599f00c54d25e800012fc9a6,30,0,2024-02-27T11:40:08.699Z,english_870.wav,0,peel,800,42,5,5,français,male,0,0.0,-85.66751388,1.70746054
599f00c54d25e800012fc9a6,30,0,2024-02-27T11:40:08.699Z,english_870.wav,0,peel,800,42,5,5,français,male,1,0.1,30.55194498,0.68953906
599f00c54d25e800012fc9a6,30,0,2024-02-27T11:40:08.699Z,english_870.wav,0,peel,800,42,5,5,français,male,2,0.2,-98.28008273,1.62274852
599f00c54d25e800012fc9a6,30,0,2024-02-27T11:40:08.699Z,english_870.wav,0,peel,800,42,5,5,français,male,3,0.3,-58.1418371,0.74531017
599f00c54d25e800012fc9a6,30,0,2024-02-27T11:40:08.699Z,english_870.wav,0,peel,800,42,5,5,français,male,4,0.32341667,81.20200135,1.06596266
599f00c54d25e800012fc9a6,31,0,2024-02-27T11:40:08.699Z,english_72.wav,0,peel,552,42,5,5,français,male,0,0.0,3.79788214,1.04175162
599f00c54d25e800012fc9a6,31,0,2024-02-27T11:40:08.699Z,english_72.wav,0,peel,552,42,5,5,français,male,1,0.1,-35.73428138,0.91099175
599f00c54d25e800012fc9a6,31,0,2024-02-27T11:40:08.699Z,english_72.wav,0,peel,552,42,5,5,français,male,2,0.2,-30.83181688,0.34322307
599f00c54d25e800012fc9a6,31,0,2024-02-27T11:40:08.699Z,english_72.wav,0,peel,552,42,5,5,français,male,3,0.3,-68.4260973,1.39599539
599f00c54d25e800012fc9a6,31,0,2024-02-27T11:40:08.699Z,english_72.wav,0,peel,552,42,5,5,français,male,4,0.32341667,-10.87667298,0.78322702
599f00c54d25e800012fc9a6,32,0,2024-02-27T11:40:08.699Z,english_805.wav,0,peel,502,42,5,5,français,male,0,0.0,-11.97504695,0.06029378
599f00c54d25e800012fc9a6,32,0,2024-02-27T11:40:08.699Z,english_805.wav,0,peel,502,42,5,5,français,male,1,0.1,96.82911573,0.81391401
599f00c54d25e800012fc9a6,32,0,2024-02-27T11:40:08.699Z,english_805.wav,0,peel,502,42,5,5,français,male,2,0.2,7.51835152,1.33531055
599f00c54d25e800012fc9a6,32,0,2024-02-27T11:40:08.699Z,english_805.wav,0,peel,502,42,5,5,français,male,3,0.3,2.47378187,1.7608484
599f00c54d25e800012fc9a6,32,0,2024-02-27T11:40:08.699Z,english_805.wav,0,peel,502,42,5,5,français,male,4,0.32341667,-43.26336213,1.4289718
599f00c54d25e800012fc9a6,33,0,2024-02-27T11:40:08.699Z,english_673.wav,0,peel,373,42,5,5,français,male,0,0.0,-57.74220233,1.16794182
599f00c54d25e800012fc9a6,33,0,2024-02-27T11:40:08.699Z,english_673.wav,0,peel,373,42,5,5,français,male,1,0.1,51.69168463,0.24005868
599f00c54d25e800012fc9a6,33,0,2024-02-27T11:40:08.699Z,english_673.wav,0,peel,373,42,5,5,français,male,2,0.2,32.71998218,1.1491536
599f00c54d25e800012fc9a6,33,0,2024-02-27T11:40:08.699Z,english_673.wav,0,peel,373,42,5,5,français,male,3,0.3,1.53841214,1.59180477
599f00c54d25e800012fc9a6,33,0,2024-02-27T11:40:08.699Z,english_673.wav,0,peel,373,42,5,5,français,male,4,0.32341667,-95.68622946,1.00634228
599f00c54d25e800012fc9a6,34,0,2024-02-27T11:40:08.699Z,english_461.wav,0,peel,338,42,5,5,français,male,0,0.0,-99.86661298,0.04975834
599f00c54d25e800012fc9a6,34,0,2024-02-27T11:40:08.699Z,english_461.wav,0,peel,338,42,5,5,français,male,1,0.1,65.11959058,1.27856071
599f00c54d25e800012fc9a6,34,0,2024-02-27T11:40:08.699Z,english_461.wav,0,peel,338,42,5,5,français,male,2,0.2,-96.19635976,1.53618081
599f00c54d25e800012fc9a6,34,0,2024-02-27T11:40:08.699Z,english_461.wav,0,peel,338,42,5,5,français,male,3,0.3,56.69155656,1.97602464
599f00c54d25e800012fc9a6,34,0,2024-02-27T11:40:08.699Z,english_461.wav,0,peel,338,42,5,5,français,male,4,0.32341667,-82.13106063,1.41647384
599f00c54d25e800012fc9a6,35,0,2024-02-27T11:40:08.699Z,english_450.wav,0,peel,139,42,5,5,français,male,0,0.0,32.75253923,1.28767958
599f00c54d25e800012fc9a6,35,0,2024-02-27T11:40:08.699Z,english_450.wav,0,peel,139,42,5,5,français,male,1,0.1,-95.51335644,1.7262356
599f00c54d25e800012fc9a6,35,0,2024-02-27T11:40:08.699Z,english_450.wav,0,peel,139,42,5,5,français,male,2,0.2,34.87485597,0.97567272
599f00c54d25e800012fc9a6,35,0,2024-02-27T11:40:08.699Z,english_450.wav,0,peel,139,42,5,5,français,male,3,0.3,-23.91285283,1.94639387
599f00c54d25e800012fc9a6,35,0,2024-02-27T11:40:08.699Z,english_450.wav,0,peel,139,42,5,5,français,male,4,0.32341667,-8.67870007,1.78958339
599f00c54d25e800012fc9a6,36,0,2024-02-27T11:40:08.699Z,english_982.wav,0,pill,701,42,5,5,français,male,0,0.0,12.44046596,0.81508625
599f00c54d25e800012fc9a6,36,0,2024-02-27T11:40:08.699Z,english_982.wav,0,pill,701,42,5,5,français,male,1,0.1,-60.41666302,0.92712357
599f00c54d25e800012fc9a6,36,0,2024-02-27T11:40:08.699Z,english_982.wav,0,pill,701,42,5,5,français,male,2,0.2,-35.31499742,0.77678916
599f00c54d25e800012fc9a6,36,0,2024-02-27T11:40:08.699Z,english_982.wav,0,pill,701,42,5,5,français,male,3,0.3,-10.96739076,1.0294352
599f00c54d25e800012fc9a6,36,0,2024-02-27T11:40:08.699Z,english_982.wav,0,pill,701,42,5,5,français,male,4,0.32341667,44.50624474,1.1322674
599f00c54d25e800012fc9a6,37,0,2024-02-27T11:40:08.699Z,english_102.wav,0,peel,289,42,5,5,français,male,0,0.0,32.71328306,1.2311829
599f00c54d25e800012fc9a6,37,0,2024-02-27T11:40:08.699Z,english_102.wav,0,peel,289,42,5,5,français,male,1,0.1,59.73255369,0.25599615
599f00c54d25e800012fc9a6,37,0,2024-02-27T11:40:08.699Z,english_102.wav,0,peel,289,42,5,5,français,male,2,0.2,-0.64397298,1.7526023
599f00c54d25e800012fc9a6,37,0,2024-02-27T11:40:08.699Z,english_102.wav,0,peel,289,42,5,5,français,male,3,0.3,-37.18099902,1.98319627
599f00c54d25e800012fc9a6,37,0,2024-02-27T11:40:08.699Z,english_102.wav,0,peel,289,42,5,5,français,male,4,0.32341667,41.63197766,1.38410598
599f00c54d25e800012fc9a6,38,0,2024-02-27T11:40:08.699Z,english_850.wav,0,pill,294,42,5,5,français,male,0,0.0,79.79173837,1.46721922
599f00c54d25e800012fc9a6,38,0,2024-02-27T11:40:08.699Z,english_850.wav,0,pill,294,42,5,5,français,male,1,0.1,-44.24877139,0.57242606
599f00c54d25e800012fc9a6,38,0,2024-02-27T11:40:08.699Z,english_850.wav,0,pill,294,42,5,5,français,male,2,0.2,74.77623955,0.15597525
599f00c54d25e800012fc9a6,38,0,2024-02-27T11:40:08.699Z,english_850.wav,0,pill,294,42,5,5,français,male,3,0.3,-86.32612653,1.3358867
599f00c54d25e800012fc9a6,38,0,2024-02-27T11:40:08.699Z,english_850.wav,0,pill,294,42,5,5,français,male,4,0.32341667,-11.10230867,1.14618682
599f00c54d25e800012fc9a6,39,0,2024-02-27T11:40:08.699Z,english_55.wav,0,peel,104,42,5,5,français,male,0,0.0,71.89255128,0.24931264
599f00c54d25e800012fc9a6,39,0,2024-02-27T11:40:08.699Z,english_55.wav,0,peel,104,42,5,5,français,male,1,0.1,0.20692224,1.79813092
599f00c54d25e800012fc9a6,39,0,2024-02-27T11:40:08.699Z,english_55.wav,0,peel,104,42,5,5,français,male,2,0.2,-68.61006599,0.71729895
599f00c54d25e800012fc9a6,39,0,2024-02-27T11:40:08.699Z,english_55.wav,0,peel,104,42,5,5,français,male,3,0.3,-5.20952515,1.28733782
599f00c54d25e800012fc9a6,39,0,2024-02-27T11:40:08.699Z,english_55.wav,0,peel,104,42,5,5,français,male,4,0.32341667,28.45991968,1.77061752
599f00c54d25e800012fc9a6,40,0,2024-02-27T11:40:08.699Z,english_975.wav,0,peel,228,42,5,5,français,male,0,0.0,30.76275893,1.75032315
599f00c54d25e800012fc9a6,40,0,2024-02-27T11:40:08.699Z,english_975.wav,0,peel,228,42,5,5,français,male,1,0.1,-18.30184736,1.1766706
599f00c54d25e800012fc9a6,40,0,2024-02-27T11:40:08.699Z,english_975.wav,0,peel,228,42,5,5,français,male,2,0.2,88.92209311,0.11148121
599f00c54d25e800012fc9a6,40,0,2024-02-27T11:40:08.699Z,english_975.wav,0,peel,228,42,5,5,français,male,3,0.3,-15.78836893,1.00992181
599f00c54d25e800012fc9a6,40,0,2024-02-27T11:40:08.699Z,english_975.wav,0,peel,228,42,5,5,français,male,4,0.32341667,81.69873146,1.08252971
599f00c54d25e800012fc9a6,41,0,2024-02-27T11:40:08.699Z,english_251.wav,0,peel,199,42,5,5,français,male,0,0.0,-35.26640223,1.59441442
599f00c54d25e800012fc9a6,41,0,2024-02-27T11:40:08.699Z,english_251.wav,0,peel,199,42,5,5,français,male,1,0.1,-82.14936791,1.21410308
599f00c54d25e800012fc9a6,41,0,2024-02-27T11:40:08.699Z,english_251.wav,0,peel,199,42,5,5,français,male,2,0.2,39.53587687,0.89125894
599f00c54d25e800012fc9a6,41,0,2024-02-27T11:40:08.699Z,english_251.wav,0,peel,199,42,5,5,français,male,3,0.3,-75.44024907,0.14763688
599f00c54d25e800012fc9a6,41,0,2024-02-27T11:40:08.699Z,english_251.wav,0,peel,199,42,5,5,français,male,4,0.32341667,26.94148116,1.71797298
599f00c54d25e800012fc9a6,42,0,2024-02-27T11:40:08.699Z,english_455.wav,0,peel,391,42,5,5,français,male,0,0.0,16.09493262,0.21208686
599f00c54d25e800012fc9a6,42,0,2024-02-27T11:40:08.699Z,english_455.wav,0,peel,391,42,5,5,français,male,1,0.1,24.58982,1.0305564
599f00c54d25e800012fc9a6,42,0,2024-02-27T11:40:08.699Z,english_455.wav,0,peel,391,42,5,5,français,male,2,0.2,-59.31201859,1.53057992
599f00c54d25e800012fc9a6,42,0,2024-02-27T11:40:08.699Z,english_455.wav,0,peel,391,42,5,5,français,male,3,0.3,40.79603426,0.62599766
599f00c54d25e800012fc9a6,42,0,2024-02-27T11:40:08.699Z,english_455.wav,0,peel,391,42,5,5,français,male,4,0.32341667,-39.30035714,1.43054244
599f00c54d25e800012fc9a6,43,0,2024-02-27T11:40:08.699Z,english_458.wav,0,pill,352,42,5,5,français,male,0,0.0,-49.69821038,0.39452057
599f00c54d25e800012fc9a6,43,0,2024-02-27T11:40:08.699Z,english_458.wav,0,pill,352,42,5,5,français,male,1,0.1,-49.80647014,1.24604375
599f00c54d25e800012fc9a6,43,0,2024-02-27T11:40:08.699Z,english_458.wav,0,pill,352,42,5,5,français,male,2,0.2,11.98261521,0.42272405
599f00c54d25e800012fc9a6,43,0,2024-02-27T11:40:08.699Z,english_458.wav,0,pill,352,42,5,5,français,male,3,0.3,59.43319096,0.21259233
599f00c54d25e800012fc9a6,43,0,2024-02-27T11:40:08.699Z,english_458.wav,0,pill,352,42,5,5,français,male,4,0.32341667,-34.5671642,1.13235362
599f00c54d25e800012fc9a6,44,0,2024-02-27T11:40:08.699Z,english_5.wav,0,pill,322,42,5,5,français,male,0,0.0,-15.92383461,0.27445408
599f00c54d25e800012fc9a6,44,0,2024-02-27T11:40:08.699Z,english_5.wav,0,pill,322,42,5,5,français,male,1,0.1,-20.01914587,0.54328549
599f00c54d25e800012fc9a6,44,0,2024-02-27T11:40:08.699Z,english_5.wav,0,pill,322,42,5,5,français,male,2,0.2,40.70457056,0.32172142
599f00c54d25e800012fc9a6,44,0,2024-02-27T11:40:08.699Z,english_5.wav,0,pill,322,42,5,5,français,male,3,0.3,-94.67131236,1.15903644
599f00c54d25e800012fc9a6,44,0,2024-02-27T11:40:08.699Z,english_5.wav,0,pill,322,42,5,5,français,male,4,0.32341667,-88.33027294,0.94870148
599f00c54d25e800012fc9a6,45,0,2024-02-27T11:40:08.699Z,english_433.wav,0,pill,462,42,5,5,français,male,0,0.0,-74.58178472,0.69852952
599f00c54d25e800012fc9a6,45,0,2024-02-27T11:40:08.699Z,english_433.wav,0,pill,462,42,5,5,français,male,1,0.1,-50.00917691,1.92405883
599f00c54d25e800012fc9a6,45,0,2024-02-27T11:40:08.699Z,english_433.wav,0,pill,462,42,5,5,français,male,2,0.2,48.18572343,0.3905825
599f00c54d25e800012fc9a6,45,0,2024-02-27T11:40:08.699Z,english_433.wav,0,pill,462,42,5,5,français,male,3,0.3,-63.95387597,0.31453116
599f00c54d25e800012fc9a6,45,0,2024-02-27T11:40:08.699Z,english_433.wav,0,pill,462,42,5,5,français,male,4,0.32341667,-68.91859183,1.4953114
599f00c54d25e800012fc9a6,46,0,2024-02-27T11:40:08.699Z,english_378.wav,0,peel,587,42,5,5,français,male,0,0.0,13.37832971,0.65677047
599f00c54d25e800012fc9a6,46,0,2024-02-27T11:40:08.699Z,english_378.wav,0,peel,587,42,5,5,français,male,1,0.1,17.37931074,1.74134092
599f00c54d25e800012fc9a6,46,0,2024-02-27T11:40:08.699Z,english_378.wav,0,peel,587,42,5,5,français,male,2,0.2,10.9554113,0.67897054
599f00c54d25e800012fc9a6,46,0,2024-02-27T11:40:08.699Z,english_378.wav,0,peel,587,42,5,5,français,male,3,0.3,-24.86891171,1.20159635
599f00c54d25e800012fc9a6,46,0,2024-02-27T11:40:08.699Z,english_378.wav,0,peel,587,42,5,5,français,male,4,0.32341667,7.89965194,0.27053006
599f00c54d25e800012fc9a6,47,0,2024-02-27T11:40:08.699Z,english_605.wav,0,peel,198,42,5,5,français,male,0,0.0,-82.65591545,0.90945233
599f00c54d25e800012fc9a6,47,0,2024-02-27T11:40:08.699Z,english_605.wav,0,peel,198,42,5,5,français,male,1,0.1,35.78886654,1.65178877
599f00c54d25e800012fc9a6,47,0,2024-02-27T11:40:08.699Z,english_605.wav,0,peel,198,42,5,5,français,male,2,0.2,-36.80716754,0.21181898
599f00c54d25e800012fc9a6,47,0,2024-02-27T11:40:08.699Z,english_605.wav,0,peel,198,42,5,5,français,male,3,0.3,-4.39131435,1.21754483
599f00c54d25e800012fc9a6,47,0,2024-02-27T11:40:08.699Z,english_605.wav,0,peel,198,42,5,5,français,male,4,0.32341667,-17.17702763,1.60493484
599f00c54d25e800012fc9a6,48,0,2024-02-27T11:40:08.699Z,english_915.wav,0,peel,509,42,5,5,français,male,0,0.0,40.39704719,0.11203387
599f00c54d25e800012fc9a6,48,0,2024-02-27T11:40:08.699Z,english_915.wav,0,peel,509,42,5,5,français,male,1,0.1,-77.86782689,0.449249
599f00c54d25e800012fc9a6,48,0,2024-02-27T11:40:08.699Z,english_915.wav,0,peel,509,42,5,5,français,male,2,0.2,21.84672988,0.02407483
599f00c54d25e800012fc9a6,48,0,2024-02-27T11:40:08.699Z,english_915.wav,0,peel,509,42,5,5,français,male,3,0.3,-56.0972156,1.6502756
599f00c54d25e800012fc9a6,48,0,2024-02-27T11:40:08.699Z,english_915.wav,0,peel,509,42,5,5,français,male,4,0.32341667,65.00594456,0.65362707
599f00c54d25e800012fc9a6,49,0,2024-02-27T11:40:08.699Z,english_871.wav,0,peel,245,42,5,5,français,male,0,0.0,84.63625516,0.21643415
599f00c54d25e800012fc9a6,49,0,2024-02-27T11:40:08.699Z,english_871.wav,0,peel,245,42,5,5,français,male,1,0.1,-19.11058767,1.23538017
599f00c54d25e800012fc9a6,49,0,2024-02-27T11:40:08.699Z,english_871.wav,0,peel,245,42,5,5,français,male,2,0.2,49.1497137,1.26375285
599f00c54d25e800012fc9a6,49,0,2024-02-27T11:40:08.699Z,english_871.wav,0,peel,245,42,5,5,français,male,3,0.3,-83.07816512,0.03257235
599f00c54d25e800012fc9a6,49,0,2024-02-27T11:40:08.699Z,english_871.wav,0,peel,245,42,5,5,français,male,4,0.32341667,11.22002909,1.90703832
599f00c54d25e800012fc9a6,50,1,2024-02-27T11:40:08.699Z,english_446.wav,0,pill,439,42,5,5,français,male,0,0.0,-50.90487531,0.84721497
599f00c54d25e800012fc9a6,50,1,2024-02-27T11:40:08.699Z,english_446.wav,0,pill,439,42,5,5,français,male,1,0.1,77.9515464,0.90863808
599f00c54d25e800012fc9a6,50,1,2024-02-27T11:40:08.699Z,english_446.wav,0,pill,439,42,5,5,français,male,2,0.2,12.96913102,0.45582271
599f00c54d25e800012fc9a6,50,1,2024-02-27T11:40:08.699Z,english_446.wav,0,pill,439,42,5,5,français,male,3,0.3,31.20275809,0.65529325
599f00c54d25e800012fc9a6,50,1,2024-02-27T11:40:08.699Z,english_446.wav,0,pill,439,42,5,5,français,male,4,0.32341667,-30.39700356,0.08422993
599f00c54d25e800012fc9a6,51,1,2024-02-27T11:40:08.699Z,english_964.wav,0,pill,438,42,5,5,français,male,0,0.0,11.04708611,0.74384055
599f00c54d25e800012fc9a6,51,1,2024-02-27T11:40:08.699Z,english_964.wav,0,pill,438,42,5,5,français,male,1,0.1,-10.67848967,0.46038505
599f00c54d25e800012fc9a6,51,1,2024-02-27T11:40:08.699Z,english_964.wav,0,pill,438,42,5,5,français,male,2,0.2,64.95328634,0.80934661
599f00c54d25e800012fc9a6,51,1,2024-02-27T11:40:08.699Z,english_964.wav,0,pill,438,42,5,5,français,male,3,0.3,-78.10341524,1.94282647
599f00c54d25e800012fc9a6,51,1,2024-02-27T11:40:08.699Z,english_964.wav,0,pill,438,42,5,5,français,male,4,0.32341667,-48.61651995,1.99482071
599f00c54d25e800012fc9a6,52,1,2024-02-27T11:40:08.699Z,english_546.wav,0,pill,428,42,5,5,français,male,0,0.0,81.21590514,1.56657823
599f00c54d25e800012fc9a6,52,1,2024-02-27T11:40:08.699Z,english_546.wav,0,pill,428,42,5,5,français,male,1,0.1,75.01018689,0.84038259
599f00c54d25e800012fc9a6,52,1,2024-02-27T11:40:08.699Z,english_546.wav,0,pill,428,42,5,5,français,male,2,0.2,15.56226302,0.00684501
599f00c54d25e800012fc9a6,52,1,2024-02-27T11:40:08.699Z,english_546.wav,0,pill,428,42,5,5,français,male,3,0.3,48.30886192,1.68157273
599f00c54d25e800012fc9a6,52,1,2024-02-27T11:40:08.699Z,english_546.wav,0,pill,428,42,5,5,français,male,4,0.32341667,18.80923499,1.09409739
599f00c54d25e800012fc9a6,53,1,2024-02-27T11:40:08.699Z,english_109.wav,0,peel,191,42,5,5,français,male,0,0.0,44.56131593,1.07349586
599f00c54d25e800012fc9a6,53,1,2024-02-27T11:40:08.699Z,english_109.wav,0,peel,191,42,5,5,français,male,1,0.1,-35.23159756,1.27535987
599f00c54d25e800012fc9a6,53,1,2024-02-27T11:40:08.699Z,english_109.wav,0,peel,191,42,5,5,français,male,2,0.2,-19.62269282,1.28483541
599f00c54d25e800012fc9a6,53,1,2024-02-27T11:40:08.699Z,english_109.wav,0,peel,191,42,5,5,français,male,3,0.3,38.10372837,1.04109326
599f00c54d25e800012fc9a6,53,1,2024-02-27T11:40:08.699Z,english_109.wav,0,peel,191,42,5,5,français,male,4,0.32341667,-20.09605057,0.10213448
599f00c54d25e800012fc9a6,54,1,2024-02-27T11:40:08.699Z,english_381.wav,0,peel,414,42,5,5,français,male,0,0.0,-64.83599525,0.77808766
599f00c54d25e800012fc9a6,54,1,2024-02-27T11:40:08.699Z,english_381.wav,0,peel,414,42,5,5,français,male,1,0.1,97.61236857,1.62635576
599f00c54d25e800012fc9a6,54,1,2024-02-27T11:40:08.699Z,english_381.wav,0,peel,414,42,5,5,français,male,2,0.2,-60.27157178,0.65298664
599f00c54d25e800012fc9a6,54,1,2024-02-27T11:40:08.699Z,english_381.wav,0,peel,414,42,5,5,français,male,3,0.3,84.45732791,0.46881793
599f00c54d25e800012fc9a6,54,1,2024-02-27T11:40:08.699Z,english_381.wav,0,peel,414,42,5,5,français,male,4,0.32341667,-87.53832291,1.22836965
599f00c54d25e800012fc9a6,55,1,2024-02-27T11:40:08.699Z,english_913.wav,0,peel,222,42,5,5,français,male,0,0.0,27.9375346,0.72243167
599f00c54d25e800012fc9a6,55,1,2024-02-27T11:40:08.699Z,english_913.wav,0,peel,222,42,5,5,français,male,1,0.1,41.67879689,1.59129257
599f00c54d25e800012fc9a6,55,1,2024-02-27T11:40:08.699Z,english_913.wav,0,peel,222,42,5,5,français,male,2,0.2,-50.96955224,1.19382874
599f00c54d25e800012fc9a6,55,1,2024-02-27T11:40:08.699Z,english_913.wav,0,peel,222,42,5,5,français,male,3,0.3,93.1868058,0.86840853
599f00c54d25e800012fc9a6,55,1,2024-02-27T11:40:08.699Z,english_913.wav,0,peel,222,42,5,5,français,male,4,0.32341667,83.79752677,0.21021697
599f00c54d25e800012fc9a6,56,1,2024-02-27T11:40:08.699Z,english_801.wav,0,pill,362,42,5,5,français,male,0,0.0,66.50571345,0.19311528
599f00c54d25e800012fc9a6,56,1,2024-02-27T11:40:08.699Z,english_801.wav,0,pill,362,42,5,5,français,male,1,0.1,-53.03260979,0.48683601
599f00c54d25e800012fc9a6,56,1,2024-02-27T11:40:08.699Z,english_801.wav,0,pill,362,42,5,5,français,male,2,0.2,-3.89459646,1.16293258
599f00c54d25e800012fc9a6,56,1,2024-02-27T11:40:08.699Z,english_801.wav,0,pill,362,42,5,5,français,male,3,0.3,8.32951864,1.55734707
599f00c54d25e800012fc9a6,56,1,2024-02-27T11:40:08.699Z,english_801.wav,0,pill,362,42,5,5,français,male,4,0.32341667,-87.46806733,0.63471681
599f00c54d25e800012fc9a6,57,1,2024-02-27T11:40:08.699Z,english_695.wav,0,pill,522,42,5,5,français,male,0,0.0,-74.02191529,1.19534619
599f00c54d25e800012fc9a6,57,1,2024-02-27T11:40:08.699Z,english_695.wav,0,pill,522,42,5,5,français,male,1,0.1,54.28596986,0.93917139
599f00c54d25e800012fc9a6,57,1,2024-02-27T11:40:08.699Z,english_695.wav,0,pill,522,42,5,5,français,male,2,0.2,-13.22196683,0.1241488
599f00c54d25e800012fc9a6,57,1,2024-02-27T11:40:08.699Z,english_695.wav,0,pill,522,42,5,5,français,male,3,0.3,1.82272444,1.20091234
599f00c54d25e800012fc9a6,57,1,2024-02-27T11:40:08.699Z,english_695.wav,0,pill,522,42,5,5,français,male,4,0.32341667,-11.74905262,0.46222147
599f00c54d25e800012fc9a6,58,1,2024-02-27T11:40:08.699Z,english_561.wav,0,peel,194,42,5,5,français,male,0,0.0,62.21065415,1.32725493
599f00c54d25e800012fc9a6,58,1,2024-02-27T11:40:08.699Z,english_561.wav,0,peel,194,42,5,5,français,male,1,0.1,-9.84770717,1.15871491
599f00c54d25e800012fc9a6,58,1,2024-02-27T11:40:08.699Z,english_561.wav,0,peel,194,42,5,5,français,male,2,0.2,-12.92274306,0.82816789
599f00c54d25e800012fc9a6,58,1,2024-02-27T11:40:08.699Z,english_561.wav,0,peel,194,42,5,5,français,male,3,0.3,16.08334811,1.72308293
599f00c54d25e800012fc9a6,58,1,2024-02-27T11:40:08.699Z,english_561.wav,0,peel,194,42,5,5,français,male,4,0.32341667,-22.38830035,0.72943893
599f00c54d25e800012fc9a6,59,1,2024-02-27T11:40:08.699Z,english_338.wav,0,peel,100,42,5,5,français,male,0,0.0,-22.40965878,1.93572195
599f00c54d25e800012fc9a6,59,1,2024-02-27T11:40:08.699Z,english_338.wav,0,peel,100,42,5,5,français,male,1,0.1,-10.16153496,1.78994992
599f00c54d25e800012fc9a6,59,1,2024-02-27T11:40:08.699Z,english_338.wav,0,peel,100,42,5,5,français,male,2,0.2,-50.2449588,1.38134059
599f00c54d25e800012fc9a6,59,1,2024-02-27T11:40:08.699Z,english_338.wav,0,peel,100,42,5,5,français,male,3,0.3,14.05674122,1.78462007
599f00c54d25e800012fc9a6,59,1,2024-02-27T11:40:08.699Z,english_338.wav,0,peel,100,42,5,5,français,male,4,0.32341667,-78.35339858,1.2607094
599f00c54d25e800012fc9a6,60,1,2024-02-27T11:40:08.699Z,english_161.wav,0,peel,213,42,5,5,français,male,0,0.0,16.17182642,0.80971259
599f00c54d25e800012fc9a6,60,1,2024-02-27T11:40:08.699Z,english_161.wav,0,peel,213,42,5,5,français,male,1,0.1,51.23408036,1.56168911
599f00c54d25e800012fc9a6,60,1,2024-02-27T11:40:08.699Z,english_161.wav,0,peel,213,42,5,5,français,male,2,0.2,56.55598601,0.91666403
599f00c54d25e800012fc9a6,60,1,2024-02-27T11:40:08.699Z,english_161.wav,0,peel,213,42,5,5,français,male,3,0.3,-25.08054758,1.93998208
599f00c54d25e800012fc9a6,60,1,2024-02-27T11:40:08.699Z,english_161.wav,0,peel,213,42,5,5,français,male,4,0.32341667,-70.36900789,0.76147365
599f00c54d25e800012fc9a6,61,1,2024-02-27T11:40:08.699Z,english_236.wav,0,peel,321,42,5,5,français,male,0,0.0,14.26564849,0.89253674
599f00c54d25e800012fc9a6,61,1,2024-02-27T11:40:08.699Z,english_236.wav,0,peel,321,42,5,5,français,male,1,0.1,60.97219358,0.38957934
599f00c54d25e800012fc9a6,61,1,2024-02-27T11:40:08.699Z,english_236.wav,0,peel,321,42,5,5,français,male,2,0.2,-12.39626346,1.55558051
599f00c54d25e800012fc9a6,61,1,2024-02-27T11:40:08.699Z,english_236.wav,0,peel,321,42,5,5,français,male,3,0.3,-62.87774076,0.2682718
599f00c54d25e800012fc9a6,61,1,2024-02-27T11:40:08.699Z,english_236.wav,0,peel,321,42,5,5,français,male,4,0.32341667,-75.97684705,1.92182597
599f00c54d25e800012fc9a6,62,1,2024-02-27T11:40:08.699Z,english_26.wav,0,peel,234,42,5,5,français,male,0,0.0,54.38966875,1.86679487
599f00c54d25e800012fc9a6,62,1,2024-02-27T11:40:08.699Z,english_26.wav,0,peel,234,42,5,5,français,male,1,0.1,0.3460174,0.79762949
599f00c54d25e800012fc9a6,62,1,2024-02-27T11:40:08.699Z,english_26.wav,0,peel,234,42,5,5,français,male,2,0.2,-72.33258957,0.93682052
599f00c54d25e800012fc9a6,62,1,2024-02-27T11:40:08.699Z,english_26.wav,0,peel,234,42,5,5,français,male,3,0.3,67.09142092,1.42469209
599f00c54d25e800012fc9a6,62,1,2024-02-27T11:40:08.699Z,english_26.wav,0,peel,234,42,5,5,français,male,4,0.32341667,16.00565239,1.17807545
599f00c54d25e800012fc9a6,63,1,2024-02-27T11:40:08.699Z,english_371.wav,0,peel,192,42,5,5,français,male,0,0.0,44.65928585,0.25571852
599f00c54d25e800012fc9a6,63,1,2024-02-27T11:40:08.699Z,english_371.wav,0,peel,192,42,5,5,français,male,1,0.1,2.85031152,1.3562861
599f00c54d25e800012fc9a6,63,1,2024-02-27T11:40:08.699Z,english_371.wav,0,peel,192,42,5,5,français,male,2,0.2,-57.71166213,1.30905236
599f00c54d25e800012fc9a6,63,1,2024-02-27T11:40:08.699Z,english_371.wav,0,peel,192,42,5,5,français,male,3,0.3,-66.93032782,1.33160076
599f00c54d25e800012fc9a6,63,1,2024-02-27T11:40:08.699Z,english_371.wav,0,peel,192,42,5,5,français,male,4,0.32341667,13.43806553,0.62192137
599f00c54d25e800012fc9a6,64,1,2024-02-27T11:40:08.699Z,english_480.wav,0,pill,448,42,5,5,français,male,0,0.0,-9.10453384,0.61491247
599f00c54d25e800012fc9a6,64,1,2024-02-27T11:40:08.699Z,english_480.wav,0,pill,448,42,5,5,français,male,1,0.1,72.09708103,1.35502449
599f00c54d25e800012fc9a6,64,1,2024-02-27T11:40:08.699Z,english_480.wav,0,pill,448,42,5,5,français,male,2,0.2,-73.7181862,0.28674933
599f00c54d25e800012fc9a6,64,1,2024-02-27T11:40:08.699Z,english_480.wav,0,pill,448,42,5,5,français,male,3,0.3,18.73451671,0.14653082
599f00c54d25e800012fc9a6,64,1,2024-02-27T11:40:08.699Z,english_480.wav,0,pill,448,42,5,5,français,male,4,0.32341667,83.35837597,1.34653786
599f00c54d25e800012fc9a6,65,1,2024-02-27T11:40:08.699Z,english_583.wav,0,peel,240,42,5,5,français,male,0,0.0,-35.26485382,0.11557093
599f00c54d25e800012fc9a6,65,1,2024-02-27T11:40:08.699Z,english_583.wav,0,peel,240,42,5,5,français,male,1,0.1,-69.50197994,0.9917357
599f00c54d25e800012fc9a6,65,1,2024-02-27T11:40:08.699Z,english_583.wav,0,peel,240,42,5,5,français,male,2,0.2,73.6796048,1.33727714
599f00c54d25e800012fc9a6,65,1,2024-02-27T11:40:08.699Z,english_583.wav,0,peel,240,42,5,5,français,male,3,0.3,-1.04664171,0.97646566
599f00c54d25e800012fc9a6,65,1,2024-02-27T11:40:08.699Z,english_583.wav,0,peel,240,42,5,5,français,male,4,0.32341667,-55.46924107,1.06585671
599f00c54d25e800012fc9a6,66,1,2024-02-27T11:40:08.699Z,english_71.wav,0,peel,209,42,5,5,français,male,0,0.0,-89.06637534,0.37218892
599f00c54d25e800012fc9a6,66,1,2024-02-27T11:40:08.699Z,english_71.wav,0,peel,209,42,5,5,français,male,1,0.1,-28.638437,1.29479557
599f00c54d25e800012fc9a6,66,1,2024-02-27T11:40:08.699Z,english_71.wav,0,peel,209,42,5,5,français,male,2,0.2,-8.31899436,1.34818575
599f00c54d25e800012fc9a6,66,1,2024-02-27T11:40:08.699Z,english_71.wav,0,peel,209,42,5,5,français,male,3,0.3,67.7820648,1.24266832
599f00c54d25e800012fc9a6,66,1,2024-02-27T11:40:08.699Z,english_71.wav,0,peel,209,42,5,5,français,male,4,0.32341667,4.09606073,1.38884894
599f00c54d25e800012fc9a6,67,1,2024-02-27T11:40:08.699Z,english_777.wav,0,pill,520,42,5,5,français,male,0,0.0,-69.33808121,1.41371967
599f00c54d25e800012fc9a6,67,1,2024-02-27T11:40:08.699Z,english_777.wav,0,pill,520,42,5,5,français,male,1,0.1,83.00406244,0.89293833
599f00c54d25e800012fc9a6,67,1,2024-02-27T11:40:08.699Z,english_777.wav,0,pill,520,42,5,5,français,male,2,0.2,52.8456083,0.52129979
599f00c54d25e800012fc9a6,67,1,2024-02-27T11:40:08.699Z,english_777.wav,0,pill,520,42,5,5,français,male,3,0.3,-67.57367145,0.31704889
599f00c54d25e800012fc9a6,67,1,2024-02-27T11:40:08.699Z,english_777.wav,0,pill,520,42,5,5,français,male,4,0.32341667,44.30015735,0.90388625
599f00c54d25e800012fc9a6,68,1,2024-02-27T11:40:08.699Z,english_121.wav,0,peel,192,42,5,5,français,male,0,0.0,-30.24687583,0.23154591
599f00c54d25e800012fc9a6,68,1,2024-02-27T11:40:08.699Z,english_121.wav,0,peel,192,42,5,5,français,male,1,0.1,-28.09260766,0.6680997
599f00c54d25e800012fc9a6,68,1,2024-02-27T11:40:08.699Z,english_121.wav,0,peel,192,42,5,5,français,male,2,0.2,-29.54951374,1.79539672
599f00c54d25e800012fc9a6,68,1,2024-02-27T11:40:08.699Z,english_121.wav,0,peel,192,42,5,5,français,male,3,0.3,-37.35286973,0.57554739
599f00c54d25e800012fc9a6,68,1,2024-02-27T11:40:08.699Z,english_121.wav,0,peel,192,42,5,5,français,male,4,0.32341667,58.68529554,1.8709958
599f00c54d25e800012fc9a6,69,1,2024-02-27T11:40:08.699Z,english_164.wav,0,peel,164,42,5,5,français,male,0,0.0,-18.99376005,1.91320144
599f00c54d25e800012fc9a6,69,1,2024-02-27T11:40:08.699Z,english_164.wav,0,peel,164,42,5,5,français,male,1,0.1,-38.65269109,0.23857652
599f00c54d25e800012fc9a6,69,1,2024-02-27T11:40:08.699Z,english_164.wav,0,peel,164,42,5,5,français,male,2,0.2,64.75288033,1.41883879
599f00c54d25e800012fc9a6,69,1,2024-02-27T11:40:08.699Z,english_164.wav,0,peel,164,42,5,5,français,male,3,0.3,-33.8407164,1.34667564
599f00c54d25e800012fc9a6,69,1,2024-02-27T11:40:08.699Z,english_164.wav,0,peel,164,42,5,5,français,male,4,0.32341667,27.96502681,0.04602263
599f00c54d25e800012fc9a6,70,1,2024-02-27T11:40:08.699Z,english_116.wav,0,peel,268,42,5,5,français,male,0,0.0,47.3382154,1.30986561
599f00c54d25e800012fc9a6,70,1,2024-02-27T11:40:08.699Z,english_116.wav,0,peel,268,42,5,5,français,male,1,0.1,-82.57412589,0.36649927
599f00c54d25e800012fc9a6,70,1,2024-02-27T11:40:08.699Z,english_116.wav,0,peel,268,42,5,5,français,male,2,0.2,24.81754674,1.53598436
599f00c54d25e800012fc9a6,70,1,2024-02-27T11:40:08.699Z,english_116.wav,0,peel,268,42,5,5,français,male,3,0.3,61.93416492,1.65694634
599f00c54d25e800012fc9a6,70,1,2024-02-27T11:40:08.699Z,english_116.wav,0,peel,268,42,5,5,français,male,4,0.32341667,-97.8286579,0.40343631
599f00c54d25e800012fc9a6,71,1,2024-02-27T11:40:08.699Z,english_421.wav,0,peel,460,42,5,5,français,male,0,0.0,25.39012861,1.47358925
599f00c54d25e800012fc9a6,71,1,2024-02-27T11:40:08.699Z,english_421.wav,0,peel,460,42,5,5,français,male,1,0.1,49.11153532,1.20920516
599f00c54d25e800012fc9a6,71,1,2024-02-27T11:40:08.699Z,english_421.wav,0,peel,460,42,5,5,français,male,2,0.2,38.93723883,0.72174872
599f00c54d25e800012fc9a6,71,1,2024-02-27T11:40:08.699Z,english_421.wav,0,peel,460,42,5,5,français,male,3,0.3,-9.34286459,0.24556907
599f00c54d25e800012fc9a6,71,1,2024-02-27T11:40:08.699Z,english_421.wav,0,peel,460,42,5,5,français,male,4,0.32341667,-9.28476392,0.87006143
599f00c54d25e800012fc9a6,72,1,2024-02-27T11:40:08.699Z,english_314.wav,0,pill,425,42,5,5,français,male,0,0.0,-64.95449137,1.33019215
599f00c54d25e800012fc9a6,72,1,2024-02-27T11:40:08.699Z,english_314.wav,0,pill,425,42,5,5,français,male,1,0.1,41.76232806,0.95010379
599f00c54d25e800012fc9a6,72,1,2024-02-27T11:40:08.699Z,english_314.wav,0,pill,425,42,5,5,français,male,2,0.2,68.0199099,0.0418164
599f00c54d25e800012fc9a6,72,1,2024-02-27T11:40:08.699Z,english_314.wav,0,pill,425,42,5,5,français,male,3,0.3,-18.86846342,0.3847457
599f00c54d25e800012fc9a6,72,1,2024-02-27T11:40:08.699Z,english_314.wav,0,pill,425,42,5,5,français,male,4,0.32341667,-2.58545886,1.31154336
599f00c54d25e800012fc9a6,73,1,2024-02-27T11:40:08.699Z,english_720.wav,0,pill,405,42,5,5,français,male,0,0.0,85.23240719,1.23446246
599f00c54d25e800012fc9a6,73,1,2024-02-27T11:40:08.699Z,english_720.wav,0,pill,405,42,5,5,français,male,1,0.1,78.65958559,0.77382892
599f00c54d25e800012fc9a6,73,1,2024-02-27T11:40:08.699Z,english_720.wav,0,pill,405,42,5,5,français,male,2,0.2,-56.45174874,0.48705718
599f00c54d25e800012fc9a6,73,1,2024-02-27T11:40:08.699Z,english_720.wav,0,pill,405,42,5,5,français,male,3,0.3,71.88898266,1.42335328
599f00c54d25e800012fc9a6,73,1,2024-02-27T11:40:08.699Z,english_720.wav,0,pill,405,42,5,5,français,male,4,0.32341667,-9.13482,1.32495619
599f00c54d25e800012fc9a6,74,1,2024-02-27T11:40:08.699Z,english_104.wav,0,peel,440,42,5,5,français,male,0,0.0,42.44693926,0.1741435
599f00c54d25e800012fc9a6,74,1,2024-02-27T11:40:08.699Z,english_104.wav,0,peel,440,42,5,5,français,male,1,0.1,82.22484934,0.11379641
599f00c54d25e800012fc9a6,74,1,2024-02-27T11:40:08.699Z,english_104.wav,0,peel,440,42,5,5,français,male,2,0.2,7.21737924,1.60376175
599f00c54d25e800012fc9a6,74,1,2024-02-27T11:40:08.699Z,english_104.wav,0,peel,440,42,5,5,français,male,3,0.3,26.54640215,1.08059257
599f00c54d25e800012fc9a6,74,1,2024-02-27T11:40:08.699Z,english_104.wav,0,peel,440,42,5,5,français,male,4,0.32341667,-33.4974026,1.8061622
599f00c54d25e800012fc9a6,75,1,2024-02-27T11:40:08.699Z,english_6.wav,0,peel,513,42,5,5,français,male,0,0.0,-8.2116192,1.24832701
599f00c54d25e800012fc9a6,75,1,2024-02-27T11:40:08.699Z,english_6.wav,0,peel,513,42,5,5,français,male,1,0.1,-28.50933877,0.74984456
599f00c54d25e800012fc9a6,75,1,2024-02-27T11:40:08.699Z,english_6.wav,0,peel,513,42,5,5,français,male,2,0.2,-90.20174912,1.37568362
599f00c54d25e800012fc9a6,75,1,2024-02-27T11:40:08.699Z,english_6.wav,0,peel,513,42,5,5,français,male,3,0.3,-7.18062469,0.47637706
599f00c54d25e800012fc9a6,75,1,2024-02-27T11:40:08.699Z,english_6.wav,0,peel,513,42,5,5,français,male,4,0.32341667,-36.83558467,0.68255954
599f00c54d25e800012fc9a6,76,1,2024-02-27T11:40:08.699Z,english_526.wav,0,peel,734,42,5,5,français,male,0,0.0,-32.34532461,0.924261
599f00c54d25e800012fc9a6,76,1,2024-02-27T11:40:08.699Z,english_526.wav,0,peel,734,42,5,5,français,male,1,0.1,-46.6208459,0.25414499
599f00c54d25e800012fc9a6,76,1,2024-02-27T11:40:08.699Z,english_526.wav,0,peel,734,42,5,5,français,male,2,0.2,-42.84927068,1.01925886
599f00c54d25e800012fc9a6,76,1,2024-02-27T11:40:08.699Z,english_526.wav,0,peel,734,42,5,5,français,male,3,0.3,3.47643827,0.65966822
599f00c54d25e800012fc9a6,76,1,2024-02-27T11:40:08.699Z,english_526.wav,0,peel,734,42,5,5,français,male,4,0.32341667,52.79087598,1.50872035
599f00c54d25e800012fc9a6,77,1,2024-02-27T11:40:08.699Z,english_425.wav,0,peel,214,42,5,5,français,male,0,0.0,52.16022051,1.95369626
599f00c54d25e800012fc9a6,77,1,2024-02-27T11:40:08.699Z,english_425.wav,0,peel,214,42,5,5,français,male,1,0.1,-4.0342476,0.01224448
599f00c54d25e800012fc9a6,77,1,2024-02-27T11:40:08.699Z,english_425.wav,0,peel,214,42,5,5,français,male,2,0.2,71.82190917,1.45838463
599f00c54d25e800012fc9a6,77,1,2024-02-27T11:40:08.699Z,english_425.wav,0,peel,214,42,5,5,français,male,3,0.3,77.8432037,1.1656734
599f00c54d25e800012fc9a6,77,1,2024-02-27T11:40:08.699Z,english_425.wav,0,peel,214,42,5,5,français,male,4,0.32341667,29.14791909,1.54078916
599f00c54d25e800012fc9a6,78,1,2024-02-27T11:40:08.699Z,english_852.wav,0,peel,482,42,5,5,français,male,0,0.0,-59.21906832,1.76087743
599f00c54d25e800012fc9a6,78,1,2024-02-27T11:40:08.699Z,english_852.wav,0,peel,482,42,5,5,français,male,1,0.1,5.96662808,0.85304022
599f00c54d25e800012fc9a6,78,1,2024-02-27T11:40:08.699Z,english_852.wav,0,peel,482,42,5,5,français,male,2,0.2,12.29830648,0.5029047
599f00c54d25e800012fc9a6,78,1,2024-02-27T11:40:08.699Z,english_852.wav,0,peel,482,42,5,5,français,male,3,0.3,-98.20735767,0.66544939
599f00c54d25e800012fc9a6,78,1,2024-02-27T11:40:08.699Z,english_852.wav,0,peel,482,42,5,5,français,male,4,0.32341667,-0.5186354,0.26669214
599f00c54d25e800012fc9a6,79,1,2024-02-27T11:40:08.699Z,english_343.wav,0,peel,193,42,5,5,français,male,0,0.0,-26.15456552,0.99905336
599f00c54d25e800012fc9a6,79,1,2024-02-27T11:40:08.699Z,english_343.wav,0,peel,193,42,5,5,français,male,1,0.1,-4.26522308,0.59066439
599f00c54d25e800012fc9a6,79,1,2024-02-27T11:40:08.699Z,english_343.wav,0,peel,193,42,5,5,français,male,2,0.2,55.3227334,1.69088488
599f00c54d25e800012fc9a6,79,1,2024-02-27T11:40:08.699Z,english_343.wav,0,peel,193,42,5,5,français,male,3,0.3,-26.26518208,1.70645599
599f00c54d25e800012fc9a6,79,1,2024-02-27T11:40:08.699Z,english_343.wav,0,peel,193,42,5,5,français,male,4,0.32341667,-18.3065251,0.13143106
599f00c54d25e800012fc9a6,80,1,2024-02-27T11:40:08.699Z,english_484.wav,0,peel,430,42,5,5,français,male,0,0.0,79.97188672,0.20745104
599f00c54d25e800012fc9a6,80,1,2024-02-27T11:40:08.699Z,english_484.wav,0,peel,430,42,5,5,français,male,1,0.1,-84.58904822,1.46214797
599f00c54d25e800012fc9a6,80,1,2024-02-27T11:40:08.699Z,english_484.wav,0,peel,430,42,5,5,français,male,2,0.2,70.2960477,0.40821612
599f00c54d25e800012fc9a6,80,1,2024-02-27T11:40:08.699Z,english_484.wav,0,peel,430,42,5,5,français,male,3,0.3,-66.44520929,1.23203415
599f00c54d25e800012fc9a6,80,1,2024-02-27T11:40:08.699Z,english_484.wav,0,peel,430,42,5,5,français,male,4,0.32341667,-78.91715359,1.26593617
599f00c54d25e800012fc9a6,81,1,2024-02-27T11:40:08.699Z,english_942.wav,0,pill,594,42,5,5,français,male,0,0.0,96.26286183,1.14976657
599f00c54d25e800012fc9a6,81,1,2024-02-27T11:40:08.699Z,english_942.wav,0,pill,594,42,5,5,français,male,1,0.1,-96.45992778,0.962364
599f00c54d25e800012fc9a6,81,1,2024-02-27T11:40:08.699Z,english_942.wav,0,pill,594,42,5,5,français,male,2,0.2,50.93322043,0.99280793
599f00c54d25e800012fc9a6,81,1,2024-02-27T11:40:08.699Z,english_942.wav,0,pill,594,42,5,5,français,male,3,0.3,14.6207779,1.92237923
599f00c54d25e800012fc9a6,81,1,2024-02-27T11:40:08.699Z,english_942.wav,0,pill,594,42,5,5,français,male,4,0.32341667,7.19296333,1.02094568
599f00c54d25e800012fc9a6,82,1,2024-02-27T11:40:08.699Z,english_709.wav,0,peel,81,42,5,5,français,male,0,0.0,-57.85840644,1.64294201
599f00c54d25e800012fc9a6,82,1,2024-02-27T11:40:08.699Z,english_709.wav,0,peel,81,42,5,5,français,male,1,0.1,-9.03046344,1.39808038
599f00c54d25e800012fc9a6,82,1,2024-02-27T11:40:08.699Z,english_709.wav,0,peel,81,42,5,5,français,male,2,0.2,-83.08592789,1.46645034
599f00c54d25e800012fc9a6,82,1,2024-02-27T11:40:08.699Z,english_709.wav,0,peel,81,42,5,5,français,male,3,0.3,-30.28779026,1.11724372
599f00c54d25e800012fc9a6,82,1,2024-02-27T11:40:08.699Z,english_709.wav,0,peel,81,42,5,5,français,male,4,0.32341667,-42.69418167,0.30195694
599f00c54d25e800012fc9a6,83,1,2024-02-27T11:40:08.699Z,english_245.wav,0,peel,96,42,5,5,français,male,0,0.0,74.89239003,1.30710747
599f00c54d25e800012fc9a6,83,1,2024-02-27T11:40:08.699Z,english_245.wav,0,peel,96,42,5,5,français,male,1,0.1,41.98679172,0.93119149
599f00c54d25e800012fc9a6,83,1,2024-02-27T11:40:08.699Z,english_245.wav,0,peel,96,42,5,5,français,male,2,0.2,99.42105985,1.84379828
599f00c54d25e800012fc9a6,83,1,2024-02-27T11:40:08.699Z,english_245.wav,0,peel,96,42,5,5,français,male,3,0.3,-75.11958538,1.72828743
599f00c54d25e800012fc9a6,83,1,2024-02-27T11:40:08.699Z,english_245.wav,0,peel,96,42,5,5,français,male,4,0.32341667,-62.10664415,0.50124118
599f00c54d25e800012fc9a6,84,1,2024-02-27T11:40:08.699Z,english_557.wav,0,peel,135,42,5,5,français,male,0,0.0,43.94308994,0.38165316
599f00c54d25e800012fc9a6,84,1,2024-02-27T11:40:08.699Z,english_557.wav,0,peel,135,42,5,5,français,male,1,0.1,84.77773598,1.19567933
599f00c54d25e800012fc9a6,84,1,2024-02-27T11:40:08.699Z,english_557.wav,0,peel,135,42,5,5,français,male,2,0.2,-14.75143777,1.35103773
599f00c54d25e800012fc9a6,84,1,2024-02-27T11:40:08.699Z,english_557.wav,0,peel,135,42,5,5,français,male,3,0.3,-37.76141322,1.69174007
599f00c54d25e800012fc9a6,84,1,2024-02-27T11:40:08.699Z,english_557.wav,0,peel,135,42,5,5,français,male,4,0.32341667,-5.99076179,0.4334092
599f00c54d25e800012fc9a6,85,1,2024-02-27T11:40:08.699Z,english_258.wav,0,peel,356,42,5,5,français,male,0,0.0,-7.1133109,1.89026761
599f00c54d25e800012fc9a6,85,1,2024-02-27T11:40:08.699Z,english_258.wav,0,peel,356,42,5,5,français,male,1,0.1,44.58564752,1.79361992
599f00c54d25e800012fc9a6,85,1,2024-02-27T11:40:08.699Z,english_258.wav,0,peel,356,42,5,5,français,male,2,0.2,45.36800295,0.43687845
599f00c54d25e800012fc9a6,85,1,2024-02-27T11:40:08.699Z,english_258.wav,0,peel,356,42,5,5,français,male,3,0.3,25.81301737,0.04688612
599f00c54d25e800012fc9a6,85,1,2024-02-27T11:40:08.699Z,english_258.wav,0,peel,356,42,5,5,français,male,4,0.32341667,-77.97513924,0.52567924
599f00c54d25e800012fc9a6,86,1,2024-02-27T11:40:08.699Z,english_240.wav,0,peel,171,42,5,5,français,male,0,0.0,-96.55121617,1.04823872
599f00c54d25e800012fc9a6,86,1,2024-02-27T11:40:08.699Z,english_240.wav,0,peel,171,42,5,5,français,male,1,0.1,73.99435309,1.11556714
599f00c54d25e800012fc9a6,86,1,2024-02-27T11:40:08.699Z,english_240.wav,0,peel,171,42,5,5,français,male,2,0.2,-27.17256968,0.68795106
599f00c54d25e800012fc9a6,86,1,2024-02-27T11:40:08.699Z,english_240.wav,0,peel,171,42,5,5,français,male,3,0.3,-2.05185553,1.30325309
599f00c54d25e800012fc9a6,86,1,2024-02-27T11:40:08.699Z,english_240.wav,0,peel,171,42,5,5,français,male,4,0.32341667,80.37406519,0.86977317
599f00c54d25e800012fc9a6,87,1,2024-02-27T11:40:08.699Z,english_160.wav,0,peel,210,42,5,5,français,male,0,0.0,2.54964477,0.54357393
599f00c54d25e800012fc9a6,87,1,2024-02-27T11:40:08.699Z,english_160.wav,0,peel,210,42,5,5,français,male,1,0.1,26.84692557,1.29343216
599f00c54d25e800012fc9a6,87,1,2024-02-27T11:40:08.699Z,english_160.wav,0,peel,210,42,5,5,français,male,2,0.2,72.58457191,0.42070854
599f00c54d25e800012fc9a6,87,1,2024-02-27T11:40:08.699Z,english_160.wav,0,peel,210,42,5,5,français,male,3,0.3,-6.94481249,1.04489529
599f00c54d25e800012fc9a6,87,1,2024-02-27T11:40:08.699Z,english_160.wav,0,peel,210,42,5,5,français,male,4,0.32341667,35.80656171,0.26802137
599f00c54d25e800012fc9a6,88,1,2024-02-27T11:40:08.699Z,english_545.wav,0,peel,84,42,5,5,français,male,0,0.0,42.99494118,1.37740168
599f00c54d25e800012fc9a6,88,1,2024-02-27T11:40:08.699Z,english_545.wav,0,peel,84,42,5,5,français,male,1,0.1,72.53025652,0.91972232
599f00c54d25e800012fc9a6,88,1,2024-02-27T11:40:08.699Z,english_545.wav,0,peel,84,42,5,5,français,male,2,0.2,4.60849844,0.73226975
599f00c54d25e800012fc9a6,88,1,2024-02-27T11:40:08.699Z,english_545.wav,0,peel,84,42,5,5,français,male,3,0.3,9.93291538,1.52934768
599f00c54d25e800012fc9a6,88,1,2024-02-27T11:40:08.699Z,english_545.wav,0,peel,84,42,5,5,français,male,4,0.32341667,-11.25611892,0.18478607
599f00c54d25e800012fc9a6,89,1,2024-02-27T11:40:08.699Z,english_809.wav,0,peel,14,42,5,5,français,male,0,0.0,-9.08149959,0.73203403
599f00c54d25e800012fc9a6,89,1,2024-02-27T11:40:08.699Z,english_809.wav,0,peel,14,42,5,5,français,male,1,0.1,12.16544582,0.53159531
599f00c54d25e800012fc9a6,89,1,2024-02-27T11:40:08.699Z,english_809.wav,0,peel,14,42,5,5,français,male,2,0.2,40.52205867,1.48114639
599f00c54d25e800012fc9a6,89,1,2024-02-27T11:40:08.699Z,english_809.wav,0,peel,14,42,5,5,français,male,3,0.3,-94.19679153,1.77078339
599f00c54d25e800012fc9a6,89,1,2024-02-27T11:40:08.699Z,english_809.wav,0,peel,14,42,5,5,français,male,4,0.32341667,-5.82752377,1.36117577
599f00c54d25e800012fc9a6,90,1,2024-02-27T11:40:08.699Z,english_8.wav,0,peel,71,42,5,5,français,male,0,0.0,-11.83025711,1.51300734
599f00c54d25e800012fc9a6,90,1,2024-02-27T11:40:08.699Z,english_8.wav,0,peel,71,42,5,5,français,male,1,0.1,8.7470631,0.24000547
599f00c54d25e800012fc9a6,90,1,2024-02-27T11:40:08.699Z,english_8.wav,0,peel,71,42,5,5,français,male,2,0.2,-15.41843982,1.17952525
599f00c54d25e800012fc9a6,90,1,2024-02-27T11:40:08.699Z,english_8.wav,0,peel,71,42,5,5,français,male,3,0.3,-87.7437633,1.57032258
599f00c54d25e800012fc9a6,90,1,2024-02-27T11:40:08.699Z,english_8.wav,0,peel,71,42,5,5,français,male,4,0.32341667,-40.85253846,0.7584977
599f00c54d25e800012fc9a6,91,1,2024-02-27T11:40:08.699Z,english_180.wav,0,peel,331,42,5,5,français,male,0,0.0,-79.96502932,0.84610218
599f00c54d25e800012fc9a6,91,1,2024-02-27T11:40:08.699Z,english_180.wav,0,peel,331,42,5,5,français,male,1,0.1,33.21752916,1.88919334
599f00c54d25e800012fc9a6,91,1,2024-02-27T11:40:08.699Z,english_180.wav,0,peel,331,42,5,5,français,male,2,0.2,-97.52705813,0.18699196
599f00c54d25e800012fc9a6,91,1,2024-02-27T11:40:08.699Z,english_180.wav,0,peel,331,42,5,5,français,male,3,0.3,42.51331828,0.0366283
599f00c54d25e800012fc9a6,91,1,2024-02-27T11:40:08.699Z,english_180.wav,0,peel,331,42,5,5,français,male,4,0.32341667,-42.98571984,0.95813987
599f00c54d25e800012fc9a6,92,1,2024-02-27T11:40:08.699Z,english_221.wav,0,pill,296,42,5,5,français,male,0,0.0,85.84184869,1.38100565
599f00c54d25e800012fc9a6,92,1,2024-02-27T11:40:08.699Z,english_221.wav,0,pill,296,42,5,5,français,male,1,0.1,-20.37513589,0.79531516
599f00c54d25e800012fc9a6,92,1,2024-02-27T11:40:08.699Z,english_221.wav,0,pill,296,42,5,5,français,male,2,0.2,-89.75984637,0.9538446
599f00c54d25e800012fc9a6,92,1,2024-02-27T11:40:08.699Z,english_221.wav,0,pill,296,42,5,5,français,male,3,0.3,50.66879934,1.56492426
599f00c54d25e800012fc9a6,92,1,2024-02-27T11:40:08.699Z,english_221.wav,0,pill,296,42,5,5,français,male,4,0.32341667,20.92538743,1.60855456
599f00c54d25e800012fc9a6,93,1,2024-02-27T11:40:08.699Z,english_897.wav,0,peel,146,42,5,5,français,male,0,0.0,-6.17515852,1.45954458
599f00c54d25e800012fc9a6,93,1,2024-02-27T11:40:08.699Z,english_897.wav,0,peel,146,42,5,5,français,male,1,0.1,-25.56252799,1.4662158
599f00c54d25e800012fc9a6,93,1,2024-02-27T11:40:08.699Z,english_897.wav,0,peel,146,42,5,5,français,male,2,0.2,-51.51756482,1.09304129
599f00c54d25e800012fc9a6,93,1,2024-02-27T11:40:08.699Z,english_897.wav,0,peel,146,42,5,5,français,male,3,0.3,-57.3776393,1.17713492
599f00c54d25e800012fc9a6,93,1,2024-02-27T11:40:08.699Z,english_897.wav,0,peel,146,42,5,5,français,male,4,0.32341667,-65.82780913,1.23726335
599f00c54d25e800012fc9a6,94,1,2024-02-27T11:40:08.699Z,english_663.wav,0,peel,133,42,5,5,français,male,0,0.0,55.84438863,1.29444713
599f00c54d25e800012fc9a6,94,1,2024-02-27T11:40:08.699Z,english_663.wav,0,peel,133,42,5,5,français,male,1,0.1,-89.02249371,0.90215198
599f00c54d25e800012fc9a6,94,1,2024-02-27T11:40:08.699Z,english_663.wav,0,peel,133,42,5,5,français,male,2,0.2,-13.61345685,1.61104603
599f00c54d25e800012fc9a6,94,1,2024-02-27T11:40:08.699Z,english_663.wav,0,peel,133,42,5,5,français,male,3,0.3,14.50375693,0.31375715
599f00c54d25e800012fc9a6,94,1,2024-02-27T11:40:08.699Z,english_663.wav,0,peel,133,42,5,5,français,male,4,0.32341667,80.63633164,1.01784406
599f00c54d25e800012fc9a6,95,1,2024-02-27T11:40:08.699Z,english_633.wav,0,peel,135,42,5,5,français,male,0,0.0,-53.72283933,1.23998369
599f00c54d25e800012fc9a6,95,1,2024-02-27T11:40:08.699Z,english_633.wav,0,peel,135,42,5,5,français,male,1,0.1,14.71438877,1.35266241
599f00c54d25e800012fc9a6,95,1,2024-02-27T11:40:08.699Z,english_633.wav,0,peel,135,42,5,5,français,male,2,0.2,95.18630031,0.66132985
599f00c54d25e800012fc9a6,95,1,2024-02-27T11:40:08.699Z,english_633.wav,0,peel,135,42,5,5,français,male,3,0.3,96.89096157,0.52728002
599f00c54d25e800012fc9a6,95,1,2024-02-27T11:40:08.699Z,english_633.wav,0,peel,135,42,5,5,français,male,4,0.32341667,8.38596779,1.4824282
599f00c54d25e800012fc9a6,96,1,2024-02-27T11:40:08.699Z,english_80.wav,0,peel,186,42,5,5,français,male,0,0.0,33.21374474,1.09809668
599f00c54d25e800012fc9a6,96,1,2024-02-27T11:40:08.699Z,english_80.wav,0,peel,186,42,5,5,français,male,1,0.1,-72.2618742,1.73594877
599f00c54d25e800012fc9a6,96,1,2024-02-27T11:40:08.699Z,english_80.wav,0,peel,186,42,5,5,français,male,2,0.2,-29.44860443,0.30037535
599f00c54d25e800012fc9a6,96,1,2024-02-27T11:40:08.699Z,english_80.wav,0,peel,186,42,5,5,français,male,3,0.3,-33.36418129,0.36613598
599f00c54d25e800012fc9a6,96,1,2024-02-27T11:40:08.699Z,english_80.wav,0,peel,186,42,5,5,français,male,4,0.32341667,-65.11319145,0.50687614
599f00c54d25e800012fc9a6,97,1,2024-02-27T11:40:08.699Z,english_294.wav,0,peel,156,42,5,5,français,male,0,0.0,-92.15775888,0.74816787
599f00c54d25e800012fc9a6,97,1,2024-02-27T11:40:08.699Z,english_294.wav,0,peel,156,42,5,5,français,male,1,0.1,71.96645866,1.71916745
599f00c54d25e800012fc9a6,97,1,2024-02-27T11:40:08.699Z,english_294.wav,0,peel,156,42,5,5,français,male,2,0.2,-25.46852775,1.7524902
599f00c54d25e800012fc9a6,97,1,2024-02-27T11:40:08.699Z,english_294.wav,0,peel,156,42,5,5,français,male,3,0.3,17.21488016,0.9780509
599f00c54d25e800012fc9a6,97,1,2024-02-27T11:40:08.699Z,english_294.wav,0,peel,156,42,5,5,français,male,4,0.32341667,-10.41176069,1.21177262
599f00c54d25e800012fc9a6,98,1,2024-02-27T11:40:08.699Z,english_220.wav,0,peel,44,42,5,5,français,male,0,0.0,-49.83323752,1.6244524
599f00c54d25e800012fc9a6,98,1,2024-02-27T11:40:08.699Z,english_220.wav,0,peel,44,42,5,5,français,male,1,0.1,49.13629021,0.7812698
599f00c54d25e800012fc9a6,98,1,2024-02-27T11:40:08.699Z,english_220.wav,0,peel,44,42,5,5,français,male,2,0.2,10.673463,1.29736816
599f00c54d25e800012fc9a6,98,1,2024-02-27T11:40:08.699Z,english_220.wav,0,peel,44,42,5,5,français,male,3,0.3,-2.35218347,1.3419496
599f00c54d25e800012fc9a6,98,1,2024-02-27T11:40:08.699Z,english_220.wav,0,peel,44,42,5,5,français,male,4,0.32341667,-2.61587219,1.06575232
599f00c54d25e800012fc9a6,99,1,2024-02-27T11:40:08.699Z,english_145.wav,0,pill,515,42,5,5,français,male,0,0.0,-29.75830226,1.9441914
599f00c54d25e800012fc9a6,99,1,2024-02-27T11:40:08.699Z,english_145.wav,0,pill,515,42,5,5,français,male,1,0.1,0.94664025,0.04744273
599f00c54d25e800012fc9a6,99,1,2024-02-27T11:40:08.699Z,english_145.wav,0,pill,515,42,5,5,français,male,2,0.2,-55.39340023,1.27144901
599f00c54d25e800012fc9a6,99,1,2024-02-27T11:40:08.699Z,english_145.wav,0,pill,515,42,5,5,français,male,3,0.3,-49.58722608,0.20842421
599f00c54d25e800012fc9a6,99,1,2024-02-27T11:40:08.699Z,english_145.wav,0,pill,515,42,5,5,français,male,4,0.32341667,-83.35110665,0.85478836
599f00c54d25e800012fc9a6,100,2,2024-02-27T11:40:08.699Z,english_217.wav,0,pill,372,42,5,5,français,male,0,0.0,-87.44045162,1.20965721
599f00c54d25e800012fc9a6,100,2,2024-02-27T11:40:08.699Z,english_217.wav,0,pill,372,42,5,5,français,male,1,0.1,26.67222095,0.05295089
599f00c54d25e800012fc9a6,100,2,2024-02-27T11:40:08.699Z,english_217.wav,0,pill,372,42,5,5,français,male,2,0.2,97.90977363,1.23557872
599f00c54d25e800012fc9a6,100,2,2024-02-27T11:40:08.699Z,english_217.wav,0,pill,372,42,5,5,français,male,3,0.3,4.49718441,1.80752812
599f00c54d25e800012fc9a6,100,2,2024-02-27T11:40:08.699Z,english_217.wav,0,pill,372,42,5,5,français,male,4,0.32341667,13.31384309,1.57586313
599f00c54d25e800012fc9a6,101,2,2024-02-27T11:40:08.699Z,english_292.wav,0,peel,214,42,5,5,français,male,0,0.0,-39.45275529,0.85174507
599f00c54d25e800012fc9a6,101,2,2024-02-27T11:40:08.699Z,english_292.wav,0,peel,214,42,5,5,français,male,1,0.1,-35.03464337,0.73996191
599f00c54d25e800012fc9a6,101,2,2024-02-27T11:40:08.699Z,english_292.wav,0,peel,214,42,5,5,français,male,2,0.2,31.68370279,1.42892595
599f00c54d25e800012fc9a6,101,2,2024-02-27T11:40:08.699Z,english_292.wav,0,peel,214,42,5,5,français,male,3,0.3,-53.75991965,0.04968332
599f00c54d25e800012fc9a6,101,2,2024-02-27T11:40:08.699Z,english_292.wav,0,peel,214,42,5,5,français,male,4,0.32341667,12.49992629,0.58931553
599f00c54d25e800012fc9a6,102,2,2024-02-27T11:40:08.699Z,english_282.wav,0,pill,370,42,5,5,français,male,0,0.0,0.76940706,0.32837311
599f00c54d25e800012fc9a6,102,2,2024-02-27T11:40:08.699Z,english_282.wav,0,pill,370,42,5,5,français,male,1,0.1,85.14494722,0.39977994
599f00c54d25e800012fc9a6,102,2,2024-02-27T11:40:08.699Z,english_282.wav,0,pill,370,42,5,5,français,male,2,0.2,-92.43433596,0.62065738
599f00c54d25e800012fc9a6,102,2,2024-02-27T11:40:08.699Z,english_282.wav,0,pill,370,42,5,5,français,male,3,0.3,-98.42888083,0.06200237
599f00c54d25e800012fc9a6,102,2,2024-02-27T11:40:08.699Z,english_282.wav,0,pill,370,42,5,5,français,male,4,0.32341667,-32.58662549,1.4193679
599f00c54d25e800012fc9a6,103,2,2024-02-27T11:40:08.699Z,english_432.wav,0,peel,283,42,5,5,français,male,0,0.0,34.04923955,0.51661687
599f00c54d25e800012fc9a6,103,2,2024-02-27T11:40:08.699Z,english_432.wav,0,peel,283,42,5,5,français,male,1,0.1,-20.16773507,0.2259012
599f00c54d25e800012fc9a6,103,2,2024-02-27T11:40:08.699Z,english_432.wav,0,peel,283,42,5,5,français,male,2,0.2,58.06800811,1.98214485
599f00c54d25e800012fc9a6,103,2,2024-02-27T11:40:08.699Z,english_432.wav,0,peel,283,42,5,5,français,male,3,0.3,46.82268278,1.23025235
599f00c54d25e800012fc9a6,103,2,2024-02-27T11:40:08.699Z,english_432.wav,0,peel,283,42,5,5,français,male,4,0.32341667,16.04458546,1.72803009
599f00c54d25e800012fc9a6,104,2,2024-02-27T11:40:08.699Z,english_392.wav,0,pill,292,42,5,5,français,male,0,0.0,-12.90562814,1.13144201
599f00c54d25e800012fc9a6,104,2,2024-02-27T11:40:08.699Z,english_392.wav,0,pill,292,42,5,5,français,male,1,0.1,-1.29416779,0.98893381
599f00c54d25e800012fc9a6,104,2,2024-02-27T11:40:08.699Z,english_392.wav,0,pill,292,42,5,5,français,male,2,0.2,-53.34155903,0.07204825
599f00c54d25e800012fc9a6,104,2,2024-02-27T11:40:08.699Z,english_392.wav,0,pill,292,42,5,5,français,male,3,0.3,-48.65153398,1.52779633
599f00c54d25e800012fc9a6,104,2,2024-02-27T11:40:08.699Z,english_392.wav,0,pill,292,42,5,5,français,male,4,0.32341667,-43.47653164,1.32355089
599f00c54d25e800012fc9a6,105,2,2024-02-27T11:40:08.699Z,english_31.wav,0,peel,286,42,5,5,français,male,0,0.0,21.28810337,1.2057056
599f00c54d25e800012fc9a6,105,2,2024-02-27T11:40:08.699Z,english_31.wav,0,peel,286,42,5,5,français,male,1,0.1,68.821868,0.99381392
599f00c54d25e800012fc9a6,105,2,2024-02-27T11:40:08.699Z,english_31.wav,0,peel,286,42,5,5,français,male,2,0.2,-73.02143346,0.87600828
599f00c54d25e800012fc9a6,105,2,2024-02-27T11:40:08.699Z,english_31.wav,0,peel,286,42,5,5,français,male,3,0.3,68.60173581,1.15844697
599f00c54d25e800012fc9a6,105,2,2024-02-27T11:40:08.699Z,english_31.wav,0,peel,286,42,5,5,français,male,4,0.32341667,51.47999234,1.3722803
599f00c54d25e800012fc9a6,106,2,2024-02-27T11:40:08.699Z,english_908.wav,0,peel,274,42,5,5,français,male,0,0.0,48.62867987,1.27180628
599f00c54d25e800012fc9a6,106,2,2024-02-27T11:40:08.699Z,english_908.wav,0,peel,274,42,5,5,français,male,1,0.1,15.18588807,0.65893562
599f00c54d25e800012fc9a6,106,2,2024-02-27T11:40:08.699Z,english_908.wav,0,peel,274,42,5,5,français,male,2,0.2,-42.37345339,1.07678682
599f00c54d25e800012fc9a6,106,2,2024-02-27T11:40:08.699Z,english_908.wav,0,peel,274,42,5,5,français,male,3,0.3,10.74033392,1.66111239
599f00c54d25e800012fc9a6,106,2,2024-02-27T11:40:08.699Z,english_908.wav,0,peel,274,42,5,5,français,male,4,0.32341667,-40.14378972,0.30218678
599f00c54d25e800012fc9a6,107,2,2024-02-27T11:40:08.699Z,english_399.wav,0,pill,520,42,5,5,français,male,0,0.0,77.00947727,0.99570417
599f00c54d25e800012fc9a6,107,2,2024-02-27T11:40:08.699Z,english_399.wav,0,pill,520,42,5,5,français,male,1,0.1,68.68212777,1.08385584
599f00c54d25e800012fc9a6,107,2,2024-02-27T11:40:08.699Z,english_399.wav,0,pill,520,42,5,5,français,male,2,0.2,29.89909441,0.2210854
599f00c54d25e800012fc9a6,107,2,2024-02-27T11:40:08.699Z,english_399.wav,0,pill,520,42,5,5,français,male,3,0.3,-37.60275897,0.41623588
599f00c54d25e800012fc9a6,107,2,2024-02-27T11:40:08.699Z,english_399.wav,0,pill,520,42,5,5,français,male,4,0.32341667,-61.49193386,0.38461981
599f00c54d25e800012fc9a6,108,2,2024-02-27T11:40:08.699Z,english_288.wav,0,peel,86,42,5,5,français,male,0,0.0,35.15100251,1.01330681
599f00c54d25e800012fc9a6,108,2,2024-02-27T11:40:08.699Z,english_288.wav,0,peel,86,42,5,5,français,male,1,0.1,49.55485069,0.90213232
599f00c54d25e800012fc9a6,108,2,2024-02-27T11:40:08.699Z,english_288.wav,0,peel,86,42,5,5,français,male,2,0.2,28.604189,1.8181607
599f00c54d25e800012fc9a6,108,2,2024-02-27T11:40:08.699Z,english_288.wav,0,peel,86,42,5,5,français,male,3,0.3,38.59633835,1.82579698
599f00c54d25e800012fc9a6,108,2,2024-02-27T11:40:08.699Z,english_288.wav,0,peel,86,42,5,5,français,male,4,0.32341667,-98.9026904,0.14571105
599f00c54d25e800012fc9a6,109,2,2024-02-27T11:40:08.699Z,english_710.wav,0,peel,661,42,5,5,français,male,0,0.0,-75.8732007,1.76991952
599f00c54d25e800012fc9a6,109,2,2024-02-27T11:40:08.699Z,english_710.wav,0,peel,661,42,5,5,français,male,1,0.1,-57.22858583,1.84377411
599f00c54d25e800012fc9a6,109,2,2024-02-27T11:40:08.699Z,english_710.wav,0,peel,661,42,5,5,français,male,2,0.2,28.4956072,1.20069914
599f00c54d25e800012fc9a6,109,2,2024-02-27T11:40:08.699Z,english_710.wav,0,peel,661,42,5,5,français,male,3,0.3,-96.06281818,0.06088286
599f00c54d25e800012fc9a6,109,2,2024-02-27T11:40:08.699Z,english_710.wav,0,peel,661,42,5,5,français,male,4,0.32341667,12.57492899,1.86160088
599f00c54d25e800012fc9a6,110,2,2024-02-27T11:40:08.699Z,english_688.wav,0,peel,518,42,5,5,français,male,0,0.0,-45.64286614,1.06356906
599f00c54d25e800012fc9a6,110,2,2024-02-27T11:40:08.699Z,english_688.wav,0,peel,518,42,5,5,français,male,1,0.1,39.73956276,0.85197809
599f00c54d25e800012fc9a6,110,2,2024-02-27T11:40:08.699Z,english_688.wav,0,peel,518,42,5,5,français,male,2,0.2,40.53719602,0.68718846
599f00c54d25e800012fc9a6,110,2,2024-02-27T11:40:08.699Z,english_688.wav,0,peel,518,42,5,5,français,male,3,0.3,-71.29470492,1.67995478
599f00c54d25e800012fc9a6,110,2,2024-02-27T11:40:08.699Z,english_688.wav,0,peel,518,42,5,5,français,male,4,0.32341667,73.7490074,1.45979079
599f00c54d25e800012fc9a6,111,2,2024-02-27T11:40:08.699Z,english_816.wav,0,peel,269,42,5,5,français,male,0,0.0,-5.39935373,0.27372013
599f00c54d25e800012fc9a6,111,2,2024-02-27T11:40:08.699Z,english_816.wav,0,peel,269,42,5,5,français,male,1,0.1,-58.12348851,1.23542608
599f00c54d25e800012fc9a6,111,2,2024-02-27T11:40:08.699Z,english_816.wav,0,peel,269,42,5,5,français,male,2,0.2,-97.19740724,1.6956732
599f00c54d25e800012fc9a6,111,2,2024-02-27T11:40:08.699Z,english_816.wav,0,peel,269,42,5,5,français,male,3,0.3,4.60418864,0.17466083
599f00c54d25e800012fc9a6,111,2,2024-02-27T11:40:08.699Z,english_816.wav,0,peel,269,42,5,5,français,male,4,0.32341667,57.92285533,0.69657013
599f00c54d25e800012fc9a6,112,2,2024-02-27T11:40:08.699Z,english_881.wav,0,peel,281,42,5,5,français,male,0,0.0,7.28069095,1.60234882
599f00c54d25e800012fc9a6,112,2,2024-02-27T11:40:08.699Z,english_881.wav,0,peel,281,42,5,5,français,male,1,0.1,-64.28928902,0.93497238
599f00c54d25e800012fc9a6,112,2,2024-02-27T11:40:08.699Z,english_881.wav,0,peel,281,42,5,5,français,male,2,0.2,-2.07432692,0.58107235
599f00c54d25e800012fc9a6,112,2,2024-02-27T11:40:08.699Z,english_881.wav,0,peel,281,42,5,5,français,male,3,0.3,51.5536886,1.34691236
599f00c54d25e800012fc9a6,112,2,2024-02-27T11:40:08.699Z,english_881.wav,0,peel,281,42,5,5,français,male,4,0.32341667,65.74991707,0.85842561
599f00c54d25e800012fc9a6,113,2,2024-02-27T11:40:08.699Z,english_345.wav,0,pill,241,42,5,5,français,male,0,0.0,-46.00579497,1.58751342
599f00c54d25e800012fc9a6,113,2,2024-02-27T11:40:08.699Z,english_345.wav,0,pill,241,42,5,5,français,male,1,0.1,-45.5805492,1.0202646
599f00c54d25e800012fc9a6,113,2,2024-02-27T11:40:08.699Z,english_345.wav,0,pill,241,42,5,5,français,male,2,0.2,-14.04378539,0.61561299
599f00c54d25e800012fc9a6,113,2,2024-02-27T11:40:08.699Z,english_345.wav,0,pill,241,42,5,5,français,male,3,0.3,63.72413351,1.21547564
599f00c54d25e800012fc9a6,113,2,2024-02-27T11:40:08.699Z,english_345.wav,0,pill,241,42,5,5,français,male,4,0.32341667,18.03717792,1.47127253
599f00c54d25e800012fc9a6,114,2,2024-02-27T11:40:08.699Z,english_320.wav,0,pill,201,42,5,5,français,male,0,0.0,-85.59568725,1.40519879
599f00c54d25e800012fc9a6,114,2,2024-02-27T11:40:08.699Z,english_320.wav,0,pill,201,42,5,5,français,male,1,0.1,-85.79055124,0.4213256
599f00c54d25e800012fc9a6,114,2,2024-02-27T11:40:08.699Z,english_320.wav,0,pill,201,42,5,5,français,male,2,0.2,-34.52195848,0.82537755
599f00c54d25e800012fc9a6,114,2,2024-02-27T11:40:08.699Z,english_320.wav,0,pill,201,42,5,5,français,male,3,0.3,14.03031204,0.50617831
599f00c54d25e800012fc9a6,114,2,2024-02-27T11:40:08.699Z,english_320.wav,0,pill,201,42,5,5,français,male,4,0.32341667,45.83597199,1.22725326
599f00c54d25e800012fc9a6,115,2,2024-02-27T11:40:08.699Z,english_895.wav,0,pill,474,42,5,5,français,male,0,0.0,-36.05432491,1.57991636
599f00c54d25e800012fc9a6,115,2,2024-02-27T11:40:08.699Z,english_895.wav,0,pill,474,42,5,5,français,male,1,0.1,0.27991529,1.29141926
599f00c54d25e800012fc9a6,115,2,2024-02-27T11:40:08.699Z,english_895.wav,0,pill,474,42,5,5,français,male,2,0.2,-68.50060493,0.78617821
599f00c54d25e800012fc9a6,115,2,2024-02-27T11:40:08.699Z,english_895.wav,0,pill,474,42,5,5,français,male,3,0.3,-65.34452755,0.53071912
599f00c54d25e800012fc9a6,115,2,2024-02-27T11:40:08.699Z,english_895.wav,0,pill,474,42,5,5,français,male,4,0.32341667,44.30205494,1.44568828
599f00c54d25e800012fc9a6,116,2,2024-02-27T11:40:08.699Z,english_535.wav,0,pill,316,42,5,5,français,male,0,0.0,-5.32882057,0.21055966
599f00c54d25e800012fc9a6,116,2,2024-02-27T11:40:08.699Z,english_535.wav,0,pill,316,42,5,5,français,male,1,0.1,-34.98045039,0.89683134
599f00c54d25e800012fc9a6,116,2,2024-02-27T11:40:08.699Z,english_535.wav,0,pill,316,42,5,5,français,male,2,0.2,30.10834221,1.11178172
599f00c54d25e800012fc9a6,116,2,2024-02-27T11:40:08.699Z,english_535.wav,0,pill,316,42,5,5,français,male,3,0.3,-70.22542568,0.20123235
599f00c54d25e800012fc9a6,116,2,2024-02-27T11:40:08.699Z,english_535.wav,0,pill,316,42,5,5,français,male,4,0.32341667,-73.0016054,0.99564794
599f00c54d25e800012fc9a6,117,2,2024-02-27T11:40:08.699Z,english_413.wav,0,pill,162,42,5,5,français,male,0,0.0,-9.66675054,1.82887045
599f00c54d25e800012fc9a6,117,2,2024-02-27T11:40:08.699Z,english_413.wav,0,pill,162,42,5,5,français,male,1,0.1,15.27504309,0.80668743
599f00c54d25e800012fc9a6,117,2,2024-02-27T11:40:08.699Z,english_413.wav,0,pill,162,42,5,5,français,male,2,0.2,-94.93171401,0.90586838
599f00c54d25e800012fc9a6,117,2,2024-02-27T11:40:08.699Z,english_413.wav,0,pill,162,42,5,5,français,male,3,0.3,-42.87800999,1.3937681
599f00c54d25e800012fc9a6,117,2,2024-02-27T11:40:08.699Z,english_413.wav,0,pill,162,42,5,5,français,male,4,0.32341667,-63.39385234,0.34165264
599f00c54d25e800012fc9a6,118,2,2024-02-27T11:40:08.699Z,english_15.wav,0,pill,357,42,5,5,français,male,0,0.0,-84.2209614,0.31323186
599f00c54d25e800012fc9a6,118,2,2024-02-27T11:40:08.699Z,english_15.wav,0,pill,357,42,5,5,français,male,1,0.1,62.09656714,0.60538609
599f00c54d25e800012fc9a6,118,2,2024-02-27T11:40:08.699Z,english_15.wav,0,pill,357,42,5,5,français,male,2,0.2,55.13992629,0.21165259
599f00c54d25e800012fc9a6,118,2,2024-02-27T11:40:08.699Z,english_15.wav,0,pill,357,42,5,5,français,male,3,0.3,-55.71077558,0.62501131
599f00c54d25e800012fc9a6,118,2,2024-02-27T11:40:08.699Z,english_15.wav,0,pill,357,42,5,5,français,male,4,0.32341667,77.6678018,0.97290752
599f00c54d25e800012fc9a6,119,2,2024-02-27T11:40:08.699Z,english_224.wav,0,pill,149,42,5,5,français,male,0,0.0,-3.31597843,0.45157501
599f00c54d25e800012fc9a6,119,2,2024-02-27T11:40:08.699Z,english_224.wav,0,pill,149,42,5,5,français,male,1,0.1,-35.19448657,1.77513434
599f00c54d25e800012fc9a6,119,2,2024-02-27T11:40:08.699Z,english_224.wav,0,pill,149,42,5,5,français,male,2,0.2,-54.62049262,0.36912314
599f00c54d25e800012fc9a6,119,2,2024-02-27T11:40:08.699Z,english_224.wav,0,pill,149,42,5,5,français,male,3,0.3,50.12510099,1.67171916
599f00c54d25e800012fc9a6,119,2,2024-02-27T11:40:08.699Z,english_224.wav,0,pill,149,42,5,5,français,male,4,0.32341667,96.66013203,1.16069525
599f00c54d25e800012fc9a6,120,2,2024-02-27T11:40:08.699Z,english_341.wav,0,pill,324,42,5,5,français,male,0,0.0,-3.29192029,0.92007635
599f00c54d25e800012fc9a6,120,2,2024-02-27T11:40:08.699Z,english_341.wav,0,pill,324,42,5,5,français,male,1,0.1,-63.07334109,0.76766635
599f00c54d25e800012fc9a6,120,2,2024-02-27T11:40:08.699Z,english_341.wav,0,pill,324,42,5,5,français,male,2,0.2,-52.81319379,0.00478881
599f00c54d25e800012fc9a6,120,2,2024-02-27T11:40:08.699Z,english_341.wav,0,pill,324,42,5,5,français,male,3,0.3,47.65296252,0.69804387
599f00c54d25e800012fc9a6,120,2,2024-02-27T11:40:08.699Z,english_341.wav,0,pill,324,42,5,5,français,male,4,0.32341667,-2.67842738,0.15231077
599f00c54d25e800012fc9a6,121,2,2024-02-27T11:40:08.699Z,english_752.wav,0,peel,177,42,5,5,français,male,0,0.0,-89.50526135,1.26833375
599f00c54d25e800012fc9a6,121,2,2024-02-27T11:40:08.699Z,english_752.wav,0,peel,177,42,5,5,français,male,1,0.1,16.42916277,1.25445964
599f00c54d25e800012fc9a6,121,2,2024-02-27T11:40:08.699Z,english_752.wav,0,peel,177,42,5,5,français,male,2,0.2,-62.11724863,1.84048801
599f00c54d25e800012fc9a6,121,2,2024-02-27T11:40:08.699Z,english_752.wav,0,peel,177,42,5,5,français,male,3,0.3,-22.7839786,0.96813738
599f00c54d25e800012fc9a6,121,2,2024-02-27T11:40:08.699Z,english_752.wav,0,peel,177,42,5,5,français,male,4,0.32341667,21.77934146,1.95604557
599f00c54d25e800012fc9a6,122,2,2024-02-27T11:40:08.699Z,english_383.wav,0,pill,392,42,5,5,français,male,0,0.0,-1.49759031,0.61403304
599f00c54d25e800012fc9a6,122,2,2024-02-27T11:40:08.699Z,english_383.wav,0,pill,392,42,5,5,français,male,1,0.1,48.0809444,0.69225556
599f00c54d25e800012fc9a6,122,2,2024-02-27T11:40:08.699Z,english_383.wav,0,pill,392,42,5,5,français,male,2,0.2,-84.09524499,0.33452268
599f00c54d25e800012fc9a6,122,2,2024-02-27T11:40:08.699Z,english_383.wav,0,pill,392,42,5,5,français,male,3,0.3,95.23220486,1.06792504
599f00c54d25e800012fc9a6,122,2,2024-02-27T11:40:08.699Z,english_383.wav,0,pill,392,42,5,5,français,male,4,0.32341667,64.91086902,0.58483827
599f00c54d25e800012fc9a6,123,2,2024-02-27T11:40:08.699Z,english_764.wav,0,peel,152,42,5,5,français,male,0,0.0,7.00590276,1.84020442
599f00c54d25e800012fc9a6,123,2,2024-02-27T11:40:08.699Z,english_764.wav,0,peel,152,42,5,5,français,male,1,0.1,-69.33047837,0.1607256
599f00c54d25e800012fc9a6,123,2,2024-02-27T11:40:08.699Z,english_764.wav,0,peel,152,42,5,5,français,male,2,0.2,-20.89747671,1.70981587
599f00c54d25e800012fc9a6,123,2,2024-02-27T11:40:08.699Z,english_764.wav,0,peel,152,42,5,5,français,male,3,0.3,-96.63564891,1.13854431
599f00c54d25e800012fc9a6,123,2,2024-02-27T11:40:08.699Z,english_764.wav,0,peel,152,42,5,5,français,male,4,0.32341667,78.55111455,1.5536836
599f00c54d25e800012fc9a6,124,2,2024-02-27T11:40:08.699Z,english_401.wav,0,peel,225,42,5,5,français,male,0,0.0,-70.37998858,1.11338134
599f00c54d25e800012fc9a6,124,2,2024-02-27T11:40:08.699Z,english_401.wav,0,peel,225,42,5,5,français,male,1,0.1,49.27188779,1.59691292
599f00c54d25e800012fc9a6,124,2,2024-02-27T11:40:08.699Z,english_401.wav,0,peel,225,42,5,5,français,male,2,0.2,5.09566389,0.88679935
599f00c54d25e800012fc9a6,124,2,2024-02-27T11:40:08.699Z,english_401.wav,0,peel,225,42,5,5,français,male,3,0.3,58.42368176,1.89749174
599f00c54d25e800012fc9a6,124,2,2024-02-27T11:40:08.699Z,english_401.wav,0,peel,225,42,5,5,français,male,4,0.32341667,-43.06407799,1.35831765
599f00c54d25e800012fc9a6,125,2,2024-02-27T11:40:08.699Z,english_384.wav,0,pill,368,42,5,5,français,male,0,0.0,-38.96228733,0.34616893
599f00c54d25e800012fc9a6,125,2,2024-02-27T11:40:08.699Z,english_384.wav,0,pill,368,42,5,5,français,male,1,0.1,2.386347,0.04115024
599f00c54d25e800012fc9a6,125,2,2024-02-27T11:40:08.699Z,english_384.wav,0,pill,368,42,5,5,français,male,2,0.2,48.26486793,0.35900131
599f00c54d25e800012fc9a6,125,2,2024-02-27T11:40:08.699Z,english_384.wav,0,pill,368,42,5,5,français,male,3,0.3,-48.11903655,1.58519606
599f00c54d25e800012fc9a6,125,2,2024-02-27T11:40:08.699Z,english_384.wav,0,pill,368,42,5,5,français,male,4,0.32341667,19.29531145,0.95531857
599f00c54d25e800012fc9a6,126,2,2024-02-27T11:40:08.699Z,english_697.wav,0,peel,693,42,5,5,français,male,0,0.0,34.8877197,0.10761674
599f00c54d25e800012fc9a6,126,2,2024-02-27T11:40:08.699Z,english_697.wav,0,peel,693,42,5,5,français,male,1,0.1,-0.0129750448,0.88035305
599f00c54d25e800012fc9a6,126,2,2024-02-27T11:40:08.699Z,english_697.wav,0,peel,693,42,5,5,français,male,2,0.2,48.8877829,0.12183403
599f00c54d25e800012fc9a6,126,2,2024-02-27T11:40:08.699Z,english_697.wav,0,peel,693,42,5,5,français,male,3,0.3,68.5745634,0.55306263
599f00c54d25e800012fc9a6,126,2,2024-02-27T11:40:08.699Z,english_697.wav,0,peel,693,42,5,5,français,male,4,0.323416667,18.9536775,1.83833688
599f00c54d25e800012fc9a6,127,2,2024-02-27T11:40:08.699Z,english_603.wav,0,pill,518,42,5,5,français,male,0,0.0,-14.17444723,1.28295305
599f00c54d25e800012fc9a6,127,2,2024-02-27T11:40:08.699Z,english_603.wav,0,pill,518,42,5,5,français,male,1,0.1,-4.64921339,0.35920956
599f00c54d25e800012fc9a6,127,2,2024-02-27T11:40:08.699Z,english_603.wav,0,pill,518,42,5,5,français,male,2,0.2,-23.32469505,0.60281559
599f00c54d25e800012fc9a6,127,2,2024-02-27T11:40:08.699Z,english_603.wav,0,pill,518,42,5,5,français,male,3,0.3,-59.01260874,0.58107079
599f00c54d25e800012fc9a6,127,2,2024-02-27T11:40:08.699Z,english_603.wav,0,pill,518,42,5,5,français,male,4,0.32341667,88.53711532,1.19087365
599f00c54d25e800012fc9a6,128,2,2024-02-27T11:40:08.699Z,english_989.wav,0,pill,550,42,5,5,français,male,0,0.0,-51.1051603,1.00035195
599f00c54d25e800012fc9a6,128,2,2024-02-27T11:40:08.699Z,english_989.wav,0,pill,550,42,5,5,français,male,1,0.1,-91.26717948,0.46124463
599f00c54d25e800012fc9a6,128,2,2024-02-27T11:40:08.699Z,english_989.wav,0,pill,550,42,5,5,français,male,2,0.2,73.5145218,0.77735517
599f00c54d25e800012fc9a6,128,2,2024-02-27T11:40:08.699Z,english_989.wav,0,pill,550,42,5,5,français,male,3,0.3,54.43703181,1.21549894
599f00c54d25e800012fc9a6,128,2,2024-02-27T11:40:08.699Z,english_989.wav,0,pill,550,42,5,5,français,male,4,0.32341667,-36.95823638,0.33045291
599f00c54d25e800012fc9a6,129,2,2024-02-27T11:40:08.699Z,english_315.wav,0,peel,260,42,5,5,français,male,0,0.0,3.76150079,1.04293113
599f00c54d25e800012fc9a6,129,2,2024-02-27T11:40:08.699Z,english_315.wav,0,peel,260,42,5,5,français,male,1,0.1,4.93204799,0.55537984
599f00c54d25e800012fc9a6,129,2,2024-02-27T11:40:08.699Z,english_315.wav,0,peel,260,42,5,5,français,male,2,0.2,-81.53480532,1.13024782
599f00c54d25e800012fc9a6,129,2,2024-02-27T11:40:08.699Z,english_315.wav,0,peel,260,42,5,5,français,male,3,0.3,45.94577355,1.06792043
599f00c54d25e800012fc9a6,129,2,2024-02-27T11:40:08.699Z,english_315.wav,0,peel,260,42,5,5,français,male,4,0.32341667,-55.96194099,1.80369969
599f00c54d25e800012fc9a6,130,2,2024-02-27T11:40:08.699Z,english_820.wav,0,peel,221,42,5,5,français,male,0,0.0,-46.83321603,0.84618107
599f00c54d25e800012fc9a6,130,2,2024-02-27T11:40:08.699Z,english_820.wav,0,peel,221,42,5,5,français,male,1,0.1,41.6487922,0.98544532
599f00c54d25e800012fc9a6,130,2,2024-02-27T11:40:08.699Z,english_820.wav,0,peel,221,42,5,5,français,male,2,0.2,8.4156442,0.7701051
599f00c54d25e800012fc9a6,130,2,2024-02-27T11:40:08.699Z,english_820.wav,0,peel,221,42,5,5,français,male,3,0.3,-54.82963666,1.20043732
599f00c54d25e800012fc9a6,130,2,2024-02-27T11:40:08.699Z,english_820.wav,0,peel,221,42,5,5,français,male,4,0.32341667,30.43602938,1.85489027
599f00c54d25e800012fc9a6,131,2,2024-02-27T11:40:08.699Z,english_171.wav,0,peel,280,42,5,5,français,male,0,0.0,13.65984607,0.71637608
599f00c54d25e800012fc9a6,131,2,2024-02-27T11:40:08.699Z,english_171.wav,0,peel,280,42,5,5,français,male,1,0.1,70.55092655,1.80826384
599f00c54d25e800012fc9a6,131,2,2024-02-27T11:40:08.699Z,english_171.wav,0,peel,280,42,5,5,français,male,2,0.2,57.57935127,0.47277884
599f00c54d25e800012fc9a6,131,2,2024-02-27T11:40:08.699Z,english_171.wav,0,peel,280,42,5,5,français,male,3,0.3,-55.35579571,1.22036711
599f00c54d25e800012fc9a6,131,2,2024-02-27T11:40:08.699Z,english_171.wav,0,peel,280,42,5,5,français,male,4,0.32341667,13.04572565,0.00907712
599f00c54d25e800012fc9a6,132,2,2024-02-27T11:40:08.699Z,english_30.wav,0,peel,197,42,5,5,français,male,0,0.0,-18.5398728,0.31748681
599f00c54d25e800012fc9a6,132,2,2024-02-27T11:40:08.699Z,english_30.wav,0,peel,197,42,5,5,français,male,1,0.1,-67.34991207,1.82477139
599f00c54d25e800012fc9a6,132,2,2024-02-27T11:40:08.699Z,english_30.wav,0,peel,197,42,5,5,français,male,2,0.2,65.54879707,1.59992979
599f00c54d25e800012fc9a6,132,2,2024-02-27T11:40:08.699Z,english_30.wav,0,peel,197,42,5,5,français,male,3,0.3,30.88088319,0.89523729
599f00c54d25e800012fc9a6,132,2,2024-02-27T11:40:08.699Z,english_30.wav,0,peel,197,42,5,5,français,male,4,0.32341667,50.60550813,1.02052202
599f00c54d25e800012fc9a6,133,2,2024-02-27T11:40:08.699Z,english_821.wav,0,peel,154,42,5,5,français,male,0,0.0,-4.04234253,1.62928948
599f00c54d25e800012fc9a6,133,2,2024-02-27T11:40:08.699Z,english_821.wav,0,peel,154,42,5,5,français,male,1,0.1,50.39518932,0.78033958
599f00c54d25e800012fc9a6,133,2,2024-02-27T11:40:08.699Z,english_821.wav,0,peel,154,42,5,5,français,male,2,0.2,58.18996785,1.56476115
599f00c54d25e800012fc9a6,133,2,2024-02-27T11:40:08.699Z,english_821.wav,0,peel,154,42,5,5,français,male,3,0.3,-22.07293427,0.56557752
599f00c54d25e800012fc9a6,133,2,2024-02-27T11:40:08.699Z,english_821.wav,0,peel,154,42,5,5,français,male,4,0.32341667,56.43229939,0.93389964
599f00c54d25e800012fc9a6,134,2,2024-02-27T11:40:08.699Z,english_108.wav,0,peel,167,42,5,5,français,male,0,0.0,-20.69942707,0.77052949
599f00c54d25e800012fc9a6,134,2,2024-02-27T11:40:08.699Z,english_108.wav,0,peel,167,42,5,5,français,male,1,0.1,-59.42152954,1.01445352
599f00c54d25e800012fc9a6,134,2,2024-02-27T11:40:08.699Z,english_108.wav,0,peel,167,42,5,5,français,male,2,0.2,-8.09170222,0.42363715
599f00c54d25e800012fc9a6,134,2,2024-02-27T11:40:08.699Z,english_108.wav,0,peel,167,42,5,5,français,male,3,0.3,21.99826779,1.45799831
599f00c54d25e800012fc9a6,134,2,2024-02-27T11:40:08.699Z,english_108.wav,0,peel,167,42,5,5,français,male,4,0.32341667,56.38973361,1.71498507
599f00c54d25e800012fc9a6,135,2,2024-02-27T11:40:08.699Z,english_488.wav,0,peel,118,42,5,5,français,male,0,0.0,7.19120882,0.55609806
599f00c54d25e800012fc9a6,135,2,2024-02-27T11:40:08.699Z,english_488.wav,0,peel,118,42,5,5,français,male,1,0.1,11.64873536,1.36121935
599f00c54d25e800012fc9a6,135,2,2024-02-27T11:40:08.699Z,english_488.wav,0,peel,118,42,5,5,français,male,2,0.2,59.26032861,0.93872915
599f00c54d25e800012fc9a6,135,2,2024-02-27T11:40:08.699Z,english_488.wav,0,peel,118,42,5,5,français,male,3,0.3,-31.0631162,1.52041262
599f00c54d25e800012fc9a6,135,2,2024-02-27T11:40:08.699Z,english_488.wav,0,peel,118,42,5,5,français,male,4,0.32341667,23.8619583,1.83140972
599f00c54d25e800012fc9a6,136,2,2024-02-27T11:40:08.699Z,english_502.wav,0,peel,136,42,5,5,français,male,0,0.0,-23.73065935,0.0797034
599f00c54d25e800012fc9a6,136,2,2024-02-27T11:40:08.699Z,english_502.wav,0,peel,136,42,5,5,français,male,1,0.1,2.70754613,1.83600464
599f00c54d25e800012fc9a6,136,2,2024-02-27T11:40:08.699Z,english_502.wav,0,peel,136,42,5,5,français,male,2,0.2,25.650451,1.48948742
599f00c54d25e800012fc9a6,136,2,2024-02-27T11:40:08.699Z,english_502.wav,0,peel,136,42,5,5,français,male,3,0.3,-49.55254658,1.22465236
599f00c54d25e800012fc9a6,136,2,2024-02-27T11:40:08.699Z,english_502.wav,0,peel,136,42,5,5,français,male,4,0.32341667,16.82642172,1.41984075
599f00c54d25e800012fc9a6,137,2,2024-02-27T11:40:08.699Z,english_45.wav,0,peel,64,42,5,5,français,male,0,0.0,72.55677234,0.302627
599f00c54d25e800012fc9a6,137,2,2024-02-27T11:40:08.699Z,english_45.wav,0,peel,64,42,5,5,français,male,1,0.1,34.43244276,1.957389
599f00c54d25e800012fc9a6,137,2,2024-02-27T11:40:08.699Z,english_45.wav,0,peel,64,42,5,5,français,male,2,0.2,12.66368291,1.1456601
599f00c54d25e800012fc9a6,137,2,2024-02-27T11:40:08.699Z,english_45.wav,0,peel,64,42,5,5,français,male,3,0.3,47.17471186,1.77472104
599f00c54d25e800012fc9a6,137,2,2024-02-27T11:40:08.699Z,english_45.wav,0,peel,64,42,5,5,français,male,4,0.32341667,-48.2883803,1.7760992
599f00c54d25e800012fc9a6,138,2,2024-02-27T11:40:08.699Z,english_813.wav,0,peel,112,42,5,5,français,male,0,0.0,55.66932548,1.32885027
599f00c54d25e800012fc9a6,138,2,2024-02-27T11:40:08.699Z,english_813.wav,0,peel,112,42,5,5,français,male,1,0.1,81.68960615,1.76450173
599f00c54d25e800012fc9a6,138,2,2024-02-27T11:40:08.699Z,english_813.wav,0,peel,112,42,5,5,français,male,2,0.2,55.75765178,0.71046445
599f00c54d25e800012fc9a6,138,2,2024-02-27T11:40:08.699Z,english_813.wav,0,peel,112,42,5,5,français,male,3,0.3,-1.25572602,1.00431818
599f00c54d25e800012fc9a6,138,2,2024-02-27T11:40:08.699Z,english_813.wav,0,peel,112,42,5,5,français,male,4,0.32341667,95.15429199,0.60962601
599f00c54d25e800012fc9a6,139,2,2024-02-27T11:40:08.699Z,english_23.wav,0,peel,195,42,5,5,français,male,0,0.0,-50.80982819,0.58244855
599f00c54d25e800012fc9a6,139,2,2024-02-27T11:40:08.699Z,english_23.wav,0,peel,195,42,5,5,français,male,1,0.1,76.10516215,1.77510268
599f00c54d25e800012fc9a6,139,2,2024-02-27T11:40:08.699Z,english_23.wav,0,peel,195,42,5,5,français,male,2,0.2,-90.32463898,0.60847707
599f00c54d25e800012fc9a6,139,2,2024-02-27T11:40:08.699Z,english_23.wav,0,peel,195,42,5,5,français,male,3,0.3,15.76928166,0.62114149
599f00c54d25e800012fc9a6,139,2,2024-02-27T11:40:08.699Z,english_23.wav,0,peel,195,42,5,5,français,male,4,0.32341667,-7.56392806,1.60162938
599f00c54d25e800012fc9a6,140,2,2024-02-27T11:40:08.699Z,english_901.wav,0,peel,183,42,5,5,français,male,0,0.0,-14.81770559,1.5194741
599f00c54d25e800012fc9a6,140,2,2024-02-27T11:40:08.699Z,english_901.wav,0,peel,183,42,5,5,français,male,1,0.1,-27.73561163,1.98674938
599f00c54d25e800012fc9a6,140,2,2024-02-27T11:40:08.699Z,english_901.wav,0,peel,183,42,5,5,français,male,2,0.2,-22.44015454,0.54356598
599f00c54d25e800012fc9a6,140,2,2024-02-27T11:40:08.699Z,english_901.wav,0,peel,183,42,5,5,français,male,3,0.3,-41.34815185,1.30497628
599f00c54d25e800012fc9a6,140,2,2024-02-27T11:40:08.699Z,english_901.wav,0,peel,183,42,5,5,français,male,4,0.32341667,10.13492358,0.61526789
599f00c54d25e800012fc9a6,141,2,2024-02-27T11:40:08.699Z,english_981.wav,0,peel,128,42,5,5,français,male,0,0.0,-19.49446297,1.96452006
599f00c54d25e800012fc9a6,141,2,2024-02-27T11:40:08.699Z,english_981.wav,0,peel,128,42,5,5,français,male,1,0.1,-69.0386812,1.2006287
599f00c54d25e800012fc9a6,141,2,2024-02-27T11:40:08.699Z,english_981.wav,0,peel,128,42,5,5,français,male,2,0.2,-25.77088537,0.98600753
599f00c54d25e800012fc9a6,141,2,2024-02-27T11:40:08.699Z,english_981.wav,0,peel,128,42,5,5,français,male,3,0.3,65.67633712,0.21362544
599f00c54d25e800012fc9a6,141,2,2024-02-27T11:40:08.699Z,english_981.wav,0,peel,128,42,5,5,français,male,4,0.32341667,-6.1640169,0.33780549
599f00c54d25e800012fc9a6,142,2,2024-02-27T11:40:08.699Z,english_460.wav,0,peel,158,42,5,5,français,male,0,0.0,-93.21492338,1.97422145
599f00c54d25e800012fc9a6,142,2,2024-02-27T11:40:08.699Z,english_460.wav,0,peel,158,42,5,5,français,male,1,0.1,-65.59669931,0.48313428
599f00c54d25e800012fc9a6,142,2,2024-02-27T11:40:08.699Z,english_460.wav,0,peel,158,42,5,5,français,male,2,0.2,76.47030005,0.91916034
599f00c54d25e800012fc9a6,142,2,2024-02-27T11:40:08.699Z,english_460.wav,0,peel,158,42,5,5,français,male,3,0.3,-24.62267943,0.34121923
599f00c54d25e800012fc9a6,142,2,2024-02-27T11:40:08.699Z,english_460.wav,0,peel,158,42,5,5,français,male,4,0.32341667,17.6428759,0.75894887
599f00c54d25e800012fc9a6,143,2,2024-02-27T11:40:08.699Z,english_290.wav,0,peel,161,42,5,5,français,male,0,0.0,73.71968657,0.30552726
599f00c54d25e800012fc9a6,143,2,2024-02-27T11:40:08.699Z,english_290.wav,0,peel,161,42,5,5,français,male,1,0.1,-59.85317413,1.31636279
599f00c54d25e800012fc9a6,143,2,2024-02-27T11:40:08.699Z,english_290.wav,0,peel,161,42,5,5,français,male,2,0.2,71.1426587,0.54925413
599f00c54d25e800012fc9a6,143,2,2024-02-27T11:40:08.699Z,english_290.wav,0,peel,161,42,5,5,français,male,3,0.3,-18.50007061,1.26204455
599f00c54d25e800012fc9a6,143,2,2024-02-27T11:40:08.699Z,english_290.wav,0,peel,161,42,5,5,français,male,4,0.32341667,-65.91143137,0.60528556
599f00c54d25e800012fc9a6,144,2,2024-02-27T11:40:08.699Z,english_373.wav,0,peel,127,42,5,5,français,male,0,0.0,-63.66458186,0.61104768
599f00c54d25e800012fc9a6,144,2,2024-02-27T11:40:08.699Z,english_373.wav,0,peel,127,42,5,5,français,male,1,0.1,-61.42386056,1.64905001
599f00c54d25e800012fc9a6,144,2,2024-02-27T11:40:08.699Z,english_373.wav,0,peel,127,42,5,5,français,male,2,0.2,-78.74831974,1.44355649
599f00c54d25e800012fc9a6,144,2,2024-02-27T11:40:08.699Z,english_373.wav,0,peel,127,42,5,5,français,male,3,0.3,-23.23108213,1.63671726
599f00c54d25e800012fc9a6,144,2,2024-02-27T11:40:08.699Z,english_373.wav,0,peel,127,42,5,5,français,male,4,0.32341667,-77.15694383,1.96911306
599f00c54d25e800012fc9a6,145,2,2024-02-27T11:40:08.699Z,english_862.wav,0,pill,387,42,5,5,français,male,0,0.0,97.17644144,0.51253178
599f00c54d25e800012fc9a6,145,2,2024-02-27T11:40:08.699Z,english_862.wav,0,pill,387,42,5,5,français,male,1,0.1,26.34966999,0.21080737
599f00c54d25e800012fc9a6,145,2,2024-02-27T11:40:08.699Z,english_862.wav,0,pill,387,42,5,5,français,male,2,0.2,-21.73584106,0.27401534
599f00c54d25e800012fc9a6,145,2,2024-02-27T11:40:08.699Z,english_862.wav,0,pill,387,42,5,5,français,male,3,0.3,70.49109419,1.91980484
599f00c54d25e800012fc9a6,145,2,2024-02-27T11:40:08.699Z,english_862.wav,0,pill,387,42,5,5,français,male,4,0.32341667,43.48373212,0.96077188
599f00c54d25e800012fc9a6,146,2,2024-02-27T11:40:08.699Z,english_339.wav,0,pill,371,42,5,5,français,male,0,0.0,-58.67599578,0.13141934
599f00c54d25e800012fc9a6,146,2,2024-02-27T11:40:08.699Z,english_339.wav,0,pill,371,42,5,5,français,male,1,0.1,-13.30258388,0.16133177
599f00c54d25e800012fc9a6,146,2,2024-02-27T11:40:08.699Z,english_339.wav,0,pill,371,42,5,5,français,male,2,0.2,-52.40820381,1.13500643
599f00c54d25e800012fc9a6,146,2,2024-02-27T11:40:08.699Z,english_339.wav,0,pill,371,42,5,5,français,male,3,0.3,11.33062491,0.98717522
599f00c54d25e800012fc9a6,146,2,2024-02-27T11:40:08.699Z,english_339.wav,0,pill,371,42,5,5,français,male,4,0.32341667,9.6385593,0.10332776
599f00c54d25e800012fc9a6,147,2,2024-02-27T11:40:08.699Z,english_299.wav,0,peel,39,42,5,5,français,male,0,0.0,-2.55977829,0.95716625
599f00c54d25e800012fc9a6,147,2,2024-02-27T11:40:08.699Z,english_299.wav,0,peel,39,42,5,5,français,male,1,0.1,1.77446255,1.43363845
599f00c54d25e800012fc9a6,147,2,2024-02-27T11:40:08.699Z,english_299.wav,0,peel,39,42,5,5,français,male,2,0.2,-18.83457859,1.1421669
599f00c54d25e800012fc9a6,147,2,2024-02-27T11:40:08.699Z,english_299.wav,0,peel,39,42,5,5,français,male,3,0.3,-71.88845024,1.57148089
599f00c54d25e800012fc9a6,147,2,2024-02-27T11:40:08.699Z,english_299.wav,0,peel,39,42,5,5,français,male,4,0.32341667,99.76623745,1.70410623
599f00c54d25e800012fc9a6,148,2,2024-02-27T11:40:08.699Z,english_361.wav,0,pill,389,42,5,5,français,male,0,0.0,47.37783877,1.2281625
599f00c54d25e800012fc9a6,148,2,2024-02-27T11:40:08.699Z,english_361.wav,0,pill,389,42,5,5,français,male,1,0.1,41.96620543,0.32170701
599f00c54d25e800012fc9a6,148,2,2024-02-27T11:40:08.699Z,english_361.wav,0,pill,389,42,5,5,français,male,2,0.2,-99.83447432,0.41267147
599f00c54d25e800012fc9a6,148,2,2024-02-27T11:40:08.699Z,english_361.wav,0,pill,389,42,5,5,français,male,3,0.3,-83.75612903,0.32528287
599f00c54d25e800012fc9a6,148,2,2024-02-27T11:40:08.699Z,english_361.wav,0,pill,389,42,5,5,français,male,4,0.32341667,99.31228573,0.29737668
599f00c54d25e800012fc9a6,149,2,2024-02-27T11:40:08.699Z,english_654.wav,0,peel,635,42,5,5,français,male,0,0.0,-97.13147194,0.91673578
599f00c54d25e800012fc9a6,149,2,2024-02-27T11:40:08.699Z,english_654.wav,0,peel,635,42,5,5,français,male,1,0.1,-81.37819023,1.23280851
