subj,trial,block,date,stim,stim_order,response,rt,age,english,french,language,sex,param_index,segment,pitch,stretch
610d671491693e4ff410860c,0,0,2024-02-27T10:55:06.910Z,english_282.wav,0,peel,3735,36,4,5,français,m,0,0.0,0.76940706,0.32837311
610d671491693e4ff410860c,0,0,2024-02-27T10:55:06.910Z,english_282.wav,0,peel,3735,36,4,5,français,m,1,0.1,85.14494722,0.39977994
610d671491693e4ff410860c,0,0,2024-02-27T10:55:06.910Z,english_282.wav,0,peel,3735,36,4,5,français,m,2,0.2,-92.43433596,0.62065738
610d671491693e4ff410860c,0,0,2024-02-27T10:55:06.910Z,english_282.wav,0,peel,3735,36,4,5,français,m,3,0.3,-98.42888083,0.06200237
610d671491693e4ff410860c,0,0,2024-02-27T10:55:06.910Z,english_282.wav,0,peel,3735,36,4,5,français,m,4,0.32341667,-32.58662549,1.4193679
610d671491693e4ff410860c,1,0,2024-02-27T10:55:06.910Z,english_754.wav,0,peel,2214,36,4,5,français,m,0,0.0,-19.76675532,0.85408869
610d671491693e4ff410860c,1,0,2024-02-27T10:55:06.910Z,english_754.wav,0,peel,2214,36,4,5,français,m,1,0.1,34.48414938,1.68072852
610d671491693e4ff410860c,1,0,2024-02-27T10:55:06.910Z,english_754.wav,0,peel,2214,36,4,5,français,m,2,0.2,62.52568934,1.92334892
610d671491693e4ff410860c,1,0,2024-02-27T10:55:06.910Z,english_754.wav,0,peel,2214,36,4,5,français,m,3,0.3,25.41574935,0.35114342
610d671491693e4ff410860c,1,0,2024-02-27T10:55:06.910Z,english_754.wav,0,peel,2214,36,4,5,français,m,4,0.32341667,-36.16911462,0.9845535
610d671491693e4ff410860c,2,0,2024-02-27T10:55:06.910Z,english_625.wav,0,pill,631,36,4,5,français,m,0,0.0,25.70847239,1.1960971
610d671491693e4ff410860c,2,0,2024-02-27T10:55:06.910Z,english_625.wav,0,pill,631,36,4,5,français,m,1,0.1,-37.82303983,0.02795501
610d671491693e4ff410860c,2,0,2024-02-27T10:55:06.910Z,english_625.wav,0,pill,631,36,4,5,français,m,2,0.2,38.52328891,1.10198652
610d671491693e4ff410860c,2,0,2024-02-27T10:55:06.910Z,english_625.wav,0,pill,631,36,4,5,français,m,3,0.3,-23.93667478,0.08852642
610d671491693e4ff410860c,2,0,2024-02-27T10:55:06.910Z,english_625.wav,0,pill,631,36,4,5,français,m,4,0.32341667,-53.98326942,1.59813041
610d671491693e4ff410860c,3,0,2024-02-27T10:55:06.910Z,english_855.wav,0,peel,401,36,4,5,français,m,0,0.0,27.89321206,0.30262259
610d671491693e4ff410860c,3,0,2024-02-27T10:55:06.910Z,english_855.wav,0,peel,401,36,4,5,français,m,1,0.1,-46.00582393,1.40968126
610d671491693e4ff410860c,3,0,2024-02-27T10:55:06.910Z,english_855.wav,0,peel,401,36,4,5,français,m,2,0.2,35.37102385,0.80904714
610d671491693e4ff410860c,3,0,2024-02-27T10:55:06.910Z,english_855.wav,0,peel,401,36,4,5,français,m,3,0.3,-58.73762704,1.48943687
610d671491693e4ff410860c,3,0,2024-02-27T10:55:06.910Z,english_855.wav,0,peel,401,36,4,5,français,m,4,0.32341667,-46.78314799,1.29572868
610d671491693e4ff410860c,4,0,2024-02-27T10:55:06.910Z,english_38.wav,0,peel,467,36,4,5,français,m,0,0.0,-2.78484508,0.45448836
610d671491693e4ff410860c,4,0,2024-02-27T10:55:06.910Z,english_38.wav,0,peel,467,36,4,5,français,m,1,0.1,-57.68912839,0.86252605
610d671491693e4ff410860c,4,0,2024-02-27T10:55:06.910Z,english_38.wav,0,peel,467,36,4,5,français,m,2,0.2,-17.27242754,1.61904865
610d671491693e4ff410860c,4,0,2024-02-27T10:55:06.910Z,english_38.wav,0,peel,467,36,4,5,français,m,3,0.3,-2.64514482,1.39130822
610d671491693e4ff410860c,4,0,2024-02-27T10:55:06.910Z,english_38.wav,0,peel,467,36,4,5,français,m,4,0.32341667,55.14373267,1.59066599
610d671491693e4ff410860c,5,0,2024-02-27T10:55:06.910Z,english_46.wav,0,peel,490,36,4,5,français,m,0,0.0,-29.32250151,0.64118776
610d671491693e4ff410860c,5,0,2024-02-27T10:55:06.910Z,english_46.wav,0,peel,490,36,4,5,français,m,1,0.1,-3.06808063,0.73649566
610d671491693e4ff410860c,5,0,2024-02-27T10:55:06.910Z,english_46.wav,0,peel,490,36,4,5,français,m,2,0.2,90.97923358,1.88790792
610d671491693e4ff410860c,5,0,2024-02-27T10:55:06.910Z,english_46.wav,0,peel,490,36,4,5,français,m,3,0.3,10.7462216,0.26788582
610d671491693e4ff410860c,5,0,2024-02-27T10:55:06.910Z,english_46.wav,0,peel,490,36,4,5,français,m,4,0.32341667,-76.74347892,0.543593
610d671491693e4ff410860c,6,0,2024-02-27T10:55:06.910Z,english_720.wav,0,peel,460,36,4,5,français,m,0,0.0,85.23240719,1.23446246
610d671491693e4ff410860c,6,0,2024-02-27T10:55:06.910Z,english_720.wav,0,peel,460,36,4,5,français,m,1,0.1,78.65958559,0.77382892
610d671491693e4ff410860c,6,0,2024-02-27T10:55:06.910Z,english_720.wav,0,peel,460,36,4,5,français,m,2,0.2,-56.45174874,0.48705718
610d671491693e4ff410860c,6,0,2024-02-27T10:55:06.910Z,english_720.wav,0,peel,460,36,4,5,français,m,3,0.3,71.88898266,1.42335328
610d671491693e4ff410860c,6,0,2024-02-27T10:55:06.910Z,english_720.wav,0,peel,460,36,4,5,français,m,4,0.32341667,-9.13482,1.32495619
610d671491693e4ff410860c,7,0,2024-02-27T10:55:06.910Z,english_916.wav,0,peel,252,36,4,5,français,m,0,0.0,-50.62314768,0.5519299
610d671491693e4ff410860c,7,0,2024-02-27T10:55:06.910Z,english_916.wav,0,peel,252,36,4,5,français,m,1,0.1,-52.55300278,1.16723516
610d671491693e4ff410860c,7,0,2024-02-27T10:55:06.910Z,english_916.wav,0,peel,252,36,4,5,français,m,2,0.2,54.298582,1.72376738
610d671491693e4ff410860c,7,0,2024-02-27T10:55:06.910Z,english_916.wav,0,peel,252,36,4,5,français,m,3,0.3,-23.99088857,0.41493786
610d671491693e4ff410860c,7,0,2024-02-27T10:55:06.910Z,english_916.wav,0,peel,252,36,4,5,français,m,4,0.32341667,4.88948607,1.97918138
610d671491693e4ff410860c,8,0,2024-02-27T10:55:06.910Z,english_664.wav,0,peel,765,36,4,5,français,m,0,0.0,-76.94516773,1.88823832
610d671491693e4ff410860c,8,0,2024-02-27T10:55:06.910Z,english_664.wav,0,peel,765,36,4,5,français,m,1,0.1,-6.4858311,1.41396893
610d671491693e4ff410860c,8,0,2024-02-27T10:55:06.910Z,english_664.wav,0,peel,765,36,4,5,français,m,2,0.2,46.60528691,0.11773869
610d671491693e4ff410860c,8,0,2024-02-27T10:55:06.910Z,english_664.wav,0,peel,765,36,4,5,français,m,3,0.3,9.48323043,1.80376032
610d671491693e4ff410860c,8,0,2024-02-27T10:55:06.910Z,english_664.wav,0,peel,765,36,4,5,français,m,4,0.32341667,89.85696022,1.43209877
610d671491693e4ff410860c,9,0,2024-02-27T10:55:06.910Z,english_60.wav,0,peel,317,36,4,5,français,m,0,0.0,82.53369854,0.66834278
610d671491693e4ff410860c,9,0,2024-02-27T10:55:06.910Z,english_60.wav,0,peel,317,36,4,5,français,m,1,0.1,60.14491878,1.16350573
610d671491693e4ff410860c,9,0,2024-02-27T10:55:06.910Z,english_60.wav,0,peel,317,36,4,5,français,m,2,0.2,-26.84704149,1.24827189
610d671491693e4ff410860c,9,0,2024-02-27T10:55:06.910Z,english_60.wav,0,peel,317,36,4,5,français,m,3,0.3,-19.8784386,0.70182905
610d671491693e4ff410860c,9,0,2024-02-27T10:55:06.910Z,english_60.wav,0,peel,317,36,4,5,français,m,4,0.32341667,-26.04492652,0.20173025
610d671491693e4ff410860c,10,0,2024-02-27T10:55:06.910Z,english_557.wav,0,peel,373,36,4,5,français,m,0,0.0,43.94308994,0.38165316
610d671491693e4ff410860c,10,0,2024-02-27T10:55:06.910Z,english_557.wav,0,peel,373,36,4,5,français,m,1,0.1,84.77773598,1.19567933
610d671491693e4ff410860c,10,0,2024-02-27T10:55:06.910Z,english_557.wav,0,peel,373,36,4,5,français,m,2,0.2,-14.75143777,1.35103773
610d671491693e4ff410860c,10,0,2024-02-27T10:55:06.910Z,english_557.wav,0,peel,373,36,4,5,français,m,3,0.3,-37.76141322,1.69174007
610d671491693e4ff410860c,10,0,2024-02-27T10:55:06.910Z,english_557.wav,0,peel,373,36,4,5,français,m,4,0.32341667,-5.99076179,0.4334092
610d671491693e4ff410860c,11,0,2024-02-27T10:55:06.910Z,english_198.wav,0,peel,485,36,4,5,français,m,0,0.0,-3.53881338,0.6033193
610d671491693e4ff410860c,11,0,2024-02-27T10:55:06.910Z,english_198.wav,0,peel,485,36,4,5,français,m,1,0.1,58.04445454,0.57837506
610d671491693e4ff410860c,11,0,2024-02-27T10:55:06.910Z,english_198.wav,0,peel,485,36,4,5,français,m,2,0.2,67.39523563,1.37850613
610d671491693e4ff410860c,11,0,2024-02-27T10:55:06.910Z,english_198.wav,0,peel,485,36,4,5,français,m,3,0.3,56.58835275,0.73107668
610d671491693e4ff410860c,11,0,2024-02-27T10:55:06.910Z,english_198.wav,0,peel,485,36,4,5,français,m,4,0.32341667,7.34595052,0.42006089
610d671491693e4ff410860c,12,0,2024-02-27T10:55:06.910Z,english_22.wav,0,peel,401,36,4,5,français,m,0,0.0,78.11206964,1.48448967
610d671491693e4ff410860c,12,0,2024-02-27T10:55:06.910Z,english_22.wav,0,peel,401,36,4,5,français,m,1,0.1,30.08823316,0.28770474
610d671491693e4ff410860c,12,0,2024-02-27T10:55:06.910Z,english_22.wav,0,peel,401,36,4,5,français,m,2,0.2,62.70691674,1.03274311
610d671491693e4ff410860c,12,0,2024-02-27T10:55:06.910Z,english_22.wav,0,peel,401,36,4,5,français,m,3,0.3,-69.9857022,0.45071415
610d671491693e4ff410860c,12,0,2024-02-27T10:55:06.910Z,english_22.wav,0,peel,401,36,4,5,français,m,4,0.32341667,-1.96178027,0.30900593
610d671491693e4ff410860c,13,0,2024-02-27T10:55:06.910Z,english_927.wav,0,peel,655,36,4,5,français,m,0,0.0,81.66311017,1.3783001
610d671491693e4ff410860c,13,0,2024-02-27T10:55:06.910Z,english_927.wav,0,peel,655,36,4,5,français,m,1,0.1,0.87570902,0.51323502
610d671491693e4ff410860c,13,0,2024-02-27T10:55:06.910Z,english_927.wav,0,peel,655,36,4,5,français,m,2,0.2,-59.21619647,0.98265958
610d671491693e4ff410860c,13,0,2024-02-27T10:55:06.910Z,english_927.wav,0,peel,655,36,4,5,français,m,3,0.3,-57.6787773,0.30790993
610d671491693e4ff410860c,13,0,2024-02-27T10:55:06.910Z,english_927.wav,0,peel,655,36,4,5,français,m,4,0.32341667,-30.87043146,1.17222751
610d671491693e4ff410860c,14,0,2024-02-27T10:55:06.910Z,english_732.wav,0,pill,331,36,4,5,français,m,0,0.0,-12.49530298,1.28394154
610d671491693e4ff410860c,14,0,2024-02-27T10:55:06.910Z,english_732.wav,0,pill,331,36,4,5,français,m,1,0.1,77.35683448,1.95772399
610d671491693e4ff410860c,14,0,2024-02-27T10:55:06.910Z,english_732.wav,0,pill,331,36,4,5,français,m,2,0.2,46.14200593,1.14408971
610d671491693e4ff410860c,14,0,2024-02-27T10:55:06.910Z,english_732.wav,0,pill,331,36,4,5,français,m,3,0.3,-17.19403126,0.21034957
610d671491693e4ff410860c,14,0,2024-02-27T10:55:06.910Z,english_732.wav,0,pill,331,36,4,5,français,m,4,0.32341667,-81.60069167,0.50538316
610d671491693e4ff410860c,15,0,2024-02-27T10:55:06.910Z,english_849.wav,0,pill,320,36,4,5,français,m,0,0.0,-24.45439181,1.62147024
610d671491693e4ff410860c,15,0,2024-02-27T10:55:06.910Z,english_849.wav,0,pill,320,36,4,5,français,m,1,0.1,-64.97605389,1.28655358
610d671491693e4ff410860c,15,0,2024-02-27T10:55:06.910Z,english_849.wav,0,pill,320,36,4,5,français,m,2,0.2,-67.78874915,0.154454
610d671491693e4ff410860c,15,0,2024-02-27T10:55:06.910Z,english_849.wav,0,pill,320,36,4,5,français,m,3,0.3,-6.53184928,1.49227138
610d671491693e4ff410860c,15,0,2024-02-27T10:55:06.910Z,english_849.wav,0,pill,320,36,4,5,français,m,4,0.32341667,59.1884023,1.08662162
610d671491693e4ff410860c,16,0,2024-02-27T10:55:06.910Z,english_395.wav,0,peel,384,36,4,5,français,m,0,0.0,12.69072165,1.18485033
610d671491693e4ff410860c,16,0,2024-02-27T10:55:06.910Z,english_395.wav,0,peel,384,36,4,5,français,m,1,0.1,16.88915645,0.64230571
610d671491693e4ff410860c,16,0,2024-02-27T10:55:06.910Z,english_395.wav,0,peel,384,36,4,5,français,m,2,0.2,49.23789678,0.95454364
610d671491693e4ff410860c,16,0,2024-02-27T10:55:06.910Z,english_395.wav,0,peel,384,36,4,5,français,m,3,0.3,39.87613746,0.75997929
610d671491693e4ff410860c,16,0,2024-02-27T10:55:06.910Z,english_395.wav,0,peel,384,36,4,5,français,m,4,0.32341667,70.90138048,1.50770695
610d671491693e4ff410860c,17,0,2024-02-27T10:55:06.910Z,english_354.wav,0,pill,338,36,4,5,français,m,0,0.0,-63.97501145,0.52067601
610d671491693e4ff410860c,17,0,2024-02-27T10:55:06.910Z,english_354.wav,0,pill,338,36,4,5,français,m,1,0.1,-43.11314734,0.59903392
610d671491693e4ff410860c,17,0,2024-02-27T10:55:06.910Z,english_354.wav,0,pill,338,36,4,5,français,m,2,0.2,10.53928595,0.9992363
610d671491693e4ff410860c,17,0,2024-02-27T10:55:06.910Z,english_354.wav,0,pill,338,36,4,5,français,m,3,0.3,-23.15258088,1.16142831
610d671491693e4ff410860c,17,0,2024-02-27T10:55:06.910Z,english_354.wav,0,pill,338,36,4,5,français,m,4,0.32341667,3.22925066,0.37639432
610d671491693e4ff410860c,18,0,2024-02-27T10:55:06.910Z,english_157.wav,0,peel,1213,36,4,5,français,m,0,0.0,-74.01864956,1.10168906
610d671491693e4ff410860c,18,0,2024-02-27T10:55:06.910Z,english_157.wav,0,peel,1213,36,4,5,français,m,1,0.1,1.44529667,1.71225259
610d671491693e4ff410860c,18,0,2024-02-27T10:55:06.910Z,english_157.wav,0,peel,1213,36,4,5,français,m,2,0.2,-42.76251303,1.71884561
610d671491693e4ff410860c,18,0,2024-02-27T10:55:06.910Z,english_157.wav,0,peel,1213,36,4,5,français,m,3,0.3,-49.01483239,1.47822148
610d671491693e4ff410860c,18,0,2024-02-27T10:55:06.910Z,english_157.wav,0,peel,1213,36,4,5,français,m,4,0.32341667,-96.85595697,1.36273156
610d671491693e4ff410860c,19,0,2024-02-27T10:55:06.910Z,english_561.wav,0,peel,300,36,4,5,français,m,0,0.0,62.21065415,1.32725493
610d671491693e4ff410860c,19,0,2024-02-27T10:55:06.910Z,english_561.wav,0,peel,300,36,4,5,français,m,1,0.1,-9.84770717,1.15871491
610d671491693e4ff410860c,19,0,2024-02-27T10:55:06.910Z,english_561.wav,0,peel,300,36,4,5,français,m,2,0.2,-12.92274306,0.82816789
610d671491693e4ff410860c,19,0,2024-02-27T10:55:06.910Z,english_561.wav,0,peel,300,36,4,5,français,m,3,0.3,16.08334811,1.72308293
610d671491693e4ff410860c,19,0,2024-02-27T10:55:06.910Z,english_561.wav,0,peel,300,36,4,5,français,m,4,0.32341667,-22.38830035,0.72943893
610d671491693e4ff410860c,20,0,2024-02-27T10:55:06.910Z,english_990.wav,0,pill,403,36,4,5,français,m,0,0.0,-17.98511021,0.6190444
610d671491693e4ff410860c,20,0,2024-02-27T10:55:06.910Z,english_990.wav,0,pill,403,36,4,5,français,m,1,0.1,-90.3005676,0.77548775
610d671491693e4ff410860c,20,0,2024-02-27T10:55:06.910Z,english_990.wav,0,pill,403,36,4,5,français,m,2,0.2,4.37005684,0.55013224
610d671491693e4ff410860c,20,0,2024-02-27T10:55:06.910Z,english_990.wav,0,pill,403,36,4,5,français,m,3,0.3,83.93705034,0.66784051
610d671491693e4ff410860c,20,0,2024-02-27T10:55:06.910Z,english_990.wav,0,pill,403,36,4,5,français,m,4,0.32341667,-36.57803625,0.32384409
610d671491693e4ff410860c,21,0,2024-02-27T10:55:06.910Z,english_127.wav,0,peel,307,36,4,5,français,m,0,0.0,-69.70750805,0.25070661
610d671491693e4ff410860c,21,0,2024-02-27T10:55:06.910Z,english_127.wav,0,peel,307,36,4,5,français,m,1,0.1,-23.17484413,1.1475992
610d671491693e4ff410860c,21,0,2024-02-27T10:55:06.910Z,english_127.wav,0,peel,307,36,4,5,français,m,2,0.2,16.27024862,1.99299371
610d671491693e4ff410860c,21,0,2024-02-27T10:55:06.910Z,english_127.wav,0,peel,307,36,4,5,français,m,3,0.3,-50.08342814,0.57749513
610d671491693e4ff410860c,21,0,2024-02-27T10:55:06.910Z,english_127.wav,0,peel,307,36,4,5,français,m,4,0.32341667,22.60332787,1.27832678
610d671491693e4ff410860c,22,0,2024-02-27T10:55:06.910Z,english_776.wav,0,pill,757,36,4,5,français,m,0,0.0,29.86548478,0.57139857
610d671491693e4ff410860c,22,0,2024-02-27T10:55:06.910Z,english_776.wav,0,pill,757,36,4,5,français,m,1,0.1,2.8025705,1.94435619
610d671491693e4ff410860c,22,0,2024-02-27T10:55:06.910Z,english_776.wav,0,pill,757,36,4,5,français,m,2,0.2,-38.4768188,0.3951066
610d671491693e4ff410860c,22,0,2024-02-27T10:55:06.910Z,english_776.wav,0,pill,757,36,4,5,français,m,3,0.3,-89.49838949,0.29859462
610d671491693e4ff410860c,22,0,2024-02-27T10:55:06.910Z,english_776.wav,0,pill,757,36,4,5,français,m,4,0.32341667,30.18488016,1.93939037
610d671491693e4ff410860c,23,0,2024-02-27T10:55:06.910Z,english_74.wav,0,peel,496,36,4,5,français,m,0,0.0,86.29588785,1.196208
610d671491693e4ff410860c,23,0,2024-02-27T10:55:06.910Z,english_74.wav,0,peel,496,36,4,5,français,m,1,0.1,-14.52381687,1.63208143
610d671491693e4ff410860c,23,0,2024-02-27T10:55:06.910Z,english_74.wav,0,peel,496,36,4,5,français,m,2,0.2,77.94321906,0.46125368
610d671491693e4ff410860c,23,0,2024-02-27T10:55:06.910Z,english_74.wav,0,peel,496,36,4,5,français,m,3,0.3,-32.33104188,1.38278461
610d671491693e4ff410860c,23,0,2024-02-27T10:55:06.910Z,english_74.wav,0,peel,496,36,4,5,français,m,4,0.32341667,9.46602754,0.83147108
610d671491693e4ff410860c,24,0,2024-02-27T10:55:06.910Z,english_70.wav,0,peel,402,36,4,5,français,m,0,0.0,-53.09237622,1.21678364
610d671491693e4ff410860c,24,0,2024-02-27T10:55:06.910Z,english_70.wav,0,peel,402,36,4,5,français,m,1,0.1,85.97526897,0.94111324
610d671491693e4ff410860c,24,0,2024-02-27T10:55:06.910Z,english_70.wav,0,peel,402,36,4,5,français,m,2,0.2,25.5645184,1.03926055
610d671491693e4ff410860c,24,0,2024-02-27T10:55:06.910Z,english_70.wav,0,peel,402,36,4,5,français,m,3,0.3,1.25172137,0.29519406
610d671491693e4ff410860c,24,0,2024-02-27T10:55:06.910Z,english_70.wav,0,peel,402,36,4,5,français,m,4,0.32341667,93.59431896,0.80175783
610d671491693e4ff410860c,25,0,2024-02-27T10:55:06.910Z,english_621.wav,0,peel,331,36,4,5,français,m,0,0.0,-58.25251841,1.01186344
610d671491693e4ff410860c,25,0,2024-02-27T10:55:06.910Z,english_621.wav,0,peel,331,36,4,5,français,m,1,0.1,21.8974524,1.03560921
610d671491693e4ff410860c,25,0,2024-02-27T10:55:06.910Z,english_621.wav,0,peel,331,36,4,5,français,m,2,0.2,-22.03552483,0.97057504
610d671491693e4ff410860c,25,0,2024-02-27T10:55:06.910Z,english_621.wav,0,peel,331,36,4,5,français,m,3,0.3,-56.80446909,1.33131235
610d671491693e4ff410860c,25,0,2024-02-27T10:55:06.910Z,english_621.wav,0,peel,331,36,4,5,français,m,4,0.32341667,-23.41760562,0.49151525
610d671491693e4ff410860c,26,0,2024-02-27T10:55:06.910Z,english_703.wav,0,peel,448,36,4,5,français,m,0,0.0,21.25560127,1.22587136
610d671491693e4ff410860c,26,0,2024-02-27T10:55:06.910Z,english_703.wav,0,peel,448,36,4,5,français,m,1,0.1,-5.61566417,1.28752652
610d671491693e4ff410860c,26,0,2024-02-27T10:55:06.910Z,english_703.wav,0,peel,448,36,4,5,français,m,2,0.2,-88.15973778,1.61643937
610d671491693e4ff410860c,26,0,2024-02-27T10:55:06.910Z,english_703.wav,0,peel,448,36,4,5,français,m,3,0.3,39.86499493,1.32560109
610d671491693e4ff410860c,26,0,2024-02-27T10:55:06.910Z,english_703.wav,0,peel,448,36,4,5,français,m,4,0.32341667,64.67338156,0.74206522
610d671491693e4ff410860c,27,0,2024-02-27T10:55:06.910Z,english_146.wav,0,peel,411,36,4,5,français,m,0,0.0,-7.47107612,0.36907021
610d671491693e4ff410860c,27,0,2024-02-27T10:55:06.910Z,english_146.wav,0,peel,411,36,4,5,français,m,1,0.1,-10.73298436,0.24473139
610d671491693e4ff410860c,27,0,2024-02-27T10:55:06.910Z,english_146.wav,0,peel,411,36,4,5,français,m,2,0.2,-4.63341632,1.01983542
610d671491693e4ff410860c,27,0,2024-02-27T10:55:06.910Z,english_146.wav,0,peel,411,36,4,5,français,m,3,0.3,14.65491039,0.62607899
610d671491693e4ff410860c,27,0,2024-02-27T10:55:06.910Z,english_146.wav,0,peel,411,36,4,5,français,m,4,0.32341667,19.96333333,1.1005899
610d671491693e4ff410860c,28,0,2024-02-27T10:55:06.910Z,english_774.wav,0,peel,362,36,4,5,français,m,0,0.0,-13.3479616,1.45409172
610d671491693e4ff410860c,28,0,2024-02-27T10:55:06.910Z,english_774.wav,0,peel,362,36,4,5,français,m,1,0.1,-18.75352159,1.07775337
610d671491693e4ff410860c,28,0,2024-02-27T10:55:06.910Z,english_774.wav,0,peel,362,36,4,5,français,m,2,0.2,-41.83192829,0.61872946
610d671491693e4ff410860c,28,0,2024-02-27T10:55:06.910Z,english_774.wav,0,peel,362,36,4,5,français,m,3,0.3,14.77986843,1.87871381
610d671491693e4ff410860c,28,0,2024-02-27T10:55:06.910Z,english_774.wav,0,peel,362,36,4,5,français,m,4,0.32341667,45.85609187,1.0399825
610d671491693e4ff410860c,29,0,2024-02-27T10:55:06.910Z,english_573.wav,0,pill,315,36,4,5,français,m,0,0.0,-46.41950257,0.98293374
610d671491693e4ff410860c,29,0,2024-02-27T10:55:06.910Z,english_573.wav,0,pill,315,36,4,5,français,m,1,0.1,-92.58424164,0.99885906
610d671491693e4ff410860c,29,0,2024-02-27T10:55:06.910Z,english_573.wav,0,pill,315,36,4,5,français,m,2,0.2,21.8123883,0.65769494
610d671491693e4ff410860c,29,0,2024-02-27T10:55:06.910Z,english_573.wav,0,pill,315,36,4,5,français,m,3,0.3,16.48756951,0.46238493
610d671491693e4ff410860c,29,0,2024-02-27T10:55:06.910Z,english_573.wav,0,pill,315,36,4,5,français,m,4,0.32341667,-54.36863361,0.72259175
610d671491693e4ff410860c,30,0,2024-02-27T10:55:06.910Z,english_546.wav,0,pill,651,36,4,5,français,m,0,0.0,81.21590514,1.56657823
610d671491693e4ff410860c,30,0,2024-02-27T10:55:06.910Z,english_546.wav,0,pill,651,36,4,5,français,m,1,0.1,75.01018689,0.84038259
610d671491693e4ff410860c,30,0,2024-02-27T10:55:06.910Z,english_546.wav,0,pill,651,36,4,5,français,m,2,0.2,15.56226302,0.00684501
610d671491693e4ff410860c,30,0,2024-02-27T10:55:06.910Z,english_546.wav,0,pill,651,36,4,5,français,m,3,0.3,48.30886192,1.68157273
610d671491693e4ff410860c,30,0,2024-02-27T10:55:06.910Z,english_546.wav,0,pill,651,36,4,5,français,m,4,0.32341667,18.80923499,1.09409739
610d671491693e4ff410860c,31,0,2024-02-27T10:55:06.910Z,english_245.wav,0,peel,287,36,4,5,français,m,0,0.0,74.89239003,1.30710747
610d671491693e4ff410860c,31,0,2024-02-27T10:55:06.910Z,english_245.wav,0,peel,287,36,4,5,français,m,1,0.1,41.98679172,0.93119149
610d671491693e4ff410860c,31,0,2024-02-27T10:55:06.910Z,english_245.wav,0,peel,287,36,4,5,français,m,2,0.2,99.42105985,1.84379828
610d671491693e4ff410860c,31,0,2024-02-27T10:55:06.910Z,english_245.wav,0,peel,287,36,4,5,français,m,3,0.3,-75.11958538,1.72828743
610d671491693e4ff410860c,31,0,2024-02-27T10:55:06.910Z,english_245.wav,0,peel,287,36,4,5,français,m,4,0.32341667,-62.10664415,0.50124118
610d671491693e4ff410860c,32,0,2024-02-27T10:55:06.910Z,english_467.wav,0,peel,470,36,4,5,français,m,0,0.0,-0.54983343,1.824027
610d671491693e4ff410860c,32,0,2024-02-27T10:55:06.910Z,english_467.wav,0,peel,470,36,4,5,français,m,1,0.1,-84.54516502,1.06295632
610d671491693e4ff410860c,32,0,2024-02-27T10:55:06.910Z,english_467.wav,0,peel,470,36,4,5,français,m,2,0.2,54.30123894,1.09976952
610d671491693e4ff410860c,32,0,2024-02-27T10:55:06.910Z,english_467.wav,0,peel,470,36,4,5,français,m,3,0.3,-82.00368026,1.11766566
610d671491693e4ff410860c,32,0,2024-02-27T10:55:06.910Z,english_467.wav,0,peel,470,36,4,5,français,m,4,0.32341667,-54.10816942,0.44824559
610d671491693e4ff410860c,33,0,2024-02-27T10:55:06.910Z,english_459.wav,0,peel,368,36,4,5,français,m,0,0.0,30.23503988,1.42205963
610d671491693e4ff410860c,33,0,2024-02-27T10:55:06.910Z,english_459.wav,0,peel,368,36,4,5,français,m,1,0.1,-58.09525271,0.13069666
610d671491693e4ff410860c,33,0,2024-02-27T10:55:06.910Z,english_459.wav,0,peel,368,36,4,5,français,m,2,0.2,22.03715272,0.55220733
610d671491693e4ff410860c,33,0,2024-02-27T10:55:06.910Z,english_459.wav,0,peel,368,36,4,5,français,m,3,0.3,-33.09468511,0.48840502
610d671491693e4ff410860c,33,0,2024-02-27T10:55:06.910Z,english_459.wav,0,peel,368,36,4,5,français,m,4,0.32341667,-9.46836848,1.08918734
610d671491693e4ff410860c,34,0,2024-02-27T10:55:06.910Z,english_134.wav,0,peel,761,36,4,5,français,m,0,0.0,70.72156413,1.84700732
610d671491693e4ff410860c,34,0,2024-02-27T10:55:06.910Z,english_134.wav,0,peel,761,36,4,5,français,m,1,0.1,-64.20531103,1.20878884
610d671491693e4ff410860c,34,0,2024-02-27T10:55:06.910Z,english_134.wav,0,peel,761,36,4,5,français,m,2,0.2,35.7891913,0.51924654
610d671491693e4ff410860c,34,0,2024-02-27T10:55:06.910Z,english_134.wav,0,peel,761,36,4,5,français,m,3,0.3,-77.33475241,1.95615398
610d671491693e4ff410860c,34,0,2024-02-27T10:55:06.910Z,english_134.wav,0,peel,761,36,4,5,français,m,4,0.32341667,85.6978336,1.72102519
610d671491693e4ff410860c,35,0,2024-02-27T10:55:06.910Z,english_260.wav,0,peel,299,36,4,5,français,m,0,0.0,-45.73422918,1.75247731
610d671491693e4ff410860c,35,0,2024-02-27T10:55:06.910Z,english_260.wav,0,peel,299,36,4,5,français,m,1,0.1,-23.757295,1.29821829
610d671491693e4ff410860c,35,0,2024-02-27T10:55:06.910Z,english_260.wav,0,peel,299,36,4,5,français,m,2,0.2,-1.17180464,0.50372963
610d671491693e4ff410860c,35,0,2024-02-27T10:55:06.910Z,english_260.wav,0,peel,299,36,4,5,français,m,3,0.3,42.98000529,1.19905143
610d671491693e4ff410860c,35,0,2024-02-27T10:55:06.910Z,english_260.wav,0,peel,299,36,4,5,français,m,4,0.32341667,7.49715463,0.66690199
610d671491693e4ff410860c,36,0,2024-02-27T10:55:06.910Z,english_152.wav,0,pill,413,36,4,5,français,m,0,0.0,-21.97873044,1.75752799
610d671491693e4ff410860c,36,0,2024-02-27T10:55:06.910Z,english_152.wav,0,pill,413,36,4,5,français,m,1,0.1,85.66675034,1.21467008
610d671491693e4ff410860c,36,0,2024-02-27T10:55:06.910Z,english_152.wav,0,pill,413,36,4,5,français,m,2,0.2,-66.57447909,0.82299352
610d671491693e4ff410860c,36,0,2024-02-27T10:55:06.910Z,english_152.wav,0,pill,413,36,4,5,français,m,3,0.3,-33.8772441,0.48869868
610d671491693e4ff410860c,36,0,2024-02-27T10:55:06.910Z,english_152.wav,0,pill,413,36,4,5,français,m,4,0.32341667,-46.50239179,0.31705885
610d671491693e4ff410860c,37,0,2024-02-27T10:55:06.910Z,english_539.wav,0,peel,191,36,4,5,français,m,0,0.0,-67.77604021,0.83598486
610d671491693e4ff410860c,37,0,2024-02-27T10:55:06.910Z,english_539.wav,0,peel,191,36,4,5,français,m,1,0.1,61.22104537,1.51877163
610d671491693e4ff410860c,37,0,2024-02-27T10:55:06.910Z,english_539.wav,0,peel,191,36,4,5,français,m,2,0.2,38.09257369,1.73578169
610d671491693e4ff410860c,37,0,2024-02-27T10:55:06.910Z,english_539.wav,0,peel,191,36,4,5,français,m,3,0.3,-20.76875757,0.52680037
610d671491693e4ff410860c,37,0,2024-02-27T10:55:06.910Z,english_539.wav,0,peel,191,36,4,5,français,m,4,0.32341667,-47.71444482,1.99278149
610d671491693e4ff410860c,38,0,2024-02-27T10:55:06.910Z,english_880.wav,0,pill,243,36,4,5,français,m,0,0.0,3.17154152,0.81183988
610d671491693e4ff410860c,38,0,2024-02-27T10:55:06.910Z,english_880.wav,0,pill,243,36,4,5,français,m,1,0.1,-74.02271749,1.44061269
610d671491693e4ff410860c,38,0,2024-02-27T10:55:06.910Z,english_880.wav,0,pill,243,36,4,5,français,m,2,0.2,46.15952764,0.42884863
610d671491693e4ff410860c,38,0,2024-02-27T10:55:06.910Z,english_880.wav,0,pill,243,36,4,5,français,m,3,0.3,4.14106927,1.93838261
610d671491693e4ff410860c,38,0,2024-02-27T10:55:06.910Z,english_880.wav,0,pill,243,36,4,5,français,m,4,0.32341667,26.36707366,1.4503687
610d671491693e4ff410860c,39,0,2024-02-27T10:55:06.910Z,english_47.wav,0,peel,545,36,4,5,français,m,0,0.0,70.62381491,1.36620222
610d671491693e4ff410860c,39,0,2024-02-27T10:55:06.910Z,english_47.wav,0,peel,545,36,4,5,français,m,1,0.1,-43.60565268,0.47559644
610d671491693e4ff410860c,39,0,2024-02-27T10:55:06.910Z,english_47.wav,0,peel,545,36,4,5,français,m,2,0.2,29.54670776,0.92078875
610d671491693e4ff410860c,39,0,2024-02-27T10:55:06.910Z,english_47.wav,0,peel,545,36,4,5,français,m,3,0.3,95.208653,0.83015506
610d671491693e4ff410860c,39,0,2024-02-27T10:55:06.910Z,english_47.wav,0,peel,545,36,4,5,français,m,4,0.32341667,-87.83630424,1.40747595
610d671491693e4ff410860c,40,0,2024-02-27T10:55:06.910Z,english_315.wav,0,pill,805,36,4,5,français,m,0,0.0,3.76150079,1.04293113
610d671491693e4ff410860c,40,0,2024-02-27T10:55:06.910Z,english_315.wav,0,pill,805,36,4,5,français,m,1,0.1,4.93204799,0.55537984
610d671491693e4ff410860c,40,0,2024-02-27T10:55:06.910Z,english_315.wav,0,pill,805,36,4,5,français,m,2,0.2,-81.53480532,1.13024782
610d671491693e4ff410860c,40,0,2024-02-27T10:55:06.910Z,english_315.wav,0,pill,805,36,4,5,français,m,3,0.3,45.94577355,1.06792043
610d671491693e4ff410860c,40,0,2024-02-27T10:55:06.910Z,english_315.wav,0,pill,805,36,4,5,français,m,4,0.32341667,-55.96194099,1.80369969
610d671491693e4ff410860c,41,0,2024-02-27T10:55:06.910Z,english_567.wav,0,pill,1230,36,4,5,français,m,0,0.0,26.28994663,0.43358591
610d671491693e4ff410860c,41,0,2024-02-27T10:55:06.910Z,english_567.wav,0,pill,1230,36,4,5,français,m,1,0.1,-84.76959918,0.96759171
610d671491693e4ff410860c,41,0,2024-02-27T10:55:06.910Z,english_567.wav,0,pill,1230,36,4,5,français,m,2,0.2,-17.21635209,0.27115372
610d671491693e4ff410860c,41,0,2024-02-27T10:55:06.910Z,english_567.wav,0,pill,1230,36,4,5,français,m,3,0.3,-93.28005251,1.2000135
610d671491693e4ff410860c,41,0,2024-02-27T10:55:06.910Z,english_567.wav,0,pill,1230,36,4,5,français,m,4,0.32341667,55.01605665,1.11881456
610d671491693e4ff410860c,42,0,2024-02-27T10:55:06.910Z,english_63.wav,0,peel,1118,36,4,5,français,m,0,0.0,-99.27532027,1.55063038
610d671491693e4ff410860c,42,0,2024-02-27T10:55:06.910Z,english_63.wav,0,peel,1118,36,4,5,français,m,1,0.1,76.75365344,0.78453917
610d671491693e4ff410860c,42,0,2024-02-27T10:55:06.910Z,english_63.wav,0,peel,1118,36,4,5,français,m,2,0.2,-4.19867406,1.54061689
610d671491693e4ff410860c,42,0,2024-02-27T10:55:06.910Z,english_63.wav,0,peel,1118,36,4,5,français,m,3,0.3,58.21469339,0.9417581
610d671491693e4ff410860c,42,0,2024-02-27T10:55:06.910Z,english_63.wav,0,peel,1118,36,4,5,français,m,4,0.32341667,-76.25580242,1.07689855
610d671491693e4ff410860c,43,0,2024-02-27T10:55:06.910Z,english_787.wav,0,peel,362,36,4,5,français,m,0,0.0,57.99353047,1.96251481
610d671491693e4ff410860c,43,0,2024-02-27T10:55:06.910Z,english_787.wav,0,peel,362,36,4,5,français,m,1,0.1,-40.79525362,0.94444479
610d671491693e4ff410860c,43,0,2024-02-27T10:55:06.910Z,english_787.wav,0,peel,362,36,4,5,français,m,2,0.2,23.78072576,0.924778
610d671491693e4ff410860c,43,0,2024-02-27T10:55:06.910Z,english_787.wav,0,peel,362,36,4,5,français,m,3,0.3,72.96982422,0.31383508
610d671491693e4ff410860c,43,0,2024-02-27T10:55:06.910Z,english_787.wav,0,peel,362,36,4,5,français,m,4,0.32341667,53.76957631,0.68947425
610d671491693e4ff410860c,44,0,2024-02-27T10:55:06.910Z,english_306.wav,0,peel,262,36,4,5,français,m,0,0.0,-78.46406697,1.96625377
610d671491693e4ff410860c,44,0,2024-02-27T10:55:06.910Z,english_306.wav,0,peel,262,36,4,5,français,m,1,0.1,-60.64765069,1.9128761
610d671491693e4ff410860c,44,0,2024-02-27T10:55:06.910Z,english_306.wav,0,peel,262,36,4,5,français,m,2,0.2,41.654101,0.92284414
610d671491693e4ff410860c,44,0,2024-02-27T10:55:06.910Z,english_306.wav,0,peel,262,36,4,5,français,m,3,0.3,58.45609749,1.12546267
610d671491693e4ff410860c,44,0,2024-02-27T10:55:06.910Z,english_306.wav,0,peel,262,36,4,5,français,m,4,0.32341667,-89.32145871,0.77622038
610d671491693e4ff410860c,45,0,2024-02-27T10:55:06.910Z,english_37.wav,0,pill,397,36,4,5,français,m,0,0.0,-5.54999706,1.12257854
610d671491693e4ff410860c,45,0,2024-02-27T10:55:06.910Z,english_37.wav,0,pill,397,36,4,5,français,m,1,0.1,23.22206304,1.8669628
610d671491693e4ff410860c,45,0,2024-02-27T10:55:06.910Z,english_37.wav,0,pill,397,36,4,5,français,m,2,0.2,-57.36481589,0.39386712
610d671491693e4ff410860c,45,0,2024-02-27T10:55:06.910Z,english_37.wav,0,pill,397,36,4,5,français,m,3,0.3,58.0578648,1.21765674
610d671491693e4ff410860c,45,0,2024-02-27T10:55:06.910Z,english_37.wav,0,pill,397,36,4,5,français,m,4,0.32341667,66.03280024,0.74428952
610d671491693e4ff410860c,46,0,2024-02-27T10:55:06.910Z,english_696.wav,0,peel,356,36,4,5,français,m,0,0.0,-48.45243871,0.15817179
610d671491693e4ff410860c,46,0,2024-02-27T10:55:06.910Z,english_696.wav,0,peel,356,36,4,5,français,m,1,0.1,82.41340646,0.69939178
610d671491693e4ff410860c,46,0,2024-02-27T10:55:06.910Z,english_696.wav,0,peel,356,36,4,5,français,m,2,0.2,-7.53339347,1.28466279
610d671491693e4ff410860c,46,0,2024-02-27T10:55:06.910Z,english_696.wav,0,peel,356,36,4,5,français,m,3,0.3,-30.87957178,1.90686052
610d671491693e4ff410860c,46,0,2024-02-27T10:55:06.910Z,english_696.wav,0,peel,356,36,4,5,français,m,4,0.32341667,75.39947922,0.63235415
610d671491693e4ff410860c,47,0,2024-02-27T10:55:06.910Z,english_399.wav,0,pill,993,36,4,5,français,m,0,0.0,77.00947727,0.99570417
610d671491693e4ff410860c,47,0,2024-02-27T10:55:06.910Z,english_399.wav,0,pill,993,36,4,5,français,m,1,0.1,68.68212777,1.08385584
610d671491693e4ff410860c,47,0,2024-02-27T10:55:06.910Z,english_399.wav,0,pill,993,36,4,5,français,m,2,0.2,29.89909441,0.2210854
610d671491693e4ff410860c,47,0,2024-02-27T10:55:06.910Z,english_399.wav,0,pill,993,36,4,5,français,m,3,0.3,-37.60275897,0.41623588
610d671491693e4ff410860c,47,0,2024-02-27T10:55:06.910Z,english_399.wav,0,pill,993,36,4,5,français,m,4,0.32341667,-61.49193386,0.38461981
610d671491693e4ff410860c,48,0,2024-02-27T10:55:06.910Z,english_840.wav,0,pill,1420,36,4,5,français,m,0,0.0,-27.11425843,1.31301797
610d671491693e4ff410860c,48,0,2024-02-27T10:55:06.910Z,english_840.wav,0,pill,1420,36,4,5,français,m,1,0.1,-47.31494811,0.54280133
610d671491693e4ff410860c,48,0,2024-02-27T10:55:06.910Z,english_840.wav,0,pill,1420,36,4,5,français,m,2,0.2,-88.66887426,0.14090987
610d671491693e4ff410860c,48,0,2024-02-27T10:55:06.910Z,english_840.wav,0,pill,1420,36,4,5,français,m,3,0.3,7.86940595,0.11950116
610d671491693e4ff410860c,48,0,2024-02-27T10:55:06.910Z,english_840.wav,0,pill,1420,36,4,5,français,m,4,0.32341667,87.61758205,1.48166624
610d671491693e4ff410860c,49,0,2024-02-27T10:55:06.910Z,english_728.wav,0,peel,424,36,4,5,français,m,0,0.0,-6.4565561,1.7247049
610d671491693e4ff410860c,49,0,2024-02-27T10:55:06.910Z,english_728.wav,0,peel,424,36,4,5,français,m,1,0.1,2.02882612,1.95158608
610d671491693e4ff410860c,49,0,2024-02-27T10:55:06.910Z,english_728.wav,0,peel,424,36,4,5,français,m,2,0.2,-40.29513079,0.21085377
610d671491693e4ff410860c,49,0,2024-02-27T10:55:06.910Z,english_728.wav,0,peel,424,36,4,5,français,m,3,0.3,-29.37287389,0.85434083
610d671491693e4ff410860c,49,0,2024-02-27T10:55:06.910Z,english_728.wav,0,peel,424,36,4,5,français,m,4,0.32341667,-32.17490136,1.52436666
610d671491693e4ff410860c,50,1,2024-02-27T10:55:06.910Z,english_428.wav,0,peel,319,36,4,5,français,m,0,0.0,-98.34466569,1.83106884
610d671491693e4ff410860c,50,1,2024-02-27T10:55:06.910Z,english_428.wav,0,peel,319,36,4,5,français,m,1,0.1,-10.51162175,1.34345266
610d671491693e4ff410860c,50,1,2024-02-27T10:55:06.910Z,english_428.wav,0,peel,319,36,4,5,français,m,2,0.2,97.93427859,0.65853672
610d671491693e4ff410860c,50,1,2024-02-27T10:55:06.910Z,english_428.wav,0,peel,319,36,4,5,français,m,3,0.3,35.61870537,1.28105878
610d671491693e4ff410860c,50,1,2024-02-27T10:55:06.910Z,english_428.wav,0,peel,319,36,4,5,français,m,4,0.32341667,-12.49352836,0.15324236
610d671491693e4ff410860c,51,1,2024-02-27T10:55:06.910Z,english_571.wav,0,peel,386,36,4,5,français,m,0,0.0,-42.92588422,0.65590276
610d671491693e4ff410860c,51,1,2024-02-27T10:55:06.910Z,english_571.wav,0,peel,386,36,4,5,français,m,1,0.1,-87.39276897,1.8306878
610d671491693e4ff410860c,51,1,2024-02-27T10:55:06.910Z,english_571.wav,0,peel,386,36,4,5,français,m,2,0.2,19.06282168,0.06889765
610d671491693e4ff410860c,51,1,2024-02-27T10:55:06.910Z,english_571.wav,0,peel,386,36,4,5,français,m,3,0.3,-99.30459792,0.29364209
610d671491693e4ff410860c,51,1,2024-02-27T10:55:06.910Z,english_571.wav,0,peel,386,36,4,5,français,m,4,0.32341667,41.25263337,1.388798
610d671491693e4ff410860c,52,1,2024-02-27T10:55:06.910Z,english_757.wav,0,peel,218,36,4,5,français,m,0,0.0,-71.37581006,0.57944866
610d671491693e4ff410860c,52,1,2024-02-27T10:55:06.910Z,english_757.wav,0,peel,218,36,4,5,français,m,1,0.1,-34.89028362,1.76833087
610d671491693e4ff410860c,52,1,2024-02-27T10:55:06.910Z,english_757.wav,0,peel,218,36,4,5,français,m,2,0.2,97.72444176,0.43040584
610d671491693e4ff410860c,52,1,2024-02-27T10:55:06.910Z,english_757.wav,0,peel,218,36,4,5,français,m,3,0.3,8.64322444,1.84780211
610d671491693e4ff410860c,52,1,2024-02-27T10:55:06.910Z,english_757.wav,0,peel,218,36,4,5,français,m,4,0.32341667,-59.15215987,0.21714226
610d671491693e4ff410860c,53,1,2024-02-27T10:55:06.910Z,english_960.wav,0,pill,522,36,4,5,français,m,0,0.0,35.80457434,0.79357899
610d671491693e4ff410860c,53,1,2024-02-27T10:55:06.910Z,english_960.wav,0,pill,522,36,4,5,français,m,1,0.1,-19.98469691,0.63900775
610d671491693e4ff410860c,53,1,2024-02-27T10:55:06.910Z,english_960.wav,0,pill,522,36,4,5,français,m,2,0.2,-8.88025322,1.83966222
610d671491693e4ff410860c,53,1,2024-02-27T10:55:06.910Z,english_960.wav,0,pill,522,36,4,5,français,m,3,0.3,6.59365348,1.05168668
610d671491693e4ff410860c,53,1,2024-02-27T10:55:06.910Z,english_960.wav,0,pill,522,36,4,5,français,m,4,0.32341667,64.0885905,1.66020449
610d671491693e4ff410860c,54,1,2024-02-27T10:55:06.910Z,english_413.wav,0,peel,299,36,4,5,français,m,0,0.0,-9.66675054,1.82887045
610d671491693e4ff410860c,54,1,2024-02-27T10:55:06.910Z,english_413.wav,0,peel,299,36,4,5,français,m,1,0.1,15.27504309,0.80668743
610d671491693e4ff410860c,54,1,2024-02-27T10:55:06.910Z,english_413.wav,0,peel,299,36,4,5,français,m,2,0.2,-94.93171401,0.90586838
610d671491693e4ff410860c,54,1,2024-02-27T10:55:06.910Z,english_413.wav,0,peel,299,36,4,5,français,m,3,0.3,-42.87800999,1.3937681
610d671491693e4ff410860c,54,1,2024-02-27T10:55:06.910Z,english_413.wav,0,peel,299,36,4,5,français,m,4,0.32341667,-63.39385234,0.34165264
610d671491693e4ff410860c,55,1,2024-02-27T10:55:06.910Z,english_532.wav,0,peel,658,36,4,5,français,m,0,0.0,-19.59321792,1.69826346
610d671491693e4ff410860c,55,1,2024-02-27T10:55:06.910Z,english_532.wav,0,peel,658,36,4,5,français,m,1,0.1,84.44945775,1.19849103
610d671491693e4ff410860c,55,1,2024-02-27T10:55:06.910Z,english_532.wav,0,peel,658,36,4,5,français,m,2,0.2,-5.6477907,0.05164805
610d671491693e4ff410860c,55,1,2024-02-27T10:55:06.910Z,english_532.wav,0,peel,658,36,4,5,français,m,3,0.3,-66.11375502,0.74129516
610d671491693e4ff410860c,55,1,2024-02-27T10:55:06.910Z,english_532.wav,0,peel,658,36,4,5,français,m,4,0.32341667,-46.16722618,0.11393119
610d671491693e4ff410860c,56,1,2024-02-27T10:55:06.910Z,english_90.wav,0,peel,377,36,4,5,français,m,0,0.0,82.68866707,0.54239523
610d671491693e4ff410860c,56,1,2024-02-27T10:55:06.910Z,english_90.wav,0,peel,377,36,4,5,français,m,1,0.1,-81.25370946,1.03335699
610d671491693e4ff410860c,56,1,2024-02-27T10:55:06.910Z,english_90.wav,0,peel,377,36,4,5,français,m,2,0.2,56.28719083,1.93576477
610d671491693e4ff410860c,56,1,2024-02-27T10:55:06.910Z,english_90.wav,0,peel,377,36,4,5,français,m,3,0.3,-46.43338119,0.74570916
610d671491693e4ff410860c,56,1,2024-02-27T10:55:06.910Z,english_90.wav,0,peel,377,36,4,5,français,m,4,0.32341667,-19.93520327,1.11115504
610d671491693e4ff410860c,57,1,2024-02-27T10:55:06.910Z,english_365.wav,0,peel,1280,36,4,5,français,m,0,0.0,58.11205919,0.53708026
610d671491693e4ff410860c,57,1,2024-02-27T10:55:06.910Z,english_365.wav,0,peel,1280,36,4,5,français,m,1,0.1,-61.04014877,1.10456153
610d671491693e4ff410860c,57,1,2024-02-27T10:55:06.910Z,english_365.wav,0,peel,1280,36,4,5,français,m,2,0.2,12.43042802,1.31731937
610d671491693e4ff410860c,57,1,2024-02-27T10:55:06.910Z,english_365.wav,0,peel,1280,36,4,5,français,m,3,0.3,17.00746388,1.02387946
610d671491693e4ff410860c,57,1,2024-02-27T10:55:06.910Z,english_365.wav,0,peel,1280,36,4,5,français,m,4,0.32341667,-69.10644956,1.31633463
610d671491693e4ff410860c,58,1,2024-02-27T10:55:06.910Z,english_475.wav,0,pill,948,36,4,5,français,m,0,0.0,-68.25626322,0.40988158
610d671491693e4ff410860c,58,1,2024-02-27T10:55:06.910Z,english_475.wav,0,pill,948,36,4,5,français,m,1,0.1,-56.46648788,1.90107213
610d671491693e4ff410860c,58,1,2024-02-27T10:55:06.910Z,english_475.wav,0,pill,948,36,4,5,français,m,2,0.2,49.77560279,0.54721615
610d671491693e4ff410860c,58,1,2024-02-27T10:55:06.910Z,english_475.wav,0,pill,948,36,4,5,français,m,3,0.3,-41.74178488,1.80730726
610d671491693e4ff410860c,58,1,2024-02-27T10:55:06.910Z,english_475.wav,0,pill,948,36,4,5,français,m,4,0.32341667,-60.3255454,0.11427958
610d671491693e4ff410860c,59,1,2024-02-27T10:55:06.910Z,english_451.wav,0,peel,551,36,4,5,français,m,0,0.0,-87.31297583,0.44823779
610d671491693e4ff410860c,59,1,2024-02-27T10:55:06.910Z,english_451.wav,0,peel,551,36,4,5,français,m,1,0.1,-44.51362963,0.44678563
610d671491693e4ff410860c,59,1,2024-02-27T10:55:06.910Z,english_451.wav,0,peel,551,36,4,5,français,m,2,0.2,-15.52945473,1.69444841
610d671491693e4ff410860c,59,1,2024-02-27T10:55:06.910Z,english_451.wav,0,peel,551,36,4,5,français,m,3,0.3,11.70886435,0.18586344
610d671491693e4ff410860c,59,1,2024-02-27T10:55:06.910Z,english_451.wav,0,peel,551,36,4,5,français,m,4,0.32341667,82.84342256,0.9677256
610d671491693e4ff410860c,60,1,2024-02-27T10:55:06.910Z,english_205.wav,0,peel,558,36,4,5,français,m,0,0.0,55.03693902,1.41699591
610d671491693e4ff410860c,60,1,2024-02-27T10:55:06.910Z,english_205.wav,0,peel,558,36,4,5,français,m,1,0.1,59.05347117,0.25749205
610d671491693e4ff410860c,60,1,2024-02-27T10:55:06.910Z,english_205.wav,0,peel,558,36,4,5,français,m,2,0.2,-51.93258482,1.78695407
610d671491693e4ff410860c,60,1,2024-02-27T10:55:06.910Z,english_205.wav,0,peel,558,36,4,5,français,m,3,0.3,-18.66886592,0.11157042
610d671491693e4ff410860c,60,1,2024-02-27T10:55:06.910Z,english_205.wav,0,peel,558,36,4,5,français,m,4,0.32341667,-25.16213195,1.74030417
610d671491693e4ff410860c,61,1,2024-02-27T10:55:06.910Z,english_251.wav,0,peel,455,36,4,5,français,m,0,0.0,-35.26640223,1.59441442
610d671491693e4ff410860c,61,1,2024-02-27T10:55:06.910Z,english_251.wav,0,peel,455,36,4,5,français,m,1,0.1,-82.14936791,1.21410308
610d671491693e4ff410860c,61,1,2024-02-27T10:55:06.910Z,english_251.wav,0,peel,455,36,4,5,français,m,2,0.2,39.53587687,0.89125894
610d671491693e4ff410860c,61,1,2024-02-27T10:55:06.910Z,english_251.wav,0,peel,455,36,4,5,français,m,3,0.3,-75.44024907,0.14763688
610d671491693e4ff410860c,61,1,2024-02-27T10:55:06.910Z,english_251.wav,0,peel,455,36,4,5,français,m,4,0.32341667,26.94148116,1.71797298
610d671491693e4ff410860c,62,1,2024-02-27T10:55:06.910Z,english_931.wav,0,peel,718,36,4,5,français,m,0,0.0,-78.99767873,0.72988395
610d671491693e4ff410860c,62,1,2024-02-27T10:55:06.910Z,english_931.wav,0,peel,718,36,4,5,français,m,1,0.1,-34.67093685,1.40858855
610d671491693e4ff410860c,62,1,2024-02-27T10:55:06.910Z,english_931.wav,0,peel,718,36,4,5,français,m,2,0.2,2.25144273,1.82787629
610d671491693e4ff410860c,62,1,2024-02-27T10:55:06.910Z,english_931.wav,0,peel,718,36,4,5,français,m,3,0.3,-93.87287365,1.51045502
610d671491693e4ff410860c,62,1,2024-02-27T10:55:06.910Z,english_931.wav,0,peel,718,36,4,5,français,m,4,0.32341667,57.8562517,1.42241625
610d671491693e4ff410860c,63,1,2024-02-27T10:55:06.910Z,english_622.wav,0,peel,523,36,4,5,français,m,0,0.0,-46.49267806,1.425187
610d671491693e4ff410860c,63,1,2024-02-27T10:55:06.910Z,english_622.wav,0,peel,523,36,4,5,français,m,1,0.1,-80.07623079,0.61910367
610d671491693e4ff410860c,63,1,2024-02-27T10:55:06.910Z,english_622.wav,0,peel,523,36,4,5,français,m,2,0.2,-28.70131311,1.30297951
610d671491693e4ff410860c,63,1,2024-02-27T10:55:06.910Z,english_622.wav,0,peel,523,36,4,5,français,m,3,0.3,-26.89352847,1.73248838
610d671491693e4ff410860c,63,1,2024-02-27T10:55:06.910Z,english_622.wav,0,peel,523,36,4,5,français,m,4,0.32341667,-24.31243398,0.85523545
610d671491693e4ff410860c,64,1,2024-02-27T10:55:06.910Z,english_89.wav,0,pill,382,36,4,5,français,m,0,0.0,-42.28936571,1.68633095
610d671491693e4ff410860c,64,1,2024-02-27T10:55:06.910Z,english_89.wav,0,pill,382,36,4,5,français,m,1,0.1,12.96738115,0.49078122
610d671491693e4ff410860c,64,1,2024-02-27T10:55:06.910Z,english_89.wav,0,pill,382,36,4,5,français,m,2,0.2,-0.92476461,0.75584791
610d671491693e4ff410860c,64,1,2024-02-27T10:55:06.910Z,english_89.wav,0,pill,382,36,4,5,français,m,3,0.3,54.46155283,1.37155139
610d671491693e4ff410860c,64,1,2024-02-27T10:55:06.910Z,english_89.wav,0,pill,382,36,4,5,français,m,4,0.32341667,-5.27724964,0.6613642
610d671491693e4ff410860c,65,1,2024-02-27T10:55:06.910Z,english_658.wav,0,peel,410,36,4,5,français,m,0,0.0,-80.21976745,0.49170119
610d671491693e4ff410860c,65,1,2024-02-27T10:55:06.910Z,english_658.wav,0,peel,410,36,4,5,français,m,1,0.1,11.23314836,0.6994793
610d671491693e4ff410860c,65,1,2024-02-27T10:55:06.910Z,english_658.wav,0,peel,410,36,4,5,français,m,2,0.2,8.94946791,1.18458539
610d671491693e4ff410860c,65,1,2024-02-27T10:55:06.910Z,english_658.wav,0,peel,410,36,4,5,français,m,3,0.3,17.22411688,0.7091276
610d671491693e4ff410860c,65,1,2024-02-27T10:55:06.910Z,english_658.wav,0,peel,410,36,4,5,français,m,4,0.32341667,10.67081381,1.7453453
610d671491693e4ff410860c,66,1,2024-02-27T10:55:06.910Z,english_908.wav,0,peel,700,36,4,5,français,m,0,0.0,48.62867987,1.27180628
610d671491693e4ff410860c,66,1,2024-02-27T10:55:06.910Z,english_908.wav,0,peel,700,36,4,5,français,m,1,0.1,15.18588807,0.65893562
610d671491693e4ff410860c,66,1,2024-02-27T10:55:06.910Z,english_908.wav,0,peel,700,36,4,5,français,m,2,0.2,-42.37345339,1.07678682
610d671491693e4ff410860c,66,1,2024-02-27T10:55:06.910Z,english_908.wav,0,peel,700,36,4,5,français,m,3,0.3,10.74033392,1.66111239
610d671491693e4ff410860c,66,1,2024-02-27T10:55:06.910Z,english_908.wav,0,peel,700,36,4,5,français,m,4,0.32341667,-40.14378972,0.30218678
610d671491693e4ff410860c,67,1,2024-02-27T10:55:06.910Z,english_172.wav,0,peel,747,36,4,5,français,m,0,0.0,8.59493981,0.93080222
610d671491693e4ff410860c,67,1,2024-02-27T10:55:06.910Z,english_172.wav,0,peel,747,36,4,5,français,m,1,0.1,-56.34346079,0.53387901
610d671491693e4ff410860c,67,1,2024-02-27T10:55:06.910Z,english_172.wav,0,peel,747,36,4,5,français,m,2,0.2,-95.76423912,0.34406097
610d671491693e4ff410860c,67,1,2024-02-27T10:55:06.910Z,english_172.wav,0,peel,747,36,4,5,français,m,3,0.3,11.69646411,0.74935371
610d671491693e4ff410860c,67,1,2024-02-27T10:55:06.910Z,english_172.wav,0,peel,747,36,4,5,français,m,4,0.32341667,-55.10661496,0.42041327
610d671491693e4ff410860c,68,1,2024-02-27T10:55:06.910Z,english_437.wav,0,pill,1432,36,4,5,français,m,0,0.0,61.91803223,0.36516876
610d671491693e4ff410860c,68,1,2024-02-27T10:55:06.910Z,english_437.wav,0,pill,1432,36,4,5,français,m,1,0.1,0.99543568,0.43500315
610d671491693e4ff410860c,68,1,2024-02-27T10:55:06.910Z,english_437.wav,0,pill,1432,36,4,5,français,m,2,0.2,-50.96874522,1.25398366
610d671491693e4ff410860c,68,1,2024-02-27T10:55:06.910Z,english_437.wav,0,pill,1432,36,4,5,français,m,3,0.3,-47.73319396,0.60570222
610d671491693e4ff410860c,68,1,2024-02-27T10:55:06.910Z,english_437.wav,0,pill,1432,36,4,5,français,m,4,0.32341667,15.35939938,0.97208355
610d671491693e4ff410860c,69,1,2024-02-27T10:55:06.910Z,english_632.wav,0,peel,330,36,4,5,français,m,0,0.0,-56.22391322,1.21249895
610d671491693e4ff410860c,69,1,2024-02-27T10:55:06.910Z,english_632.wav,0,peel,330,36,4,5,français,m,1,0.1,-47.59423942,0.39515719
610d671491693e4ff410860c,69,1,2024-02-27T10:55:06.910Z,english_632.wav,0,peel,330,36,4,5,français,m,2,0.2,91.93727259,1.8528852
610d671491693e4ff410860c,69,1,2024-02-27T10:55:06.910Z,english_632.wav,0,peel,330,36,4,5,français,m,3,0.3,-33.89646621,1.67254104
610d671491693e4ff410860c,69,1,2024-02-27T10:55:06.910Z,english_632.wav,0,peel,330,36,4,5,français,m,4,0.32341667,46.88387871,1.21014685
610d671491693e4ff410860c,70,1,2024-02-27T10:55:06.910Z,english_741.wav,0,peel,612,36,4,5,français,m,0,0.0,-74.62614727,1.92216761
610d671491693e4ff410860c,70,1,2024-02-27T10:55:06.910Z,english_741.wav,0,peel,612,36,4,5,français,m,1,0.1,33.834367,1.50741835
610d671491693e4ff410860c,70,1,2024-02-27T10:55:06.910Z,english_741.wav,0,peel,612,36,4,5,français,m,2,0.2,-60.21329901,0.74273648
610d671491693e4ff410860c,70,1,2024-02-27T10:55:06.910Z,english_741.wav,0,peel,612,36,4,5,français,m,3,0.3,-95.39639135,0.98175705
610d671491693e4ff410860c,70,1,2024-02-27T10:55:06.910Z,english_741.wav,0,peel,612,36,4,5,français,m,4,0.32341667,3.10560698,0.9878567
610d671491693e4ff410860c,71,1,2024-02-27T10:55:06.910Z,english_989.wav,0,peel,419,36,4,5,français,m,0,0.0,-51.1051603,1.00035195
610d671491693e4ff410860c,71,1,2024-02-27T10:55:06.910Z,english_989.wav,0,peel,419,36,4,5,français,m,1,0.1,-91.26717948,0.46124463
610d671491693e4ff410860c,71,1,2024-02-27T10:55:06.910Z,english_989.wav,0,peel,419,36,4,5,français,m,2,0.2,73.5145218,0.77735517
610d671491693e4ff410860c,71,1,2024-02-27T10:55:06.910Z,english_989.wav,0,peel,419,36,4,5,français,m,3,0.3,54.43703181,1.21549894
610d671491693e4ff410860c,71,1,2024-02-27T10:55:06.910Z,english_989.wav,0,peel,419,36,4,5,français,m,4,0.32341667,-36.95823638,0.33045291
610d671491693e4ff410860c,72,1,2024-02-27T10:55:06.910Z,english_15.wav,0,pill,537,36,4,5,français,m,0,0.0,-84.2209614,0.31323186
610d671491693e4ff410860c,72,1,2024-02-27T10:55:06.910Z,english_15.wav,0,pill,537,36,4,5,français,m,1,0.1,62.09656714,0.60538609
610d671491693e4ff410860c,72,1,2024-02-27T10:55:06.910Z,english_15.wav,0,pill,537,36,4,5,français,m,2,0.2,55.13992629,0.21165259
610d671491693e4ff410860c,72,1,2024-02-27T10:55:06.910Z,english_15.wav,0,pill,537,36,4,5,français,m,3,0.3,-55.71077558,0.62501131
610d671491693e4ff410860c,72,1,2024-02-27T10:55:06.910Z,english_15.wav,0,pill,537,36,4,5,français,m,4,0.32341667,77.6678018,0.97290752
610d671491693e4ff410860c,73,1,2024-02-27T10:55:06.910Z,english_257.wav,0,peel,320,36,4,5,français,m,0,0.0,-68.31428674,1.40239735
610d671491693e4ff410860c,73,1,2024-02-27T10:55:06.910Z,english_257.wav,0,peel,320,36,4,5,français,m,1,0.1,-13.90908686,1.49673114
610d671491693e4ff410860c,73,1,2024-02-27T10:55:06.910Z,english_257.wav,0,peel,320,36,4,5,français,m,2,0.2,54.08743226,1.07658057
610d671491693e4ff410860c,73,1,2024-02-27T10:55:06.910Z,english_257.wav,0,peel,320,36,4,5,français,m,3,0.3,-42.73693867,0.27427112
610d671491693e4ff410860c,73,1,2024-02-27T10:55:06.910Z,english_257.wav,0,peel,320,36,4,5,français,m,4,0.32341667,-1.03846516,1.90516482
610d671491693e4ff410860c,74,1,2024-02-27T10:55:06.910Z,english_209.wav,0,peel,426,36,4,5,français,m,0,0.0,14.15361396,1.44232267
610d671491693e4ff410860c,74,1,2024-02-27T10:55:06.910Z,english_209.wav,0,peel,426,36,4,5,français,m,1,0.1,85.95109622,1.49291498
610d671491693e4ff410860c,74,1,2024-02-27T10:55:06.910Z,english_209.wav,0,peel,426,36,4,5,français,m,2,0.2,18.04804687,1.19611731
610d671491693e4ff410860c,74,1,2024-02-27T10:55:06.910Z,english_209.wav,0,peel,426,36,4,5,français,m,3,0.3,28.2522976,1.49647535
610d671491693e4ff410860c,74,1,2024-02-27T10:55:06.910Z,english_209.wav,0,peel,426,36,4,5,français,m,4,0.32341667,5.36776296,0.30324849
610d671491693e4ff410860c,75,1,2024-02-27T10:55:06.910Z,english_742.wav,0,pill,400,36,4,5,français,m,0,0.0,12.62363586,1.26368295
610d671491693e4ff410860c,75,1,2024-02-27T10:55:06.910Z,english_742.wav,0,pill,400,36,4,5,français,m,1,0.1,23.02085171,0.7448394
610d671491693e4ff410860c,75,1,2024-02-27T10:55:06.910Z,english_742.wav,0,pill,400,36,4,5,français,m,2,0.2,23.36423086,0.05261082
610d671491693e4ff410860c,75,1,2024-02-27T10:55:06.910Z,english_742.wav,0,pill,400,36,4,5,français,m,3,0.3,97.70614946,1.01748925
610d671491693e4ff410860c,75,1,2024-02-27T10:55:06.910Z,english_742.wav,0,pill,400,36,4,5,français,m,4,0.32341667,-25.72861775,0.88645775
610d671491693e4ff410860c,76,1,2024-02-27T10:55:06.910Z,english_796.wav,0,pill,821,36,4,5,français,m,0,0.0,57.52331511,0.93419081
610d671491693e4ff410860c,76,1,2024-02-27T10:55:06.910Z,english_796.wav,0,pill,821,36,4,5,français,m,1,0.1,-53.71774571,0.77950231
610d671491693e4ff410860c,76,1,2024-02-27T10:55:06.910Z,english_796.wav,0,pill,821,36,4,5,français,m,2,0.2,-36.09214461,0.54947466
610d671491693e4ff410860c,76,1,2024-02-27T10:55:06.910Z,english_796.wav,0,pill,821,36,4,5,français,m,3,0.3,23.21783142,1.69054841
610d671491693e4ff410860c,76,1,2024-02-27T10:55:06.910Z,english_796.wav,0,pill,821,36,4,5,français,m,4,0.32341667,-74.52171885,0.76047802
610d671491693e4ff410860c,77,1,2024-02-27T10:55:06.910Z,english_991.wav,0,peel,379,36,4,5,français,m,0,0.0,-73.33762004,0.7279734
610d671491693e4ff410860c,77,1,2024-02-27T10:55:06.910Z,english_991.wav,0,peel,379,36,4,5,français,m,1,0.1,-90.08677455,0.374322
610d671491693e4ff410860c,77,1,2024-02-27T10:55:06.910Z,english_991.wav,0,peel,379,36,4,5,français,m,2,0.2,-98.84294029,0.98894361
610d671491693e4ff410860c,77,1,2024-02-27T10:55:06.910Z,english_991.wav,0,peel,379,36,4,5,français,m,3,0.3,59.84972986,1.07774369
610d671491693e4ff410860c,77,1,2024-02-27T10:55:06.910Z,english_991.wav,0,peel,379,36,4,5,français,m,4,0.32341667,21.03568625,0.51480923
610d671491693e4ff410860c,78,1,2024-02-27T10:55:06.910Z,english_221.wav,0,peel,426,36,4,5,français,m,0,0.0,85.84184869,1.38100565
610d671491693e4ff410860c,78,1,2024-02-27T10:55:06.910Z,english_221.wav,0,peel,426,36,4,5,français,m,1,0.1,-20.37513589,0.79531516
610d671491693e4ff410860c,78,1,2024-02-27T10:55:06.910Z,english_221.wav,0,peel,426,36,4,5,français,m,2,0.2,-89.75984637,0.9538446
610d671491693e4ff410860c,78,1,2024-02-27T10:55:06.910Z,english_221.wav,0,peel,426,36,4,5,français,m,3,0.3,50.66879934,1.56492426
610d671491693e4ff410860c,78,1,2024-02-27T10:55:06.910Z,english_221.wav,0,peel,426,36,4,5,français,m,4,0.32341667,20.92538743,1.60855456
610d671491693e4ff410860c,79,1,2024-02-27T10:55:06.910Z,english_367.wav,0,peel,429,36,4,5,français,m,0,0.0,69.68935346,1.12532443
610d671491693e4ff410860c,79,1,2024-02-27T10:55:06.910Z,english_367.wav,0,peel,429,36,4,5,français,m,1,0.1,-21.84293244,1.15903886
610d671491693e4ff410860c,79,1,2024-02-27T10:55:06.910Z,english_367.wav,0,peel,429,36,4,5,français,m,2,0.2,-22.40126322,1.68834661
610d671491693e4ff410860c,79,1,2024-02-27T10:55:06.910Z,english_367.wav,0,peel,429,36,4,5,français,m,3,0.3,-77.83415675,1.78966274
610d671491693e4ff410860c,79,1,2024-02-27T10:55:06.910Z,english_367.wav,0,peel,429,36,4,5,français,m,4,0.32341667,18.42522507,1.57311162
610d671491693e4ff410860c,80,1,2024-02-27T10:55:06.910Z,english_6.wav,0,pill,444,36,4,5,français,m,0,0.0,-8.2116192,1.24832701
610d671491693e4ff410860c,80,1,2024-02-27T10:55:06.910Z,english_6.wav,0,pill,444,36,4,5,français,m,1,0.1,-28.50933877,0.74984456
610d671491693e4ff410860c,80,1,2024-02-27T10:55:06.910Z,english_6.wav,0,pill,444,36,4,5,français,m,2,0.2,-90.20174912,1.37568362
610d671491693e4ff410860c,80,1,2024-02-27T10:55:06.910Z,english_6.wav,0,pill,444,36,4,5,français,m,3,0.3,-7.18062469,0.47637706
610d671491693e4ff410860c,80,1,2024-02-27T10:55:06.910Z,english_6.wav,0,pill,444,36,4,5,français,m,4,0.32341667,-36.83558467,0.68255954
610d671491693e4ff410860c,81,1,2024-02-27T10:55:06.910Z,english_400.wav,0,peel,267,36,4,5,français,m,0,0.0,-9.17924521,1.06898792
610d671491693e4ff410860c,81,1,2024-02-27T10:55:06.910Z,english_400.wav,0,peel,267,36,4,5,français,m,1,0.1,-51.0410118,0.05890524
610d671491693e4ff410860c,81,1,2024-02-27T10:55:06.910Z,english_400.wav,0,peel,267,36,4,5,français,m,2,0.2,66.2548805,1.54728483
610d671491693e4ff410860c,81,1,2024-02-27T10:55:06.910Z,english_400.wav,0,peel,267,36,4,5,français,m,3,0.3,92.33374018,1.43953162
610d671491693e4ff410860c,81,1,2024-02-27T10:55:06.910Z,english_400.wav,0,peel,267,36,4,5,français,m,4,0.32341667,-60.80730989,1.12546459
610d671491693e4ff410860c,82,1,2024-02-27T10:55:06.910Z,english_438.wav,0,pill,563,36,4,5,français,m,0,0.0,31.75305261,1.38451981
610d671491693e4ff410860c,82,1,2024-02-27T10:55:06.910Z,english_438.wav,0,pill,563,36,4,5,français,m,1,0.1,20.27112767,1.99020027
610d671491693e4ff410860c,82,1,2024-02-27T10:55:06.910Z,english_438.wav,0,pill,563,36,4,5,français,m,2,0.2,66.65258945,0.15645945
610d671491693e4ff410860c,82,1,2024-02-27T10:55:06.910Z,english_438.wav,0,pill,563,36,4,5,français,m,3,0.3,70.72003494,1.37678514
610d671491693e4ff410860c,82,1,2024-02-27T10:55:06.910Z,english_438.wav,0,pill,563,36,4,5,français,m,4,0.32341667,59.11013505,0.82730153
610d671491693e4ff410860c,83,1,2024-02-27T10:55:06.910Z,english_197.wav,0,pill,644,36,4,5,français,m,0,0.0,-60.72223742,1.8449777
610d671491693e4ff410860c,83,1,2024-02-27T10:55:06.910Z,english_197.wav,0,pill,644,36,4,5,français,m,1,0.1,-88.93421142,1.74693134
610d671491693e4ff410860c,83,1,2024-02-27T10:55:06.910Z,english_197.wav,0,pill,644,36,4,5,français,m,2,0.2,51.43827126,1.11057597
610d671491693e4ff410860c,83,1,2024-02-27T10:55:06.910Z,english_197.wav,0,pill,644,36,4,5,français,m,3,0.3,7.80125839,1.67371275
610d671491693e4ff410860c,83,1,2024-02-27T10:55:06.910Z,english_197.wav,0,pill,644,36,4,5,français,m,4,0.32341667,-53.06876459,1.16077516
610d671491693e4ff410860c,84,1,2024-02-27T10:55:06.910Z,english_131.wav,0,pill,527,36,4,5,français,m,0,0.0,-90.65248477,1.67513221
610d671491693e4ff410860c,84,1,2024-02-27T10:55:06.910Z,english_131.wav,0,pill,527,36,4,5,français,m,1,0.1,7.0988446,1.62916956
610d671491693e4ff410860c,84,1,2024-02-27T10:55:06.910Z,english_131.wav,0,pill,527,36,4,5,français,m,2,0.2,-30.94637352,1.4017665
610d671491693e4ff410860c,84,1,2024-02-27T10:55:06.910Z,english_131.wav,0,pill,527,36,4,5,français,m,3,0.3,-31.86179524,1.07276153
610d671491693e4ff410860c,84,1,2024-02-27T10:55:06.910Z,english_131.wav,0,pill,527,36,4,5,français,m,4,0.32341667,1.85809033,1.80109071
610d671491693e4ff410860c,85,1,2024-02-27T10:55:06.910Z,english_932.wav,0,peel,661,36,4,5,français,m,0,0.0,-3.8848098,1.00949787
610d671491693e4ff410860c,85,1,2024-02-27T10:55:06.910Z,english_932.wav,0,peel,661,36,4,5,français,m,1,0.1,-32.48916274,1.44703087
610d671491693e4ff410860c,85,1,2024-02-27T10:55:06.910Z,english_932.wav,0,peel,661,36,4,5,français,m,2,0.2,81.26251807,0.10808594
610d671491693e4ff410860c,85,1,2024-02-27T10:55:06.910Z,english_932.wav,0,peel,661,36,4,5,français,m,3,0.3,-18.23478105,0.03465182
610d671491693e4ff410860c,85,1,2024-02-27T10:55:06.910Z,english_932.wav,0,peel,661,36,4,5,français,m,4,0.32341667,7.90132089,0.79845554
610d671491693e4ff410860c,86,1,2024-02-27T10:55:06.910Z,english_979.wav,0,pill,383,36,4,5,français,m,0,0.0,-1.00654814,1.61411081
610d671491693e4ff410860c,86,1,2024-02-27T10:55:06.910Z,english_979.wav,0,pill,383,36,4,5,français,m,1,0.1,18.39835707,1.30464512
610d671491693e4ff410860c,86,1,2024-02-27T10:55:06.910Z,english_979.wav,0,pill,383,36,4,5,français,m,2,0.2,-42.91789413,0.93120215
610d671491693e4ff410860c,86,1,2024-02-27T10:55:06.910Z,english_979.wav,0,pill,383,36,4,5,français,m,3,0.3,-58.29527223,0.87145212
610d671491693e4ff410860c,86,1,2024-02-27T10:55:06.910Z,english_979.wav,0,pill,383,36,4,5,français,m,4,0.32341667,86.14740424,1.17332389
610d671491693e4ff410860c,87,1,2024-02-27T10:55:06.910Z,english_999.wav,0,peel,360,36,4,5,français,m,0,0.0,-43.88463807,1.5561212
610d671491693e4ff410860c,87,1,2024-02-27T10:55:06.910Z,english_999.wav,0,peel,360,36,4,5,français,m,1,0.1,-19.69329198,1.76032244
610d671491693e4ff410860c,87,1,2024-02-27T10:55:06.910Z,english_999.wav,0,peel,360,36,4,5,français,m,2,0.2,-16.47401585,0.67323911
610d671491693e4ff410860c,87,1,2024-02-27T10:55:06.910Z,english_999.wav,0,peel,360,36,4,5,français,m,3,0.3,-27.91485083,0.0725875
610d671491693e4ff410860c,87,1,2024-02-27T10:55:06.910Z,english_999.wav,0,peel,360,36,4,5,français,m,4,0.32341667,-38.65265262,0.89314247
610d671491693e4ff410860c,88,1,2024-02-27T10:55:06.910Z,english_187.wav,0,peel,919,36,4,5,français,m,0,0.0,-18.35695568,0.61755768
610d671491693e4ff410860c,88,1,2024-02-27T10:55:06.910Z,english_187.wav,0,peel,919,36,4,5,français,m,1,0.1,10.21632188,1.6626445
610d671491693e4ff410860c,88,1,2024-02-27T10:55:06.910Z,english_187.wav,0,peel,919,36,4,5,français,m,2,0.2,0.69047377,0.70950015
610d671491693e4ff410860c,88,1,2024-02-27T10:55:06.910Z,english_187.wav,0,peel,919,36,4,5,français,m,3,0.3,67.68385624,0.8856252
610d671491693e4ff410860c,88,1,2024-02-27T10:55:06.910Z,english_187.wav,0,peel,919,36,4,5,français,m,4,0.32341667,48.15291114,1.92627472
610d671491693e4ff410860c,89,1,2024-02-27T10:55:06.910Z,english_711.wav,0,peel,319,36,4,5,français,m,0,0.0,40.88671478,0.99029016
610d671491693e4ff410860c,89,1,2024-02-27T10:55:06.910Z,english_711.wav,0,peel,319,36,4,5,français,m,1,0.1,9.07407961,0.54320223
610d671491693e4ff410860c,89,1,2024-02-27T10:55:06.910Z,english_711.wav,0,peel,319,36,4,5,français,m,2,0.2,-23.01321115,1.60107
610d671491693e4ff410860c,89,1,2024-02-27T10:55:06.910Z,english_711.wav,0,peel,319,36,4,5,français,m,3,0.3,-10.85681813,1.574764
610d671491693e4ff410860c,89,1,2024-02-27T10:55:06.910Z,english_711.wav,0,peel,319,36,4,5,français,m,4,0.32341667,87.87195083,1.34863725
610d671491693e4ff410860c,90,1,2024-02-27T10:55:06.910Z,english_314.wav,0,pill,405,36,4,5,français,m,0,0.0,-64.95449137,1.33019215
610d671491693e4ff410860c,90,1,2024-02-27T10:55:06.910Z,english_314.wav,0,pill,405,36,4,5,français,m,1,0.1,41.76232806,0.95010379
610d671491693e4ff410860c,90,1,2024-02-27T10:55:06.910Z,english_314.wav,0,pill,405,36,4,5,français,m,2,0.2,68.0199099,0.0418164
610d671491693e4ff410860c,90,1,2024-02-27T10:55:06.910Z,english_314.wav,0,pill,405,36,4,5,français,m,3,0.3,-18.86846342,0.3847457
610d671491693e4ff410860c,90,1,2024-02-27T10:55:06.910Z,english_314.wav,0,pill,405,36,4,5,français,m,4,0.32341667,-2.58545886,1.31154336
610d671491693e4ff410860c,91,1,2024-02-27T10:55:06.910Z,english_61.wav,0,pill,433,36,4,5,français,m,0,0.0,-58.73450167,1.5196582
610d671491693e4ff410860c,91,1,2024-02-27T10:55:06.910Z,english_61.wav,0,pill,433,36,4,5,français,m,1,0.1,-68.77732169,0.79346499
610d671491693e4ff410860c,91,1,2024-02-27T10:55:06.910Z,english_61.wav,0,pill,433,36,4,5,français,m,2,0.2,-61.07430116,0.90548432
610d671491693e4ff410860c,91,1,2024-02-27T10:55:06.910Z,english_61.wav,0,pill,433,36,4,5,français,m,3,0.3,-87.12791991,1.71431728
610d671491693e4ff410860c,91,1,2024-02-27T10:55:06.910Z,english_61.wav,0,pill,433,36,4,5,français,m,4,0.32341667,47.32358741,0.57778581
610d671491693e4ff410860c,92,1,2024-02-27T10:55:06.910Z,english_693.wav,0,peel,1104,36,4,5,français,m,0,0.0,-83.71635172,0.35753224
610d671491693e4ff410860c,92,1,2024-02-27T10:55:06.910Z,english_693.wav,0,peel,1104,36,4,5,français,m,1,0.1,32.46406691,1.09553371
610d671491693e4ff410860c,92,1,2024-02-27T10:55:06.910Z,english_693.wav,0,peel,1104,36,4,5,français,m,2,0.2,8.27548994,1.67166692
610d671491693e4ff410860c,92,1,2024-02-27T10:55:06.910Z,english_693.wav,0,peel,1104,36,4,5,français,m,3,0.3,15.80660539,1.61413862
610d671491693e4ff410860c,92,1,2024-02-27T10:55:06.910Z,english_693.wav,0,peel,1104,36,4,5,français,m,4,0.32341667,74.32681132,1.90943184
610d671491693e4ff410860c,93,1,2024-02-27T10:55:06.910Z,english_139.wav,0,peel,362,36,4,5,français,m,0,0.0,55.35526281,1.40478417
610d671491693e4ff410860c,93,1,2024-02-27T10:55:06.910Z,english_139.wav,0,peel,362,36,4,5,français,m,1,0.1,-66.48550036,1.12007301
610d671491693e4ff410860c,93,1,2024-02-27T10:55:06.910Z,english_139.wav,0,peel,362,36,4,5,français,m,2,0.2,21.45340352,1.58559909
610d671491693e4ff410860c,93,1,2024-02-27T10:55:06.910Z,english_139.wav,0,peel,362,36,4,5,français,m,3,0.3,-32.80413748,1.13081383
610d671491693e4ff410860c,93,1,2024-02-27T10:55:06.910Z,english_139.wav,0,peel,362,36,4,5,français,m,4,0.32341667,-77.32206638,0.38560717
610d671491693e4ff410860c,94,1,2024-02-27T10:55:06.910Z,english_714.wav,0,pill,469,36,4,5,français,m,0,0.0,6.62463448,0.98205871
610d671491693e4ff410860c,94,1,2024-02-27T10:55:06.910Z,english_714.wav,0,pill,469,36,4,5,français,m,1,0.1,-7.37775178,1.90018259
610d671491693e4ff410860c,94,1,2024-02-27T10:55:06.910Z,english_714.wav,0,pill,469,36,4,5,français,m,2,0.2,-58.74003357,1.33033281
610d671491693e4ff410860c,94,1,2024-02-27T10:55:06.910Z,english_714.wav,0,pill,469,36,4,5,français,m,3,0.3,-38.84014254,0.20009115
610d671491693e4ff410860c,94,1,2024-02-27T10:55:06.910Z,english_714.wav,0,pill,469,36,4,5,français,m,4,0.32341667,-23.67047323,0.44650169
610d671491693e4ff410860c,95,1,2024-02-27T10:55:06.910Z,english_137.wav,0,peel,865,36,4,5,français,m,0,0.0,-81.54177422,0.16940048
610d671491693e4ff410860c,95,1,2024-02-27T10:55:06.910Z,english_137.wav,0,peel,865,36,4,5,français,m,1,0.1,48.50229113,1.33204053
610d671491693e4ff410860c,95,1,2024-02-27T10:55:06.910Z,english_137.wav,0,peel,865,36,4,5,français,m,2,0.2,-43.40912925,1.8593258
610d671491693e4ff410860c,95,1,2024-02-27T10:55:06.910Z,english_137.wav,0,peel,865,36,4,5,français,m,3,0.3,54.89578869,1.77805515
610d671491693e4ff410860c,95,1,2024-02-27T10:55:06.910Z,english_137.wav,0,peel,865,36,4,5,français,m,4,0.32341667,90.09778797,1.80981769
610d671491693e4ff410860c,96,1,2024-02-27T10:55:06.910Z,english_11.wav,0,pill,474,36,4,5,français,m,0,0.0,-20.45826732,1.19869378
610d671491693e4ff410860c,96,1,2024-02-27T10:55:06.910Z,english_11.wav,0,pill,474,36,4,5,français,m,1,0.1,-31.26113472,0.2059713
610d671491693e4ff410860c,96,1,2024-02-27T10:55:06.910Z,english_11.wav,0,pill,474,36,4,5,français,m,2,0.2,84.03210455,0.62296143
610d671491693e4ff410860c,96,1,2024-02-27T10:55:06.910Z,english_11.wav,0,pill,474,36,4,5,français,m,3,0.3,30.35463164,1.49781179
610d671491693e4ff410860c,96,1,2024-02-27T10:55:06.910Z,english_11.wav,0,pill,474,36,4,5,français,m,4,0.32341667,-63.36217442,0.18750748
610d671491693e4ff410860c,97,1,2024-02-27T10:55:06.910Z,english_753.wav,0,peel,327,36,4,5,français,m,0,0.0,38.61944715,0.75641923
610d671491693e4ff410860c,97,1,2024-02-27T10:55:06.910Z,english_753.wav,0,peel,327,36,4,5,français,m,1,0.1,-76.3398938,1.17320485
610d671491693e4ff410860c,97,1,2024-02-27T10:55:06.910Z,english_753.wav,0,peel,327,36,4,5,français,m,2,0.2,-80.92813522,0.63072958
610d671491693e4ff410860c,97,1,2024-02-27T10:55:06.910Z,english_753.wav,0,peel,327,36,4,5,français,m,3,0.3,-16.48508052,1.96252246
610d671491693e4ff410860c,97,1,2024-02-27T10:55:06.910Z,english_753.wav,0,peel,327,36,4,5,français,m,4,0.32341667,16.23487259,1.97125296
610d671491693e4ff410860c,98,1,2024-02-27T10:55:06.910Z,english_847.wav,0,pill,312,36,4,5,français,m,0,0.0,76.45550118,0.38890762
610d671491693e4ff410860c,98,1,2024-02-27T10:55:06.910Z,english_847.wav,0,pill,312,36,4,5,français,m,1,0.1,-18.38123868,1.01718805
610d671491693e4ff410860c,98,1,2024-02-27T10:55:06.910Z,english_847.wav,0,pill,312,36,4,5,français,m,2,0.2,18.403778,1.24872656
610d671491693e4ff410860c,98,1,2024-02-27T10:55:06.910Z,english_847.wav,0,pill,312,36,4,5,français,m,3,0.3,57.196546,0.81951257
610d671491693e4ff410860c,98,1,2024-02-27T10:55:06.910Z,english_847.wav,0,pill,312,36,4,5,français,m,4,0.32341667,32.99763753,0.74194876
610d671491693e4ff410860c,99,1,2024-02-27T10:55:06.910Z,english_269.wav,0,peel,209,36,4,5,français,m,0,0.0,61.09556447,1.11606818
610d671491693e4ff410860c,99,1,2024-02-27T10:55:06.910Z,english_269.wav,0,peel,209,36,4,5,français,m,1,0.1,-3.97684721,1.55443041
610d671491693e4ff410860c,99,1,2024-02-27T10:55:06.910Z,english_269.wav,0,peel,209,36,4,5,français,m,2,0.2,-87.59080112,1.78173809
610d671491693e4ff410860c,99,1,2024-02-27T10:55:06.910Z,english_269.wav,0,peel,209,36,4,5,français,m,3,0.3,78.47165079,1.73012946
610d671491693e4ff410860c,99,1,2024-02-27T10:55:06.910Z,english_269.wav,0,peel,209,36,4,5,français,m,4,0.32341667,-52.74135522,0.88090417
610d671491693e4ff410860c,100,2,2024-02-27T10:55:06.910Z,english_695.wav,0,pill,445,36,4,5,français,m,0,0.0,-74.02191529,1.19534619
610d671491693e4ff410860c,100,2,2024-02-27T10:55:06.910Z,english_695.wav,0,pill,445,36,4,5,français,m,1,0.1,54.28596986,0.93917139
610d671491693e4ff410860c,100,2,2024-02-27T10:55:06.910Z,english_695.wav,0,pill,445,36,4,5,français,m,2,0.2,-13.22196683,0.1241488
610d671491693e4ff410860c,100,2,2024-02-27T10:55:06.910Z,english_695.wav,0,pill,445,36,4,5,français,m,3,0.3,1.82272444,1.20091234
610d671491693e4ff410860c,100,2,2024-02-27T10:55:06.910Z,english_695.wav,0,pill,445,36,4,5,français,m,4,0.32341667,-11.74905262,0.46222147
610d671491693e4ff410860c,101,2,2024-02-27T10:55:06.910Z,english_786.wav,0,peel,495,36,4,5,français,m,0,0.0,50.77560123,0.9907589
610d671491693e4ff410860c,101,2,2024-02-27T10:55:06.910Z,english_786.wav,0,peel,495,36,4,5,français,m,1,0.1,-87.08435808,0.48193409
610d671491693e4ff410860c,101,2,2024-02-27T10:55:06.910Z,english_786.wav,0,peel,495,36,4,5,français,m,2,0.2,-36.07136163,1.01949061
610d671491693e4ff410860c,101,2,2024-02-27T10:55:06.910Z,english_786.wav,0,peel,495,36,4,5,français,m,3,0.3,98.77618087,1.06334926
610d671491693e4ff410860c,101,2,2024-02-27T10:55:06.910Z,english_786.wav,0,peel,495,36,4,5,français,m,4,0.32341667,86.70070823,0.94164836
610d671491693e4ff410860c,102,2,2024-02-27T10:55:06.910Z,english_68.wav,0,peel,433,36,4,5,français,m,0,0.0,-23.38152803,1.83565324
610d671491693e4ff410860c,102,2,2024-02-27T10:55:06.910Z,english_68.wav,0,peel,433,36,4,5,français,m,1,0.1,-36.0918901,0.35162477
610d671491693e4ff410860c,102,2,2024-02-27T10:55:06.910Z,english_68.wav,0,peel,433,36,4,5,français,m,2,0.2,65.46592862,1.10705723
610d671491693e4ff410860c,102,2,2024-02-27T10:55:06.910Z,english_68.wav,0,peel,433,36,4,5,français,m,3,0.3,48.57602628,1.09550925
610d671491693e4ff410860c,102,2,2024-02-27T10:55:06.910Z,english_68.wav,0,peel,433,36,4,5,français,m,4,0.32341667,-93.64245591,0.05753383
610d671491693e4ff410860c,103,2,2024-02-27T10:55:06.910Z,english_929.wav,0,pill,425,36,4,5,français,m,0,0.0,29.19700723,1.75028237
610d671491693e4ff410860c,103,2,2024-02-27T10:55:06.910Z,english_929.wav,0,pill,425,36,4,5,français,m,1,0.1,15.63825327,0.16776534
610d671491693e4ff410860c,103,2,2024-02-27T10:55:06.910Z,english_929.wav,0,pill,425,36,4,5,français,m,2,0.2,3.65085895,0.15899819
610d671491693e4ff410860c,103,2,2024-02-27T10:55:06.910Z,english_929.wav,0,pill,425,36,4,5,français,m,3,0.3,-91.18848108,0.41497916
610d671491693e4ff410860c,103,2,2024-02-27T10:55:06.910Z,english_929.wav,0,pill,425,36,4,5,français,m,4,0.32341667,53.29025089,0.946821
610d671491693e4ff410860c,104,2,2024-02-27T10:55:06.910Z,english_866.wav,0,pill,598,36,4,5,français,m,0,0.0,-75.90204766,0.10539101
610d671491693e4ff410860c,104,2,2024-02-27T10:55:06.910Z,english_866.wav,0,pill,598,36,4,5,français,m,1,0.1,-89.66881049,1.63294926
610d671491693e4ff410860c,104,2,2024-02-27T10:55:06.910Z,english_866.wav,0,pill,598,36,4,5,français,m,2,0.2,-86.78535298,0.21421971
610d671491693e4ff410860c,104,2,2024-02-27T10:55:06.910Z,english_866.wav,0,pill,598,36,4,5,français,m,3,0.3,50.96369643,1.47001367
610d671491693e4ff410860c,104,2,2024-02-27T10:55:06.910Z,english_866.wav,0,pill,598,36,4,5,français,m,4,0.32341667,36.94157773,1.56453662
610d671491693e4ff410860c,105,2,2024-02-27T10:55:06.910Z,english_96.wav,0,pill,498,36,4,5,français,m,0,0.0,-2.60251168,1.33849038
610d671491693e4ff410860c,105,2,2024-02-27T10:55:06.910Z,english_96.wav,0,pill,498,36,4,5,français,m,1,0.1,3.1808695,1.03790095
610d671491693e4ff410860c,105,2,2024-02-27T10:55:06.910Z,english_96.wav,0,pill,498,36,4,5,français,m,2,0.2,-93.89625608,0.32730996
610d671491693e4ff410860c,105,2,2024-02-27T10:55:06.910Z,english_96.wav,0,pill,498,36,4,5,français,m,3,0.3,22.03695444,1.15118519
610d671491693e4ff410860c,105,2,2024-02-27T10:55:06.910Z,english_96.wav,0,pill,498,36,4,5,français,m,4,0.32341667,89.13776591,1.37996061
610d671491693e4ff410860c,106,2,2024-02-27T10:55:06.910Z,english_909.wav,0,peel,403,36,4,5,français,m,0,0.0,-19.4205152,0.17681169
610d671491693e4ff410860c,106,2,2024-02-27T10:55:06.910Z,english_909.wav,0,peel,403,36,4,5,français,m,1,0.1,-31.830868,1.02014656
610d671491693e4ff410860c,106,2,2024-02-27T10:55:06.910Z,english_909.wav,0,peel,403,36,4,5,français,m,2,0.2,71.05598051,1.59945112
610d671491693e4ff410860c,106,2,2024-02-27T10:55:06.910Z,english_909.wav,0,peel,403,36,4,5,français,m,3,0.3,-13.09259164,1.33685121
610d671491693e4ff410860c,106,2,2024-02-27T10:55:06.910Z,english_909.wav,0,peel,403,36,4,5,français,m,4,0.32341667,-99.47743822,0.41114962
610d671491693e4ff410860c,107,2,2024-02-27T10:55:06.910Z,english_195.wav,0,peel,599,36,4,5,français,m,0,0.0,88.76446124,0.85936173
610d671491693e4ff410860c,107,2,2024-02-27T10:55:06.910Z,english_195.wav,0,peel,599,36,4,5,français,m,1,0.1,56.50909504,1.06337161
610d671491693e4ff410860c,107,2,2024-02-27T10:55:06.910Z,english_195.wav,0,peel,599,36,4,5,français,m,2,0.2,-5.11157055,1.01766647
610d671491693e4ff410860c,107,2,2024-02-27T10:55:06.910Z,english_195.wav,0,peel,599,36,4,5,français,m,3,0.3,14.19517065,1.03928052
610d671491693e4ff410860c,107,2,2024-02-27T10:55:06.910Z,english_195.wav,0,peel,599,36,4,5,français,m,4,0.32341667,67.19148892,1.18131313
610d671491693e4ff410860c,108,2,2024-02-27T10:55:06.910Z,english_300.wav,0,peel,350,36,4,5,français,m,0,0.0,-57.32903368,1.31106943
610d671491693e4ff410860c,108,2,2024-02-27T10:55:06.910Z,english_300.wav,0,peel,350,36,4,5,français,m,1,0.1,-14.80176218,1.36432179
610d671491693e4ff410860c,108,2,2024-02-27T10:55:06.910Z,english_300.wav,0,peel,350,36,4,5,français,m,2,0.2,17.32090115,1.9756976
610d671491693e4ff410860c,108,2,2024-02-27T10:55:06.910Z,english_300.wav,0,peel,350,36,4,5,français,m,3,0.3,9.38584248,1.38621255
610d671491693e4ff410860c,108,2,2024-02-27T10:55:06.910Z,english_300.wav,0,peel,350,36,4,5,français,m,4,0.32341667,-54.58865419,1.60203422
610d671491693e4ff410860c,109,2,2024-02-27T10:55:06.910Z,english_669.wav,0,pill,486,36,4,5,français,m,0,0.0,-58.38123624,0.53455866
610d671491693e4ff410860c,109,2,2024-02-27T10:55:06.910Z,english_669.wav,0,pill,486,36,4,5,français,m,1,0.1,-80.20155876,0.64376179
610d671491693e4ff410860c,109,2,2024-02-27T10:55:06.910Z,english_669.wav,0,pill,486,36,4,5,français,m,2,0.2,-25.59737246,0.76694756
610d671491693e4ff410860c,109,2,2024-02-27T10:55:06.910Z,english_669.wav,0,pill,486,36,4,5,français,m,3,0.3,-30.25633946,1.36842807
610d671491693e4ff410860c,109,2,2024-02-27T10:55:06.910Z,english_669.wav,0,pill,486,36,4,5,français,m,4,0.32341667,-70.78768349,0.06434218
610d671491693e4ff410860c,110,2,2024-02-27T10:55:06.910Z,english_663.wav,0,pill,1086,36,4,5,français,m,0,0.0,55.84438863,1.29444713
610d671491693e4ff410860c,110,2,2024-02-27T10:55:06.910Z,english_663.wav,0,pill,1086,36,4,5,français,m,1,0.1,-89.02249371,0.90215198
610d671491693e4ff410860c,110,2,2024-02-27T10:55:06.910Z,english_663.wav,0,pill,1086,36,4,5,français,m,2,0.2,-13.61345685,1.61104603
610d671491693e4ff410860c,110,2,2024-02-27T10:55:06.910Z,english_663.wav,0,pill,1086,36,4,5,français,m,3,0.3,14.50375693,0.31375715
610d671491693e4ff410860c,110,2,2024-02-27T10:55:06.910Z,english_663.wav,0,pill,1086,36,4,5,français,m,4,0.32341667,80.63633164,1.01784406
610d671491693e4ff410860c,111,2,2024-02-27T10:55:06.910Z,english_683.wav,0,peel,687,36,4,5,français,m,0,0.0,-73.37543508,1.70409633
610d671491693e4ff410860c,111,2,2024-02-27T10:55:06.910Z,english_683.wav,0,peel,687,36,4,5,français,m,1,0.1,66.4080647,1.25556383
610d671491693e4ff410860c,111,2,2024-02-27T10:55:06.910Z,english_683.wav,0,peel,687,36,4,5,français,m,2,0.2,46.46812351,0.87554738
610d671491693e4ff410860c,111,2,2024-02-27T10:55:06.910Z,english_683.wav,0,peel,687,36,4,5,français,m,3,0.3,71.67755016,1.32863005
610d671491693e4ff410860c,111,2,2024-02-27T10:55:06.910Z,english_683.wav,0,peel,687,36,4,5,français,m,4,0.32341667,2.86253031,0.20364682
610d671491693e4ff410860c,112,2,2024-02-27T10:55:06.910Z,english_325.wav,0,peel,357,36,4,5,français,m,0,0.0,-36.86035688,0.2784687
610d671491693e4ff410860c,112,2,2024-02-27T10:55:06.910Z,english_325.wav,0,peel,357,36,4,5,français,m,1,0.1,-55.38569655,1.41229923
610d671491693e4ff410860c,112,2,2024-02-27T10:55:06.910Z,english_325.wav,0,peel,357,36,4,5,français,m,2,0.2,-56.86017215,0.83316938
610d671491693e4ff410860c,112,2,2024-02-27T10:55:06.910Z,english_325.wav,0,peel,357,36,4,5,français,m,3,0.3,-98.19449268,0.3465596
610d671491693e4ff410860c,112,2,2024-02-27T10:55:06.910Z,english_325.wav,0,peel,357,36,4,5,français,m,4,0.32341667,-6.42447902,1.41863786
610d671491693e4ff410860c,113,2,2024-02-27T10:55:06.910Z,english_232.wav,0,pill,659,36,4,5,français,m,0,0.0,15.13134779,0.53160298
610d671491693e4ff410860c,113,2,2024-02-27T10:55:06.910Z,english_232.wav,0,pill,659,36,4,5,français,m,1,0.1,-49.29605083,0.4519978
610d671491693e4ff410860c,113,2,2024-02-27T10:55:06.910Z,english_232.wav,0,pill,659,36,4,5,français,m,2,0.2,59.10606455,0.39260156
610d671491693e4ff410860c,113,2,2024-02-27T10:55:06.910Z,english_232.wav,0,pill,659,36,4,5,français,m,3,0.3,48.81708847,0.4692084
610d671491693e4ff410860c,113,2,2024-02-27T10:55:06.910Z,english_232.wav,0,pill,659,36,4,5,français,m,4,0.32341667,14.83590121,0.46233459
610d671491693e4ff410860c,114,2,2024-02-27T10:55:06.910Z,english_13.wav,0,peel,647,36,4,5,français,m,0,0.0,85.79405153,0.93145275
610d671491693e4ff410860c,114,2,2024-02-27T10:55:06.910Z,english_13.wav,0,peel,647,36,4,5,français,m,1,0.1,-22.00296346,0.69811424
610d671491693e4ff410860c,114,2,2024-02-27T10:55:06.910Z,english_13.wav,0,peel,647,36,4,5,français,m,2,0.2,45.89988476,1.08090206
610d671491693e4ff410860c,114,2,2024-02-27T10:55:06.910Z,english_13.wav,0,peel,647,36,4,5,français,m,3,0.3,-17.47250281,0.35305012
610d671491693e4ff410860c,114,2,2024-02-27T10:55:06.910Z,english_13.wav,0,peel,647,36,4,5,français,m,4,0.32341667,-30.34546067,0.65915907
610d671491693e4ff410860c,115,2,2024-02-27T10:55:06.910Z,english_637.wav,0,pill,704,36,4,5,français,m,0,0.0,-1.71458324,1.21739028
610d671491693e4ff410860c,115,2,2024-02-27T10:55:06.910Z,english_637.wav,0,pill,704,36,4,5,français,m,1,0.1,-8.03758275,0.51882016
610d671491693e4ff410860c,115,2,2024-02-27T10:55:06.910Z,english_637.wav,0,pill,704,36,4,5,français,m,2,0.2,-8.49550443,1.63519413
610d671491693e4ff410860c,115,2,2024-02-27T10:55:06.910Z,english_637.wav,0,pill,704,36,4,5,français,m,3,0.3,-8.27727969,1.34863813
610d671491693e4ff410860c,115,2,2024-02-27T10:55:06.910Z,english_637.wav,0,pill,704,36,4,5,français,m,4,0.32341667,64.42471467,1.93003029
610d671491693e4ff410860c,116,2,2024-02-27T10:55:06.910Z,english_374.wav,0,peel,772,36,4,5,français,m,0,0.0,-43.98521466,1.11607514
610d671491693e4ff410860c,116,2,2024-02-27T10:55:06.910Z,english_374.wav,0,peel,772,36,4,5,français,m,1,0.1,-24.87181663,0.38249505
610d671491693e4ff410860c,116,2,2024-02-27T10:55:06.910Z,english_374.wav,0,peel,772,36,4,5,français,m,2,0.2,-29.31566683,1.56774755
610d671491693e4ff410860c,116,2,2024-02-27T10:55:06.910Z,english_374.wav,0,peel,772,36,4,5,français,m,3,0.3,-43.36019392,1.33837662
610d671491693e4ff410860c,116,2,2024-02-27T10:55:06.910Z,english_374.wav,0,peel,772,36,4,5,français,m,4,0.32341667,-35.5175379,0.68793086
610d671491693e4ff410860c,117,2,2024-02-27T10:55:06.910Z,english_102.wav,0,peel,347,36,4,5,français,m,0,0.0,32.71328306,1.2311829
610d671491693e4ff410860c,117,2,2024-02-27T10:55:06.910Z,english_102.wav,0,peel,347,36,4,5,français,m,1,0.1,59.73255369,0.25599615
610d671491693e4ff410860c,117,2,2024-02-27T10:55:06.910Z,english_102.wav,0,peel,347,36,4,5,français,m,2,0.2,-0.64397298,1.7526023
610d671491693e4ff410860c,117,2,2024-02-27T10:55:06.910Z,english_102.wav,0,peel,347,36,4,5,français,m,3,0.3,-37.18099902,1.98319627
610d671491693e4ff410860c,117,2,2024-02-27T10:55:06.910Z,english_102.wav,0,peel,347,36,4,5,français,m,4,0.32341667,41.63197766,1.38410598
610d671491693e4ff410860c,118,2,2024-02-27T10:55:06.910Z,english_307.wav,0,pill,609,36,4,5,français,m,0,0.0,-38.93106299,1.91951228
610d671491693e4ff410860c,118,2,2024-02-27T10:55:06.910Z,english_307.wav,0,pill,609,36,4,5,français,m,1,0.1,-30.40144858,0.50419792
610d671491693e4ff410860c,118,2,2024-02-27T10:55:06.910Z,english_307.wav,0,pill,609,36,4,5,français,m,2,0.2,2.19081651,0.76602689
610d671491693e4ff410860c,118,2,2024-02-27T10:55:06.910Z,english_307.wav,0,pill,609,36,4,5,français,m,3,0.3,30.82741361,0.59904457
610d671491693e4ff410860c,118,2,2024-02-27T10:55:06.910Z,english_307.wav,0,pill,609,36,4,5,français,m,4,0.32341667,46.9007513,1.94941235
610d671491693e4ff410860c,119,2,2024-02-27T10:55:06.910Z,english_41.wav,0,pill,485,36,4,5,français,m,0,0.0,42.21237724,0.98996482
610d671491693e4ff410860c,119,2,2024-02-27T10:55:06.910Z,english_41.wav,0,pill,485,36,4,5,français,m,1,0.1,33.8271633,0.77076848
610d671491693e4ff410860c,119,2,2024-02-27T10:55:06.910Z,english_41.wav,0,pill,485,36,4,5,français,m,2,0.2,20.96644351,0.37402384
610d671491693e4ff410860c,119,2,2024-02-27T10:55:06.910Z,english_41.wav,0,pill,485,36,4,5,français,m,3,0.3,-53.61985723,1.98545705
610d671491693e4ff410860c,119,2,2024-02-27T10:55:06.910Z,english_41.wav,0,pill,485,36,4,5,français,m,4,0.32341667,-55.68725705,1.53352273
610d671491693e4ff410860c,120,2,2024-02-27T10:55:06.910Z,english_249.wav,0,peel,695,36,4,5,français,m,0,0.0,78.40227579,1.91339694
610d671491693e4ff410860c,120,2,2024-02-27T10:55:06.910Z,english_249.wav,0,peel,695,36,4,5,français,m,1,0.1,-55.1129652,1.00834957
610d671491693e4ff410860c,120,2,2024-02-27T10:55:06.910Z,english_249.wav,0,peel,695,36,4,5,français,m,2,0.2,6.74447168,0.29418026
610d671491693e4ff410860c,120,2,2024-02-27T10:55:06.910Z,english_249.wav,0,peel,695,36,4,5,français,m,3,0.3,27.3376716,1.53256547
610d671491693e4ff410860c,120,2,2024-02-27T10:55:06.910Z,english_249.wav,0,peel,695,36,4,5,français,m,4,0.32341667,-97.08031886,0.99264532
610d671491693e4ff410860c,121,2,2024-02-27T10:55:06.910Z,english_241.wav,0,peel,1054,36,4,5,français,m,0,0.0,68.9743722,1.94478574
610d671491693e4ff410860c,121,2,2024-02-27T10:55:06.910Z,english_241.wav,0,peel,1054,36,4,5,français,m,1,0.1,68.48567391,1.84895789
610d671491693e4ff410860c,121,2,2024-02-27T10:55:06.910Z,english_241.wav,0,peel,1054,36,4,5,français,m,2,0.2,12.6952975,1.1085625
610d671491693e4ff410860c,121,2,2024-02-27T10:55:06.910Z,english_241.wav,0,peel,1054,36,4,5,français,m,3,0.3,61.42298605,1.36682755
610d671491693e4ff410860c,121,2,2024-02-27T10:55:06.910Z,english_241.wav,0,peel,1054,36,4,5,français,m,4,0.32341667,-18.578671,0.93494379
610d671491693e4ff410860c,122,2,2024-02-27T10:55:06.910Z,english_842.wav,0,pill,275,36,4,5,français,m,0,0.0,-48.5952207,0.12382156
610d671491693e4ff410860c,122,2,2024-02-27T10:55:06.910Z,english_842.wav,0,pill,275,36,4,5,français,m,1,0.1,29.19485822,1.75564688
610d671491693e4ff410860c,122,2,2024-02-27T10:55:06.910Z,english_842.wav,0,pill,275,36,4,5,français,m,2,0.2,84.54328152,0.24815543
610d671491693e4ff410860c,122,2,2024-02-27T10:55:06.910Z,english_842.wav,0,pill,275,36,4,5,français,m,3,0.3,69.99994667,1.2885643
610d671491693e4ff410860c,122,2,2024-02-27T10:55:06.910Z,english_842.wav,0,pill,275,36,4,5,français,m,4,0.32341667,56.72069463,0.70518165
610d671491693e4ff410860c,123,2,2024-02-27T10:55:06.910Z,english_529.wav,0,pill,519,36,4,5,français,m,0,0.0,13.90759343,0.83001961
610d671491693e4ff410860c,123,2,2024-02-27T10:55:06.910Z,english_529.wav,0,pill,519,36,4,5,français,m,1,0.1,-33.526088,0.02518437
610d671491693e4ff410860c,123,2,2024-02-27T10:55:06.910Z,english_529.wav,0,pill,519,36,4,5,français,m,2,0.2,-34.32120589,1.61112877
610d671491693e4ff410860c,123,2,2024-02-27T10:55:06.910Z,english_529.wav,0,pill,519,36,4,5,français,m,3,0.3,-18.30112723,0.91948239
610d671491693e4ff410860c,123,2,2024-02-27T10:55:06.910Z,english_529.wav,0,pill,519,36,4,5,français,m,4,0.32341667,16.4796061,0.33204613
610d671491693e4ff410860c,124,2,2024-02-27T10:55:06.910Z,english_7.wav,0,pill,591,36,4,5,français,m,0,0.0,-21.06405819,1.08184232
610d671491693e4ff410860c,124,2,2024-02-27T10:55:06.910Z,english_7.wav,0,pill,591,36,4,5,français,m,1,0.1,52.71042782,0.36719269
610d671491693e4ff410860c,124,2,2024-02-27T10:55:06.910Z,english_7.wav,0,pill,591,36,4,5,français,m,2,0.2,-75.60464889,0.43185312
610d671491693e4ff410860c,124,2,2024-02-27T10:55:06.910Z,english_7.wav,0,pill,591,36,4,5,français,m,3,0.3,-40.56941306,0.01474265
610d671491693e4ff410860c,124,2,2024-02-27T10:55:06.910Z,english_7.wav,0,pill,591,36,4,5,français,m,4,0.32341667,63.70656894,0.90880476
610d671491693e4ff410860c,125,2,2024-02-27T10:55:06.910Z,english_272.wav,0,peel,587,36,4,5,français,m,0,0.0,61.82030971,1.51341556
610d671491693e4ff410860c,125,2,2024-02-27T10:55:06.910Z,english_272.wav,0,peel,587,36,4,5,français,m,1,0.1,4.16580657,0.43290826
610d671491693e4ff410860c,125,2,2024-02-27T10:55:06.910Z,english_272.wav,0,peel,587,36,4,5,français,m,2,0.2,-53.2567432,1.82734584
610d671491693e4ff410860c,125,2,2024-02-27T10:55:06.910Z,english_272.wav,0,peel,587,36,4,5,français,m,3,0.3,-52.99830768,0.22094446
610d671491693e4ff410860c,125,2,2024-02-27T10:55:06.910Z,english_272.wav,0,peel,587,36,4,5,français,m,4,0.32341667,-92.9943793,1.88040337
610d671491693e4ff410860c,126,2,2024-02-27T10:55:06.910Z,english_512.wav,0,pill,448,36,4,5,français,m,0,0.0,92.76608442,1.91273189
610d671491693e4ff410860c,126,2,2024-02-27T10:55:06.910Z,english_512.wav,0,pill,448,36,4,5,français,m,1,0.1,-20.68005196,1.02897077
610d671491693e4ff410860c,126,2,2024-02-27T10:55:06.910Z,english_512.wav,0,pill,448,36,4,5,français,m,2,0.2,-55.10098951,0.7965214
610d671491693e4ff410860c,126,2,2024-02-27T10:55:06.910Z,english_512.wav,0,pill,448,36,4,5,français,m,3,0.3,79.8086149,1.98502062
610d671491693e4ff410860c,126,2,2024-02-27T10:55:06.910Z,english_512.wav,0,pill,448,36,4,5,français,m,4,0.32341667,-91.21136492,0.13323305
610d671491693e4ff410860c,127,2,2024-02-27T10:55:06.910Z,english_707.wav,0,peel,492,36,4,5,français,m,0,0.0,-17.04120346,1.06535483
610d671491693e4ff410860c,127,2,2024-02-27T10:55:06.910Z,english_707.wav,0,peel,492,36,4,5,français,m,1,0.1,-57.44917128,0.89541794
610d671491693e4ff410860c,127,2,2024-02-27T10:55:06.910Z,english_707.wav,0,peel,492,36,4,5,français,m,2,0.2,90.75848643,1.64838001
610d671491693e4ff410860c,127,2,2024-02-27T10:55:06.910Z,english_707.wav,0,peel,492,36,4,5,français,m,3,0.3,96.79852424,0.75431717
610d671491693e4ff410860c,127,2,2024-02-27T10:55:06.910Z,english_707.wav,0,peel,492,36,4,5,français,m,4,0.32341667,27.01716591,0.48082071
610d671491693e4ff410860c,128,2,2024-02-27T10:55:06.910Z,english_552.wav,0,pill,387,36,4,5,français,m,0,0.0,-54.22317773,0.14479657
610d671491693e4ff410860c,128,2,2024-02-27T10:55:06.910Z,english_552.wav,0,pill,387,36,4,5,français,m,1,0.1,23.75537749,1.96762023
610d671491693e4ff410860c,128,2,2024-02-27T10:55:06.910Z,english_552.wav,0,pill,387,36,4,5,français,m,2,0.2,-67.43154965,0.75812729
610d671491693e4ff410860c,128,2,2024-02-27T10:55:06.910Z,english_552.wav,0,pill,387,36,4,5,français,m,3,0.3,-83.62242399,0.84420129
610d671491693e4ff410860c,128,2,2024-02-27T10:55:06.910Z,english_552.wav,0,pill,387,36,4,5,français,m,4,0.32341667,64.2322812,0.73382384
610d671491693e4ff410860c,129,2,2024-02-27T10:55:06.910Z,english_994.wav,0,peel,359,36,4,5,français,m,0,0.0,53.6083957,1.72152032
610d671491693e4ff410860c,129,2,2024-02-27T10:55:06.910Z,english_994.wav,0,peel,359,36,4,5,français,m,1,0.1,62.5650281,0.97077126
610d671491693e4ff410860c,129,2,2024-02-27T10:55:06.910Z,english_994.wav,0,peel,359,36,4,5,français,m,2,0.2,91.00734213,1.1154275
610d671491693e4ff410860c,129,2,2024-02-27T10:55:06.910Z,english_994.wav,0,peel,359,36,4,5,français,m,3,0.3,-14.6853323,0.93534142
610d671491693e4ff410860c,129,2,2024-02-27T10:55:06.910Z,english_994.wav,0,peel,359,36,4,5,français,m,4,0.32341667,42.94025292,1.51312842
610d671491693e4ff410860c,130,2,2024-02-27T10:55:06.910Z,english_503.wav,0,peel,442,36,4,5,français,m,0,0.0,-62.81458057,1.15988152
610d671491693e4ff410860c,130,2,2024-02-27T10:55:06.910Z,english_503.wav,0,peel,442,36,4,5,français,m,1,0.1,17.97702429,0.58853345
610d671491693e4ff410860c,130,2,2024-02-27T10:55:06.910Z,english_503.wav,0,peel,442,36,4,5,français,m,2,0.2,-8.2980926,1.29983279
610d671491693e4ff410860c,130,2,2024-02-27T10:55:06.910Z,english_503.wav,0,peel,442,36,4,5,français,m,3,0.3,-62.4217389,1.42406205
610d671491693e4ff410860c,130,2,2024-02-27T10:55:06.910Z,english_503.wav,0,peel,442,36,4,5,français,m,4,0.32341667,18.11027086,0.84018378
610d671491693e4ff410860c,131,2,2024-02-27T10:55:06.910Z,english_478.wav,0,pill,2826,36,4,5,français,m,0,0.0,-70.9954821,0.91489342
610d671491693e4ff410860c,131,2,2024-02-27T10:55:06.910Z,english_478.wav,0,pill,2826,36,4,5,français,m,1,0.1,18.763036,1.0325944
610d671491693e4ff410860c,131,2,2024-02-27T10:55:06.910Z,english_478.wav,0,pill,2826,36,4,5,français,m,2,0.2,84.30682023,1.47139294
610d671491693e4ff410860c,131,2,2024-02-27T10:55:06.910Z,english_478.wav,0,pill,2826,36,4,5,français,m,3,0.3,96.70790152,0.31719256
610d671491693e4ff410860c,131,2,2024-02-27T10:55:06.910Z,english_478.wav,0,pill,2826,36,4,5,français,m,4,0.32341667,-65.75430749,1.1469235
610d671491693e4ff410860c,132,2,2024-02-27T10:55:06.910Z,english_563.wav,0,pill,842,36,4,5,français,m,0,0.0,19.758909,0.0609285
610d671491693e4ff410860c,132,2,2024-02-27T10:55:06.910Z,english_563.wav,0,pill,842,36,4,5,français,m,1,0.1,33.70416131,1.63852294
610d671491693e4ff410860c,132,2,2024-02-27T10:55:06.910Z,english_563.wav,0,pill,842,36,4,5,français,m,2,0.2,-28.26228599,0.53834051
610d671491693e4ff410860c,132,2,2024-02-27T10:55:06.910Z,english_563.wav,0,pill,842,36,4,5,français,m,3,0.3,77.25360299,0.54558093
610d671491693e4ff410860c,132,2,2024-02-27T10:55:06.910Z,english_563.wav,0,pill,842,36,4,5,français,m,4,0.32341667,-40.65982077,0.29994173
610d671491693e4ff410860c,133,2,2024-02-27T10:55:06.910Z,english_326.wav,0,peel,291,36,4,5,français,m,0,0.0,-13.70476372,1.64570887
610d671491693e4ff410860c,133,2,2024-02-27T10:55:06.910Z,english_326.wav,0,peel,291,36,4,5,français,m,1,0.1,47.7156259,0.91266102
610d671491693e4ff410860c,133,2,2024-02-27T10:55:06.910Z,english_326.wav,0,peel,291,36,4,5,français,m,2,0.2,23.24839736,0.36997562
610d671491693e4ff410860c,133,2,2024-02-27T10:55:06.910Z,english_326.wav,0,peel,291,36,4,5,français,m,3,0.3,67.08212267,1.96258237
610d671491693e4ff410860c,133,2,2024-02-27T10:55:06.910Z,english_326.wav,0,peel,291,36,4,5,français,m,4,0.32341667,78.79356023,1.01334204
610d671491693e4ff410860c,134,2,2024-02-27T10:55:06.910Z,english_345.wav,0,pill,578,36,4,5,français,m,0,0.0,-46.00579497,1.58751342
610d671491693e4ff410860c,134,2,2024-02-27T10:55:06.910Z,english_345.wav,0,pill,578,36,4,5,français,m,1,0.1,-45.5805492,1.0202646
610d671491693e4ff410860c,134,2,2024-02-27T10:55:06.910Z,english_345.wav,0,pill,578,36,4,5,français,m,2,0.2,-14.04378539,0.61561299
610d671491693e4ff410860c,134,2,2024-02-27T10:55:06.910Z,english_345.wav,0,pill,578,36,4,5,français,m,3,0.3,63.72413351,1.21547564
610d671491693e4ff410860c,134,2,2024-02-27T10:55:06.910Z,english_345.wav,0,pill,578,36,4,5,français,m,4,0.32341667,18.03717792,1.47127253
610d671491693e4ff410860c,135,2,2024-02-27T10:55:06.910Z,english_670.wav,0,pill,596,36,4,5,français,m,0,0.0,64.75672565,1.5535903
610d671491693e4ff410860c,135,2,2024-02-27T10:55:06.910Z,english_670.wav,0,pill,596,36,4,5,français,m,1,0.1,85.95156369,0.12522594
610d671491693e4ff410860c,135,2,2024-02-27T10:55:06.910Z,english_670.wav,0,pill,596,36,4,5,français,m,2,0.2,-44.32949438,0.22842632
610d671491693e4ff410860c,135,2,2024-02-27T10:55:06.910Z,english_670.wav,0,pill,596,36,4,5,français,m,3,0.3,22.57192219,0.17636502
610d671491693e4ff410860c,135,2,2024-02-27T10:55:06.910Z,english_670.wav,0,pill,596,36,4,5,français,m,4,0.32341667,34.74005277,0.16208776
610d671491693e4ff410860c,136,2,2024-02-27T10:55:06.910Z,english_691.wav,0,pill,841,36,4,5,français,m,0,0.0,28.79078449,1.07683297
610d671491693e4ff410860c,136,2,2024-02-27T10:55:06.910Z,english_691.wav,0,pill,841,36,4,5,français,m,1,0.1,99.1184909,1.07376069
610d671491693e4ff410860c,136,2,2024-02-27T10:55:06.910Z,english_691.wav,0,pill,841,36,4,5,français,m,2,0.2,-54.13985733,0.28522735
610d671491693e4ff410860c,136,2,2024-02-27T10:55:06.910Z,english_691.wav,0,pill,841,36,4,5,français,m,3,0.3,-85.36319246,0.85701066
610d671491693e4ff410860c,136,2,2024-02-27T10:55:06.910Z,english_691.wav,0,pill,841,36,4,5,français,m,4,0.32341667,-73.61621094,1.71165398
610d671491693e4ff410860c,137,2,2024-02-27T10:55:06.910Z,english_785.wav,0,peel,353,36,4,5,français,m,0,0.0,41.51350967,0.93543931
610d671491693e4ff410860c,137,2,2024-02-27T10:55:06.910Z,english_785.wav,0,peel,353,36,4,5,français,m,1,0.1,26.23517368,1.17819894
610d671491693e4ff410860c,137,2,2024-02-27T10:55:06.910Z,english_785.wav,0,peel,353,36,4,5,français,m,2,0.2,-12.63822228,1.98833146
610d671491693e4ff410860c,137,2,2024-02-27T10:55:06.910Z,english_785.wav,0,peel,353,36,4,5,français,m,3,0.3,-30.66588474,0.80021218
610d671491693e4ff410860c,137,2,2024-02-27T10:55:06.910Z,english_785.wav,0,peel,353,36,4,5,français,m,4,0.32341667,26.08399401,1.2737519
610d671491693e4ff410860c,138,2,2024-02-27T10:55:06.910Z,english_460.wav,0,pill,1551,36,4,5,français,m,0,0.0,-93.21492338,1.97422145
610d671491693e4ff410860c,138,2,2024-02-27T10:55:06.910Z,english_460.wav,0,pill,1551,36,4,5,français,m,1,0.1,-65.59669931,0.48313428
610d671491693e4ff410860c,138,2,2024-02-27T10:55:06.910Z,english_460.wav,0,pill,1551,36,4,5,français,m,2,0.2,76.47030005,0.91916034
610d671491693e4ff410860c,138,2,2024-02-27T10:55:06.910Z,english_460.wav,0,pill,1551,36,4,5,français,m,3,0.3,-24.62267943,0.34121923
610d671491693e4ff410860c,138,2,2024-02-27T10:55:06.910Z,english_460.wav,0,pill,1551,36,4,5,français,m,4,0.32341667,17.6428759,0.75894887
610d671491693e4ff410860c,139,2,2024-02-27T10:55:06.910Z,english_980.wav,0,pill,544,36,4,5,français,m,0,0.0,-32.33629208,1.21290567
610d671491693e4ff410860c,139,2,2024-02-27T10:55:06.910Z,english_980.wav,0,pill,544,36,4,5,français,m,1,0.1,-4.4140807,0.22350007
610d671491693e4ff410860c,139,2,2024-02-27T10:55:06.910Z,english_980.wav,0,pill,544,36,4,5,français,m,2,0.2,76.81412515,1.68078519
610d671491693e4ff410860c,139,2,2024-02-27T10:55:06.910Z,english_980.wav,0,pill,544,36,4,5,français,m,3,0.3,-16.24877133,0.16816052
610d671491693e4ff410860c,139,2,2024-02-27T10:55:06.910Z,english_980.wav,0,pill,544,36,4,5,français,m,4,0.32341667,-26.44128118,1.48722631
610d671491693e4ff410860c,140,2,2024-02-27T10:55:06.910Z,english_841.wav,0,pill,424,36,4,5,français,m,0,0.0,36.57834023,0.37598589
610d671491693e4ff410860c,140,2,2024-02-27T10:55:06.910Z,english_841.wav,0,pill,424,36,4,5,français,m,1,0.1,81.12994836,1.18949815
610d671491693e4ff410860c,140,2,2024-02-27T10:55:06.910Z,english_841.wav,0,pill,424,36,4,5,français,m,2,0.2,55.4316434,1.24219065
610d671491693e4ff410860c,140,2,2024-02-27T10:55:06.910Z,english_841.wav,0,pill,424,36,4,5,français,m,3,0.3,-50.85387517,1.45004046
610d671491693e4ff410860c,140,2,2024-02-27T10:55:06.910Z,english_841.wav,0,pill,424,36,4,5,français,m,4,0.32341667,-52.13814436,0.19253582
610d671491693e4ff410860c,141,2,2024-02-27T10:55:06.910Z,english_639.wav,0,peel,510,36,4,5,français,m,0,0.0,-8.64176861,1.80061108
610d671491693e4ff410860c,141,2,2024-02-27T10:55:06.910Z,english_639.wav,0,peel,510,36,4,5,français,m,1,0.1,-2.28240571,0.32075858
610d671491693e4ff410860c,141,2,2024-02-27T10:55:06.910Z,english_639.wav,0,peel,510,36,4,5,français,m,2,0.2,61.07673865,0.35362442
610d671491693e4ff410860c,141,2,2024-02-27T10:55:06.910Z,english_639.wav,0,peel,510,36,4,5,français,m,3,0.3,-20.33592136,1.48415136
610d671491693e4ff410860c,141,2,2024-02-27T10:55:06.910Z,english_639.wav,0,peel,510,36,4,5,français,m,4,0.32341667,-24.05835486,0.14560931
610d671491693e4ff410860c,142,2,2024-02-27T10:55:06.910Z,english_675.wav,0,peel,371,36,4,5,français,m,0,0.0,-31.75128323,1.35198954
610d671491693e4ff410860c,142,2,2024-02-27T10:55:06.910Z,english_675.wav,0,peel,371,36,4,5,français,m,1,0.1,60.52679753,1.32787853
610d671491693e4ff410860c,142,2,2024-02-27T10:55:06.910Z,english_675.wav,0,peel,371,36,4,5,français,m,2,0.2,-22.8835824,1.57632911
610d671491693e4ff410860c,142,2,2024-02-27T10:55:06.910Z,english_675.wav,0,peel,371,36,4,5,français,m,3,0.3,-6.32596177,0.80140737
610d671491693e4ff410860c,142,2,2024-02-27T10:55:06.910Z,english_675.wav,0,peel,371,36,4,5,français,m,4,0.32341667,-61.06491024,0.99818917
610d671491693e4ff410860c,143,2,2024-02-27T10:55:06.910Z,english_360.wav,0,pill,504,36,4,5,français,m,0,0.0,-50.57937638,0.73788637
610d671491693e4ff410860c,143,2,2024-02-27T10:55:06.910Z,english_360.wav,0,pill,504,36,4,5,français,m,1,0.1,-29.22164644,0.6487653
610d671491693e4ff410860c,143,2,2024-02-27T10:55:06.910Z,english_360.wav,0,pill,504,36,4,5,français,m,2,0.2,-88.45421248,0.73193848
610d671491693e4ff410860c,143,2,2024-02-27T10:55:06.910Z,english_360.wav,0,pill,504,36,4,5,français,m,3,0.3,93.68039656,1.75347372
610d671491693e4ff410860c,143,2,2024-02-27T10:55:06.910Z,english_360.wav,0,pill,504,36,4,5,français,m,4,0.32341667,-2.59092547,1.19277037
610d671491693e4ff410860c,144,2,2024-02-27T10:55:06.910Z,english_968.wav,0,peel,572,36,4,5,français,m,0,0.0,-36.76350372,0.52322451
610d671491693e4ff410860c,144,2,2024-02-27T10:55:06.910Z,english_968.wav,0,peel,572,36,4,5,français,m,1,0.1,-99.8991193,0.66419732
610d671491693e4ff410860c,144,2,2024-02-27T10:55:06.910Z,english_968.wav,0,peel,572,36,4,5,français,m,2,0.2,27.503089,0.44232096
610d671491693e4ff410860c,144,2,2024-02-27T10:55:06.910Z,english_968.wav,0,peel,572,36,4,5,français,m,3,0.3,-34.85106147,1.90778707
610d671491693e4ff410860c,144,2,2024-02-27T10:55:06.910Z,english_968.wav,0,peel,572,36,4,5,français,m,4,0.32341667,68.2869663,0.59652698
610d671491693e4ff410860c,145,2,2024-02-27T10:55:06.910Z,english_746.wav,0,pill,462,36,4,5,français,m,0,0.0,-1.32395796,1.72273729
610d671491693e4ff410860c,145,2,2024-02-27T10:55:06.910Z,english_746.wav,0,pill,462,36,4,5,français,m,1,0.1,-67.07117971,1.22961235
610d671491693e4ff410860c,145,2,2024-02-27T10:55:06.910Z,english_746.wav,0,pill,462,36,4,5,français,m,2,0.2,75.09604974,1.29107068
610d671491693e4ff410860c,145,2,2024-02-27T10:55:06.910Z,english_746.wav,0,pill,462,36,4,5,français,m,3,0.3,-48.59278454,1.34694816
610d671491693e4ff410860c,145,2,2024-02-27T10:55:06.910Z,english_746.wav,0,pill,462,36,4,5,français,m,4,0.32341667,-6.52080997,0.94274536
610d671491693e4ff410860c,146,2,2024-02-27T10:55:06.910Z,english_392.wav,0,pill,530,36,4,5,français,m,0,0.0,-12.90562814,1.13144201
610d671491693e4ff410860c,146,2,2024-02-27T10:55:06.910Z,english_392.wav,0,pill,530,36,4,5,français,m,1,0.1,-1.29416779,0.98893381
610d671491693e4ff410860c,146,2,2024-02-27T10:55:06.910Z,english_392.wav,0,pill,530,36,4,5,français,m,2,0.2,-53.34155903,0.07204825
610d671491693e4ff410860c,146,2,2024-02-27T10:55:06.910Z,english_392.wav,0,pill,530,36,4,5,français,m,3,0.3,-48.65153398,1.52779633
610d671491693e4ff410860c,146,2,2024-02-27T10:55:06.910Z,english_392.wav,0,pill,530,36,4,5,français,m,4,0.32341667,-43.47653164,1.32355089
610d671491693e4ff410860c,147,2,2024-02-27T10:55:06.910Z,english_240.wav,0,pill,380,36,4,5,français,m,0,0.0,-96.55121617,1.04823872
610d671491693e4ff410860c,147,2,2024-02-27T10:55:06.910Z,english_240.wav,0,pill,380,36,4,5,français,m,1,0.1,73.99435309,1.11556714
610d671491693e4ff410860c,147,2,2024-02-27T10:55:06.910Z,english_240.wav,0,pill,380,36,4,5,français,m,2,0.2,-27.17256968,0.68795106
610d671491693e4ff410860c,147,2,2024-02-27T10:55:06.910Z,english_240.wav,0,pill,380,36,4,5,français,m,3,0.3,-2.05185553,1.30325309
610d671491693e4ff410860c,147,2,2024-02-27T10:55:06.910Z,english_240.wav,0,pill,380,36,4,5,français,m,4,0.32341667,80.37406519,0.86977317
610d671491693e4ff410860c,148,2,2024-02-27T10:55:06.910Z,english_212.wav,0,peel,409,36,4,5,français,m,0,0.0,-8.03708838,0.69940518
610d671491693e4ff410860c,148,2,2024-02-27T10:55:06.910Z,english_212.wav,0,peel,409,36,4,5,français,m,1,0.1,72.60121642,1.0039509
610d671491693e4ff410860c,148,2,2024-02-27T10:55:06.910Z,english_212.wav,0,peel,409,36,4,5,français,m,2,0.2,-98.76374397,1.17731185
610d671491693e4ff410860c,148,2,2024-02-27T10:55:06.910Z,english_212.wav,0,peel,409,36,4,5,français,m,3,0.3,31.47742107,0.88066499
610d671491693e4ff410860c,148,2,2024-02-27T10:55:06.910Z,english_212.wav,0,peel,409,36,4,5,français,m,4,0.32341667,53.59344022,0.33624016
610d671491693e4ff410860c,149,2,2024-02-27T10:55:06.910Z,english_421.wav,0,pill,1091,36,4,5,français,m,0,0.0,25.39012861,1.47358925
610d671491693e4ff410860c,149,2,2024-02-27T10:55:06.910Z,english_421.wav,0,pill,1091,36,4,5,français,m,1,0.1,49.11153532,1.20920516
610d671491693e4ff410860c,149,2,2024-02-27T10:55:06.910Z,english_421.wav,0,pill,1091,36,4,5,français,m,2,0.2,38.93723883,0.72174872
610d671491693e4ff410860c,149,2,2024-02-27T10:55:06.910Z,english_421.wav,0,pill,1091,36,4,5,français,m,3,0.3,-9.34286459,0.24556907
610d671491693e4ff410860c,149,2,2024-02-27T10:55:06.910Z,english_421.wav,0,pill,1091,36,4,5,français,m,4,0.32341667,-9.28476392,0.87006143
610d671491693e4ff410860c,150,3,2024-02-27T10:55:06.910Z,english_169.wav,0,peel,508,36,4,5,français,m,0,0.0,21.52556644,0.24747868
610d671491693e4ff410860c,150,3,2024-02-27T10:55:06.910Z,english_169.wav,0,peel,508,36,4,5,français,m,1,0.1,-62.21960884,0.51530303
610d671491693e4ff410860c,150,3,2024-02-27T10:55:06.910Z,english_169.wav,0,peel,508,36,4,5,français,m,2,0.2,-58.58818316,1.14352058
610d671491693e4ff410860c,150,3,2024-02-27T10:55:06.910Z,english_169.wav,0,peel,508,36,4,5,français,m,3,0.3,14.95103608,1.46694059
610d671491693e4ff410860c,150,3,2024-02-27T10:55:06.910Z,english_169.wav,0,peel,508,36,4,5,français,m,4,0.32341667,21.70814087,1.67980684
610d671491693e4ff410860c,151,3,2024-02-27T10:55:06.910Z,english_184.wav,0,peel,940,36,4,5,français,m,0,0.0,29.65201825,1.69567788
610d671491693e4ff410860c,151,3,2024-02-27T10:55:06.910Z,english_184.wav,0,peel,940,36,4,5,français,m,1,0.1,16.48348791,1.26735627
610d671491693e4ff410860c,151,3,2024-02-27T10:55:06.910Z,english_184.wav,0,peel,940,36,4,5,français,m,2,0.2,3.77448983,0.95352895
610d671491693e4ff410860c,151,3,2024-02-27T10:55:06.910Z,english_184.wav,0,peel,940,36,4,5,français,m,3,0.3,62.87502431,1.7991474
610d671491693e4ff410860c,151,3,2024-02-27T10:55:06.910Z,english_184.wav,0,peel,940,36,4,5,français,m,4,0.32341667,-8.82418577,0.98992659
610d671491693e4ff410860c,152,3,2024-02-27T10:55:06.910Z,english_861.wav,0,pill,564,36,4,5,français,m,0,0.0,-30.19921015,0.56503536
610d671491693e4ff410860c,152,3,2024-02-27T10:55:06.910Z,english_861.wav,0,pill,564,36,4,5,français,m,1,0.1,75.2433288,1.43622494
610d671491693e4ff410860c,152,3,2024-02-27T10:55:06.910Z,english_861.wav,0,pill,564,36,4,5,français,m,2,0.2,-49.47813624,1.73497671
