subj,trial,block,date,stim,stim_order,response,rt,age,english,french,language,sex,param_index,segment,pitch,stretch
58a23b2b27c3bb00014e6d9a,0,0,2024-02-27T10:48:33.536Z,english_30.wav,0,pill,614,40,4,5,français,f,0,0.0,-18.5398728,0.31748681
58a23b2b27c3bb00014e6d9a,0,0,2024-02-27T10:48:33.536Z,english_30.wav,0,pill,614,40,4,5,français,f,1,0.1,-67.34991207,1.82477139
58a23b2b27c3bb00014e6d9a,0,0,2024-02-27T10:48:33.536Z,english_30.wav,0,pill,614,40,4,5,français,f,2,0.2,65.54879707,1.59992979
58a23b2b27c3bb00014e6d9a,0,0,2024-02-27T10:48:33.536Z,english_30.wav,0,pill,614,40,4,5,français,f,3,0.3,30.88088319,0.89523729
58a23b2b27c3bb00014e6d9a,0,0,2024-02-27T10:48:33.536Z,english_30.wav,0,pill,614,40,4,5,français,f,4,0.32341667,50.60550813,1.02052202
58a23b2b27c3bb00014e6d9a,1,0,2024-02-27T10:48:33.536Z,english_422.wav,0,peel,851,40,4,5,français,f,0,0.0,-79.81150205,1.34332733
58a23b2b27c3bb00014e6d9a,1,0,2024-02-27T10:48:33.536Z,english_422.wav,0,peel,851,40,4,5,français,f,1,0.1,-2.02836706,0.77514932
58a23b2b27c3bb00014e6d9a,1,0,2024-02-27T10:48:33.536Z,english_422.wav,0,peel,851,40,4,5,français,f,2,0.2,-11.18998235,0.33214039
58a23b2b27c3bb00014e6d9a,1,0,2024-02-27T10:48:33.536Z,english_422.wav,0,peel,851,40,4,5,français,f,3,0.3,52.04958687,0.53493982
58a23b2b27c3bb00014e6d9a,1,0,2024-02-27T10:48:33.536Z,english_422.wav,0,peel,851,40,4,5,français,f,4,0.32341667,-63.48776447,0.45685022
58a23b2b27c3bb00014e6d9a,2,0,2024-02-27T10:48:33.536Z,english_897.wav,0,peel,1237,40,4,5,français,f,0,0.0,-6.17515852,1.45954458
58a23b2b27c3bb00014e6d9a,2,0,2024-02-27T10:48:33.536Z,english_897.wav,0,peel,1237,40,4,5,français,f,1,0.1,-25.56252799,1.4662158
58a23b2b27c3bb00014e6d9a,2,0,2024-02-27T10:48:33.536Z,english_897.wav,0,peel,1237,40,4,5,français,f,2,0.2,-51.51756482,1.09304129
58a23b2b27c3bb00014e6d9a,2,0,2024-02-27T10:48:33.536Z,english_897.wav,0,peel,1237,40,4,5,français,f,3,0.3,-57.3776393,1.17713492
58a23b2b27c3bb00014e6d9a,2,0,2024-02-27T10:48:33.536Z,english_897.wav,0,peel,1237,40,4,5,français,f,4,0.32341667,-65.82780913,1.23726335
58a23b2b27c3bb00014e6d9a,3,0,2024-02-27T10:48:33.536Z,english_287.wav,0,pill,1023,40,4,5,français,f,0,0.0,-5.71925808,1.04112926
58a23b2b27c3bb00014e6d9a,3,0,2024-02-27T10:48:33.536Z,english_287.wav,0,pill,1023,40,4,5,français,f,1,0.1,-94.78041007,0.35149142
58a23b2b27c3bb00014e6d9a,3,0,2024-02-27T10:48:33.536Z,english_287.wav,0,pill,1023,40,4,5,français,f,2,0.2,8.34641368,0.86781598
58a23b2b27c3bb00014e6d9a,3,0,2024-02-27T10:48:33.536Z,english_287.wav,0,pill,1023,40,4,5,français,f,3,0.3,36.34893025,1.897904
58a23b2b27c3bb00014e6d9a,3,0,2024-02-27T10:48:33.536Z,english_287.wav,0,pill,1023,40,4,5,français,f,4,0.32341667,-22.47689594,0.5607403
58a23b2b27c3bb00014e6d9a,4,0,2024-02-27T10:48:33.536Z,english_307.wav,0,peel,600,40,4,5,français,f,0,0.0,-38.93106299,1.91951228
58a23b2b27c3bb00014e6d9a,4,0,2024-02-27T10:48:33.536Z,english_307.wav,0,peel,600,40,4,5,français,f,1,0.1,-30.40144858,0.50419792
58a23b2b27c3bb00014e6d9a,4,0,2024-02-27T10:48:33.536Z,english_307.wav,0,peel,600,40,4,5,français,f,2,0.2,2.19081651,0.76602689
58a23b2b27c3bb00014e6d9a,4,0,2024-02-27T10:48:33.536Z,english_307.wav,0,peel,600,40,4,5,français,f,3,0.3,30.82741361,0.59904457
58a23b2b27c3bb00014e6d9a,4,0,2024-02-27T10:48:33.536Z,english_307.wav,0,peel,600,40,4,5,français,f,4,0.32341667,46.9007513,1.94941235
58a23b2b27c3bb00014e6d9a,5,0,2024-02-27T10:48:33.536Z,english_688.wav,0,peel,654,40,4,5,français,f,0,0.0,-45.64286614,1.06356906
58a23b2b27c3bb00014e6d9a,5,0,2024-02-27T10:48:33.536Z,english_688.wav,0,peel,654,40,4,5,français,f,1,0.1,39.73956276,0.85197809
58a23b2b27c3bb00014e6d9a,5,0,2024-02-27T10:48:33.536Z,english_688.wav,0,peel,654,40,4,5,français,f,2,0.2,40.53719602,0.68718846
58a23b2b27c3bb00014e6d9a,5,0,2024-02-27T10:48:33.536Z,english_688.wav,0,peel,654,40,4,5,français,f,3,0.3,-71.29470492,1.67995478
58a23b2b27c3bb00014e6d9a,5,0,2024-02-27T10:48:33.536Z,english_688.wav,0,peel,654,40,4,5,français,f,4,0.32341667,73.7490074,1.45979079
58a23b2b27c3bb00014e6d9a,6,0,2024-02-27T10:48:33.536Z,english_4.wav,0,peel,605,40,4,5,français,f,0,0.0,97.57442054,1.3122383
58a23b2b27c3bb00014e6d9a,6,0,2024-02-27T10:48:33.536Z,english_4.wav,0,peel,605,40,4,5,français,f,1,0.1,57.41970729,1.27661748
58a23b2b27c3bb00014e6d9a,6,0,2024-02-27T10:48:33.536Z,english_4.wav,0,peel,605,40,4,5,français,f,2,0.2,32.67065062,1.16138222
58a23b2b27c3bb00014e6d9a,6,0,2024-02-27T10:48:33.536Z,english_4.wav,0,peel,605,40,4,5,français,f,3,0.3,34.06011343,0.34510216
58a23b2b27c3bb00014e6d9a,6,0,2024-02-27T10:48:33.536Z,english_4.wav,0,peel,605,40,4,5,français,f,4,0.32341667,83.59797788,1.84938224
58a23b2b27c3bb00014e6d9a,7,0,2024-02-27T10:48:33.536Z,english_935.wav,0,peel,618,40,4,5,français,f,0,0.0,64.39543101,0.53440609
58a23b2b27c3bb00014e6d9a,7,0,2024-02-27T10:48:33.536Z,english_935.wav,0,peel,618,40,4,5,français,f,1,0.1,86.95314533,0.5847186
58a23b2b27c3bb00014e6d9a,7,0,2024-02-27T10:48:33.536Z,english_935.wav,0,peel,618,40,4,5,français,f,2,0.2,-18.93400703,0.87093815
58a23b2b27c3bb00014e6d9a,7,0,2024-02-27T10:48:33.536Z,english_935.wav,0,peel,618,40,4,5,français,f,3,0.3,36.25821345,1.35336039
58a23b2b27c3bb00014e6d9a,7,0,2024-02-27T10:48:33.536Z,english_935.wav,0,peel,618,40,4,5,français,f,4,0.32341667,-52.75689815,1.46825192
58a23b2b27c3bb00014e6d9a,8,0,2024-02-27T10:48:33.536Z,english_3.wav,0,peel,532,40,4,5,français,f,0,0.0,-57.66547148,1.73485112
58a23b2b27c3bb00014e6d9a,8,0,2024-02-27T10:48:33.536Z,english_3.wav,0,peel,532,40,4,5,français,f,1,0.1,-70.60568286,1.4226462
58a23b2b27c3bb00014e6d9a,8,0,2024-02-27T10:48:33.536Z,english_3.wav,0,peel,532,40,4,5,français,f,2,0.2,70.86912423,1.06235888
58a23b2b27c3bb00014e6d9a,8,0,2024-02-27T10:48:33.536Z,english_3.wav,0,peel,532,40,4,5,français,f,3,0.3,-17.39285893,1.05619652
58a23b2b27c3bb00014e6d9a,8,0,2024-02-27T10:48:33.536Z,english_3.wav,0,peel,532,40,4,5,français,f,4,0.32341667,-60.61780379,1.35606233
58a23b2b27c3bb00014e6d9a,9,0,2024-02-27T10:48:33.536Z,english_46.wav,0,peel,406,40,4,5,français,f,0,0.0,-29.32250151,0.64118776
58a23b2b27c3bb00014e6d9a,9,0,2024-02-27T10:48:33.536Z,english_46.wav,0,peel,406,40,4,5,français,f,1,0.1,-3.06808063,0.73649566
58a23b2b27c3bb00014e6d9a,9,0,2024-02-27T10:48:33.536Z,english_46.wav,0,peel,406,40,4,5,français,f,2,0.2,90.97923358,1.88790792
58a23b2b27c3bb00014e6d9a,9,0,2024-02-27T10:48:33.536Z,english_46.wav,0,peel,406,40,4,5,français,f,3,0.3,10.7462216,0.26788582
58a23b2b27c3bb00014e6d9a,9,0,2024-02-27T10:48:33.536Z,english_46.wav,0,peel,406,40,4,5,français,f,4,0.32341667,-76.74347892,0.543593
58a23b2b27c3bb00014e6d9a,10,0,2024-02-27T10:48:33.536Z,english_812.wav,0,peel,918,40,4,5,français,f,0,0.0,70.24469457,0.85599223
58a23b2b27c3bb00014e6d9a,10,0,2024-02-27T10:48:33.536Z,english_812.wav,0,peel,918,40,4,5,français,f,1,0.1,-27.51466786,0.39005905
58a23b2b27c3bb00014e6d9a,10,0,2024-02-27T10:48:33.536Z,english_812.wav,0,peel,918,40,4,5,français,f,2,0.2,60.55844263,1.43275618
58a23b2b27c3bb00014e6d9a,10,0,2024-02-27T10:48:33.536Z,english_812.wav,0,peel,918,40,4,5,français,f,3,0.3,52.93607499,1.34329238
58a23b2b27c3bb00014e6d9a,10,0,2024-02-27T10:48:33.536Z,english_812.wav,0,peel,918,40,4,5,français,f,4,0.32341667,74.74872052,0.96810209
58a23b2b27c3bb00014e6d9a,11,0,2024-02-27T10:48:33.536Z,english_142.wav,0,pill,843,40,4,5,français,f,0,0.0,-46.59943425,0.40064358
58a23b2b27c3bb00014e6d9a,11,0,2024-02-27T10:48:33.536Z,english_142.wav,0,pill,843,40,4,5,français,f,1,0.1,63.17145436,0.61162855
58a23b2b27c3bb00014e6d9a,11,0,2024-02-27T10:48:33.536Z,english_142.wav,0,pill,843,40,4,5,français,f,2,0.2,73.87775976,0.23189939
58a23b2b27c3bb00014e6d9a,11,0,2024-02-27T10:48:33.536Z,english_142.wav,0,pill,843,40,4,5,français,f,3,0.3,-84.55157756,1.54635995
58a23b2b27c3bb00014e6d9a,11,0,2024-02-27T10:48:33.536Z,english_142.wav,0,pill,843,40,4,5,français,f,4,0.32341667,20.35536038,1.86221744
58a23b2b27c3bb00014e6d9a,12,0,2024-02-27T10:48:33.536Z,english_608.wav,0,peel,461,40,4,5,français,f,0,0.0,78.8022196,1.54390555
58a23b2b27c3bb00014e6d9a,12,0,2024-02-27T10:48:33.536Z,english_608.wav,0,peel,461,40,4,5,français,f,1,0.1,59.03316834,1.36513164
58a23b2b27c3bb00014e6d9a,12,0,2024-02-27T10:48:33.536Z,english_608.wav,0,peel,461,40,4,5,français,f,2,0.2,-13.94961152,0.78716897
58a23b2b27c3bb00014e6d9a,12,0,2024-02-27T10:48:33.536Z,english_608.wav,0,peel,461,40,4,5,français,f,3,0.3,55.83681575,1.29889886
58a23b2b27c3bb00014e6d9a,12,0,2024-02-27T10:48:33.536Z,english_608.wav,0,peel,461,40,4,5,français,f,4,0.32341667,-13.77656228,0.44376749
58a23b2b27c3bb00014e6d9a,13,0,2024-02-27T10:48:33.536Z,english_272.wav,0,peel,419,40,4,5,français,f,0,0.0,61.82030971,1.51341556
58a23b2b27c3bb00014e6d9a,13,0,2024-02-27T10:48:33.536Z,english_272.wav,0,peel,419,40,4,5,français,f,1,0.1,4.16580657,0.43290826
58a23b2b27c3bb00014e6d9a,13,0,2024-02-27T10:48:33.536Z,english_272.wav,0,peel,419,40,4,5,français,f,2,0.2,-53.2567432,1.82734584
58a23b2b27c3bb00014e6d9a,13,0,2024-02-27T10:48:33.536Z,english_272.wav,0,peel,419,40,4,5,français,f,3,0.3,-52.99830768,0.22094446
58a23b2b27c3bb00014e6d9a,13,0,2024-02-27T10:48:33.536Z,english_272.wav,0,peel,419,40,4,5,français,f,4,0.32341667,-92.9943793,1.88040337
58a23b2b27c3bb00014e6d9a,14,0,2024-02-27T10:48:33.536Z,english_100.wav,0,peel,424,40,4,5,français,f,0,0.0,-66.86198445,0.79522553
58a23b2b27c3bb00014e6d9a,14,0,2024-02-27T10:48:33.536Z,english_100.wav,0,peel,424,40,4,5,français,f,1,0.1,32.23990363,0.27784591
58a23b2b27c3bb00014e6d9a,14,0,2024-02-27T10:48:33.536Z,english_100.wav,0,peel,424,40,4,5,français,f,2,0.2,-63.31896149,1.76330212
58a23b2b27c3bb00014e6d9a,14,0,2024-02-27T10:48:33.536Z,english_100.wav,0,peel,424,40,4,5,français,f,3,0.3,-73.00038049,0.60946618
58a23b2b27c3bb00014e6d9a,14,0,2024-02-27T10:48:33.536Z,english_100.wav,0,peel,424,40,4,5,français,f,4,0.32341667,32.15710315,0.42695433
58a23b2b27c3bb00014e6d9a,15,0,2024-02-27T10:48:33.536Z,english_410.wav,0,peel,468,40,4,5,français,f,0,0.0,-74.64506245,0.42358098
58a23b2b27c3bb00014e6d9a,15,0,2024-02-27T10:48:33.536Z,english_410.wav,0,peel,468,40,4,5,français,f,1,0.1,65.24401488,0.42526697
58a23b2b27c3bb00014e6d9a,15,0,2024-02-27T10:48:33.536Z,english_410.wav,0,peel,468,40,4,5,français,f,2,0.2,-65.86471953,1.12385183
58a23b2b27c3bb00014e6d9a,15,0,2024-02-27T10:48:33.536Z,english_410.wav,0,peel,468,40,4,5,français,f,3,0.3,98.79489106,0.33588109
58a23b2b27c3bb00014e6d9a,15,0,2024-02-27T10:48:33.536Z,english_410.wav,0,peel,468,40,4,5,français,f,4,0.32341667,14.95451541,1.7246864
58a23b2b27c3bb00014e6d9a,16,0,2024-02-27T10:48:33.536Z,english_233.wav,0,peel,494,40,4,5,français,f,0,0.0,-3.83672366,0.89757337
58a23b2b27c3bb00014e6d9a,16,0,2024-02-27T10:48:33.536Z,english_233.wav,0,peel,494,40,4,5,français,f,1,0.1,-39.8423846,0.76715273
58a23b2b27c3bb00014e6d9a,16,0,2024-02-27T10:48:33.536Z,english_233.wav,0,peel,494,40,4,5,français,f,2,0.2,85.69163348,1.38961473
58a23b2b27c3bb00014e6d9a,16,0,2024-02-27T10:48:33.536Z,english_233.wav,0,peel,494,40,4,5,français,f,3,0.3,40.61484277,0.78787282
58a23b2b27c3bb00014e6d9a,16,0,2024-02-27T10:48:33.536Z,english_233.wav,0,peel,494,40,4,5,français,f,4,0.32341667,-44.9800047,0.48224738
58a23b2b27c3bb00014e6d9a,17,0,2024-02-27T10:48:33.536Z,english_382.wav,0,peel,721,40,4,5,français,f,0,0.0,-83.35497559,1.24516413
58a23b2b27c3bb00014e6d9a,17,0,2024-02-27T10:48:33.536Z,english_382.wav,0,peel,721,40,4,5,français,f,1,0.1,7.83115402,0.59675254
58a23b2b27c3bb00014e6d9a,17,0,2024-02-27T10:48:33.536Z,english_382.wav,0,peel,721,40,4,5,français,f,2,0.2,77.46115257,0.61036026
58a23b2b27c3bb00014e6d9a,17,0,2024-02-27T10:48:33.536Z,english_382.wav,0,peel,721,40,4,5,français,f,3,0.3,89.755233,1.95554414
58a23b2b27c3bb00014e6d9a,17,0,2024-02-27T10:48:33.536Z,english_382.wav,0,peel,721,40,4,5,français,f,4,0.32341667,-36.08570956,1.60845727
58a23b2b27c3bb00014e6d9a,18,0,2024-02-27T10:48:33.536Z,english_968.wav,0,pill,686,40,4,5,français,f,0,0.0,-36.76350372,0.52322451
58a23b2b27c3bb00014e6d9a,18,0,2024-02-27T10:48:33.536Z,english_968.wav,0,pill,686,40,4,5,français,f,1,0.1,-99.8991193,0.66419732
58a23b2b27c3bb00014e6d9a,18,0,2024-02-27T10:48:33.536Z,english_968.wav,0,pill,686,40,4,5,français,f,2,0.2,27.503089,0.44232096
58a23b2b27c3bb00014e6d9a,18,0,2024-02-27T10:48:33.536Z,english_968.wav,0,pill,686,40,4,5,français,f,3,0.3,-34.85106147,1.90778707
58a23b2b27c3bb00014e6d9a,18,0,2024-02-27T10:48:33.536Z,english_968.wav,0,pill,686,40,4,5,français,f,4,0.32341667,68.2869663,0.59652698
58a23b2b27c3bb00014e6d9a,19,0,2024-02-27T10:48:33.536Z,english_858.wav,0,peel,488,40,4,5,français,f,0,0.0,45.12570132,0.50395823
58a23b2b27c3bb00014e6d9a,19,0,2024-02-27T10:48:33.536Z,english_858.wav,0,peel,488,40,4,5,français,f,1,0.1,-46.71359417,1.50658612
58a23b2b27c3bb00014e6d9a,19,0,2024-02-27T10:48:33.536Z,english_858.wav,0,peel,488,40,4,5,français,f,2,0.2,-60.32464978,0.86887416
58a23b2b27c3bb00014e6d9a,19,0,2024-02-27T10:48:33.536Z,english_858.wav,0,peel,488,40,4,5,français,f,3,0.3,-70.46241098,0.20520469
58a23b2b27c3bb00014e6d9a,19,0,2024-02-27T10:48:33.536Z,english_858.wav,0,peel,488,40,4,5,français,f,4,0.32341667,76.51169453,1.05885662
58a23b2b27c3bb00014e6d9a,20,0,2024-02-27T10:48:33.536Z,english_383.wav,0,peel,562,40,4,5,français,f,0,0.0,-1.49759031,0.61403304
58a23b2b27c3bb00014e6d9a,20,0,2024-02-27T10:48:33.536Z,english_383.wav,0,peel,562,40,4,5,français,f,1,0.1,48.0809444,0.69225556
58a23b2b27c3bb00014e6d9a,20,0,2024-02-27T10:48:33.536Z,english_383.wav,0,peel,562,40,4,5,français,f,2,0.2,-84.09524499,0.33452268
58a23b2b27c3bb00014e6d9a,20,0,2024-02-27T10:48:33.536Z,english_383.wav,0,peel,562,40,4,5,français,f,3,0.3,95.23220486,1.06792504
58a23b2b27c3bb00014e6d9a,20,0,2024-02-27T10:48:33.536Z,english_383.wav,0,peel,562,40,4,5,français,f,4,0.32341667,64.91086902,0.58483827
58a23b2b27c3bb00014e6d9a,21,0,2024-02-27T10:48:33.536Z,english_840.wav,0,pill,788,40,4,5,français,f,0,0.0,-27.11425843,1.31301797
58a23b2b27c3bb00014e6d9a,21,0,2024-02-27T10:48:33.536Z,english_840.wav,0,pill,788,40,4,5,français,f,1,0.1,-47.31494811,0.54280133
58a23b2b27c3bb00014e6d9a,21,0,2024-02-27T10:48:33.536Z,english_840.wav,0,pill,788,40,4,5,français,f,2,0.2,-88.66887426,0.14090987
58a23b2b27c3bb00014e6d9a,21,0,2024-02-27T10:48:33.536Z,english_840.wav,0,pill,788,40,4,5,français,f,3,0.3,7.86940595,0.11950116
58a23b2b27c3bb00014e6d9a,21,0,2024-02-27T10:48:33.536Z,english_840.wav,0,pill,788,40,4,5,français,f,4,0.32341667,87.61758205,1.48166624
58a23b2b27c3bb00014e6d9a,22,0,2024-02-27T10:48:33.536Z,english_944.wav,0,peel,480,40,4,5,français,f,0,0.0,70.24274457,0.61048125
58a23b2b27c3bb00014e6d9a,22,0,2024-02-27T10:48:33.536Z,english_944.wav,0,peel,480,40,4,5,français,f,1,0.1,-48.79231442,1.63310511
58a23b2b27c3bb00014e6d9a,22,0,2024-02-27T10:48:33.536Z,english_944.wav,0,peel,480,40,4,5,français,f,2,0.2,-6.42324239,0.21687347
58a23b2b27c3bb00014e6d9a,22,0,2024-02-27T10:48:33.536Z,english_944.wav,0,peel,480,40,4,5,français,f,3,0.3,-7.7338836,0.45027042
58a23b2b27c3bb00014e6d9a,22,0,2024-02-27T10:48:33.536Z,english_944.wav,0,peel,480,40,4,5,français,f,4,0.32341667,69.46240638,0.90306897
58a23b2b27c3bb00014e6d9a,23,0,2024-02-27T10:48:33.536Z,english_672.wav,0,peel,442,40,4,5,français,f,0,0.0,30.04022321,0.7872581
58a23b2b27c3bb00014e6d9a,23,0,2024-02-27T10:48:33.536Z,english_672.wav,0,peel,442,40,4,5,français,f,1,0.1,-49.20146972,1.24822874
58a23b2b27c3bb00014e6d9a,23,0,2024-02-27T10:48:33.536Z,english_672.wav,0,peel,442,40,4,5,français,f,2,0.2,68.57510342,1.0921985
58a23b2b27c3bb00014e6d9a,23,0,2024-02-27T10:48:33.536Z,english_672.wav,0,peel,442,40,4,5,français,f,3,0.3,46.99705545,1.42682896
58a23b2b27c3bb00014e6d9a,23,0,2024-02-27T10:48:33.536Z,english_672.wav,0,peel,442,40,4,5,français,f,4,0.32341667,-96.75951233,0.39437363
58a23b2b27c3bb00014e6d9a,24,0,2024-02-27T10:48:33.536Z,english_679.wav,0,pill,662,40,4,5,français,f,0,0.0,37.61966445,0.05085037
58a23b2b27c3bb00014e6d9a,24,0,2024-02-27T10:48:33.536Z,english_679.wav,0,pill,662,40,4,5,français,f,1,0.1,51.99791738,0.83446012
58a23b2b27c3bb00014e6d9a,24,0,2024-02-27T10:48:33.536Z,english_679.wav,0,pill,662,40,4,5,français,f,2,0.2,47.28862711,0.17034906
58a23b2b27c3bb00014e6d9a,24,0,2024-02-27T10:48:33.536Z,english_679.wav,0,pill,662,40,4,5,français,f,3,0.3,96.96405016,1.15010704
58a23b2b27c3bb00014e6d9a,24,0,2024-02-27T10:48:33.536Z,english_679.wav,0,pill,662,40,4,5,français,f,4,0.32341667,17.22990972,1.32170415
58a23b2b27c3bb00014e6d9a,25,0,2024-02-27T10:48:33.536Z,english_713.wav,0,peel,402,40,4,5,français,f,0,0.0,18.77281956,1.04868626
58a23b2b27c3bb00014e6d9a,25,0,2024-02-27T10:48:33.536Z,english_713.wav,0,peel,402,40,4,5,français,f,1,0.1,40.78610286,0.48332939
58a23b2b27c3bb00014e6d9a,25,0,2024-02-27T10:48:33.536Z,english_713.wav,0,peel,402,40,4,5,français,f,2,0.2,84.18153491,0.83217717
58a23b2b27c3bb00014e6d9a,25,0,2024-02-27T10:48:33.536Z,english_713.wav,0,peel,402,40,4,5,français,f,3,0.3,47.00827256,1.90318663
58a23b2b27c3bb00014e6d9a,25,0,2024-02-27T10:48:33.536Z,english_713.wav,0,peel,402,40,4,5,français,f,4,0.32341667,66.01008384,0.50055362
58a23b2b27c3bb00014e6d9a,26,0,2024-02-27T10:48:33.536Z,english_376.wav,0,peel,382,40,4,5,français,f,0,0.0,-10.66231765,0.83936518
58a23b2b27c3bb00014e6d9a,26,0,2024-02-27T10:48:33.536Z,english_376.wav,0,peel,382,40,4,5,français,f,1,0.1,-53.95799634,1.7265478
58a23b2b27c3bb00014e6d9a,26,0,2024-02-27T10:48:33.536Z,english_376.wav,0,peel,382,40,4,5,français,f,2,0.2,-44.60014177,0.44309389
58a23b2b27c3bb00014e6d9a,26,0,2024-02-27T10:48:33.536Z,english_376.wav,0,peel,382,40,4,5,français,f,3,0.3,-84.32777745,1.91772458
58a23b2b27c3bb00014e6d9a,26,0,2024-02-27T10:48:33.536Z,english_376.wav,0,peel,382,40,4,5,français,f,4,0.32341667,-2.76179289,0.76255227
58a23b2b27c3bb00014e6d9a,27,0,2024-02-27T10:48:33.536Z,english_625.wav,0,pill,1088,40,4,5,français,f,0,0.0,25.70847239,1.1960971
58a23b2b27c3bb00014e6d9a,27,0,2024-02-27T10:48:33.536Z,english_625.wav,0,pill,1088,40,4,5,français,f,1,0.1,-37.82303983,0.02795501
58a23b2b27c3bb00014e6d9a,27,0,2024-02-27T10:48:33.536Z,english_625.wav,0,pill,1088,40,4,5,français,f,2,0.2,38.52328891,1.10198652
58a23b2b27c3bb00014e6d9a,27,0,2024-02-27T10:48:33.536Z,english_625.wav,0,pill,1088,40,4,5,français,f,3,0.3,-23.93667478,0.08852642
58a23b2b27c3bb00014e6d9a,27,0,2024-02-27T10:48:33.536Z,english_625.wav,0,pill,1088,40,4,5,français,f,4,0.32341667,-53.98326942,1.59813041
58a23b2b27c3bb00014e6d9a,28,0,2024-02-27T10:48:33.536Z,english_977.wav,0,peel,335,40,4,5,français,f,0,0.0,63.46196139,0.87194913
58a23b2b27c3bb00014e6d9a,28,0,2024-02-27T10:48:33.536Z,english_977.wav,0,peel,335,40,4,5,français,f,1,0.1,-23.64022125,1.67919547
58a23b2b27c3bb00014e6d9a,28,0,2024-02-27T10:48:33.536Z,english_977.wav,0,peel,335,40,4,5,français,f,2,0.2,31.65242203,0.97011806
58a23b2b27c3bb00014e6d9a,28,0,2024-02-27T10:48:33.536Z,english_977.wav,0,peel,335,40,4,5,français,f,3,0.3,16.19881364,1.40431802
58a23b2b27c3bb00014e6d9a,28,0,2024-02-27T10:48:33.536Z,english_977.wav,0,peel,335,40,4,5,français,f,4,0.32341667,-33.08554183,1.02563167
58a23b2b27c3bb00014e6d9a,29,0,2024-02-27T10:48:33.536Z,english_785.wav,0,peel,208,40,4,5,français,f,0,0.0,41.51350967,0.93543931
58a23b2b27c3bb00014e6d9a,29,0,2024-02-27T10:48:33.536Z,english_785.wav,0,peel,208,40,4,5,français,f,1,0.1,26.23517368,1.17819894
58a23b2b27c3bb00014e6d9a,29,0,2024-02-27T10:48:33.536Z,english_785.wav,0,peel,208,40,4,5,français,f,2,0.2,-12.63822228,1.98833146
58a23b2b27c3bb00014e6d9a,29,0,2024-02-27T10:48:33.536Z,english_785.wav,0,peel,208,40,4,5,français,f,3,0.3,-30.66588474,0.80021218
58a23b2b27c3bb00014e6d9a,29,0,2024-02-27T10:48:33.536Z,english_785.wav,0,peel,208,40,4,5,français,f,4,0.32341667,26.08399401,1.2737519
58a23b2b27c3bb00014e6d9a,30,0,2024-02-27T10:48:33.536Z,english_279.wav,0,peel,456,40,4,5,français,f,0,0.0,-20.90398108,0.60114424
58a23b2b27c3bb00014e6d9a,30,0,2024-02-27T10:48:33.536Z,english_279.wav,0,peel,456,40,4,5,français,f,1,0.1,98.83098338,0.92336304
58a23b2b27c3bb00014e6d9a,30,0,2024-02-27T10:48:33.536Z,english_279.wav,0,peel,456,40,4,5,français,f,2,0.2,-95.37608427,1.39045705
58a23b2b27c3bb00014e6d9a,30,0,2024-02-27T10:48:33.536Z,english_279.wav,0,peel,456,40,4,5,français,f,3,0.3,-52.65380993,0.64938935
58a23b2b27c3bb00014e6d9a,30,0,2024-02-27T10:48:33.536Z,english_279.wav,0,peel,456,40,4,5,français,f,4,0.32341667,47.72500112,1.57478054
58a23b2b27c3bb00014e6d9a,31,0,2024-02-27T10:48:33.536Z,english_541.wav,0,pill,545,40,4,5,français,f,0,0.0,-20.13323906,0.51383156
58a23b2b27c3bb00014e6d9a,31,0,2024-02-27T10:48:33.536Z,english_541.wav,0,pill,545,40,4,5,français,f,1,0.1,2.48768759,0.65082056
58a23b2b27c3bb00014e6d9a,31,0,2024-02-27T10:48:33.536Z,english_541.wav,0,pill,545,40,4,5,français,f,2,0.2,-86.20966861,0.48716137
58a23b2b27c3bb00014e6d9a,31,0,2024-02-27T10:48:33.536Z,english_541.wav,0,pill,545,40,4,5,français,f,3,0.3,59.01445297,0.54905673
58a23b2b27c3bb00014e6d9a,31,0,2024-02-27T10:48:33.536Z,english_541.wav,0,pill,545,40,4,5,français,f,4,0.32341667,61.23853539,1.76268899
58a23b2b27c3bb00014e6d9a,32,0,2024-02-27T10:48:33.536Z,english_31.wav,0,peel,370,40,4,5,français,f,0,0.0,21.28810337,1.2057056
58a23b2b27c3bb00014e6d9a,32,0,2024-02-27T10:48:33.536Z,english_31.wav,0,peel,370,40,4,5,français,f,1,0.1,68.821868,0.99381392
58a23b2b27c3bb00014e6d9a,32,0,2024-02-27T10:48:33.536Z,english_31.wav,0,peel,370,40,4,5,français,f,2,0.2,-73.02143346,0.87600828
58a23b2b27c3bb00014e6d9a,32,0,2024-02-27T10:48:33.536Z,english_31.wav,0,peel,370,40,4,5,français,f,3,0.3,68.60173581,1.15844697
58a23b2b27c3bb00014e6d9a,32,0,2024-02-27T10:48:33.536Z,english_31.wav,0,peel,370,40,4,5,français,f,4,0.32341667,51.47999234,1.3722803
58a23b2b27c3bb00014e6d9a,33,0,2024-02-27T10:48:33.536Z,english_930.wav,0,peel,431,40,4,5,français,f,0,0.0,-52.65701122,0.60066533
58a23b2b27c3bb00014e6d9a,33,0,2024-02-27T10:48:33.536Z,english_930.wav,0,peel,431,40,4,5,français,f,1,0.1,-24.36484499,1.33650528
58a23b2b27c3bb00014e6d9a,33,0,2024-02-27T10:48:33.536Z,english_930.wav,0,peel,431,40,4,5,français,f,2,0.2,4.10813066,0.15979886
58a23b2b27c3bb00014e6d9a,33,0,2024-02-27T10:48:33.536Z,english_930.wav,0,peel,431,40,4,5,français,f,3,0.3,93.74919515,1.46288505
58a23b2b27c3bb00014e6d9a,33,0,2024-02-27T10:48:33.536Z,english_930.wav,0,peel,431,40,4,5,français,f,4,0.32341667,66.31726896,0.93993915
58a23b2b27c3bb00014e6d9a,34,0,2024-02-27T10:48:33.536Z,english_11.wav,0,peel,448,40,4,5,français,f,0,0.0,-20.45826732,1.19869378
58a23b2b27c3bb00014e6d9a,34,0,2024-02-27T10:48:33.536Z,english_11.wav,0,peel,448,40,4,5,français,f,1,0.1,-31.26113472,0.2059713
58a23b2b27c3bb00014e6d9a,34,0,2024-02-27T10:48:33.536Z,english_11.wav,0,peel,448,40,4,5,français,f,2,0.2,84.03210455,0.62296143
58a23b2b27c3bb00014e6d9a,34,0,2024-02-27T10:48:33.536Z,english_11.wav,0,peel,448,40,4,5,français,f,3,0.3,30.35463164,1.49781179
58a23b2b27c3bb00014e6d9a,34,0,2024-02-27T10:48:33.536Z,english_11.wav,0,peel,448,40,4,5,français,f,4,0.32341667,-63.36217442,0.18750748
58a23b2b27c3bb00014e6d9a,35,0,2024-02-27T10:48:33.536Z,english_945.wav,0,peel,330,40,4,5,français,f,0,0.0,63.16075011,1.8314946
58a23b2b27c3bb00014e6d9a,35,0,2024-02-27T10:48:33.536Z,english_945.wav,0,peel,330,40,4,5,français,f,1,0.1,87.55520176,1.3737613
58a23b2b27c3bb00014e6d9a,35,0,2024-02-27T10:48:33.536Z,english_945.wav,0,peel,330,40,4,5,français,f,2,0.2,-69.60467193,0.61639792
58a23b2b27c3bb00014e6d9a,35,0,2024-02-27T10:48:33.536Z,english_945.wav,0,peel,330,40,4,5,français,f,3,0.3,-69.25530384,1.67239747
58a23b2b27c3bb00014e6d9a,35,0,2024-02-27T10:48:33.536Z,english_945.wav,0,peel,330,40,4,5,français,f,4,0.32341667,-47.64160087,1.88344595
58a23b2b27c3bb00014e6d9a,36,0,2024-02-27T10:48:33.536Z,english_52.wav,0,peel,455,40,4,5,français,f,0,0.0,54.63859099,0.91426261
58a23b2b27c3bb00014e6d9a,36,0,2024-02-27T10:48:33.536Z,english_52.wav,0,peel,455,40,4,5,français,f,1,0.1,-85.67195477,1.20728413
58a23b2b27c3bb00014e6d9a,36,0,2024-02-27T10:48:33.536Z,english_52.wav,0,peel,455,40,4,5,français,f,2,0.2,2.4878885,0.71733995
58a23b2b27c3bb00014e6d9a,36,0,2024-02-27T10:48:33.536Z,english_52.wav,0,peel,455,40,4,5,français,f,3,0.3,86.13143505,1.54149443
58a23b2b27c3bb00014e6d9a,36,0,2024-02-27T10:48:33.536Z,english_52.wav,0,peel,455,40,4,5,français,f,4,0.32341667,-53.30399902,1.3376245
58a23b2b27c3bb00014e6d9a,37,0,2024-02-27T10:48:33.536Z,english_775.wav,0,peel,431,40,4,5,français,f,0,0.0,58.00753923,1.75560269
58a23b2b27c3bb00014e6d9a,37,0,2024-02-27T10:48:33.536Z,english_775.wav,0,peel,431,40,4,5,français,f,1,0.1,88.61433734,0.86519841
58a23b2b27c3bb00014e6d9a,37,0,2024-02-27T10:48:33.536Z,english_775.wav,0,peel,431,40,4,5,français,f,2,0.2,97.9031651,0.93867241
58a23b2b27c3bb00014e6d9a,37,0,2024-02-27T10:48:33.536Z,english_775.wav,0,peel,431,40,4,5,français,f,3,0.3,14.61974867,1.86901891
58a23b2b27c3bb00014e6d9a,37,0,2024-02-27T10:48:33.536Z,english_775.wav,0,peel,431,40,4,5,français,f,4,0.32341667,-5.44703254,0.0946911
58a23b2b27c3bb00014e6d9a,38,0,2024-02-27T10:48:33.536Z,english_210.wav,0,peel,667,40,4,5,français,f,0,0.0,43.03172008,0.27268056
58a23b2b27c3bb00014e6d9a,38,0,2024-02-27T10:48:33.536Z,english_210.wav,0,peel,667,40,4,5,français,f,1,0.1,58.48529179,0.59270989
58a23b2b27c3bb00014e6d9a,38,0,2024-02-27T10:48:33.536Z,english_210.wav,0,peel,667,40,4,5,français,f,2,0.2,57.29337371,1.57355776
58a23b2b27c3bb00014e6d9a,38,0,2024-02-27T10:48:33.536Z,english_210.wav,0,peel,667,40,4,5,français,f,3,0.3,-45.34642936,1.97663548
58a23b2b27c3bb00014e6d9a,38,0,2024-02-27T10:48:33.536Z,english_210.wav,0,peel,667,40,4,5,français,f,4,0.32341667,-3.49486879,1.39997912
58a23b2b27c3bb00014e6d9a,39,0,2024-02-27T10:48:33.536Z,english_223.wav,0,peel,579,40,4,5,français,f,0,0.0,-51.58222533,0.62889348
58a23b2b27c3bb00014e6d9a,39,0,2024-02-27T10:48:33.536Z,english_223.wav,0,peel,579,40,4,5,français,f,1,0.1,-36.02700064,1.73736573
58a23b2b27c3bb00014e6d9a,39,0,2024-02-27T10:48:33.536Z,english_223.wav,0,peel,579,40,4,5,français,f,2,0.2,-35.4915315,1.20130681
58a23b2b27c3bb00014e6d9a,39,0,2024-02-27T10:48:33.536Z,english_223.wav,0,peel,579,40,4,5,français,f,3,0.3,1.26892628,0.53176439
58a23b2b27c3bb00014e6d9a,39,0,2024-02-27T10:48:33.536Z,english_223.wav,0,peel,579,40,4,5,français,f,4,0.32341667,72.37143842,1.24562253
58a23b2b27c3bb00014e6d9a,40,0,2024-02-27T10:48:33.536Z,english_597.wav,0,pill,1158,40,4,5,français,f,0,0.0,-83.66792118,0.17389721
58a23b2b27c3bb00014e6d9a,40,0,2024-02-27T10:48:33.536Z,english_597.wav,0,pill,1158,40,4,5,français,f,1,0.1,-19.98744657,0.39349672
58a23b2b27c3bb00014e6d9a,40,0,2024-02-27T10:48:33.536Z,english_597.wav,0,pill,1158,40,4,5,français,f,2,0.2,-30.38458549,1.97590818
58a23b2b27c3bb00014e6d9a,40,0,2024-02-27T10:48:33.536Z,english_597.wav,0,pill,1158,40,4,5,français,f,3,0.3,-63.4406446,1.84988074
58a23b2b27c3bb00014e6d9a,40,0,2024-02-27T10:48:33.536Z,english_597.wav,0,pill,1158,40,4,5,français,f,4,0.32341667,25.67812426,1.17620678
58a23b2b27c3bb00014e6d9a,41,0,2024-02-27T10:48:33.536Z,english_473.wav,0,peel,283,40,4,5,français,f,0,0.0,2.94536382,1.14273616
58a23b2b27c3bb00014e6d9a,41,0,2024-02-27T10:48:33.536Z,english_473.wav,0,peel,283,40,4,5,français,f,1,0.1,67.15962,0.71228689
58a23b2b27c3bb00014e6d9a,41,0,2024-02-27T10:48:33.536Z,english_473.wav,0,peel,283,40,4,5,français,f,2,0.2,-20.48190634,1.20280034
58a23b2b27c3bb00014e6d9a,41,0,2024-02-27T10:48:33.536Z,english_473.wav,0,peel,283,40,4,5,français,f,3,0.3,20.58811131,0.94325649
58a23b2b27c3bb00014e6d9a,41,0,2024-02-27T10:48:33.536Z,english_473.wav,0,peel,283,40,4,5,français,f,4,0.32341667,-71.10919795,1.82149668
58a23b2b27c3bb00014e6d9a,42,0,2024-02-27T10:48:33.536Z,english_335.wav,0,pill,692,40,4,5,français,f,0,0.0,2.73277154,0.73564724
58a23b2b27c3bb00014e6d9a,42,0,2024-02-27T10:48:33.536Z,english_335.wav,0,pill,692,40,4,5,français,f,1,0.1,-7.1950175,0.15546095
58a23b2b27c3bb00014e6d9a,42,0,2024-02-27T10:48:33.536Z,english_335.wav,0,pill,692,40,4,5,français,f,2,0.2,60.45920583,0.90435367
58a23b2b27c3bb00014e6d9a,42,0,2024-02-27T10:48:33.536Z,english_335.wav,0,pill,692,40,4,5,français,f,3,0.3,-26.91989021,0.56661996
58a23b2b27c3bb00014e6d9a,42,0,2024-02-27T10:48:33.536Z,english_335.wav,0,pill,692,40,4,5,français,f,4,0.32341667,-2.30142169,1.21763394
58a23b2b27c3bb00014e6d9a,43,0,2024-02-27T10:48:33.536Z,english_298.wav,0,pill,605,40,4,5,français,f,0,0.0,-71.75530507,0.91890611
58a23b2b27c3bb00014e6d9a,43,0,2024-02-27T10:48:33.536Z,english_298.wav,0,pill,605,40,4,5,français,f,1,0.1,76.25876358,0.7322353
58a23b2b27c3bb00014e6d9a,43,0,2024-02-27T10:48:33.536Z,english_298.wav,0,pill,605,40,4,5,français,f,2,0.2,11.95102224,0.50601445
58a23b2b27c3bb00014e6d9a,43,0,2024-02-27T10:48:33.536Z,english_298.wav,0,pill,605,40,4,5,français,f,3,0.3,79.91037795,0.41160049
58a23b2b27c3bb00014e6d9a,43,0,2024-02-27T10:48:33.536Z,english_298.wav,0,pill,605,40,4,5,français,f,4,0.32341667,30.12462174,0.81223035
58a23b2b27c3bb00014e6d9a,44,0,2024-02-27T10:48:33.536Z,english_716.wav,0,peel,219,40,4,5,français,f,0,0.0,-41.01159081,1.70683796
58a23b2b27c3bb00014e6d9a,44,0,2024-02-27T10:48:33.536Z,english_716.wav,0,peel,219,40,4,5,français,f,1,0.1,-51.78631031,1.57787804
58a23b2b27c3bb00014e6d9a,44,0,2024-02-27T10:48:33.536Z,english_716.wav,0,peel,219,40,4,5,français,f,2,0.2,-25.7252513,1.76538287
58a23b2b27c3bb00014e6d9a,44,0,2024-02-27T10:48:33.536Z,english_716.wav,0,peel,219,40,4,5,français,f,3,0.3,78.18950514,1.34280163
58a23b2b27c3bb00014e6d9a,44,0,2024-02-27T10:48:33.536Z,english_716.wav,0,peel,219,40,4,5,français,f,4,0.32341667,-26.78025651,1.89346788
58a23b2b27c3bb00014e6d9a,45,0,2024-02-27T10:48:33.536Z,english_845.wav,0,peel,673,40,4,5,français,f,0,0.0,-39.21264236,0.82761504
58a23b2b27c3bb00014e6d9a,45,0,2024-02-27T10:48:33.536Z,english_845.wav,0,peel,673,40,4,5,français,f,1,0.1,99.78041888,0.53375751
58a23b2b27c3bb00014e6d9a,45,0,2024-02-27T10:48:33.536Z,english_845.wav,0,peel,673,40,4,5,français,f,2,0.2,-59.29104422,1.24236426
58a23b2b27c3bb00014e6d9a,45,0,2024-02-27T10:48:33.536Z,english_845.wav,0,peel,673,40,4,5,français,f,3,0.3,57.0409613,1.27736464
58a23b2b27c3bb00014e6d9a,45,0,2024-02-27T10:48:33.536Z,english_845.wav,0,peel,673,40,4,5,français,f,4,0.32341667,-93.6361214,0.79024728
58a23b2b27c3bb00014e6d9a,46,0,2024-02-27T10:48:33.536Z,english_575.wav,0,peel,238,40,4,5,français,f,0,0.0,61.73461998,1.8510319
58a23b2b27c3bb00014e6d9a,46,0,2024-02-27T10:48:33.536Z,english_575.wav,0,peel,238,40,4,5,français,f,1,0.1,-88.57549656,1.54102878
58a23b2b27c3bb00014e6d9a,46,0,2024-02-27T10:48:33.536Z,english_575.wav,0,peel,238,40,4,5,français,f,2,0.2,-30.88461278,1.19801244
58a23b2b27c3bb00014e6d9a,46,0,2024-02-27T10:48:33.536Z,english_575.wav,0,peel,238,40,4,5,français,f,3,0.3,-63.73327026,1.20026237
58a23b2b27c3bb00014e6d9a,46,0,2024-02-27T10:48:33.536Z,english_575.wav,0,peel,238,40,4,5,français,f,4,0.32341667,-0.55806298,1.04112184
58a23b2b27c3bb00014e6d9a,47,0,2024-02-27T10:48:33.536Z,english_186.wav,0,peel,260,40,4,5,français,f,0,0.0,-54.7664391,1.87021502
58a23b2b27c3bb00014e6d9a,47,0,2024-02-27T10:48:33.536Z,english_186.wav,0,peel,260,40,4,5,français,f,1,0.1,-8.4263529,1.36390049
58a23b2b27c3bb00014e6d9a,47,0,2024-02-27T10:48:33.536Z,english_186.wav,0,peel,260,40,4,5,français,f,2,0.2,6.22451559,1.69942617
58a23b2b27c3bb00014e6d9a,47,0,2024-02-27T10:48:33.536Z,english_186.wav,0,peel,260,40,4,5,français,f,3,0.3,-12.35671223,1.8066537
58a23b2b27c3bb00014e6d9a,47,0,2024-02-27T10:48:33.536Z,english_186.wav,0,peel,260,40,4,5,français,f,4,0.32341667,86.21839615,1.2511354
58a23b2b27c3bb00014e6d9a,48,0,2024-02-27T10:48:33.536Z,english_374.wav,0,peel,326,40,4,5,français,f,0,0.0,-43.98521466,1.11607514
58a23b2b27c3bb00014e6d9a,48,0,2024-02-27T10:48:33.536Z,english_374.wav,0,peel,326,40,4,5,français,f,1,0.1,-24.87181663,0.38249505
58a23b2b27c3bb00014e6d9a,48,0,2024-02-27T10:48:33.536Z,english_374.wav,0,peel,326,40,4,5,français,f,2,0.2,-29.31566683,1.56774755
58a23b2b27c3bb00014e6d9a,48,0,2024-02-27T10:48:33.536Z,english_374.wav,0,peel,326,40,4,5,français,f,3,0.3,-43.36019392,1.33837662
58a23b2b27c3bb00014e6d9a,48,0,2024-02-27T10:48:33.536Z,english_374.wav,0,peel,326,40,4,5,français,f,4,0.32341667,-35.5175379,0.68793086
58a23b2b27c3bb00014e6d9a,49,0,2024-02-27T10:48:33.536Z,english_592.wav,0,peel,221,40,4,5,français,f,0,0.0,-77.34060672,0.96869857
58a23b2b27c3bb00014e6d9a,49,0,2024-02-27T10:48:33.536Z,english_592.wav,0,peel,221,40,4,5,français,f,1,0.1,27.41551815,1.75134411
58a23b2b27c3bb00014e6d9a,49,0,2024-02-27T10:48:33.536Z,english_592.wav,0,peel,221,40,4,5,français,f,2,0.2,-17.47445882,1.41680483
58a23b2b27c3bb00014e6d9a,49,0,2024-02-27T10:48:33.536Z,english_592.wav,0,peel,221,40,4,5,français,f,3,0.3,-61.08462212,1.07260777
58a23b2b27c3bb00014e6d9a,49,0,2024-02-27T10:48:33.536Z,english_592.wav,0,peel,221,40,4,5,français,f,4,0.32341667,74.7675789,0.73150904
58a23b2b27c3bb00014e6d9a,50,1,2024-02-27T10:48:33.536Z,english_387.wav,0,peel,335,40,4,5,français,f,0,0.0,14.25538659,0.59610882
58a23b2b27c3bb00014e6d9a,50,1,2024-02-27T10:48:33.536Z,english_387.wav,0,peel,335,40,4,5,français,f,1,0.1,-5.8057983,0.93453474
58a23b2b27c3bb00014e6d9a,50,1,2024-02-27T10:48:33.536Z,english_387.wav,0,peel,335,40,4,5,français,f,2,0.2,-2.59288607,1.87880123
58a23b2b27c3bb00014e6d9a,50,1,2024-02-27T10:48:33.536Z,english_387.wav,0,peel,335,40,4,5,français,f,3,0.3,19.33055559,0.79709693
58a23b2b27c3bb00014e6d9a,50,1,2024-02-27T10:48:33.536Z,english_387.wav,0,peel,335,40,4,5,français,f,4,0.32341667,-85.57173801,0.90161027
58a23b2b27c3bb00014e6d9a,51,1,2024-02-27T10:48:33.536Z,english_155.wav,0,peel,299,40,4,5,français,f,0,0.0,53.87474094,1.93436975
58a23b2b27c3bb00014e6d9a,51,1,2024-02-27T10:48:33.536Z,english_155.wav,0,peel,299,40,4,5,français,f,1,0.1,74.81745726,0.64472983
58a23b2b27c3bb00014e6d9a,51,1,2024-02-27T10:48:33.536Z,english_155.wav,0,peel,299,40,4,5,français,f,2,0.2,8.25192738,1.6098708
58a23b2b27c3bb00014e6d9a,51,1,2024-02-27T10:48:33.536Z,english_155.wav,0,peel,299,40,4,5,français,f,3,0.3,-52.88121257,1.15705679
58a23b2b27c3bb00014e6d9a,51,1,2024-02-27T10:48:33.536Z,english_155.wav,0,peel,299,40,4,5,français,f,4,0.32341667,48.31209788,0.66500292
58a23b2b27c3bb00014e6d9a,52,1,2024-02-27T10:48:33.536Z,english_198.wav,0,peel,621,40,4,5,français,f,0,0.0,-3.53881338,0.6033193
58a23b2b27c3bb00014e6d9a,52,1,2024-02-27T10:48:33.536Z,english_198.wav,0,peel,621,40,4,5,français,f,1,0.1,58.04445454,0.57837506
58a23b2b27c3bb00014e6d9a,52,1,2024-02-27T10:48:33.536Z,english_198.wav,0,peel,621,40,4,5,français,f,2,0.2,67.39523563,1.37850613
58a23b2b27c3bb00014e6d9a,52,1,2024-02-27T10:48:33.536Z,english_198.wav,0,peel,621,40,4,5,français,f,3,0.3,56.58835275,0.73107668
58a23b2b27c3bb00014e6d9a,52,1,2024-02-27T10:48:33.536Z,english_198.wav,0,peel,621,40,4,5,français,f,4,0.32341667,7.34595052,0.42006089
58a23b2b27c3bb00014e6d9a,53,1,2024-02-27T10:48:33.536Z,english_861.wav,0,peel,293,40,4,5,français,f,0,0.0,-30.19921015,0.56503536
58a23b2b27c3bb00014e6d9a,53,1,2024-02-27T10:48:33.536Z,english_861.wav,0,peel,293,40,4,5,français,f,1,0.1,75.2433288,1.43622494
58a23b2b27c3bb00014e6d9a,53,1,2024-02-27T10:48:33.536Z,english_861.wav,0,peel,293,40,4,5,français,f,2,0.2,-49.47813624,1.73497671
58a23b2b27c3bb00014e6d9a,53,1,2024-02-27T10:48:33.536Z,english_861.wav,0,peel,293,40,4,5,français,f,3,0.3,86.59581665,0.70763908
58a23b2b27c3bb00014e6d9a,53,1,2024-02-27T10:48:33.536Z,english_861.wav,0,peel,293,40,4,5,français,f,4,0.32341667,58.40562581,1.29518241
58a23b2b27c3bb00014e6d9a,54,1,2024-02-27T10:48:33.536Z,english_857.wav,0,peel,679,40,4,5,français,f,0,0.0,-33.07031843,1.04325491
58a23b2b27c3bb00014e6d9a,54,1,2024-02-27T10:48:33.536Z,english_857.wav,0,peel,679,40,4,5,français,f,1,0.1,12.9349985,0.44078978
58a23b2b27c3bb00014e6d9a,54,1,2024-02-27T10:48:33.536Z,english_857.wav,0,peel,679,40,4,5,français,f,2,0.2,4.33682254,1.36028147
58a23b2b27c3bb00014e6d9a,54,1,2024-02-27T10:48:33.536Z,english_857.wav,0,peel,679,40,4,5,français,f,3,0.3,90.68056828,1.16905302
58a23b2b27c3bb00014e6d9a,54,1,2024-02-27T10:48:33.536Z,english_857.wav,0,peel,679,40,4,5,français,f,4,0.32341667,37.69781409,1.24618942
58a23b2b27c3bb00014e6d9a,55,1,2024-02-27T10:48:33.536Z,english_408.wav,0,peel,776,40,4,5,français,f,0,0.0,-0.16211679,1.52185603
58a23b2b27c3bb00014e6d9a,55,1,2024-02-27T10:48:33.536Z,english_408.wav,0,peel,776,40,4,5,français,f,1,0.1,16.68246491,0.27925492
58a23b2b27c3bb00014e6d9a,55,1,2024-02-27T10:48:33.536Z,english_408.wav,0,peel,776,40,4,5,français,f,2,0.2,-84.31504289,0.96179544
58a23b2b27c3bb00014e6d9a,55,1,2024-02-27T10:48:33.536Z,english_408.wav,0,peel,776,40,4,5,français,f,3,0.3,20.95362966,1.64669203
58a23b2b27c3bb00014e6d9a,55,1,2024-02-27T10:48:33.536Z,english_408.wav,0,peel,776,40,4,5,français,f,4,0.32341667,15.25079186,1.54793764
58a23b2b27c3bb00014e6d9a,56,1,2024-02-27T10:48:33.536Z,english_656.wav,0,peel,477,40,4,5,français,f,0,0.0,-4.15957802,0.9962349
58a23b2b27c3bb00014e6d9a,56,1,2024-02-27T10:48:33.536Z,english_656.wav,0,peel,477,40,4,5,français,f,1,0.1,-31.70283109,1.16669679
58a23b2b27c3bb00014e6d9a,56,1,2024-02-27T10:48:33.536Z,english_656.wav,0,peel,477,40,4,5,français,f,2,0.2,-35.90055673,0.85512169
58a23b2b27c3bb00014e6d9a,56,1,2024-02-27T10:48:33.536Z,english_656.wav,0,peel,477,40,4,5,français,f,3,0.3,-27.39202404,1.68840921
58a23b2b27c3bb00014e6d9a,56,1,2024-02-27T10:48:33.536Z,english_656.wav,0,peel,477,40,4,5,français,f,4,0.32341667,-5.54715508,1.5699395
58a23b2b27c3bb00014e6d9a,57,1,2024-02-27T10:48:33.536Z,english_274.wav,0,peel,535,40,4,5,français,f,0,0.0,-30.61452779,0.78021116
58a23b2b27c3bb00014e6d9a,57,1,2024-02-27T10:48:33.536Z,english_274.wav,0,peel,535,40,4,5,français,f,1,0.1,-42.14612233,1.93993358
58a23b2b27c3bb00014e6d9a,57,1,2024-02-27T10:48:33.536Z,english_274.wav,0,peel,535,40,4,5,français,f,2,0.2,32.00602795,0.32963606
58a23b2b27c3bb00014e6d9a,57,1,2024-02-27T10:48:33.536Z,english_274.wav,0,peel,535,40,4,5,français,f,3,0.3,-37.74375581,1.46133782
58a23b2b27c3bb00014e6d9a,57,1,2024-02-27T10:48:33.536Z,english_274.wav,0,peel,535,40,4,5,français,f,4,0.32341667,-54.5397802,1.53178785
58a23b2b27c3bb00014e6d9a,58,1,2024-02-27T10:48:33.536Z,english_517.wav,0,pill,599,40,4,5,français,f,0,0.0,11.23661905,0.76208972
58a23b2b27c3bb00014e6d9a,58,1,2024-02-27T10:48:33.536Z,english_517.wav,0,pill,599,40,4,5,français,f,1,0.1,58.81241605,0.18193562
58a23b2b27c3bb00014e6d9a,58,1,2024-02-27T10:48:33.536Z,english_517.wav,0,pill,599,40,4,5,français,f,2,0.2,38.38790279,1.85963831
58a23b2b27c3bb00014e6d9a,58,1,2024-02-27T10:48:33.536Z,english_517.wav,0,pill,599,40,4,5,français,f,3,0.3,-74.61462092,0.20223028
58a23b2b27c3bb00014e6d9a,58,1,2024-02-27T10:48:33.536Z,english_517.wav,0,pill,599,40,4,5,français,f,4,0.32341667,-36.69086471,1.46287498
58a23b2b27c3bb00014e6d9a,59,1,2024-02-27T10:48:33.536Z,english_910.wav,0,peel,312,40,4,5,français,f,0,0.0,-5.78748479,0.61840584
58a23b2b27c3bb00014e6d9a,59,1,2024-02-27T10:48:33.536Z,english_910.wav,0,peel,312,40,4,5,français,f,1,0.1,25.040103,1.20431928
58a23b2b27c3bb00014e6d9a,59,1,2024-02-27T10:48:33.536Z,english_910.wav,0,peel,312,40,4,5,français,f,2,0.2,-40.66398147,1.66594732
58a23b2b27c3bb00014e6d9a,59,1,2024-02-27T10:48:33.536Z,english_910.wav,0,peel,312,40,4,5,français,f,3,0.3,-99.21011725,0.99007018
58a23b2b27c3bb00014e6d9a,59,1,2024-02-27T10:48:33.536Z,english_910.wav,0,peel,312,40,4,5,français,f,4,0.32341667,30.82754841,0.23705338
58a23b2b27c3bb00014e6d9a,60,1,2024-02-27T10:48:33.536Z,english_299.wav,0,peel,244,40,4,5,français,f,0,0.0,-2.55977829,0.95716625
58a23b2b27c3bb00014e6d9a,60,1,2024-02-27T10:48:33.536Z,english_299.wav,0,peel,244,40,4,5,français,f,1,0.1,1.77446255,1.43363845
58a23b2b27c3bb00014e6d9a,60,1,2024-02-27T10:48:33.536Z,english_299.wav,0,peel,244,40,4,5,français,f,2,0.2,-18.83457859,1.1421669
58a23b2b27c3bb00014e6d9a,60,1,2024-02-27T10:48:33.536Z,english_299.wav,0,peel,244,40,4,5,français,f,3,0.3,-71.88845024,1.57148089
58a23b2b27c3bb00014e6d9a,60,1,2024-02-27T10:48:33.536Z,english_299.wav,0,peel,244,40,4,5,français,f,4,0.32341667,99.76623745,1.70410623
58a23b2b27c3bb00014e6d9a,61,1,2024-02-27T10:48:33.536Z,english_736.wav,0,peel,228,40,4,5,français,f,0,0.0,44.94907169,1.40223879
58a23b2b27c3bb00014e6d9a,61,1,2024-02-27T10:48:33.536Z,english_736.wav,0,peel,228,40,4,5,français,f,1,0.1,-89.05982676,1.76358699
58a23b2b27c3bb00014e6d9a,61,1,2024-02-27T10:48:33.536Z,english_736.wav,0,peel,228,40,4,5,français,f,2,0.2,27.88925208,0.99111008
58a23b2b27c3bb00014e6d9a,61,1,2024-02-27T10:48:33.536Z,english_736.wav,0,peel,228,40,4,5,français,f,3,0.3,77.01163693,1.90426439
58a23b2b27c3bb00014e6d9a,61,1,2024-02-27T10:48:33.536Z,english_736.wav,0,peel,228,40,4,5,français,f,4,0.32341667,-28.23601136,1.97036362
58a23b2b27c3bb00014e6d9a,62,1,2024-02-27T10:48:33.536Z,english_925.wav,0,peel,1138,40,4,5,français,f,0,0.0,-23.38055082,1.07708889
58a23b2b27c3bb00014e6d9a,62,1,2024-02-27T10:48:33.536Z,english_925.wav,0,peel,1138,40,4,5,français,f,1,0.1,12.69502826,1.65606803
58a23b2b27c3bb00014e6d9a,62,1,2024-02-27T10:48:33.536Z,english_925.wav,0,peel,1138,40,4,5,français,f,2,0.2,77.53463838,0.48648737
58a23b2b27c3bb00014e6d9a,62,1,2024-02-27T10:48:33.536Z,english_925.wav,0,peel,1138,40,4,5,français,f,3,0.3,58.05299948,0.8939016
58a23b2b27c3bb00014e6d9a,62,1,2024-02-27T10:48:33.536Z,english_925.wav,0,peel,1138,40,4,5,français,f,4,0.32341667,54.12197927,0.72199492
58a23b2b27c3bb00014e6d9a,63,1,2024-02-27T10:48:33.536Z,english_967.wav,0,peel,839,40,4,5,français,f,0,0.0,-33.19777689,0.76720641
58a23b2b27c3bb00014e6d9a,63,1,2024-02-27T10:48:33.536Z,english_967.wav,0,peel,839,40,4,5,français,f,1,0.1,83.84847924,1.4094361
58a23b2b27c3bb00014e6d9a,63,1,2024-02-27T10:48:33.536Z,english_967.wav,0,peel,839,40,4,5,français,f,2,0.2,81.27362124,0.74435637
58a23b2b27c3bb00014e6d9a,63,1,2024-02-27T10:48:33.536Z,english_967.wav,0,peel,839,40,4,5,français,f,3,0.3,22.78466805,0.29904584
58a23b2b27c3bb00014e6d9a,63,1,2024-02-27T10:48:33.536Z,english_967.wav,0,peel,839,40,4,5,français,f,4,0.32341667,16.56894366,0.47687807
58a23b2b27c3bb00014e6d9a,64,1,2024-02-27T10:48:33.536Z,english_521.wav,0,pill,428,40,4,5,français,f,0,0.0,-39.78859965,1.84590666
58a23b2b27c3bb00014e6d9a,64,1,2024-02-27T10:48:33.536Z,english_521.wav,0,pill,428,40,4,5,français,f,1,0.1,94.65680132,0.33665341
58a23b2b27c3bb00014e6d9a,64,1,2024-02-27T10:48:33.536Z,english_521.wav,0,pill,428,40,4,5,français,f,2,0.2,-68.68225016,1.01474729
58a23b2b27c3bb00014e6d9a,64,1,2024-02-27T10:48:33.536Z,english_521.wav,0,pill,428,40,4,5,français,f,3,0.3,19.56493677,0.73624599
58a23b2b27c3bb00014e6d9a,64,1,2024-02-27T10:48:33.536Z,english_521.wav,0,pill,428,40,4,5,français,f,4,0.32341667,69.42990376,1.4391639
58a23b2b27c3bb00014e6d9a,65,1,2024-02-27T10:48:33.536Z,english_673.wav,0,pill,428,40,4,5,français,f,0,0.0,-57.74220233,1.16794182
58a23b2b27c3bb00014e6d9a,65,1,2024-02-27T10:48:33.536Z,english_673.wav,0,pill,428,40,4,5,français,f,1,0.1,51.69168463,0.24005868
58a23b2b27c3bb00014e6d9a,65,1,2024-02-27T10:48:33.536Z,english_673.wav,0,pill,428,40,4,5,français,f,2,0.2,32.71998218,1.1491536
58a23b2b27c3bb00014e6d9a,65,1,2024-02-27T10:48:33.536Z,english_673.wav,0,pill,428,40,4,5,français,f,3,0.3,1.53841214,1.59180477
58a23b2b27c3bb00014e6d9a,65,1,2024-02-27T10:48:33.536Z,english_673.wav,0,pill,428,40,4,5,français,f,4,0.32341667,-95.68622946,1.00634228
58a23b2b27c3bb00014e6d9a,66,1,2024-02-27T10:48:33.536Z,english_62.wav,0,peel,356,40,4,5,français,f,0,0.0,17.28527913,1.12530616
58a23b2b27c3bb00014e6d9a,66,1,2024-02-27T10:48:33.536Z,english_62.wav,0,peel,356,40,4,5,français,f,1,0.1,8.63936001,1.09357984
58a23b2b27c3bb00014e6d9a,66,1,2024-02-27T10:48:33.536Z,english_62.wav,0,peel,356,40,4,5,français,f,2,0.2,-69.0074729,1.07648496
58a23b2b27c3bb00014e6d9a,66,1,2024-02-27T10:48:33.536Z,english_62.wav,0,peel,356,40,4,5,français,f,3,0.3,-18.85502465,0.36768209
58a23b2b27c3bb00014e6d9a,66,1,2024-02-27T10:48:33.536Z,english_62.wav,0,peel,356,40,4,5,français,f,4,0.32341667,59.46739627,0.39033463
58a23b2b27c3bb00014e6d9a,67,1,2024-02-27T10:48:33.536Z,english_949.wav,0,peel,261,40,4,5,français,f,0,0.0,48.32946721,1.50413289
58a23b2b27c3bb00014e6d9a,67,1,2024-02-27T10:48:33.536Z,english_949.wav,0,peel,261,40,4,5,français,f,1,0.1,73.83586198,1.55745414
58a23b2b27c3bb00014e6d9a,67,1,2024-02-27T10:48:33.536Z,english_949.wav,0,peel,261,40,4,5,français,f,2,0.2,-30.27812065,1.00772566
58a23b2b27c3bb00014e6d9a,67,1,2024-02-27T10:48:33.536Z,english_949.wav,0,peel,261,40,4,5,français,f,3,0.3,-32.50397555,0.86702054
58a23b2b27c3bb00014e6d9a,67,1,2024-02-27T10:48:33.536Z,english_949.wav,0,peel,261,40,4,5,français,f,4,0.32341667,96.46984971,1.67836019
58a23b2b27c3bb00014e6d9a,68,1,2024-02-27T10:48:33.536Z,english_478.wav,0,peel,342,40,4,5,français,f,0,0.0,-70.9954821,0.91489342
58a23b2b27c3bb00014e6d9a,68,1,2024-02-27T10:48:33.536Z,english_478.wav,0,peel,342,40,4,5,français,f,1,0.1,18.763036,1.0325944
58a23b2b27c3bb00014e6d9a,68,1,2024-02-27T10:48:33.536Z,english_478.wav,0,peel,342,40,4,5,français,f,2,0.2,84.30682023,1.47139294
58a23b2b27c3bb00014e6d9a,68,1,2024-02-27T10:48:33.536Z,english_478.wav,0,peel,342,40,4,5,français,f,3,0.3,96.70790152,0.31719256
58a23b2b27c3bb00014e6d9a,68,1,2024-02-27T10:48:33.536Z,english_478.wav,0,peel,342,40,4,5,français,f,4,0.32341667,-65.75430749,1.1469235
58a23b2b27c3bb00014e6d9a,69,1,2024-02-27T10:48:33.536Z,english_686.wav,0,peel,282,40,4,5,français,f,0,0.0,-30.40223154,0.36787347
58a23b2b27c3bb00014e6d9a,69,1,2024-02-27T10:48:33.536Z,english_686.wav,0,peel,282,40,4,5,français,f,1,0.1,40.30213926,1.54584144
58a23b2b27c3bb00014e6d9a,69,1,2024-02-27T10:48:33.536Z,english_686.wav,0,peel,282,40,4,5,français,f,2,0.2,68.68183252,1.54645212
58a23b2b27c3bb00014e6d9a,69,1,2024-02-27T10:48:33.536Z,english_686.wav,0,peel,282,40,4,5,français,f,3,0.3,82.36920372,1.04035585
58a23b2b27c3bb00014e6d9a,69,1,2024-02-27T10:48:33.536Z,english_686.wav,0,peel,282,40,4,5,français,f,4,0.32341667,5.8000707,1.51520661
58a23b2b27c3bb00014e6d9a,70,1,2024-02-27T10:48:33.536Z,english_860.wav,0,peel,339,40,4,5,français,f,0,0.0,10.25066679,1.47817545
58a23b2b27c3bb00014e6d9a,70,1,2024-02-27T10:48:33.536Z,english_860.wav,0,peel,339,40,4,5,français,f,1,0.1,55.87909831,1.32859058
58a23b2b27c3bb00014e6d9a,70,1,2024-02-27T10:48:33.536Z,english_860.wav,0,peel,339,40,4,5,français,f,2,0.2,81.09373959,0.99201561
58a23b2b27c3bb00014e6d9a,70,1,2024-02-27T10:48:33.536Z,english_860.wav,0,peel,339,40,4,5,français,f,3,0.3,15.52286826,0.3312489
58a23b2b27c3bb00014e6d9a,70,1,2024-02-27T10:48:33.536Z,english_860.wav,0,peel,339,40,4,5,français,f,4,0.32341667,58.18702512,0.66001743
58a23b2b27c3bb00014e6d9a,71,1,2024-02-27T10:48:33.536Z,english_565.wav,0,peel,1165,40,4,5,français,f,0,0.0,-89.95965492,1.93181176
58a23b2b27c3bb00014e6d9a,71,1,2024-02-27T10:48:33.536Z,english_565.wav,0,peel,1165,40,4,5,français,f,1,0.1,67.55938023,1.29027557
58a23b2b27c3bb00014e6d9a,71,1,2024-02-27T10:48:33.536Z,english_565.wav,0,peel,1165,40,4,5,français,f,2,0.2,26.6208604,0.36054668
58a23b2b27c3bb00014e6d9a,71,1,2024-02-27T10:48:33.536Z,english_565.wav,0,peel,1165,40,4,5,français,f,3,0.3,-54.20230035,1.25973455
58a23b2b27c3bb00014e6d9a,71,1,2024-02-27T10:48:33.536Z,english_565.wav,0,peel,1165,40,4,5,français,f,4,0.32341667,-98.16020256,0.92743077
58a23b2b27c3bb00014e6d9a,72,1,2024-02-27T10:48:33.536Z,english_605.wav,0,peel,415,40,4,5,français,f,0,0.0,-82.65591545,0.90945233
58a23b2b27c3bb00014e6d9a,72,1,2024-02-27T10:48:33.536Z,english_605.wav,0,peel,415,40,4,5,français,f,1,0.1,35.78886654,1.65178877
58a23b2b27c3bb00014e6d9a,72,1,2024-02-27T10:48:33.536Z,english_605.wav,0,peel,415,40,4,5,français,f,2,0.2,-36.80716754,0.21181898
58a23b2b27c3bb00014e6d9a,72,1,2024-02-27T10:48:33.536Z,english_605.wav,0,peel,415,40,4,5,français,f,3,0.3,-4.39131435,1.21754483
58a23b2b27c3bb00014e6d9a,72,1,2024-02-27T10:48:33.536Z,english_605.wav,0,peel,415,40,4,5,français,f,4,0.32341667,-17.17702763,1.60493484
58a23b2b27c3bb00014e6d9a,73,1,2024-02-27T10:48:33.536Z,english_417.wav,0,peel,444,40,4,5,français,f,0,0.0,-17.25972862,1.29903721
58a23b2b27c3bb00014e6d9a,73,1,2024-02-27T10:48:33.536Z,english_417.wav,0,peel,444,40,4,5,français,f,1,0.1,72.11413149,0.87773419
58a23b2b27c3bb00014e6d9a,73,1,2024-02-27T10:48:33.536Z,english_417.wav,0,peel,444,40,4,5,français,f,2,0.2,83.70212603,1.45838331
58a23b2b27c3bb00014e6d9a,73,1,2024-02-27T10:48:33.536Z,english_417.wav,0,peel,444,40,4,5,français,f,3,0.3,67.19530478,0.90979472
58a23b2b27c3bb00014e6d9a,73,1,2024-02-27T10:48:33.536Z,english_417.wav,0,peel,444,40,4,5,français,f,4,0.32341667,29.72084594,0.1224986
58a23b2b27c3bb00014e6d9a,74,1,2024-02-27T10:48:33.536Z,english_426.wav,0,pill,333,40,4,5,français,f,0,0.0,84.66887763,0.58495982
58a23b2b27c3bb00014e6d9a,74,1,2024-02-27T10:48:33.536Z,english_426.wav,0,pill,333,40,4,5,français,f,1,0.1,6.08176803,0.31710055
58a23b2b27c3bb00014e6d9a,74,1,2024-02-27T10:48:33.536Z,english_426.wav,0,pill,333,40,4,5,français,f,2,0.2,90.82211143,1.7123379
58a23b2b27c3bb00014e6d9a,74,1,2024-02-27T10:48:33.536Z,english_426.wav,0,pill,333,40,4,5,français,f,3,0.3,42.04787562,1.38911617
58a23b2b27c3bb00014e6d9a,74,1,2024-02-27T10:48:33.536Z,english_426.wav,0,pill,333,40,4,5,français,f,4,0.32341667,-40.19306584,1.84862951
58a23b2b27c3bb00014e6d9a,75,1,2024-02-27T10:48:33.536Z,english_577.wav,0,peel,364,40,4,5,français,f,0,0.0,0.60742169,1.18439754
58a23b2b27c3bb00014e6d9a,75,1,2024-02-27T10:48:33.536Z,english_577.wav,0,peel,364,40,4,5,français,f,1,0.1,-16.75441018,1.17258894
58a23b2b27c3bb00014e6d9a,75,1,2024-02-27T10:48:33.536Z,english_577.wav,0,peel,364,40,4,5,français,f,2,0.2,32.29278586,0.00832478
58a23b2b27c3bb00014e6d9a,75,1,2024-02-27T10:48:33.536Z,english_577.wav,0,peel,364,40,4,5,français,f,3,0.3,94.63733595,1.24529525
58a23b2b27c3bb00014e6d9a,75,1,2024-02-27T10:48:33.536Z,english_577.wav,0,peel,364,40,4,5,français,f,4,0.32341667,-75.78119055,0.24980342
58a23b2b27c3bb00014e6d9a,76,1,2024-02-27T10:48:33.536Z,english_796.wav,0,pill,420,40,4,5,français,f,0,0.0,57.52331511,0.93419081
58a23b2b27c3bb00014e6d9a,76,1,2024-02-27T10:48:33.536Z,english_796.wav,0,pill,420,40,4,5,français,f,1,0.1,-53.71774571,0.77950231
58a23b2b27c3bb00014e6d9a,76,1,2024-02-27T10:48:33.536Z,english_796.wav,0,pill,420,40,4,5,français,f,2,0.2,-36.09214461,0.54947466
58a23b2b27c3bb00014e6d9a,76,1,2024-02-27T10:48:33.536Z,english_796.wav,0,pill,420,40,4,5,français,f,3,0.3,23.21783142,1.69054841
58a23b2b27c3bb00014e6d9a,76,1,2024-02-27T10:48:33.536Z,english_796.wav,0,pill,420,40,4,5,français,f,4,0.32341667,-74.52171885,0.76047802
58a23b2b27c3bb00014e6d9a,77,1,2024-02-27T10:48:33.536Z,english_216.wav,0,peel,1374,40,4,5,français,f,0,0.0,-62.2888105,1.07577895
58a23b2b27c3bb00014e6d9a,77,1,2024-02-27T10:48:33.536Z,english_216.wav,0,peel,1374,40,4,5,français,f,1,0.1,-52.19325919,1.07125686
58a23b2b27c3bb00014e6d9a,77,1,2024-02-27T10:48:33.536Z,english_216.wav,0,peel,1374,40,4,5,français,f,2,0.2,-77.81566322,1.51342084
58a23b2b27c3bb00014e6d9a,77,1,2024-02-27T10:48:33.536Z,english_216.wav,0,peel,1374,40,4,5,français,f,3,0.3,73.5246301,1.37714716
58a23b2b27c3bb00014e6d9a,77,1,2024-02-27T10:48:33.536Z,english_216.wav,0,peel,1374,40,4,5,français,f,4,0.32341667,73.4409389,1.55456291
58a23b2b27c3bb00014e6d9a,78,1,2024-02-27T10:48:33.536Z,english_433.wav,0,peel,1261,40,4,5,français,f,0,0.0,-74.58178472,0.69852952
58a23b2b27c3bb00014e6d9a,78,1,2024-02-27T10:48:33.536Z,english_433.wav,0,peel,1261,40,4,5,français,f,1,0.1,-50.00917691,1.92405883
58a23b2b27c3bb00014e6d9a,78,1,2024-02-27T10:48:33.536Z,english_433.wav,0,peel,1261,40,4,5,français,f,2,0.2,48.18572343,0.3905825
58a23b2b27c3bb00014e6d9a,78,1,2024-02-27T10:48:33.536Z,english_433.wav,0,peel,1261,40,4,5,français,f,3,0.3,-63.95387597,0.31453116
58a23b2b27c3bb00014e6d9a,78,1,2024-02-27T10:48:33.536Z,english_433.wav,0,peel,1261,40,4,5,français,f,4,0.32341667,-68.91859183,1.4953114
58a23b2b27c3bb00014e6d9a,79,1,2024-02-27T10:48:33.536Z,english_264.wav,0,peel,404,40,4,5,français,f,0,0.0,16.10521774,1.02407609
58a23b2b27c3bb00014e6d9a,79,1,2024-02-27T10:48:33.536Z,english_264.wav,0,peel,404,40,4,5,français,f,1,0.1,-43.55481907,1.4393598
58a23b2b27c3bb00014e6d9a,79,1,2024-02-27T10:48:33.536Z,english_264.wav,0,peel,404,40,4,5,français,f,2,0.2,-16.87093852,1.31552174
58a23b2b27c3bb00014e6d9a,79,1,2024-02-27T10:48:33.536Z,english_264.wav,0,peel,404,40,4,5,français,f,3,0.3,-81.41755984,1.17516842
58a23b2b27c3bb00014e6d9a,79,1,2024-02-27T10:48:33.536Z,english_264.wav,0,peel,404,40,4,5,français,f,4,0.32341667,-76.00277997,0.613195
58a23b2b27c3bb00014e6d9a,80,1,2024-02-27T10:48:33.536Z,english_978.wav,0,peel,444,40,4,5,français,f,0,0.0,-73.1961296,0.69168228
58a23b2b27c3bb00014e6d9a,80,1,2024-02-27T10:48:33.536Z,english_978.wav,0,peel,444,40,4,5,français,f,1,0.1,-56.98452675,1.28516196
58a23b2b27c3bb00014e6d9a,80,1,2024-02-27T10:48:33.536Z,english_978.wav,0,peel,444,40,4,5,français,f,2,0.2,1.81288897,1.00851945
58a23b2b27c3bb00014e6d9a,80,1,2024-02-27T10:48:33.536Z,english_978.wav,0,peel,444,40,4,5,français,f,3,0.3,-17.93803526,0.05981722
58a23b2b27c3bb00014e6d9a,80,1,2024-02-27T10:48:33.536Z,english_978.wav,0,peel,444,40,4,5,français,f,4,0.32341667,-33.17886565,1.89275203
58a23b2b27c3bb00014e6d9a,81,1,2024-02-27T10:48:33.536Z,english_904.wav,0,pill,1081,40,4,5,français,f,0,0.0,54.28678019,0.96279628
58a23b2b27c3bb00014e6d9a,81,1,2024-02-27T10:48:33.536Z,english_904.wav,0,pill,1081,40,4,5,français,f,1,0.1,-13.24417266,0.20212872
58a23b2b27c3bb00014e6d9a,81,1,2024-02-27T10:48:33.536Z,english_904.wav,0,pill,1081,40,4,5,français,f,2,0.2,18.94666669,1.39381084
58a23b2b27c3bb00014e6d9a,81,1,2024-02-27T10:48:33.536Z,english_904.wav,0,pill,1081,40,4,5,français,f,3,0.3,-21.97018078,1.57516234
58a23b2b27c3bb00014e6d9a,81,1,2024-02-27T10:48:33.536Z,english_904.wav,0,pill,1081,40,4,5,français,f,4,0.32341667,4.05624244,0.97228596
58a23b2b27c3bb00014e6d9a,82,1,2024-02-27T10:48:33.536Z,english_973.wav,0,pill,735,40,4,5,français,f,0,0.0,67.86183821,1.19015671
58a23b2b27c3bb00014e6d9a,82,1,2024-02-27T10:48:33.536Z,english_973.wav,0,pill,735,40,4,5,français,f,1,0.1,19.68291271,0.58574514
58a23b2b27c3bb00014e6d9a,82,1,2024-02-27T10:48:33.536Z,english_973.wav,0,pill,735,40,4,5,français,f,2,0.2,97.35795082,0.11672587
58a23b2b27c3bb00014e6d9a,82,1,2024-02-27T10:48:33.536Z,english_973.wav,0,pill,735,40,4,5,français,f,3,0.3,-17.83494635,0.43523095
58a23b2b27c3bb00014e6d9a,82,1,2024-02-27T10:48:33.536Z,english_973.wav,0,pill,735,40,4,5,français,f,4,0.32341667,-53.451809,1.74630461
58a23b2b27c3bb00014e6d9a,83,1,2024-02-27T10:48:33.536Z,english_301.wav,0,peel,341,40,4,5,français,f,0,0.0,-78.18927369,1.31935747
58a23b2b27c3bb00014e6d9a,83,1,2024-02-27T10:48:33.536Z,english_301.wav,0,peel,341,40,4,5,français,f,1,0.1,-3.52439177,1.41636911
58a23b2b27c3bb00014e6d9a,83,1,2024-02-27T10:48:33.536Z,english_301.wav,0,peel,341,40,4,5,français,f,2,0.2,-23.22473782,1.38842862
58a23b2b27c3bb00014e6d9a,83,1,2024-02-27T10:48:33.536Z,english_301.wav,0,peel,341,40,4,5,français,f,3,0.3,-11.7220967,1.25169603
58a23b2b27c3bb00014e6d9a,83,1,2024-02-27T10:48:33.536Z,english_301.wav,0,peel,341,40,4,5,français,f,4,0.32341667,-5.78047748,1.38740104
58a23b2b27c3bb00014e6d9a,84,1,2024-02-27T10:48:33.536Z,english_336.wav,0,peel,360,40,4,5,français,f,0,0.0,29.43389708,1.05594545
58a23b2b27c3bb00014e6d9a,84,1,2024-02-27T10:48:33.536Z,english_336.wav,0,peel,360,40,4,5,français,f,1,0.1,-98.82505887,1.57774783
58a23b2b27c3bb00014e6d9a,84,1,2024-02-27T10:48:33.536Z,english_336.wav,0,peel,360,40,4,5,français,f,2,0.2,33.95949266,1.35373128
58a23b2b27c3bb00014e6d9a,84,1,2024-02-27T10:48:33.536Z,english_336.wav,0,peel,360,40,4,5,français,f,3,0.3,-57.79711044,1.04960404
58a23b2b27c3bb00014e6d9a,84,1,2024-02-27T10:48:33.536Z,english_336.wav,0,peel,360,40,4,5,français,f,4,0.32341667,81.65015026,0.39151968
58a23b2b27c3bb00014e6d9a,85,1,2024-02-27T10:48:33.536Z,english_958.wav,0,peel,287,40,4,5,français,f,0,0.0,17.32592779,0.33109802
58a23b2b27c3bb00014e6d9a,85,1,2024-02-27T10:48:33.536Z,english_958.wav,0,peel,287,40,4,5,français,f,1,0.1,89.03376041,1.83345348
58a23b2b27c3bb00014e6d9a,85,1,2024-02-27T10:48:33.536Z,english_958.wav,0,peel,287,40,4,5,français,f,2,0.2,-24.89219777,1.95859429
58a23b2b27c3bb00014e6d9a,85,1,2024-02-27T10:48:33.536Z,english_958.wav,0,peel,287,40,4,5,français,f,3,0.3,-92.10798137,1.50296341
58a23b2b27c3bb00014e6d9a,85,1,2024-02-27T10:48:33.536Z,english_958.wav,0,peel,287,40,4,5,français,f,4,0.32341667,3.27828718,0.1474067
58a23b2b27c3bb00014e6d9a,86,1,2024-02-27T10:48:33.536Z,english_385.wav,0,peel,365,40,4,5,français,f,0,0.0,-55.07910634,1.75648555
58a23b2b27c3bb00014e6d9a,86,1,2024-02-27T10:48:33.536Z,english_385.wav,0,peel,365,40,4,5,français,f,1,0.1,-94.47680079,1.20856462
58a23b2b27c3bb00014e6d9a,86,1,2024-02-27T10:48:33.536Z,english_385.wav,0,peel,365,40,4,5,français,f,2,0.2,38.70414457,0.98103352
58a23b2b27c3bb00014e6d9a,86,1,2024-02-27T10:48:33.536Z,english_385.wav,0,peel,365,40,4,5,français,f,3,0.3,-46.17691,1.45745263
58a23b2b27c3bb00014e6d9a,86,1,2024-02-27T10:48:33.536Z,english_385.wav,0,peel,365,40,4,5,français,f,4,0.32341667,2.5941508,0.88353815
58a23b2b27c3bb00014e6d9a,87,1,2024-02-27T10:48:33.536Z,english_156.wav,0,pill,579,40,4,5,français,f,0,0.0,93.86570948,0.27803573
58a23b2b27c3bb00014e6d9a,87,1,2024-02-27T10:48:33.536Z,english_156.wav,0,pill,579,40,4,5,français,f,1,0.1,63.74639013,0.76121308
58a23b2b27c3bb00014e6d9a,87,1,2024-02-27T10:48:33.536Z,english_156.wav,0,pill,579,40,4,5,français,f,2,0.2,-97.10775444,0.98438609
58a23b2b27c3bb00014e6d9a,87,1,2024-02-27T10:48:33.536Z,english_156.wav,0,pill,579,40,4,5,français,f,3,0.3,99.76737427,0.34877861
58a23b2b27c3bb00014e6d9a,87,1,2024-02-27T10:48:33.536Z,english_156.wav,0,pill,579,40,4,5,français,f,4,0.32341667,11.29868277,0.58154428
58a23b2b27c3bb00014e6d9a,88,1,2024-02-27T10:48:33.536Z,english_289.wav,0,peel,292,40,4,5,français,f,0,0.0,-55.97739865,0.95213243
58a23b2b27c3bb00014e6d9a,88,1,2024-02-27T10:48:33.536Z,english_289.wav,0,peel,292,40,4,5,français,f,1,0.1,-97.9801122,0.81858491
58a23b2b27c3bb00014e6d9a,88,1,2024-02-27T10:48:33.536Z,english_289.wav,0,peel,292,40,4,5,français,f,2,0.2,44.28679287,1.16094748
58a23b2b27c3bb00014e6d9a,88,1,2024-02-27T10:48:33.536Z,english_289.wav,0,peel,292,40,4,5,français,f,3,0.3,-74.0895039,0.92969459
58a23b2b27c3bb00014e6d9a,88,1,2024-02-27T10:48:33.536Z,english_289.wav,0,peel,292,40,4,5,français,f,4,0.32341667,-44.25845537,0.41504245
58a23b2b27c3bb00014e6d9a,89,1,2024-02-27T10:48:33.536Z,english_829.wav,0,peel,656,40,4,5,français,f,0,0.0,60.30417439,0.94286345
58a23b2b27c3bb00014e6d9a,89,1,2024-02-27T10:48:33.536Z,english_829.wav,0,peel,656,40,4,5,français,f,1,0.1,-26.87459656,0.76756767
58a23b2b27c3bb00014e6d9a,89,1,2024-02-27T10:48:33.536Z,english_829.wav,0,peel,656,40,4,5,français,f,2,0.2,59.05286014,1.50609211
58a23b2b27c3bb00014e6d9a,89,1,2024-02-27T10:48:33.536Z,english_829.wav,0,peel,656,40,4,5,français,f,3,0.3,-38.64739237,0.33518122
58a23b2b27c3bb00014e6d9a,89,1,2024-02-27T10:48:33.536Z,english_829.wav,0,peel,656,40,4,5,français,f,4,0.32341667,68.61732932,1.40687349
58a23b2b27c3bb00014e6d9a,90,1,2024-02-27T10:48:33.536Z,english_809.wav,0,peel,299,40,4,5,français,f,0,0.0,-9.08149959,0.73203403
58a23b2b27c3bb00014e6d9a,90,1,2024-02-27T10:48:33.536Z,english_809.wav,0,peel,299,40,4,5,français,f,1,0.1,12.16544582,0.53159531
58a23b2b27c3bb00014e6d9a,90,1,2024-02-27T10:48:33.536Z,english_809.wav,0,peel,299,40,4,5,français,f,2,0.2,40.52205867,1.48114639
58a23b2b27c3bb00014e6d9a,90,1,2024-02-27T10:48:33.536Z,english_809.wav,0,peel,299,40,4,5,français,f,3,0.3,-94.19679153,1.77078339
58a23b2b27c3bb00014e6d9a,90,1,2024-02-27T10:48:33.536Z,english_809.wav,0,peel,299,40,4,5,français,f,4,0.32341667,-5.82752377,1.36117577
58a23b2b27c3bb00014e6d9a,91,1,2024-02-27T10:48:33.536Z,english_585.wav,0,peel,356,40,4,5,français,f,0,0.0,-47.47167609,0.91486293
58a23b2b27c3bb00014e6d9a,91,1,2024-02-27T10:48:33.536Z,english_585.wav,0,peel,356,40,4,5,français,f,1,0.1,-85.73018253,0.8051019
58a23b2b27c3bb00014e6d9a,91,1,2024-02-27T10:48:33.536Z,english_585.wav,0,peel,356,40,4,5,français,f,2,0.2,4.69567907,1.25289508
58a23b2b27c3bb00014e6d9a,91,1,2024-02-27T10:48:33.536Z,english_585.wav,0,peel,356,40,4,5,français,f,3,0.3,51.83381109,0.83258124
58a23b2b27c3bb00014e6d9a,91,1,2024-02-27T10:48:33.536Z,english_585.wav,0,peel,356,40,4,5,français,f,4,0.32341667,14.12777642,1.43411439
58a23b2b27c3bb00014e6d9a,92,1,2024-02-27T10:48:33.536Z,english_642.wav,0,peel,343,40,4,5,français,f,0,0.0,31.40946548,0.21393667
58a23b2b27c3bb00014e6d9a,92,1,2024-02-27T10:48:33.536Z,english_642.wav,0,peel,343,40,4,5,français,f,1,0.1,4.73018903,1.31302396
58a23b2b27c3bb00014e6d9a,92,1,2024-02-27T10:48:33.536Z,english_642.wav,0,peel,343,40,4,5,français,f,2,0.2,85.2390777,0.95537026
58a23b2b27c3bb00014e6d9a,92,1,2024-02-27T10:48:33.536Z,english_642.wav,0,peel,343,40,4,5,français,f,3,0.3,-59.81643451,1.00167733
58a23b2b27c3bb00014e6d9a,92,1,2024-02-27T10:48:33.536Z,english_642.wav,0,peel,343,40,4,5,français,f,4,0.32341667,-42.92691369,0.89750156
58a23b2b27c3bb00014e6d9a,93,1,2024-02-27T10:48:33.536Z,english_664.wav,0,pill,536,40,4,5,français,f,0,0.0,-76.94516773,1.88823832
58a23b2b27c3bb00014e6d9a,93,1,2024-02-27T10:48:33.536Z,english_664.wav,0,pill,536,40,4,5,français,f,1,0.1,-6.4858311,1.41396893
58a23b2b27c3bb00014e6d9a,93,1,2024-02-27T10:48:33.536Z,english_664.wav,0,pill,536,40,4,5,français,f,2,0.2,46.60528691,0.11773869
58a23b2b27c3bb00014e6d9a,93,1,2024-02-27T10:48:33.536Z,english_664.wav,0,pill,536,40,4,5,français,f,3,0.3,9.48323043,1.80376032
58a23b2b27c3bb00014e6d9a,93,1,2024-02-27T10:48:33.536Z,english_664.wav,0,pill,536,40,4,5,français,f,4,0.32341667,89.85696022,1.43209877
58a23b2b27c3bb00014e6d9a,94,1,2024-02-27T10:48:33.536Z,english_872.wav,0,peel,423,40,4,5,français,f,0,0.0,0.56374655,0.10935802
58a23b2b27c3bb00014e6d9a,94,1,2024-02-27T10:48:33.536Z,english_872.wav,0,peel,423,40,4,5,français,f,1,0.1,-70.88107799,0.91778609
58a23b2b27c3bb00014e6d9a,94,1,2024-02-27T10:48:33.536Z,english_872.wav,0,peel,423,40,4,5,français,f,2,0.2,6.46677515,1.38740199
58a23b2b27c3bb00014e6d9a,94,1,2024-02-27T10:48:33.536Z,english_872.wav,0,peel,423,40,4,5,français,f,3,0.3,-23.51354109,0.12682507
58a23b2b27c3bb00014e6d9a,94,1,2024-02-27T10:48:33.536Z,english_872.wav,0,peel,423,40,4,5,français,f,4,0.32341667,81.64578493,0.71067476
58a23b2b27c3bb00014e6d9a,95,1,2024-02-27T10:48:33.536Z,english_500.wav,0,peel,541,40,4,5,français,f,0,0.0,34.07818593,1.14050746
58a23b2b27c3bb00014e6d9a,95,1,2024-02-27T10:48:33.536Z,english_500.wav,0,peel,541,40,4,5,français,f,1,0.1,31.06479142,1.87458021
58a23b2b27c3bb00014e6d9a,95,1,2024-02-27T10:48:33.536Z,english_500.wav,0,peel,541,40,4,5,français,f,2,0.2,-63.34751057,0.77467433
58a23b2b27c3bb00014e6d9a,95,1,2024-02-27T10:48:33.536Z,english_500.wav,0,peel,541,40,4,5,français,f,3,0.3,36.97827554,1.278432
58a23b2b27c3bb00014e6d9a,95,1,2024-02-27T10:48:33.536Z,english_500.wav,0,peel,541,40,4,5,français,f,4,0.32341667,96.68235718,0.68469821
58a23b2b27c3bb00014e6d9a,96,1,2024-02-27T10:48:33.536Z,english_652.wav,0,pill,611,40,4,5,français,f,0,0.0,4.27736911,0.30427218
58a23b2b27c3bb00014e6d9a,96,1,2024-02-27T10:48:33.536Z,english_652.wav,0,pill,611,40,4,5,français,f,1,0.1,18.79087972,0.67520162
58a23b2b27c3bb00014e6d9a,96,1,2024-02-27T10:48:33.536Z,english_652.wav,0,pill,611,40,4,5,français,f,2,0.2,61.32163128,0.66270689
58a23b2b27c3bb00014e6d9a,96,1,2024-02-27T10:48:33.536Z,english_652.wav,0,pill,611,40,4,5,français,f,3,0.3,45.76092148,0.93987847
58a23b2b27c3bb00014e6d9a,96,1,2024-02-27T10:48:33.536Z,english_652.wav,0,pill,611,40,4,5,français,f,4,0.32341667,-45.08671386,1.10617978
58a23b2b27c3bb00014e6d9a,97,1,2024-02-27T10:48:33.536Z,english_339.wav,0,pill,718,40,4,5,français,f,0,0.0,-58.67599578,0.13141934
58a23b2b27c3bb00014e6d9a,97,1,2024-02-27T10:48:33.536Z,english_339.wav,0,pill,718,40,4,5,français,f,1,0.1,-13.30258388,0.16133177
58a23b2b27c3bb00014e6d9a,97,1,2024-02-27T10:48:33.536Z,english_339.wav,0,pill,718,40,4,5,français,f,2,0.2,-52.40820381,1.13500643
58a23b2b27c3bb00014e6d9a,97,1,2024-02-27T10:48:33.536Z,english_339.wav,0,pill,718,40,4,5,français,f,3,0.3,11.33062491,0.98717522
58a23b2b27c3bb00014e6d9a,97,1,2024-02-27T10:48:33.536Z,english_339.wav,0,pill,718,40,4,5,français,f,4,0.32341667,9.6385593,0.10332776
58a23b2b27c3bb00014e6d9a,98,1,2024-02-27T10:48:33.536Z,english_718.wav,0,peel,828,40,4,5,français,f,0,0.0,-62.54470118,0.40124114
58a23b2b27c3bb00014e6d9a,98,1,2024-02-27T10:48:33.536Z,english_718.wav,0,peel,828,40,4,5,français,f,1,0.1,-40.70811043,0.49945062
58a23b2b27c3bb00014e6d9a,98,1,2024-02-27T10:48:33.536Z,english_718.wav,0,peel,828,40,4,5,français,f,2,0.2,-11.25435391,1.54880463
58a23b2b27c3bb00014e6d9a,98,1,2024-02-27T10:48:33.536Z,english_718.wav,0,peel,828,40,4,5,français,f,3,0.3,-68.52161814,0.39118497
58a23b2b27c3bb00014e6d9a,98,1,2024-02-27T10:48:33.536Z,english_718.wav,0,peel,828,40,4,5,français,f,4,0.32341667,-77.89834334,0.07447668
58a23b2b27c3bb00014e6d9a,99,1,2024-02-27T10:48:33.536Z,english_873.wav,0,pill,671,40,4,5,français,f,0,0.0,85.43762199,1.00056931
58a23b2b27c3bb00014e6d9a,99,1,2024-02-27T10:48:33.536Z,english_873.wav,0,pill,671,40,4,5,français,f,1,0.1,-27.24751419,0.47504393
58a23b2b27c3bb00014e6d9a,99,1,2024-02-27T10:48:33.536Z,english_873.wav,0,pill,671,40,4,5,français,f,2,0.2,-8.79829555,0.788147
58a23b2b27c3bb00014e6d9a,99,1,2024-02-27T10:48:33.536Z,english_873.wav,0,pill,671,40,4,5,français,f,3,0.3,-97.88620301,0.64075463
58a23b2b27c3bb00014e6d9a,99,1,2024-02-27T10:48:33.536Z,english_873.wav,0,pill,671,40,4,5,français,f,4,0.32341667,49.57089273,0.87603086
58a23b2b27c3bb00014e6d9a,100,2,2024-02-27T10:48:33.536Z,english_496.wav,0,pill,360,40,4,5,français,f,0,0.0,-50.36729616,1.24588939
58a23b2b27c3bb00014e6d9a,100,2,2024-02-27T10:48:33.536Z,english_496.wav,0,pill,360,40,4,5,français,f,1,0.1,43.15166092,1.651593
58a23b2b27c3bb00014e6d9a,100,2,2024-02-27T10:48:33.536Z,english_496.wav,0,pill,360,40,4,5,français,f,2,0.2,-89.08132341,0.94120535
58a23b2b27c3bb00014e6d9a,100,2,2024-02-27T10:48:33.536Z,english_496.wav,0,pill,360,40,4,5,français,f,3,0.3,-31.93753525,0.55989053
58a23b2b27c3bb00014e6d9a,100,2,2024-02-27T10:48:33.536Z,english_496.wav,0,pill,360,40,4,5,français,f,4,0.32341667,-79.66514086,1.95233748
58a23b2b27c3bb00014e6d9a,101,2,2024-02-27T10:48:33.536Z,english_416.wav,0,pill,645,40,4,5,français,f,0,0.0,26.92040942,0.66708871
58a23b2b27c3bb00014e6d9a,101,2,2024-02-27T10:48:33.536Z,english_416.wav,0,pill,645,40,4,5,français,f,1,0.1,32.98463782,0.46140785
58a23b2b27c3bb00014e6d9a,101,2,2024-02-27T10:48:33.536Z,english_416.wav,0,pill,645,40,4,5,français,f,2,0.2,94.30298269,0.4311344
58a23b2b27c3bb00014e6d9a,101,2,2024-02-27T10:48:33.536Z,english_416.wav,0,pill,645,40,4,5,français,f,3,0.3,71.4008894,0.4522554
58a23b2b27c3bb00014e6d9a,101,2,2024-02-27T10:48:33.536Z,english_416.wav,0,pill,645,40,4,5,français,f,4,0.32341667,-13.61584313,0.23817019
58a23b2b27c3bb00014e6d9a,102,2,2024-02-27T10:48:33.536Z,english_705.wav,0,peel,458,40,4,5,français,f,0,0.0,3.76426423,0.9500377
58a23b2b27c3bb00014e6d9a,102,2,2024-02-27T10:48:33.536Z,english_705.wav,0,peel,458,40,4,5,français,f,1,0.1,90.96696755,0.74173997
58a23b2b27c3bb00014e6d9a,102,2,2024-02-27T10:48:33.536Z,english_705.wav,0,peel,458,40,4,5,français,f,2,0.2,-32.86898574,1.78776637
58a23b2b27c3bb00014e6d9a,102,2,2024-02-27T10:48:33.536Z,english_705.wav,0,peel,458,40,4,5,français,f,3,0.3,-21.12550784,0.8178788
58a23b2b27c3bb00014e6d9a,102,2,2024-02-27T10:48:33.536Z,english_705.wav,0,peel,458,40,4,5,français,f,4,0.32341667,39.74077299,1.54913024
58a23b2b27c3bb00014e6d9a,103,2,2024-02-27T10:48:33.536Z,english_240.wav,0,peel,268,40,4,5,français,f,0,0.0,-96.55121617,1.04823872
58a23b2b27c3bb00014e6d9a,103,2,2024-02-27T10:48:33.536Z,english_240.wav,0,peel,268,40,4,5,français,f,1,0.1,73.99435309,1.11556714
58a23b2b27c3bb00014e6d9a,103,2,2024-02-27T10:48:33.536Z,english_240.wav,0,peel,268,40,4,5,français,f,2,0.2,-27.17256968,0.68795106
58a23b2b27c3bb00014e6d9a,103,2,2024-02-27T10:48:33.536Z,english_240.wav,0,peel,268,40,4,5,français,f,3,0.3,-2.05185553,1.30325309
58a23b2b27c3bb00014e6d9a,103,2,2024-02-27T10:48:33.536Z,english_240.wav,0,peel,268,40,4,5,français,f,4,0.32341667,80.37406519,0.86977317
58a23b2b27c3bb00014e6d9a,104,2,2024-02-27T10:48:33.536Z,english_671.wav,0,pill,595,40,4,5,français,f,0,0.0,32.91930287,1.74193101
58a23b2b27c3bb00014e6d9a,104,2,2024-02-27T10:48:33.536Z,english_671.wav,0,pill,595,40,4,5,français,f,1,0.1,6.16976114,0.51820224
58a23b2b27c3bb00014e6d9a,104,2,2024-02-27T10:48:33.536Z,english_671.wav,0,pill,595,40,4,5,français,f,2,0.2,-34.00390264,0.07120536
58a23b2b27c3bb00014e6d9a,104,2,2024-02-27T10:48:33.536Z,english_671.wav,0,pill,595,40,4,5,français,f,3,0.3,18.374511,0.3828633
58a23b2b27c3bb00014e6d9a,104,2,2024-02-27T10:48:33.536Z,english_671.wav,0,pill,595,40,4,5,français,f,4,0.32341667,-2.98713897,1.2592669
58a23b2b27c3bb00014e6d9a,105,2,2024-02-27T10:48:33.536Z,english_962.wav,0,peel,653,40,4,5,français,f,0,0.0,-55.512918,1.78332996
58a23b2b27c3bb00014e6d9a,105,2,2024-02-27T10:48:33.536Z,english_962.wav,0,peel,653,40,4,5,français,f,1,0.1,90.34773129,1.25956614
58a23b2b27c3bb00014e6d9a,105,2,2024-02-27T10:48:33.536Z,english_962.wav,0,peel,653,40,4,5,français,f,2,0.2,-3.10818459,0.72891593
58a23b2b27c3bb00014e6d9a,105,2,2024-02-27T10:48:33.536Z,english_962.wav,0,peel,653,40,4,5,français,f,3,0.3,50.27619033,1.49954356
58a23b2b27c3bb00014e6d9a,105,2,2024-02-27T10:48:33.536Z,english_962.wav,0,peel,653,40,4,5,français,f,4,0.32341667,-47.3196173,0.96339983
58a23b2b27c3bb00014e6d9a,106,2,2024-02-27T10:48:33.536Z,english_231.wav,0,peel,255,40,4,5,français,f,0,0.0,-57.04299033,1.30850831
58a23b2b27c3bb00014e6d9a,106,2,2024-02-27T10:48:33.536Z,english_231.wav,0,peel,255,40,4,5,français,f,1,0.1,-61.30294243,1.06317761
58a23b2b27c3bb00014e6d9a,106,2,2024-02-27T10:48:33.536Z,english_231.wav,0,peel,255,40,4,5,français,f,2,0.2,11.10207427,1.86768436
58a23b2b27c3bb00014e6d9a,106,2,2024-02-27T10:48:33.536Z,english_231.wav,0,peel,255,40,4,5,français,f,3,0.3,-1.38864911,1.42169342
58a23b2b27c3bb00014e6d9a,106,2,2024-02-27T10:48:33.536Z,english_231.wav,0,peel,255,40,4,5,français,f,4,0.32341667,-40.37897369,0.58634772
58a23b2b27c3bb00014e6d9a,107,2,2024-02-27T10:48:33.536Z,english_666.wav,0,peel,377,40,4,5,français,f,0,0.0,-6.63307831,0.44221414
58a23b2b27c3bb00014e6d9a,107,2,2024-02-27T10:48:33.536Z,english_666.wav,0,peel,377,40,4,5,français,f,1,0.1,-47.66524373,1.62559692
58a23b2b27c3bb00014e6d9a,107,2,2024-02-27T10:48:33.536Z,english_666.wav,0,peel,377,40,4,5,français,f,2,0.2,66.93817534,0.27313334
58a23b2b27c3bb00014e6d9a,107,2,2024-02-27T10:48:33.536Z,english_666.wav,0,peel,377,40,4,5,français,f,3,0.3,-1.338646,0.46846925
58a23b2b27c3bb00014e6d9a,107,2,2024-02-27T10:48:33.536Z,english_666.wav,0,peel,377,40,4,5,français,f,4,0.32341667,-14.31927765,1.08883823
58a23b2b27c3bb00014e6d9a,108,2,2024-02-27T10:48:33.536Z,english_509.wav,0,peel,296,40,4,5,français,f,0,0.0,58.37136146,0.93627824
58a23b2b27c3bb00014e6d9a,108,2,2024-02-27T10:48:33.536Z,english_509.wav,0,peel,296,40,4,5,français,f,1,0.1,-30.59588084,1.268957
58a23b2b27c3bb00014e6d9a,108,2,2024-02-27T10:48:33.536Z,english_509.wav,0,peel,296,40,4,5,français,f,2,0.2,-42.62400689,0.87018438
58a23b2b27c3bb00014e6d9a,108,2,2024-02-27T10:48:33.536Z,english_509.wav,0,peel,296,40,4,5,français,f,3,0.3,58.46483968,1.67134466
58a23b2b27c3bb00014e6d9a,108,2,2024-02-27T10:48:33.536Z,english_509.wav,0,peel,296,40,4,5,français,f,4,0.32341667,44.09610342,1.96584472
58a23b2b27c3bb00014e6d9a,109,2,2024-02-27T10:48:33.536Z,english_614.wav,0,peel,296,40,4,5,français,f,0,0.0,78.57791509,1.76663636
58a23b2b27c3bb00014e6d9a,109,2,2024-02-27T10:48:33.536Z,english_614.wav,0,peel,296,40,4,5,français,f,1,0.1,-6.15631212,0.7337869
58a23b2b27c3bb00014e6d9a,109,2,2024-02-27T10:48:33.536Z,english_614.wav,0,peel,296,40,4,5,français,f,2,0.2,-15.34092719,1.62880485
58a23b2b27c3bb00014e6d9a,109,2,2024-02-27T10:48:33.536Z,english_614.wav,0,peel,296,40,4,5,français,f,3,0.3,21.91351344,0.61213133
58a23b2b27c3bb00014e6d9a,109,2,2024-02-27T10:48:33.536Z,english_614.wav,0,peel,296,40,4,5,français,f,4,0.32341667,-10.50820757,0.41097232
58a23b2b27c3bb00014e6d9a,110,2,2024-02-27T10:48:33.536Z,english_321.wav,0,peel,325,40,4,5,français,f,0,0.0,2.07721816,1.69623759
58a23b2b27c3bb00014e6d9a,110,2,2024-02-27T10:48:33.536Z,english_321.wav,0,peel,325,40,4,5,français,f,1,0.1,59.48735819,1.35736687
58a23b2b27c3bb00014e6d9a,110,2,2024-02-27T10:48:33.536Z,english_321.wav,0,peel,325,40,4,5,français,f,2,0.2,64.78149714,1.92920457
58a23b2b27c3bb00014e6d9a,110,2,2024-02-27T10:48:33.536Z,english_321.wav,0,peel,325,40,4,5,français,f,3,0.3,65.58393414,0.66559077
58a23b2b27c3bb00014e6d9a,110,2,2024-02-27T10:48:33.536Z,english_321.wav,0,peel,325,40,4,5,français,f,4,0.32341667,14.66673939,1.66523208
58a23b2b27c3bb00014e6d9a,111,2,2024-02-27T10:48:33.536Z,english_836.wav,0,pill,1274,40,4,5,français,f,0,0.0,34.85846782,1.04017402
58a23b2b27c3bb00014e6d9a,111,2,2024-02-27T10:48:33.536Z,english_836.wav,0,pill,1274,40,4,5,français,f,1,0.1,41.54458908,0.35535359
58a23b2b27c3bb00014e6d9a,111,2,2024-02-27T10:48:33.536Z,english_836.wav,0,pill,1274,40,4,5,français,f,2,0.2,23.27363575,0.10471693
58a23b2b27c3bb00014e6d9a,111,2,2024-02-27T10:48:33.536Z,english_836.wav,0,pill,1274,40,4,5,français,f,3,0.3,86.83996211,0.55523491
58a23b2b27c3bb00014e6d9a,111,2,2024-02-27T10:48:33.536Z,english_836.wav,0,pill,1274,40,4,5,français,f,4,0.32341667,-32.25656931,0.70311776
58a23b2b27c3bb00014e6d9a,112,2,2024-02-27T10:48:33.536Z,english_262.wav,0,peel,463,40,4,5,français,f,0,0.0,-55.0240476,0.91992097
58a23b2b27c3bb00014e6d9a,112,2,2024-02-27T10:48:33.536Z,english_262.wav,0,peel,463,40,4,5,français,f,1,0.1,46.31562141,0.94194362
58a23b2b27c3bb00014e6d9a,112,2,2024-02-27T10:48:33.536Z,english_262.wav,0,peel,463,40,4,5,français,f,2,0.2,62.5855756,1.80305422
58a23b2b27c3bb00014e6d9a,112,2,2024-02-27T10:48:33.536Z,english_262.wav,0,peel,463,40,4,5,français,f,3,0.3,-4.25909078,0.51544707
58a23b2b27c3bb00014e6d9a,112,2,2024-02-27T10:48:33.536Z,english_262.wav,0,peel,463,40,4,5,français,f,4,0.32341667,16.27030636,1.47198659
58a23b2b27c3bb00014e6d9a,113,2,2024-02-27T10:48:33.536Z,english_557.wav,0,peel,262,40,4,5,français,f,0,0.0,43.94308994,0.38165316
58a23b2b27c3bb00014e6d9a,113,2,2024-02-27T10:48:33.536Z,english_557.wav,0,peel,262,40,4,5,français,f,1,0.1,84.77773598,1.19567933
58a23b2b27c3bb00014e6d9a,113,2,2024-02-27T10:48:33.536Z,english_557.wav,0,peel,262,40,4,5,français,f,2,0.2,-14.75143777,1.35103773
58a23b2b27c3bb00014e6d9a,113,2,2024-02-27T10:48:33.536Z,english_557.wav,0,peel,262,40,4,5,français,f,3,0.3,-37.76141322,1.69174007
58a23b2b27c3bb00014e6d9a,113,2,2024-02-27T10:48:33.536Z,english_557.wav,0,peel,262,40,4,5,français,f,4,0.32341667,-5.99076179,0.4334092
58a23b2b27c3bb00014e6d9a,114,2,2024-02-27T10:48:33.536Z,english_63.wav,0,peel,393,40,4,5,français,f,0,0.0,-99.27532027,1.55063038
58a23b2b27c3bb00014e6d9a,114,2,2024-02-27T10:48:33.536Z,english_63.wav,0,peel,393,40,4,5,français,f,1,0.1,76.75365344,0.78453917
58a23b2b27c3bb00014e6d9a,114,2,2024-02-27T10:48:33.536Z,english_63.wav,0,peel,393,40,4,5,français,f,2,0.2,-4.19867406,1.54061689
58a23b2b27c3bb00014e6d9a,114,2,2024-02-27T10:48:33.536Z,english_63.wav,0,peel,393,40,4,5,français,f,3,0.3,58.21469339,0.9417581
58a23b2b27c3bb00014e6d9a,114,2,2024-02-27T10:48:33.536Z,english_63.wav,0,peel,393,40,4,5,français,f,4,0.32341667,-76.25580242,1.07689855
58a23b2b27c3bb00014e6d9a,115,2,2024-02-27T10:48:33.536Z,english_797.wav,0,peel,196,40,4,5,français,f,0,0.0,-10.77604935,1.75152448
58a23b2b27c3bb00014e6d9a,115,2,2024-02-27T10:48:33.536Z,english_797.wav,0,peel,196,40,4,5,français,f,1,0.1,76.52998448,0.25625033
58a23b2b27c3bb00014e6d9a,115,2,2024-02-27T10:48:33.536Z,english_797.wav,0,peel,196,40,4,5,français,f,2,0.2,-52.30950648,1.63910521
58a23b2b27c3bb00014e6d9a,115,2,2024-02-27T10:48:33.536Z,english_797.wav,0,peel,196,40,4,5,français,f,3,0.3,-19.27189704,1.44412191
58a23b2b27c3bb00014e6d9a,115,2,2024-02-27T10:48:33.536Z,english_797.wav,0,peel,196,40,4,5,français,f,4,0.32341667,-68.52312916,1.41513857
58a23b2b27c3bb00014e6d9a,116,2,2024-02-27T10:48:33.536Z,english_601.wav,0,peel,446,40,4,5,français,f,0,0.0,54.32401431,0.08668951
58a23b2b27c3bb00014e6d9a,116,2,2024-02-27T10:48:33.536Z,english_601.wav,0,peel,446,40,4,5,français,f,1,0.1,-6.72935942,1.16468766
58a23b2b27c3bb00014e6d9a,116,2,2024-02-27T10:48:33.536Z,english_601.wav,0,peel,446,40,4,5,français,f,2,0.2,39.12079493,1.8612572
58a23b2b27c3bb00014e6d9a,116,2,2024-02-27T10:48:33.536Z,english_601.wav,0,peel,446,40,4,5,français,f,3,0.3,39.92141387,0.92171433
58a23b2b27c3bb00014e6d9a,116,2,2024-02-27T10:48:33.536Z,english_601.wav,0,peel,446,40,4,5,français,f,4,0.32341667,-27.14681087,0.50419734
58a23b2b27c3bb00014e6d9a,117,2,2024-02-27T10:48:33.536Z,english_220.wav,0,peel,289,40,4,5,français,f,0,0.0,-49.83323752,1.6244524
58a23b2b27c3bb00014e6d9a,117,2,2024-02-27T10:48:33.536Z,english_220.wav,0,peel,289,40,4,5,français,f,1,0.1,49.13629021,0.7812698
58a23b2b27c3bb00014e6d9a,117,2,2024-02-27T10:48:33.536Z,english_220.wav,0,peel,289,40,4,5,français,f,2,0.2,10.673463,1.29736816
58a23b2b27c3bb00014e6d9a,117,2,2024-02-27T10:48:33.536Z,english_220.wav,0,peel,289,40,4,5,français,f,3,0.3,-2.35218347,1.3419496
58a23b2b27c3bb00014e6d9a,117,2,2024-02-27T10:48:33.536Z,english_220.wav,0,peel,289,40,4,5,français,f,4,0.32341667,-2.61587219,1.06575232
58a23b2b27c3bb00014e6d9a,118,2,2024-02-27T10:48:33.536Z,english_180.wav,0,pill,616,40,4,5,français,f,0,0.0,-79.96502932,0.84610218
58a23b2b27c3bb00014e6d9a,118,2,2024-02-27T10:48:33.536Z,english_180.wav,0,pill,616,40,4,5,français,f,1,0.1,33.21752916,1.88919334
58a23b2b27c3bb00014e6d9a,118,2,2024-02-27T10:48:33.536Z,english_180.wav,0,pill,616,40,4,5,français,f,2,0.2,-97.52705813,0.18699196
58a23b2b27c3bb00014e6d9a,118,2,2024-02-27T10:48:33.536Z,english_180.wav,0,pill,616,40,4,5,français,f,3,0.3,42.51331828,0.0366283
58a23b2b27c3bb00014e6d9a,118,2,2024-02-27T10:48:33.536Z,english_180.wav,0,pill,616,40,4,5,français,f,4,0.32341667,-42.98571984,0.95813987
58a23b2b27c3bb00014e6d9a,119,2,2024-02-27T10:48:33.536Z,english_969.wav,0,pill,811,40,4,5,français,f,0,0.0,0.27440165,1.49550116
58a23b2b27c3bb00014e6d9a,119,2,2024-02-27T10:48:33.536Z,english_969.wav,0,pill,811,40,4,5,français,f,1,0.1,32.90941676,1.08086357
58a23b2b27c3bb00014e6d9a,119,2,2024-02-27T10:48:33.536Z,english_969.wav,0,pill,811,40,4,5,français,f,2,0.2,65.54691775,0.25687245
58a23b2b27c3bb00014e6d9a,119,2,2024-02-27T10:48:33.536Z,english_969.wav,0,pill,811,40,4,5,français,f,3,0.3,38.11090315,0.33107225
58a23b2b27c3bb00014e6d9a,119,2,2024-02-27T10:48:33.536Z,english_969.wav,0,pill,811,40,4,5,français,f,4,0.32341667,-66.49311905,0.72842933
58a23b2b27c3bb00014e6d9a,120,2,2024-02-27T10:48:33.536Z,english_806.wav,0,peel,293,40,4,5,français,f,0,0.0,17.38837614,1.03842349
58a23b2b27c3bb00014e6d9a,120,2,2024-02-27T10:48:33.536Z,english_806.wav,0,peel,293,40,4,5,français,f,1,0.1,50.31160736,1.08461549
58a23b2b27c3bb00014e6d9a,120,2,2024-02-27T10:48:33.536Z,english_806.wav,0,peel,293,40,4,5,français,f,2,0.2,74.21499327,1.8436814
58a23b2b27c3bb00014e6d9a,120,2,2024-02-27T10:48:33.536Z,english_806.wav,0,peel,293,40,4,5,français,f,3,0.3,16.647622,1.85846725
58a23b2b27c3bb00014e6d9a,120,2,2024-02-27T10:48:33.536Z,english_806.wav,0,peel,293,40,4,5,français,f,4,0.32341667,27.12519974,1.15820289
58a23b2b27c3bb00014e6d9a,121,2,2024-02-27T10:48:33.536Z,english_534.wav,0,pill,779,40,4,5,français,f,0,0.0,-42.4271338,1.1267565
58a23b2b27c3bb00014e6d9a,121,2,2024-02-27T10:48:33.536Z,english_534.wav,0,pill,779,40,4,5,français,f,1,0.1,-80.6424644,0.6842577
58a23b2b27c3bb00014e6d9a,121,2,2024-02-27T10:48:33.536Z,english_534.wav,0,pill,779,40,4,5,français,f,2,0.2,59.29592388,0.01459656
58a23b2b27c3bb00014e6d9a,121,2,2024-02-27T10:48:33.536Z,english_534.wav,0,pill,779,40,4,5,français,f,3,0.3,75.02007223,1.03701198
58a23b2b27c3bb00014e6d9a,121,2,2024-02-27T10:48:33.536Z,english_534.wav,0,pill,779,40,4,5,français,f,4,0.32341667,-57.55026449,1.25840342
58a23b2b27c3bb00014e6d9a,122,2,2024-02-27T10:48:33.536Z,english_358.wav,0,peel,352,40,4,5,français,f,0,0.0,-24.40280242,0.64702298
58a23b2b27c3bb00014e6d9a,122,2,2024-02-27T10:48:33.536Z,english_358.wav,0,peel,352,40,4,5,français,f,1,0.1,62.18566088,0.86836285
58a23b2b27c3bb00014e6d9a,122,2,2024-02-27T10:48:33.536Z,english_358.wav,0,peel,352,40,4,5,français,f,2,0.2,5.26675109,1.05826104
58a23b2b27c3bb00014e6d9a,122,2,2024-02-27T10:48:33.536Z,english_358.wav,0,peel,352,40,4,5,français,f,3,0.3,-31.91571391,1.98011631
58a23b2b27c3bb00014e6d9a,122,2,2024-02-27T10:48:33.536Z,english_358.wav,0,peel,352,40,4,5,français,f,4,0.32341667,27.35112364,0.35058307
58a23b2b27c3bb00014e6d9a,123,2,2024-02-27T10:48:33.536Z,english_822.wav,0,peel,423,40,4,5,français,f,0,0.0,22.19463519,1.34957498
58a23b2b27c3bb00014e6d9a,123,2,2024-02-27T10:48:33.536Z,english_822.wav,0,peel,423,40,4,5,français,f,1,0.1,46.02970585,1.18534363
58a23b2b27c3bb00014e6d9a,123,2,2024-02-27T10:48:33.536Z,english_822.wav,0,peel,423,40,4,5,français,f,2,0.2,44.31281831,0.88966115
58a23b2b27c3bb00014e6d9a,123,2,2024-02-27T10:48:33.536Z,english_822.wav,0,peel,423,40,4,5,français,f,3,0.3,27.24156044,1.22476657
58a23b2b27c3bb00014e6d9a,123,2,2024-02-27T10:48:33.536Z,english_822.wav,0,peel,423,40,4,5,français,f,4,0.32341667,41.58842879,0.51847317
58a23b2b27c3bb00014e6d9a,124,2,2024-02-27T10:48:33.536Z,english_579.wav,0,peel,476,40,4,5,français,f,0,0.0,78.52989573,1.74799876
58a23b2b27c3bb00014e6d9a,124,2,2024-02-27T10:48:33.536Z,english_579.wav,0,peel,476,40,4,5,français,f,1,0.1,-26.17758211,0.36264633
58a23b2b27c3bb00014e6d9a,124,2,2024-02-27T10:48:33.536Z,english_579.wav,0,peel,476,40,4,5,français,f,2,0.2,-65.60231522,1.15645327
58a23b2b27c3bb00014e6d9a,124,2,2024-02-27T10:48:33.536Z,english_579.wav,0,peel,476,40,4,5,français,f,3,0.3,-66.03357835,1.81639149
58a23b2b27c3bb00014e6d9a,124,2,2024-02-27T10:48:33.536Z,english_579.wav,0,peel,476,40,4,5,français,f,4,0.32341667,-36.23940811,1.38509752
58a23b2b27c3bb00014e6d9a,125,2,2024-02-27T10:48:33.536Z,english_641.wav,0,pill,593,40,4,5,français,f,0,0.0,-90.88934322,1.28926835
58a23b2b27c3bb00014e6d9a,125,2,2024-02-27T10:48:33.536Z,english_641.wav,0,pill,593,40,4,5,français,f,1,0.1,13.36673253,0.02464493
58a23b2b27c3bb00014e6d9a,125,2,2024-02-27T10:48:33.536Z,english_641.wav,0,pill,593,40,4,5,français,f,2,0.2,-36.70414591,0.5505433
58a23b2b27c3bb00014e6d9a,125,2,2024-02-27T10:48:33.536Z,english_641.wav,0,pill,593,40,4,5,français,f,3,0.3,-4.62417375,0.52188675
58a23b2b27c3bb00014e6d9a,125,2,2024-02-27T10:48:33.536Z,english_641.wav,0,pill,593,40,4,5,français,f,4,0.32341667,15.34366305,0.01360039
58a23b2b27c3bb00014e6d9a,126,2,2024-02-27T10:48:33.536Z,english_148.wav,0,pill,968,40,4,5,français,f,0,0.0,-15.87588743,0.13468567
58a23b2b27c3bb00014e6d9a,126,2,2024-02-27T10:48:33.536Z,english_148.wav,0,pill,968,40,4,5,français,f,1,0.1,66.05332506,1.11017862
58a23b2b27c3bb00014e6d9a,126,2,2024-02-27T10:48:33.536Z,english_148.wav,0,pill,968,40,4,5,français,f,2,0.2,50.59551539,0.42983488
58a23b2b27c3bb00014e6d9a,126,2,2024-02-27T10:48:33.536Z,english_148.wav,0,pill,968,40,4,5,français,f,3,0.3,-59.45276716,0.2729575
58a23b2b27c3bb00014e6d9a,126,2,2024-02-27T10:48:33.536Z,english_148.wav,0,pill,968,40,4,5,français,f,4,0.32341667,58.4155276,0.65396017
58a23b2b27c3bb00014e6d9a,127,2,2024-02-27T10:48:33.536Z,english_725.wav,0,pill,506,40,4,5,français,f,0,0.0,26.80600371,0.25466557
58a23b2b27c3bb00014e6d9a,127,2,2024-02-27T10:48:33.536Z,english_725.wav,0,pill,506,40,4,5,français,f,1,0.1,82.24352357,0.77088778
58a23b2b27c3bb00014e6d9a,127,2,2024-02-27T10:48:33.536Z,english_725.wav,0,pill,506,40,4,5,français,f,2,0.2,-3.79901328,0.70697722
58a23b2b27c3bb00014e6d9a,127,2,2024-02-27T10:48:33.536Z,english_725.wav,0,pill,506,40,4,5,français,f,3,0.3,68.54562933,1.24247197
58a23b2b27c3bb00014e6d9a,127,2,2024-02-27T10:48:33.536Z,english_725.wav,0,pill,506,40,4,5,français,f,4,0.32341667,-39.79698803,1.34526742
58a23b2b27c3bb00014e6d9a,128,2,2024-02-27T10:48:33.536Z,english_49.wav,0,peel,435,40,4,5,français,f,0,0.0,-6.08822071,0.36436507
58a23b2b27c3bb00014e6d9a,128,2,2024-02-27T10:48:33.536Z,english_49.wav,0,peel,435,40,4,5,français,f,1,0.1,-56.0367764,1.66948988
58a23b2b27c3bb00014e6d9a,128,2,2024-02-27T10:48:33.536Z,english_49.wav,0,peel,435,40,4,5,français,f,2,0.2,-51.95657584,1.20554654
58a23b2b27c3bb00014e6d9a,128,2,2024-02-27T10:48:33.536Z,english_49.wav,0,peel,435,40,4,5,français,f,3,0.3,-59.93208112,0.31084089
58a23b2b27c3bb00014e6d9a,128,2,2024-02-27T10:48:33.536Z,english_49.wav,0,peel,435,40,4,5,français,f,4,0.32341667,-7.85847813,0.44223059
58a23b2b27c3bb00014e6d9a,129,2,2024-02-27T10:48:33.536Z,english_741.wav,0,peel,547,40,4,5,français,f,0,0.0,-74.62614727,1.92216761
58a23b2b27c3bb00014e6d9a,129,2,2024-02-27T10:48:33.536Z,english_741.wav,0,peel,547,40,4,5,français,f,1,0.1,33.834367,1.50741835
58a23b2b27c3bb00014e6d9a,129,2,2024-02-27T10:48:33.536Z,english_741.wav,0,peel,547,40,4,5,français,f,2,0.2,-60.21329901,0.74273648
58a23b2b27c3bb00014e6d9a,129,2,2024-02-27T10:48:33.536Z,english_741.wav,0,peel,547,40,4,5,français,f,3,0.3,-95.39639135,0.98175705
58a23b2b27c3bb00014e6d9a,129,2,2024-02-27T10:48:33.536Z,english_741.wav,0,peel,547,40,4,5,français,f,4,0.32341667,3.10560698,0.9878567
58a23b2b27c3bb00014e6d9a,130,2,2024-02-27T10:48:33.536Z,english_881.wav,0,peel,370,40,4,5,français,f,0,0.0,7.28069095,1.60234882
58a23b2b27c3bb00014e6d9a,130,2,2024-02-27T10:48:33.536Z,english_881.wav,0,peel,370,40,4,5,français,f,1,0.1,-64.28928902,0.93497238
58a23b2b27c3bb00014e6d9a,130,2,2024-02-27T10:48:33.536Z,english_881.wav,0,peel,370,40,4,5,français,f,2,0.2,-2.07432692,0.58107235
58a23b2b27c3bb00014e6d9a,130,2,2024-02-27T10:48:33.536Z,english_881.wav,0,peel,370,40,4,5,français,f,3,0.3,51.5536886,1.34691236
58a23b2b27c3bb00014e6d9a,130,2,2024-02-27T10:48:33.536Z,english_881.wav,0,peel,370,40,4,5,français,f,4,0.32341667,65.74991707,0.85842561
58a23b2b27c3bb00014e6d9a,131,2,2024-02-27T10:48:33.536Z,english_66.wav,0,pill,449,40,4,5,français,f,0,0.0,16.07147303,1.75051971
58a23b2b27c3bb00014e6d9a,131,2,2024-02-27T10:48:33.536Z,english_66.wav,0,pill,449,40,4,5,français,f,1,0.1,50.76577123,0.02971233
58a23b2b27c3bb00014e6d9a,131,2,2024-02-27T10:48:33.536Z,english_66.wav,0,pill,449,40,4,5,français,f,2,0.2,-29.1595681,0.63583886
58a23b2b27c3bb00014e6d9a,131,2,2024-02-27T10:48:33.536Z,english_66.wav,0,pill,449,40,4,5,français,f,3,0.3,-80.89120138,1.46734397
58a23b2b27c3bb00014e6d9a,131,2,2024-02-27T10:48:33.536Z,english_66.wav,0,pill,449,40,4,5,français,f,4,0.32341667,-8.46229461,1.61280944
58a23b2b27c3bb00014e6d9a,132,2,2024-02-27T10:48:33.536Z,english_865.wav,0,pill,488,40,4,5,français,f,0,0.0,57.45647421,1.64387024
58a23b2b27c3bb00014e6d9a,132,2,2024-02-27T10:48:33.536Z,english_865.wav,0,pill,488,40,4,5,français,f,1,0.1,-62.30549211,0.05749027
58a23b2b27c3bb00014e6d9a,132,2,2024-02-27T10:48:33.536Z,english_865.wav,0,pill,488,40,4,5,français,f,2,0.2,-35.85649312,0.09554773
58a23b2b27c3bb00014e6d9a,132,2,2024-02-27T10:48:33.536Z,english_865.wav,0,pill,488,40,4,5,français,f,3,0.3,55.00701181,1.62598434
58a23b2b27c3bb00014e6d9a,132,2,2024-02-27T10:48:33.536Z,english_865.wav,0,pill,488,40,4,5,français,f,4,0.32341667,-39.97662747,0.71232625
58a23b2b27c3bb00014e6d9a,133,2,2024-02-27T10:48:33.536Z,english_937.wav,0,peel,335,40,4,5,français,f,0,0.0,76.77394395,1.55370699
58a23b2b27c3bb00014e6d9a,133,2,2024-02-27T10:48:33.536Z,english_937.wav,0,peel,335,40,4,5,français,f,1,0.1,49.33576264,1.82028848
58a23b2b27c3bb00014e6d9a,133,2,2024-02-27T10:48:33.536Z,english_937.wav,0,peel,335,40,4,5,français,f,2,0.2,-87.39935237,1.42487505
58a23b2b27c3bb00014e6d9a,133,2,2024-02-27T10:48:33.536Z,english_937.wav,0,peel,335,40,4,5,français,f,3,0.3,11.02170053,0.87896062
58a23b2b27c3bb00014e6d9a,133,2,2024-02-27T10:48:33.536Z,english_937.wav,0,peel,335,40,4,5,français,f,4,0.32341667,91.99381322,0.96516852
58a23b2b27c3bb00014e6d9a,134,2,2024-02-27T10:48:33.536Z,english_854.wav,0,peel,331,40,4,5,français,f,0,0.0,-3.2532791,1.78139632
58a23b2b27c3bb00014e6d9a,134,2,2024-02-27T10:48:33.536Z,english_854.wav,0,peel,331,40,4,5,français,f,1,0.1,19.40039505,1.50161717
58a23b2b27c3bb00014e6d9a,134,2,2024-02-27T10:48:33.536Z,english_854.wav,0,peel,331,40,4,5,français,f,2,0.2,-14.62360686,0.8978804
58a23b2b27c3bb00014e6d9a,134,2,2024-02-27T10:48:33.536Z,english_854.wav,0,peel,331,40,4,5,français,f,3,0.3,-63.13820282,1.66267041
58a23b2b27c3bb00014e6d9a,134,2,2024-02-27T10:48:33.536Z,english_854.wav,0,peel,331,40,4,5,français,f,4,0.32341667,44.42181264,1.68588082
58a23b2b27c3bb00014e6d9a,135,2,2024-02-27T10:48:33.536Z,english_226.wav,0,peel,1161,40,4,5,français,f,0,0.0,-56.53605181,0.51185795
58a23b2b27c3bb00014e6d9a,135,2,2024-02-27T10:48:33.536Z,english_226.wav,0,peel,1161,40,4,5,français,f,1,0.1,-5.93547338,0.73377568
58a23b2b27c3bb00014e6d9a,135,2,2024-02-27T10:48:33.536Z,english_226.wav,0,peel,1161,40,4,5,français,f,2,0.2,-81.0596442,1.62034912
58a23b2b27c3bb00014e6d9a,135,2,2024-02-27T10:48:33.536Z,english_226.wav,0,peel,1161,40,4,5,français,f,3,0.3,-12.14261426,0.19474782
58a23b2b27c3bb00014e6d9a,135,2,2024-02-27T10:48:33.536Z,english_226.wav,0,peel,1161,40,4,5,français,f,4,0.32341667,40.67667876,0.1395898
58a23b2b27c3bb00014e6d9a,136,2,2024-02-27T10:48:33.536Z,english_190.wav,0,pill,475,40,4,5,français,f,0,0.0,81.66607819,0.126715216
58a23b2b27c3bb00014e6d9a,136,2,2024-02-27T10:48:33.536Z,english_190.wav,0,pill,475,40,4,5,français,f,1,0.1,-14.16938067,0.000178349903
58a23b2b27c3bb00014e6d9a,136,2,2024-02-27T10:48:33.536Z,english_190.wav,0,pill,475,40,4,5,français,f,2,0.2,15.7443745,1.35192229
58a23b2b27c3bb00014e6d9a,136,2,2024-02-27T10:48:33.536Z,english_190.wav,0,pill,475,40,4,5,français,f,3,0.3,85.77694093,1.08905811
58a23b2b27c3bb00014e6d9a,136,2,2024-02-27T10:48:33.536Z,english_190.wav,0,pill,475,40,4,5,français,f,4,0.32341667,33.21115004,1.75580408
58a23b2b27c3bb00014e6d9a,137,2,2024-02-27T10:48:33.536Z,english_495.wav,0,peel,453,40,4,5,français,f,0,0.0,-5.58861003,1.32978923
58a23b2b27c3bb00014e6d9a,137,2,2024-02-27T10:48:33.536Z,english_495.wav,0,peel,453,40,4,5,français,f,1,0.1,8.95176437,0.81778757
58a23b2b27c3bb00014e6d9a,137,2,2024-02-27T10:48:33.536Z,english_495.wav,0,peel,453,40,4,5,français,f,2,0.2,39.42206983,0.66481361
58a23b2b27c3bb00014e6d9a,137,2,2024-02-27T10:48:33.536Z,english_495.wav,0,peel,453,40,4,5,français,f,3,0.3,-84.38976819,0.35850052
58a23b2b27c3bb00014e6d9a,137,2,2024-02-27T10:48:33.536Z,english_495.wav,0,peel,453,40,4,5,français,f,4,0.32341667,-2.90431636,0.23899864
58a23b2b27c3bb00014e6d9a,138,2,2024-02-27T10:48:33.536Z,english_834.wav,0,pill,519,40,4,5,français,f,0,0.0,-64.94927172,0.98752234
58a23b2b27c3bb00014e6d9a,138,2,2024-02-27T10:48:33.536Z,english_834.wav,0,pill,519,40,4,5,français,f,1,0.1,49.61052881,1.31122352
58a23b2b27c3bb00014e6d9a,138,2,2024-02-27T10:48:33.536Z,english_834.wav,0,pill,519,40,4,5,français,f,2,0.2,-25.04715585,0.09065599
58a23b2b27c3bb00014e6d9a,138,2,2024-02-27T10:48:33.536Z,english_834.wav,0,pill,519,40,4,5,français,f,3,0.3,95.09819394,1.07854905
58a23b2b27c3bb00014e6d9a,138,2,2024-02-27T10:48:33.536Z,english_834.wav,0,pill,519,40,4,5,français,f,4,0.32341667,84.16953653,1.76453498
58a23b2b27c3bb00014e6d9a,139,2,2024-02-27T10:48:33.536Z,english_354.wav,0,pill,1431,40,4,5,français,f,0,0.0,-63.97501145,0.52067601
58a23b2b27c3bb00014e6d9a,139,2,2024-02-27T10:48:33.536Z,english_354.wav,0,pill,1431,40,4,5,français,f,1,0.1,-43.11314734,0.59903392
58a23b2b27c3bb00014e6d9a,139,2,2024-02-27T10:48:33.536Z,english_354.wav,0,pill,1431,40,4,5,français,f,2,0.2,10.53928595,0.9992363
58a23b2b27c3bb00014e6d9a,139,2,2024-02-27T10:48:33.536Z,english_354.wav,0,pill,1431,40,4,5,français,f,3,0.3,-23.15258088,1.16142831
58a23b2b27c3bb00014e6d9a,139,2,2024-02-27T10:48:33.536Z,english_354.wav,0,pill,1431,40,4,5,français,f,4,0.32341667,3.22925066,0.37639432
58a23b2b27c3bb00014e6d9a,140,2,2024-02-27T10:48:33.536Z,english_189.wav,0,pill,607,40,4,5,français,f,0,0.0,-22.70456848,0.82906961
58a23b2b27c3bb00014e6d9a,140,2,2024-02-27T10:48:33.536Z,english_189.wav,0,pill,607,40,4,5,français,f,1,0.1,-12.00888723,0.58408113
58a23b2b27c3bb00014e6d9a,140,2,2024-02-27T10:48:33.536Z,english_189.wav,0,pill,607,40,4,5,français,f,2,0.2,15.14046376,0.19058783
58a23b2b27c3bb00014e6d9a,140,2,2024-02-27T10:48:33.536Z,english_189.wav,0,pill,607,40,4,5,français,f,3,0.3,-19.30106293,0.57788611
58a23b2b27c3bb00014e6d9a,140,2,2024-02-27T10:48:33.536Z,english_189.wav,0,pill,607,40,4,5,français,f,4,0.32341667,-20.57313834,0.32577637
58a23b2b27c3bb00014e6d9a,141,2,2024-02-27T10:48:33.536Z,english_639.wav,0,peel,585,40,4,5,français,f,0,0.0,-8.64176861,1.80061108
58a23b2b27c3bb00014e6d9a,141,2,2024-02-27T10:48:33.536Z,english_639.wav,0,peel,585,40,4,5,français,f,1,0.1,-2.28240571,0.32075858
58a23b2b27c3bb00014e6d9a,141,2,2024-02-27T10:48:33.536Z,english_639.wav,0,peel,585,40,4,5,français,f,2,0.2,61.07673865,0.35362442
58a23b2b27c3bb00014e6d9a,141,2,2024-02-27T10:48:33.536Z,english_639.wav,0,peel,585,40,4,5,français,f,3,0.3,-20.33592136,1.48415136
58a23b2b27c3bb00014e6d9a,141,2,2024-02-27T10:48:33.536Z,english_639.wav,0,peel,585,40,4,5,français,f,4,0.32341667,-24.05835486,0.14560931
58a23b2b27c3bb00014e6d9a,142,2,2024-02-27T10:48:33.536Z,english_103.wav,0,peel,440,40,4,5,français,f,0,0.0,-79.54710498,0.84178061
58a23b2b27c3bb00014e6d9a,142,2,2024-02-27T10:48:33.536Z,english_103.wav,0,peel,440,40,4,5,français,f,1,0.1,-41.31314025,1.9706485
58a23b2b27c3bb00014e6d9a,142,2,2024-02-27T10:48:33.536Z,english_103.wav,0,peel,440,40,4,5,français,f,2,0.2,-48.58046961,1.55059924
58a23b2b27c3bb00014e6d9a,142,2,2024-02-27T10:48:33.536Z,english_103.wav,0,peel,440,40,4,5,français,f,3,0.3,50.88097047,1.14550684
58a23b2b27c3bb00014e6d9a,142,2,2024-02-27T10:48:33.536Z,english_103.wav,0,peel,440,40,4,5,français,f,4,0.32341667,21.22320476,1.67039139
58a23b2b27c3bb00014e6d9a,143,2,2024-02-27T10:48:33.536Z,english_723.wav,0,peel,570,40,4,5,français,f,0,0.0,-85.17156731,1.02541656
58a23b2b27c3bb00014e6d9a,143,2,2024-02-27T10:48:33.536Z,english_723.wav,0,peel,570,40,4,5,français,f,1,0.1,92.93654667,0.92088513
58a23b2b27c3bb00014e6d9a,143,2,2024-02-27T10:48:33.536Z,english_723.wav,0,peel,570,40,4,5,français,f,2,0.2,-28.89042756,0.78256854
58a23b2b27c3bb00014e6d9a,143,2,2024-02-27T10:48:33.536Z,english_723.wav,0,peel,570,40,4,5,français,f,3,0.3,36.79914563,1.22887413
58a23b2b27c3bb00014e6d9a,143,2,2024-02-27T10:48:33.536Z,english_723.wav,0,peel,570,40,4,5,français,f,4,0.32341667,6.86426773,1.77193963
58a23b2b27c3bb00014e6d9a,144,2,2024-02-27T10:48:33.536Z,english_767.wav,0,peel,459,40,4,5,français,f,0,0.0,29.63321135,0.17563718
58a23b2b27c3bb00014e6d9a,144,2,2024-02-27T10:48:33.536Z,english_767.wav,0,peel,459,40,4,5,français,f,1,0.1,-31.63783795,0.61981002
58a23b2b27c3bb00014e6d9a,144,2,2024-02-27T10:48:33.536Z,english_767.wav,0,peel,459,40,4,5,français,f,2,0.2,56.53254366,1.38773128
58a23b2b27c3bb00014e6d9a,144,2,2024-02-27T10:48:33.536Z,english_767.wav,0,peel,459,40,4,5,français,f,3,0.3,52.69149806,1.37795514
58a23b2b27c3bb00014e6d9a,144,2,2024-02-27T10:48:33.536Z,english_767.wav,0,peel,459,40,4,5,français,f,4,0.32341667,-0.8536295,1.97315338
58a23b2b27c3bb00014e6d9a,145,2,2024-02-27T10:48:33.536Z,english_604.wav,0,peel,333,40,4,5,français,f,0,0.0,11.37360706,1.9162078
58a23b2b27c3bb00014e6d9a,145,2,2024-02-27T10:48:33.536Z,english_604.wav,0,peel,333,40,4,5,français,f,1,0.1,-50.20832577,0.59247461
58a23b2b27c3bb00014e6d9a,145,2,2024-02-27T10:48:33.536Z,english_604.wav,0,peel,333,40,4,5,français,f,2,0.2,-34.39542541,1.79911242
58a23b2b27c3bb00014e6d9a,145,2,2024-02-27T10:48:33.536Z,english_604.wav,0,peel,333,40,4,5,français,f,3,0.3,-9.87560088,0.998763
58a23b2b27c3bb00014e6d9a,145,2,2024-02-27T10:48:33.536Z,english_604.wav,0,peel,333,40,4,5,français,f,4,0.32341667,34.71454295,0.76768671
58a23b2b27c3bb00014e6d9a,146,2,2024-02-27T10:48:33.536Z,english_357.wav,0,pill,614,40,4,5,français,f,0,0.0,76.35734026,1.14590216
58a23b2b27c3bb00014e6d9a,146,2,2024-02-27T10:48:33.536Z,english_357.wav,0,pill,614,40,4,5,français,f,1,0.1,-86.84267031,0.53472093
58a23b2b27c3bb00014e6d9a,146,2,2024-02-27T10:48:33.536Z,english_357.wav,0,pill,614,40,4,5,français,f,2,0.2,-64.6676431,0.54723503
58a23b2b27c3bb00014e6d9a,146,2,2024-02-27T10:48:33.536Z,english_357.wav,0,pill,614,40,4,5,français,f,3,0.3,-69.9472318,1.29334783
58a23b2b27c3bb00014e6d9a,146,2,2024-02-27T10:48:33.536Z,english_357.wav,0,pill,614,40,4,5,français,f,4,0.32341667,87.84988665,1.74725804
58a23b2b27c3bb00014e6d9a,147,2,2024-02-27T10:48:33.536Z,english_526.wav,0,peel,417,40,4,5,français,f,0,0.0,-32.34532461,0.924261
58a23b2b27c3bb00014e6d9a,147,2,2024-02-27T10:48:33.536Z,english_526.wav,0,peel,417,40,4,5,français,f,1,0.1,-46.6208459,0.25414499
58a23b2b27c3bb00014e6d9a,147,2,2024-02-27T10:48:33.536Z,english_526.wav,0,peel,417,40,4,5,français,f,2,0.2,-42.84927068,1.01925886
58a23b2b27c3bb00014e6d9a,147,2,2024-02-27T10:48:33.536Z,english_526.wav,0,peel,417,40,4,5,français,f,3,0.3,3.47643827,0.65966822
58a23b2b27c3bb00014e6d9a,147,2,2024-02-27T10:48:33.536Z,english_526.wav,0,peel,417,40,4,5,français,f,4,0.32341667,52.79087598,1.50872035
58a23b2b27c3bb00014e6d9a,148,2,2024-02-27T10:48:33.536Z,english_333.wav,0,peel,315,40,4,5,français,f,0,0.0,61.26933292,0.50090252
58a23b2b27c3bb00014e6d9a,148,2,2024-02-27T10:48:33.536Z,english_333.wav,0,peel,315,40,4,5,français,f,1,0.1,38.65533839,1.61630161
58a23b2b27c3bb00014e6d9a,148,2,2024-02-27T10:48:33.536Z,english_333.wav,0,peel,315,40,4,5,français,f,2,0.2,-27.91605269,1.73322278
58a23b2b27c3bb00014e6d9a,148,2,2024-02-27T10:48:33.536Z,english_333.wav,0,peel,315,40,4,5,français,f,3,0.3,36.00101096,0.67742762
58a23b2b27c3bb00014e6d9a,148,2,2024-02-27T10:48:33.536Z,english_333.wav,0,peel,315,40,4,5,français,f,4,0.32341667,-78.35943708,0.46993908
58a23b2b27c3bb00014e6d9a,149,2,2024-02-27T10:48:33.536Z,english_14.wav,0,pill,631,40,4,5,français,f,0,0.0,98.00979643,0.92494293
58a23b2b27c3bb00014e6d9a,149,2,2024-02-27T10:48:33.536Z,english_14.wav,0,pill,631,40,4,5,français,f,1,0.1,-39.90204919,0.80403915
58a23b2b27c3bb00014e6d9a,149,2,2024-02-27T10:48:33.536Z,english_14.wav,0,pill,631,40,4,5,français,f,2,0.2,51.0517473,0.29426005
58a23b2b27c3bb00014e6d9a,149,2,2024-02-27T10:48:33.536Z,english_14.wav,0,pill,631,40,4,5,français,f,3,0.3,-8.39716694,0.14957292
58a23b2b27c3bb00014e6d9a,149,2,2024-02-27T10:48:33.536Z,english_14.wav,0,pill,631,40,4,5,français,f,4,0.32341667,82.54419716,0.1717279
58a23b2b27c3bb00014e6d9a,150,3,2024-02-27T10:48:33.536Z,english_690.wav,0,peel,546,40,4,5,français,f,0,0.0,33.047654,1.58265684
58a23b2b27c3bb00014e6d9a,150,3,2024-02-27T10:48:33.536Z,english_690.wav,0,peel,546,40,4,5,français,f,1,0.1,0.0212167444,0.6931717
58a23b2b27c3bb00014e6d9a,150,3,2024-02-27T10:48:33.536Z,english_690.wav,0,peel,546,40,4,5,français,f,2,0.2,21.343237,1.47002515
58a23b2b27c3bb00014e6d9a,150,3,2024-02-27T10:48:33.536Z,english_690.wav,0,peel,546,40,4,5,français,f,3,0.3,35.4710796,1.9856235
58a23b2b27c3bb00014e6d9a,150,3,2024-02-27T10:48:33.536Z,english_690.wav,0,peel,546,40,4,5,français,f,4,0.323416667,79.4400816,1.00479917
58a23b2b27c3bb00014e6d9a,151,3,2024-02-27T10:48:33.536Z,english_36.wav,0,pill,442,40,4,5,français,f,0,0.0,8.79498818,0.0614271
58a23b2b27c3bb00014e6d9a,151,3,2024-02-27T10:48:33.536Z,english_36.wav,0,pill,442,40,4,5,français,f,1,0.1,-18.99628775,0.22652961
58a23b2b27c3bb00014e6d9a,151,3,2024-02-27T10:48:33.536Z,english_36.wav,0,pill,442,40,4,5,français,f,2,0.2,-17.40156662,0.46484299
58a23b2b27c3bb00014e6d9a,151,3,2024-02-27T10:48:33.536Z,english_36.wav,0,pill,442,40,4,5,français,f,3,0.3,-85.73958234,0.81464033
58a23b2b27c3bb00014e6d9a,151,3,2024-02-27T10:48:33.536Z,english_36.wav,0,pill,442,40,4,5,français,f,4,0.32341667,45.44069908,0.21843777
58a23b2b27c3bb00014e6d9a,152,3,2024-02-27T10:48:33.536Z,english_505.wav,0,peel,398,40,4,5,français,f,0,0.0,-14.1569725,0.45361713
58a23b2b27c3bb00014e6d9a,152,3,2024-02-27T10:48:33.536Z,english_505.wav,0,peel,398,40,4,5,français,f,1,0.1,55.52926248,0.94516805
58a23b2b27c3bb00014e6d9a,152,3,2024-02-27T10:48:33.536Z,english_505.wav,0,peel,398,40,4,5,français,f,2,0.2,53.00334781,0.85342654
