subj,trial,block,date,stim,stim_order,response,rt,age,english,french,language,sex,param_index,segment,pitch,stretch
640095c783a33710a484adee,0,0,2024-02-27T11:18:00.776Z,english_157.wav,0,peel,10385,60,5,5,français,m,0,0.0,-74.01864956,1.10168906
640095c783a33710a484adee,0,0,2024-02-27T11:18:00.776Z,english_157.wav,0,peel,10385,60,5,5,français,m,1,0.1,1.44529667,1.71225259
640095c783a33710a484adee,0,0,2024-02-27T11:18:00.776Z,english_157.wav,0,peel,10385,60,5,5,français,m,2,0.2,-42.76251303,1.71884561
640095c783a33710a484adee,0,0,2024-02-27T11:18:00.776Z,english_157.wav,0,peel,10385,60,5,5,français,m,3,0.3,-49.01483239,1.47822148
640095c783a33710a484adee,0,0,2024-02-27T11:18:00.776Z,english_157.wav,0,peel,10385,60,5,5,français,m,4,0.32341667,-96.85595697,1.36273156
640095c783a33710a484adee,1,0,2024-02-27T11:18:00.776Z,english_292.wav,0,pill,1616,60,5,5,français,m,0,0.0,-39.45275529,0.85174507
640095c783a33710a484adee,1,0,2024-02-27T11:18:00.776Z,english_292.wav,0,pill,1616,60,5,5,français,m,1,0.1,-35.03464337,0.73996191
640095c783a33710a484adee,1,0,2024-02-27T11:18:00.776Z,english_292.wav,0,pill,1616,60,5,5,français,m,2,0.2,31.68370279,1.42892595
640095c783a33710a484adee,1,0,2024-02-27T11:18:00.776Z,english_292.wav,0,pill,1616,60,5,5,français,m,3,0.3,-53.75991965,0.04968332
640095c783a33710a484adee,1,0,2024-02-27T11:18:00.776Z,english_292.wav,0,pill,1616,60,5,5,français,m,4,0.32341667,12.49992629,0.58931553
640095c783a33710a484adee,2,0,2024-02-27T11:18:00.776Z,english_376.wav,0,pill,430,60,5,5,français,m,0,0.0,-10.66231765,0.83936518
640095c783a33710a484adee,2,0,2024-02-27T11:18:00.776Z,english_376.wav,0,pill,430,60,5,5,français,m,1,0.1,-53.95799634,1.7265478
640095c783a33710a484adee,2,0,2024-02-27T11:18:00.776Z,english_376.wav,0,pill,430,60,5,5,français,m,2,0.2,-44.60014177,0.44309389
640095c783a33710a484adee,2,0,2024-02-27T11:18:00.776Z,english_376.wav,0,pill,430,60,5,5,français,m,3,0.3,-84.32777745,1.91772458
640095c783a33710a484adee,2,0,2024-02-27T11:18:00.776Z,english_376.wav,0,pill,430,60,5,5,français,m,4,0.32341667,-2.76179289,0.76255227
640095c783a33710a484adee,3,0,2024-02-27T11:18:00.776Z,english_514.wav,0,pill,852,60,5,5,français,m,0,0.0,-61.65105701,1.12509033
640095c783a33710a484adee,3,0,2024-02-27T11:18:00.776Z,english_514.wav,0,pill,852,60,5,5,français,m,1,0.1,49.84264816,0.78701739
640095c783a33710a484adee,3,0,2024-02-27T11:18:00.776Z,english_514.wav,0,pill,852,60,5,5,français,m,2,0.2,14.14440898,0.37052689
640095c783a33710a484adee,3,0,2024-02-27T11:18:00.776Z,english_514.wav,0,pill,852,60,5,5,français,m,3,0.3,-30.10662908,1.42053426
640095c783a33710a484adee,3,0,2024-02-27T11:18:00.776Z,english_514.wav,0,pill,852,60,5,5,français,m,4,0.32341667,90.48337022,1.94621598
640095c783a33710a484adee,4,0,2024-02-27T11:18:00.776Z,english_669.wav,0,pill,1730,60,5,5,français,m,0,0.0,-58.38123624,0.53455866
640095c783a33710a484adee,4,0,2024-02-27T11:18:00.776Z,english_669.wav,0,pill,1730,60,5,5,français,m,1,0.1,-80.20155876,0.64376179
640095c783a33710a484adee,4,0,2024-02-27T11:18:00.776Z,english_669.wav,0,pill,1730,60,5,5,français,m,2,0.2,-25.59737246,0.76694756
640095c783a33710a484adee,4,0,2024-02-27T11:18:00.776Z,english_669.wav,0,pill,1730,60,5,5,français,m,3,0.3,-30.25633946,1.36842807
640095c783a33710a484adee,4,0,2024-02-27T11:18:00.776Z,english_669.wav,0,pill,1730,60,5,5,français,m,4,0.32341667,-70.78768349,0.06434218
640095c783a33710a484adee,5,0,2024-02-27T11:18:00.776Z,english_608.wav,0,peel,624,60,5,5,français,m,0,0.0,78.8022196,1.54390555
640095c783a33710a484adee,5,0,2024-02-27T11:18:00.776Z,english_608.wav,0,peel,624,60,5,5,français,m,1,0.1,59.03316834,1.36513164
640095c783a33710a484adee,5,0,2024-02-27T11:18:00.776Z,english_608.wav,0,peel,624,60,5,5,français,m,2,0.2,-13.94961152,0.78716897
640095c783a33710a484adee,5,0,2024-02-27T11:18:00.776Z,english_608.wav,0,peel,624,60,5,5,français,m,3,0.3,55.83681575,1.29889886
640095c783a33710a484adee,5,0,2024-02-27T11:18:00.776Z,english_608.wav,0,peel,624,60,5,5,français,m,4,0.32341667,-13.77656228,0.44376749
640095c783a33710a484adee,6,0,2024-02-27T11:18:00.776Z,english_971.wav,0,pill,3682,60,5,5,français,m,0,0.0,27.0641734,0.01013217
640095c783a33710a484adee,6,0,2024-02-27T11:18:00.776Z,english_971.wav,0,pill,3682,60,5,5,français,m,1,0.1,-43.13434162,0.95424486
640095c783a33710a484adee,6,0,2024-02-27T11:18:00.776Z,english_971.wav,0,pill,3682,60,5,5,français,m,2,0.2,83.45364082,1.16332163
640095c783a33710a484adee,6,0,2024-02-27T11:18:00.776Z,english_971.wav,0,pill,3682,60,5,5,français,m,3,0.3,46.6736971,0.56494555
640095c783a33710a484adee,6,0,2024-02-27T11:18:00.776Z,english_971.wav,0,pill,3682,60,5,5,français,m,4,0.32341667,-28.9166607,0.73596031
640095c783a33710a484adee,7,0,2024-02-27T11:18:00.776Z,english_866.wav,0,pill,712,60,5,5,français,m,0,0.0,-75.90204766,0.10539101
640095c783a33710a484adee,7,0,2024-02-27T11:18:00.776Z,english_866.wav,0,pill,712,60,5,5,français,m,1,0.1,-89.66881049,1.63294926
640095c783a33710a484adee,7,0,2024-02-27T11:18:00.776Z,english_866.wav,0,pill,712,60,5,5,français,m,2,0.2,-86.78535298,0.21421971
640095c783a33710a484adee,7,0,2024-02-27T11:18:00.776Z,english_866.wav,0,pill,712,60,5,5,français,m,3,0.3,50.96369643,1.47001367
640095c783a33710a484adee,7,0,2024-02-27T11:18:00.776Z,english_866.wav,0,pill,712,60,5,5,français,m,4,0.32341667,36.94157773,1.56453662
640095c783a33710a484adee,8,0,2024-02-27T11:18:00.776Z,english_94.wav,0,peel,783,60,5,5,français,m,0,0.0,-78.50776969,1.58967719
640095c783a33710a484adee,8,0,2024-02-27T11:18:00.776Z,english_94.wav,0,peel,783,60,5,5,français,m,1,0.1,21.81048112,0.88841047
640095c783a33710a484adee,8,0,2024-02-27T11:18:00.776Z,english_94.wav,0,peel,783,60,5,5,français,m,2,0.2,76.78230264,1.12549424
640095c783a33710a484adee,8,0,2024-02-27T11:18:00.776Z,english_94.wav,0,peel,783,60,5,5,français,m,3,0.3,-35.62145712,1.80621507
640095c783a33710a484adee,8,0,2024-02-27T11:18:00.776Z,english_94.wav,0,peel,783,60,5,5,français,m,4,0.32341667,-71.39427505,1.00879957
640095c783a33710a484adee,9,0,2024-02-27T11:18:00.776Z,english_256.wav,0,peel,905,60,5,5,français,m,0,0.0,22.60769813,1.84037168
640095c783a33710a484adee,9,0,2024-02-27T11:18:00.776Z,english_256.wav,0,peel,905,60,5,5,français,m,1,0.1,-95.01444593,0.47687766
640095c783a33710a484adee,9,0,2024-02-27T11:18:00.776Z,english_256.wav,0,peel,905,60,5,5,français,m,2,0.2,-19.91310746,0.85339151
640095c783a33710a484adee,9,0,2024-02-27T11:18:00.776Z,english_256.wav,0,peel,905,60,5,5,français,m,3,0.3,-6.39209363,0.75097161
640095c783a33710a484adee,9,0,2024-02-27T11:18:00.776Z,english_256.wav,0,peel,905,60,5,5,français,m,4,0.32341667,24.02209282,1.98695073
640095c783a33710a484adee,10,0,2024-02-27T11:18:00.776Z,english_70.wav,0,peel,1573,60,5,5,français,m,0,0.0,-53.09237622,1.21678364
640095c783a33710a484adee,10,0,2024-02-27T11:18:00.776Z,english_70.wav,0,peel,1573,60,5,5,français,m,1,0.1,85.97526897,0.94111324
640095c783a33710a484adee,10,0,2024-02-27T11:18:00.776Z,english_70.wav,0,peel,1573,60,5,5,français,m,2,0.2,25.5645184,1.03926055
640095c783a33710a484adee,10,0,2024-02-27T11:18:00.776Z,english_70.wav,0,peel,1573,60,5,5,français,m,3,0.3,1.25172137,0.29519406
640095c783a33710a484adee,10,0,2024-02-27T11:18:00.776Z,english_70.wav,0,peel,1573,60,5,5,français,m,4,0.32341667,93.59431896,0.80175783
640095c783a33710a484adee,11,0,2024-02-27T11:18:00.776Z,english_894.wav,0,pill,647,60,5,5,français,m,0,0.0,55.36181915,0.37154348
640095c783a33710a484adee,11,0,2024-02-27T11:18:00.776Z,english_894.wav,0,pill,647,60,5,5,français,m,1,0.1,1.74798824,0.78809476
640095c783a33710a484adee,11,0,2024-02-27T11:18:00.776Z,english_894.wav,0,pill,647,60,5,5,français,m,2,0.2,53.5320483,0.08099688
640095c783a33710a484adee,11,0,2024-02-27T11:18:00.776Z,english_894.wav,0,pill,647,60,5,5,français,m,3,0.3,-10.60196251,1.90254096
640095c783a33710a484adee,11,0,2024-02-27T11:18:00.776Z,english_894.wav,0,pill,647,60,5,5,français,m,4,0.32341667,46.95013059,0.68783971
640095c783a33710a484adee,12,0,2024-02-27T11:18:00.776Z,english_799.wav,0,peel,1206,60,5,5,français,m,0,0.0,-48.4958847,1.9233431
640095c783a33710a484adee,12,0,2024-02-27T11:18:00.776Z,english_799.wav,0,peel,1206,60,5,5,français,m,1,0.1,-9.52866418,1.11542891
640095c783a33710a484adee,12,0,2024-02-27T11:18:00.776Z,english_799.wav,0,peel,1206,60,5,5,français,m,2,0.2,1.94176449,0.95865462
640095c783a33710a484adee,12,0,2024-02-27T11:18:00.776Z,english_799.wav,0,peel,1206,60,5,5,français,m,3,0.3,5.71676827,0.6616034
640095c783a33710a484adee,12,0,2024-02-27T11:18:00.776Z,english_799.wav,0,peel,1206,60,5,5,français,m,4,0.32341667,30.27282792,1.91183458
640095c783a33710a484adee,13,0,2024-02-27T11:18:00.776Z,english_536.wav,0,peel,987,60,5,5,français,m,0,0.0,19.16157828,1.0914138
640095c783a33710a484adee,13,0,2024-02-27T11:18:00.776Z,english_536.wav,0,peel,987,60,5,5,français,m,1,0.1,-70.44875328,1.55996729
640095c783a33710a484adee,13,0,2024-02-27T11:18:00.776Z,english_536.wav,0,peel,987,60,5,5,français,m,2,0.2,9.3844651,1.22014226
640095c783a33710a484adee,13,0,2024-02-27T11:18:00.776Z,english_536.wav,0,peel,987,60,5,5,français,m,3,0.3,54.79833109,0.24268308
640095c783a33710a484adee,13,0,2024-02-27T11:18:00.776Z,english_536.wav,0,peel,987,60,5,5,français,m,4,0.32341667,-43.58683919,1.12643869
640095c783a33710a484adee,14,0,2024-02-27T11:18:00.776Z,english_466.wav,0,peel,691,60,5,5,français,m,0,0.0,59.64739432,1.91119383
640095c783a33710a484adee,14,0,2024-02-27T11:18:00.776Z,english_466.wav,0,peel,691,60,5,5,français,m,1,0.1,-20.63646321,1.29572765
640095c783a33710a484adee,14,0,2024-02-27T11:18:00.776Z,english_466.wav,0,peel,691,60,5,5,français,m,2,0.2,62.86141463,0.99944191
640095c783a33710a484adee,14,0,2024-02-27T11:18:00.776Z,english_466.wav,0,peel,691,60,5,5,français,m,3,0.3,-65.74461877,1.01221774
640095c783a33710a484adee,14,0,2024-02-27T11:18:00.776Z,english_466.wav,0,peel,691,60,5,5,français,m,4,0.32341667,44.70090984,0.89697717
640095c783a33710a484adee,15,0,2024-02-27T11:18:00.776Z,english_813.wav,0,peel,982,60,5,5,français,m,0,0.0,55.66932548,1.32885027
640095c783a33710a484adee,15,0,2024-02-27T11:18:00.776Z,english_813.wav,0,peel,982,60,5,5,français,m,1,0.1,81.68960615,1.76450173
640095c783a33710a484adee,15,0,2024-02-27T11:18:00.776Z,english_813.wav,0,peel,982,60,5,5,français,m,2,0.2,55.75765178,0.71046445
640095c783a33710a484adee,15,0,2024-02-27T11:18:00.776Z,english_813.wav,0,peel,982,60,5,5,français,m,3,0.3,-1.25572602,1.00431818
640095c783a33710a484adee,15,0,2024-02-27T11:18:00.776Z,english_813.wav,0,peel,982,60,5,5,français,m,4,0.32341667,95.15429199,0.60962601
640095c783a33710a484adee,16,0,2024-02-27T11:18:00.776Z,english_520.wav,0,peel,692,60,5,5,français,m,0,0.0,86.3711843,1.94117834
640095c783a33710a484adee,16,0,2024-02-27T11:18:00.776Z,english_520.wav,0,peel,692,60,5,5,français,m,1,0.1,30.73905166,1.71866566
640095c783a33710a484adee,16,0,2024-02-27T11:18:00.776Z,english_520.wav,0,peel,692,60,5,5,français,m,2,0.2,6.06230503,1.15295637
640095c783a33710a484adee,16,0,2024-02-27T11:18:00.776Z,english_520.wav,0,peel,692,60,5,5,français,m,3,0.3,-72.93527416,0.80072648
640095c783a33710a484adee,16,0,2024-02-27T11:18:00.776Z,english_520.wav,0,peel,692,60,5,5,français,m,4,0.32341667,40.17700679,1.71054199
640095c783a33710a484adee,17,0,2024-02-27T11:18:00.776Z,english_580.wav,0,peel,1571,60,5,5,français,m,0,0.0,92.13406767,1.93694744
640095c783a33710a484adee,17,0,2024-02-27T11:18:00.776Z,english_580.wav,0,peel,1571,60,5,5,français,m,1,0.1,-85.58685866,0.28773753
640095c783a33710a484adee,17,0,2024-02-27T11:18:00.776Z,english_580.wav,0,peel,1571,60,5,5,français,m,2,0.2,57.10945482,0.86433335
640095c783a33710a484adee,17,0,2024-02-27T11:18:00.776Z,english_580.wav,0,peel,1571,60,5,5,français,m,3,0.3,32.92004132,0.96651265
640095c783a33710a484adee,17,0,2024-02-27T11:18:00.776Z,english_580.wav,0,peel,1571,60,5,5,français,m,4,0.32341667,52.08708517,1.25003658
640095c783a33710a484adee,18,0,2024-02-27T11:18:00.776Z,english_485.wav,0,peel,2252,60,5,5,français,m,0,0.0,-7.08941798,1.8206563
640095c783a33710a484adee,18,0,2024-02-27T11:18:00.776Z,english_485.wav,0,peel,2252,60,5,5,français,m,1,0.1,-70.64579204,0.10660577
640095c783a33710a484adee,18,0,2024-02-27T11:18:00.776Z,english_485.wav,0,peel,2252,60,5,5,français,m,2,0.2,23.79115045,1.92760945
640095c783a33710a484adee,18,0,2024-02-27T11:18:00.776Z,english_485.wav,0,peel,2252,60,5,5,français,m,3,0.3,0.80487994,0.77499174
640095c783a33710a484adee,18,0,2024-02-27T11:18:00.776Z,english_485.wav,0,peel,2252,60,5,5,français,m,4,0.32341667,4.72097057,1.20070888
640095c783a33710a484adee,19,0,2024-02-27T11:18:00.776Z,english_642.wav,0,pill,530,60,5,5,français,m,0,0.0,31.40946548,0.21393667
640095c783a33710a484adee,19,0,2024-02-27T11:18:00.776Z,english_642.wav,0,pill,530,60,5,5,français,m,1,0.1,4.73018903,1.31302396
640095c783a33710a484adee,19,0,2024-02-27T11:18:00.776Z,english_642.wav,0,pill,530,60,5,5,français,m,2,0.2,85.2390777,0.95537026
640095c783a33710a484adee,19,0,2024-02-27T11:18:00.776Z,english_642.wav,0,pill,530,60,5,5,français,m,3,0.3,-59.81643451,1.00167733
640095c783a33710a484adee,19,0,2024-02-27T11:18:00.776Z,english_642.wav,0,pill,530,60,5,5,français,m,4,0.32341667,-42.92691369,0.89750156
640095c783a33710a484adee,20,0,2024-02-27T11:18:00.776Z,english_341.wav,0,pill,786,60,5,5,français,m,0,0.0,-3.29192029,0.92007635
640095c783a33710a484adee,20,0,2024-02-27T11:18:00.776Z,english_341.wav,0,pill,786,60,5,5,français,m,1,0.1,-63.07334109,0.76766635
640095c783a33710a484adee,20,0,2024-02-27T11:18:00.776Z,english_341.wav,0,pill,786,60,5,5,français,m,2,0.2,-52.81319379,0.00478881
640095c783a33710a484adee,20,0,2024-02-27T11:18:00.776Z,english_341.wav,0,pill,786,60,5,5,français,m,3,0.3,47.65296252,0.69804387
640095c783a33710a484adee,20,0,2024-02-27T11:18:00.776Z,english_341.wav,0,pill,786,60,5,5,français,m,4,0.32341667,-2.67842738,0.15231077
640095c783a33710a484adee,21,0,2024-02-27T11:18:00.776Z,english_33.wav,0,peel,859,60,5,5,français,m,0,0.0,13.53683954,1.37746345
640095c783a33710a484adee,21,0,2024-02-27T11:18:00.776Z,english_33.wav,0,peel,859,60,5,5,français,m,1,0.1,-23.61599557,1.14776292
640095c783a33710a484adee,21,0,2024-02-27T11:18:00.776Z,english_33.wav,0,peel,859,60,5,5,français,m,2,0.2,60.58241295,1.15899553
640095c783a33710a484adee,21,0,2024-02-27T11:18:00.776Z,english_33.wav,0,peel,859,60,5,5,français,m,3,0.3,-2.03686091,0.64766031
640095c783a33710a484adee,21,0,2024-02-27T11:18:00.776Z,english_33.wav,0,peel,859,60,5,5,français,m,4,0.32341667,79.90239576,1.69768968
640095c783a33710a484adee,22,0,2024-02-27T11:18:00.776Z,english_120.wav,0,pill,2610,60,5,5,français,m,0,0.0,55.2306484,0.43658612
640095c783a33710a484adee,22,0,2024-02-27T11:18:00.776Z,english_120.wav,0,pill,2610,60,5,5,français,m,1,0.1,82.00530973,0.03999251
640095c783a33710a484adee,22,0,2024-02-27T11:18:00.776Z,english_120.wav,0,pill,2610,60,5,5,français,m,2,0.2,-5.84837635,0.80827096
640095c783a33710a484adee,22,0,2024-02-27T11:18:00.776Z,english_120.wav,0,pill,2610,60,5,5,français,m,3,0.3,66.20489525,1.78669421
640095c783a33710a484adee,22,0,2024-02-27T11:18:00.776Z,english_120.wav,0,pill,2610,60,5,5,français,m,4,0.32341667,-73.22302923,1.04341795
640095c783a33710a484adee,23,0,2024-02-27T11:18:00.776Z,english_796.wav,0,pill,676,60,5,5,français,m,0,0.0,57.52331511,0.93419081
640095c783a33710a484adee,23,0,2024-02-27T11:18:00.776Z,english_796.wav,0,pill,676,60,5,5,français,m,1,0.1,-53.71774571,0.77950231
640095c783a33710a484adee,23,0,2024-02-27T11:18:00.776Z,english_796.wav,0,pill,676,60,5,5,français,m,2,0.2,-36.09214461,0.54947466
640095c783a33710a484adee,23,0,2024-02-27T11:18:00.776Z,english_796.wav,0,pill,676,60,5,5,français,m,3,0.3,23.21783142,1.69054841
640095c783a33710a484adee,23,0,2024-02-27T11:18:00.776Z,english_796.wav,0,pill,676,60,5,5,français,m,4,0.32341667,-74.52171885,0.76047802
640095c783a33710a484adee,24,0,2024-02-27T11:18:00.776Z,english_638.wav,0,pill,688,60,5,5,français,m,0,0.0,6.92468799,1.1702122
640095c783a33710a484adee,24,0,2024-02-27T11:18:00.776Z,english_638.wav,0,pill,688,60,5,5,français,m,1,0.1,52.10042521,0.51269982
640095c783a33710a484adee,24,0,2024-02-27T11:18:00.776Z,english_638.wav,0,pill,688,60,5,5,français,m,2,0.2,-39.07293948,0.1912204
640095c783a33710a484adee,24,0,2024-02-27T11:18:00.776Z,english_638.wav,0,pill,688,60,5,5,français,m,3,0.3,38.46029754,0.91406415
640095c783a33710a484adee,24,0,2024-02-27T11:18:00.776Z,english_638.wav,0,pill,688,60,5,5,français,m,4,0.32341667,-16.6630855,1.67689755
640095c783a33710a484adee,25,0,2024-02-27T11:18:00.776Z,english_406.wav,0,pill,529,60,5,5,français,m,0,0.0,28.09923375,1.43312072
640095c783a33710a484adee,25,0,2024-02-27T11:18:00.776Z,english_406.wav,0,pill,529,60,5,5,français,m,1,0.1,-15.10813675,0.8890381
640095c783a33710a484adee,25,0,2024-02-27T11:18:00.776Z,english_406.wav,0,pill,529,60,5,5,français,m,2,0.2,-12.43931725,0.60560557
640095c783a33710a484adee,25,0,2024-02-27T11:18:00.776Z,english_406.wav,0,pill,529,60,5,5,français,m,3,0.3,-27.33468297,1.13565345
640095c783a33710a484adee,25,0,2024-02-27T11:18:00.776Z,english_406.wav,0,pill,529,60,5,5,français,m,4,0.32341667,-62.66931892,1.8467177
640095c783a33710a484adee,26,0,2024-02-27T11:18:00.776Z,english_407.wav,0,peel,2986,60,5,5,français,m,0,0.0,-13.68776922,0.77658743
640095c783a33710a484adee,26,0,2024-02-27T11:18:00.776Z,english_407.wav,0,peel,2986,60,5,5,français,m,1,0.1,-57.11899702,1.53398674
640095c783a33710a484adee,26,0,2024-02-27T11:18:00.776Z,english_407.wav,0,peel,2986,60,5,5,français,m,2,0.2,62.94325807,0.70379875
640095c783a33710a484adee,26,0,2024-02-27T11:18:00.776Z,english_407.wav,0,peel,2986,60,5,5,français,m,3,0.3,-27.77030003,0.72470084
640095c783a33710a484adee,26,0,2024-02-27T11:18:00.776Z,english_407.wav,0,peel,2986,60,5,5,français,m,4,0.32341667,-61.90605897,0.771678
640095c783a33710a484adee,27,0,2024-02-27T11:18:00.776Z,english_386.wav,0,pill,693,60,5,5,français,m,0,0.0,74.56899624,1.79299743
640095c783a33710a484adee,27,0,2024-02-27T11:18:00.776Z,english_386.wav,0,pill,693,60,5,5,français,m,1,0.1,25.94107183,0.16071221
640095c783a33710a484adee,27,0,2024-02-27T11:18:00.776Z,english_386.wav,0,pill,693,60,5,5,français,m,2,0.2,41.2839149,0.21721497
640095c783a33710a484adee,27,0,2024-02-27T11:18:00.776Z,english_386.wav,0,pill,693,60,5,5,français,m,3,0.3,14.47866495,1.22036918
640095c783a33710a484adee,27,0,2024-02-27T11:18:00.776Z,english_386.wav,0,pill,693,60,5,5,français,m,4,0.32341667,-14.73959674,1.81871952
640095c783a33710a484adee,28,0,2024-02-27T11:18:00.776Z,english_316.wav,0,pill,731,60,5,5,français,m,0,0.0,57.83477319,0.36818456
640095c783a33710a484adee,28,0,2024-02-27T11:18:00.776Z,english_316.wav,0,pill,731,60,5,5,français,m,1,0.1,-58.77664409,0.44097806
640095c783a33710a484adee,28,0,2024-02-27T11:18:00.776Z,english_316.wav,0,pill,731,60,5,5,français,m,2,0.2,-11.91657597,0.11283472
640095c783a33710a484adee,28,0,2024-02-27T11:18:00.776Z,english_316.wav,0,pill,731,60,5,5,français,m,3,0.3,34.77508847,1.48283273
640095c783a33710a484adee,28,0,2024-02-27T11:18:00.776Z,english_316.wav,0,pill,731,60,5,5,français,m,4,0.32341667,-82.62529931,0.30363046
640095c783a33710a484adee,29,0,2024-02-27T11:18:00.776Z,english_865.wav,0,pill,583,60,5,5,français,m,0,0.0,57.45647421,1.64387024
640095c783a33710a484adee,29,0,2024-02-27T11:18:00.776Z,english_865.wav,0,pill,583,60,5,5,français,m,1,0.1,-62.30549211,0.05749027
640095c783a33710a484adee,29,0,2024-02-27T11:18:00.776Z,english_865.wav,0,pill,583,60,5,5,français,m,2,0.2,-35.85649312,0.09554773
640095c783a33710a484adee,29,0,2024-02-27T11:18:00.776Z,english_865.wav,0,pill,583,60,5,5,français,m,3,0.3,55.00701181,1.62598434
640095c783a33710a484adee,29,0,2024-02-27T11:18:00.776Z,english_865.wav,0,pill,583,60,5,5,français,m,4,0.32341667,-39.97662747,0.71232625
640095c783a33710a484adee,30,0,2024-02-27T11:18:00.776Z,english_935.wav,0,peel,1080,60,5,5,français,m,0,0.0,64.39543101,0.53440609
640095c783a33710a484adee,30,0,2024-02-27T11:18:00.776Z,english_935.wav,0,peel,1080,60,5,5,français,m,1,0.1,86.95314533,0.5847186
640095c783a33710a484adee,30,0,2024-02-27T11:18:00.776Z,english_935.wav,0,peel,1080,60,5,5,français,m,2,0.2,-18.93400703,0.87093815
640095c783a33710a484adee,30,0,2024-02-27T11:18:00.776Z,english_935.wav,0,peel,1080,60,5,5,français,m,3,0.3,36.25821345,1.35336039
640095c783a33710a484adee,30,0,2024-02-27T11:18:00.776Z,english_935.wav,0,peel,1080,60,5,5,français,m,4,0.32341667,-52.75689815,1.46825192
640095c783a33710a484adee,31,0,2024-02-27T11:18:00.776Z,english_435.wav,0,peel,606,60,5,5,français,m,0,0.0,-61.49548479,0.36819492
640095c783a33710a484adee,31,0,2024-02-27T11:18:00.776Z,english_435.wav,0,peel,606,60,5,5,français,m,1,0.1,18.53940612,1.77990606
640095c783a33710a484adee,31,0,2024-02-27T11:18:00.776Z,english_435.wav,0,peel,606,60,5,5,français,m,2,0.2,-39.20879804,1.09377229
640095c783a33710a484adee,31,0,2024-02-27T11:18:00.776Z,english_435.wav,0,peel,606,60,5,5,français,m,3,0.3,-30.66509024,1.98213584
640095c783a33710a484adee,31,0,2024-02-27T11:18:00.776Z,english_435.wav,0,peel,606,60,5,5,français,m,4,0.32341667,7.07056367,0.5936591
640095c783a33710a484adee,32,0,2024-02-27T11:18:00.776Z,english_263.wav,0,pill,731,60,5,5,français,m,0,0.0,4.78285782,1.6410762
640095c783a33710a484adee,32,0,2024-02-27T11:18:00.776Z,english_263.wav,0,pill,731,60,5,5,français,m,1,0.1,13.60270601,0.7602565
640095c783a33710a484adee,32,0,2024-02-27T11:18:00.776Z,english_263.wav,0,pill,731,60,5,5,français,m,2,0.2,39.50896912,0.2694778
640095c783a33710a484adee,32,0,2024-02-27T11:18:00.776Z,english_263.wav,0,pill,731,60,5,5,français,m,3,0.3,22.44107494,1.51649535
640095c783a33710a484adee,32,0,2024-02-27T11:18:00.776Z,english_263.wav,0,pill,731,60,5,5,français,m,4,0.32341667,-36.00172497,0.60574629
640095c783a33710a484adee,33,0,2024-02-27T11:18:00.776Z,english_218.wav,0,pill,1382,60,5,5,français,m,0,0.0,87.3373499,1.94084006
640095c783a33710a484adee,33,0,2024-02-27T11:18:00.776Z,english_218.wav,0,pill,1382,60,5,5,français,m,1,0.1,-14.87903436,0.13305972
640095c783a33710a484adee,33,0,2024-02-27T11:18:00.776Z,english_218.wav,0,pill,1382,60,5,5,français,m,2,0.2,-31.97943339,1.11441312
640095c783a33710a484adee,33,0,2024-02-27T11:18:00.776Z,english_218.wav,0,pill,1382,60,5,5,français,m,3,0.3,-60.49311609,1.83933377
640095c783a33710a484adee,33,0,2024-02-27T11:18:00.776Z,english_218.wav,0,pill,1382,60,5,5,français,m,4,0.32341667,-63.68242647,1.41053301
640095c783a33710a484adee,34,0,2024-02-27T11:18:00.776Z,english_846.wav,0,pill,680,60,5,5,français,m,0,0.0,61.87306923,1.6800264
640095c783a33710a484adee,34,0,2024-02-27T11:18:00.776Z,english_846.wav,0,pill,680,60,5,5,français,m,1,0.1,-5.64177324,0.32387551
640095c783a33710a484adee,34,0,2024-02-27T11:18:00.776Z,english_846.wav,0,pill,680,60,5,5,français,m,2,0.2,86.75305487,0.09122421
640095c783a33710a484adee,34,0,2024-02-27T11:18:00.776Z,english_846.wav,0,pill,680,60,5,5,français,m,3,0.3,-27.71752308,0.55014386
640095c783a33710a484adee,34,0,2024-02-27T11:18:00.776Z,english_846.wav,0,pill,680,60,5,5,français,m,4,0.32341667,-26.78048177,0.82256102
640095c783a33710a484adee,35,0,2024-02-27T11:18:00.776Z,english_365.wav,0,peel,842,60,5,5,français,m,0,0.0,58.11205919,0.53708026
640095c783a33710a484adee,35,0,2024-02-27T11:18:00.776Z,english_365.wav,0,peel,842,60,5,5,français,m,1,0.1,-61.04014877,1.10456153
640095c783a33710a484adee,35,0,2024-02-27T11:18:00.776Z,english_365.wav,0,peel,842,60,5,5,français,m,2,0.2,12.43042802,1.31731937
640095c783a33710a484adee,35,0,2024-02-27T11:18:00.776Z,english_365.wav,0,peel,842,60,5,5,français,m,3,0.3,17.00746388,1.02387946
640095c783a33710a484adee,35,0,2024-02-27T11:18:00.776Z,english_365.wav,0,peel,842,60,5,5,français,m,4,0.32341667,-69.10644956,1.31633463
640095c783a33710a484adee,36,0,2024-02-27T11:18:00.776Z,english_246.wav,0,peel,2513,60,5,5,français,m,0,0.0,-62.23082525,0.02615808
640095c783a33710a484adee,36,0,2024-02-27T11:18:00.776Z,english_246.wav,0,peel,2513,60,5,5,français,m,1,0.1,59.67623932,1.52596932
640095c783a33710a484adee,36,0,2024-02-27T11:18:00.776Z,english_246.wav,0,peel,2513,60,5,5,français,m,2,0.2,-63.30715513,1.87080553
640095c783a33710a484adee,36,0,2024-02-27T11:18:00.776Z,english_246.wav,0,peel,2513,60,5,5,français,m,3,0.3,15.41118057,0.81226596
640095c783a33710a484adee,36,0,2024-02-27T11:18:00.776Z,english_246.wav,0,peel,2513,60,5,5,français,m,4,0.32341667,90.60814582,0.64975072
640095c783a33710a484adee,37,0,2024-02-27T11:18:00.776Z,english_464.wav,0,peel,896,60,5,5,français,m,0,0.0,53.08614354,0.76512863
640095c783a33710a484adee,37,0,2024-02-27T11:18:00.776Z,english_464.wav,0,peel,896,60,5,5,français,m,1,0.1,30.21863436,1.75958979
640095c783a33710a484adee,37,0,2024-02-27T11:18:00.776Z,english_464.wav,0,peel,896,60,5,5,français,m,2,0.2,-72.79337117,0.91412587
640095c783a33710a484adee,37,0,2024-02-27T11:18:00.776Z,english_464.wav,0,peel,896,60,5,5,français,m,3,0.3,91.0452741,1.02089091
640095c783a33710a484adee,37,0,2024-02-27T11:18:00.776Z,english_464.wav,0,peel,896,60,5,5,français,m,4,0.32341667,-31.40181873,1.37846458
640095c783a33710a484adee,38,0,2024-02-27T11:18:00.776Z,english_73.wav,0,peel,1111,60,5,5,français,m,0,0.0,-73.49165063,1.41947215
640095c783a33710a484adee,38,0,2024-02-27T11:18:00.776Z,english_73.wav,0,peel,1111,60,5,5,français,m,1,0.1,65.54847429,1.68852165
640095c783a33710a484adee,38,0,2024-02-27T11:18:00.776Z,english_73.wav,0,peel,1111,60,5,5,français,m,2,0.2,-55.11967081,0.59259525
640095c783a33710a484adee,38,0,2024-02-27T11:18:00.776Z,english_73.wav,0,peel,1111,60,5,5,français,m,3,0.3,68.77466141,0.85140805
640095c783a33710a484adee,38,0,2024-02-27T11:18:00.776Z,english_73.wav,0,peel,1111,60,5,5,français,m,4,0.32341667,-37.79888894,1.17745107
640095c783a33710a484adee,39,0,2024-02-27T11:18:00.776Z,english_155.wav,0,peel,802,60,5,5,français,m,0,0.0,53.87474094,1.93436975
640095c783a33710a484adee,39,0,2024-02-27T11:18:00.776Z,english_155.wav,0,peel,802,60,5,5,français,m,1,0.1,74.81745726,0.64472983
640095c783a33710a484adee,39,0,2024-02-27T11:18:00.776Z,english_155.wav,0,peel,802,60,5,5,français,m,2,0.2,8.25192738,1.6098708
640095c783a33710a484adee,39,0,2024-02-27T11:18:00.776Z,english_155.wav,0,peel,802,60,5,5,français,m,3,0.3,-52.88121257,1.15705679
640095c783a33710a484adee,39,0,2024-02-27T11:18:00.776Z,english_155.wav,0,peel,802,60,5,5,français,m,4,0.32341667,48.31209788,0.66500292
640095c783a33710a484adee,40,0,2024-02-27T11:18:00.776Z,english_307.wav,0,peel,996,60,5,5,français,m,0,0.0,-38.93106299,1.91951228
640095c783a33710a484adee,40,0,2024-02-27T11:18:00.776Z,english_307.wav,0,peel,996,60,5,5,français,m,1,0.1,-30.40144858,0.50419792
640095c783a33710a484adee,40,0,2024-02-27T11:18:00.776Z,english_307.wav,0,peel,996,60,5,5,français,m,2,0.2,2.19081651,0.76602689
640095c783a33710a484adee,40,0,2024-02-27T11:18:00.776Z,english_307.wav,0,peel,996,60,5,5,français,m,3,0.3,30.82741361,0.59904457
640095c783a33710a484adee,40,0,2024-02-27T11:18:00.776Z,english_307.wav,0,peel,996,60,5,5,français,m,4,0.32341667,46.9007513,1.94941235
640095c783a33710a484adee,41,0,2024-02-27T11:18:00.776Z,english_68.wav,0,peel,930,60,5,5,français,m,0,0.0,-23.38152803,1.83565324
640095c783a33710a484adee,41,0,2024-02-27T11:18:00.776Z,english_68.wav,0,peel,930,60,5,5,français,m,1,0.1,-36.0918901,0.35162477
640095c783a33710a484adee,41,0,2024-02-27T11:18:00.776Z,english_68.wav,0,peel,930,60,5,5,français,m,2,0.2,65.46592862,1.10705723
640095c783a33710a484adee,41,0,2024-02-27T11:18:00.776Z,english_68.wav,0,peel,930,60,5,5,français,m,3,0.3,48.57602628,1.09550925
640095c783a33710a484adee,41,0,2024-02-27T11:18:00.776Z,english_68.wav,0,peel,930,60,5,5,français,m,4,0.32341667,-93.64245591,0.05753383
640095c783a33710a484adee,42,0,2024-02-27T11:18:00.776Z,english_136.wav,0,peel,667,60,5,5,français,m,0,0.0,12.04186247,0.70846626
640095c783a33710a484adee,42,0,2024-02-27T11:18:00.776Z,english_136.wav,0,peel,667,60,5,5,français,m,1,0.1,-56.97950323,1.3229906
640095c783a33710a484adee,42,0,2024-02-27T11:18:00.776Z,english_136.wav,0,peel,667,60,5,5,français,m,2,0.2,32.29793995,0.25119571
640095c783a33710a484adee,42,0,2024-02-27T11:18:00.776Z,english_136.wav,0,peel,667,60,5,5,français,m,3,0.3,40.05814767,1.28510755
640095c783a33710a484adee,42,0,2024-02-27T11:18:00.776Z,english_136.wav,0,peel,667,60,5,5,français,m,4,0.32341667,61.40693937,1.20697433
640095c783a33710a484adee,43,0,2024-02-27T11:18:00.776Z,english_6.wav,0,peel,722,60,5,5,français,m,0,0.0,-8.2116192,1.24832701
640095c783a33710a484adee,43,0,2024-02-27T11:18:00.776Z,english_6.wav,0,peel,722,60,5,5,français,m,1,0.1,-28.50933877,0.74984456
640095c783a33710a484adee,43,0,2024-02-27T11:18:00.776Z,english_6.wav,0,peel,722,60,5,5,français,m,2,0.2,-90.20174912,1.37568362
640095c783a33710a484adee,43,0,2024-02-27T11:18:00.776Z,english_6.wav,0,peel,722,60,5,5,français,m,3,0.3,-7.18062469,0.47637706
640095c783a33710a484adee,43,0,2024-02-27T11:18:00.776Z,english_6.wav,0,peel,722,60,5,5,français,m,4,0.32341667,-36.83558467,0.68255954
640095c783a33710a484adee,44,0,2024-02-27T11:18:00.776Z,english_64.wav,0,pill,1850,60,5,5,français,m,0,0.0,-77.75081389,0.01503168
640095c783a33710a484adee,44,0,2024-02-27T11:18:00.776Z,english_64.wav,0,pill,1850,60,5,5,français,m,1,0.1,47.79712302,0.51971923
640095c783a33710a484adee,44,0,2024-02-27T11:18:00.776Z,english_64.wav,0,pill,1850,60,5,5,français,m,2,0.2,-98.04646937,1.01128345
640095c783a33710a484adee,44,0,2024-02-27T11:18:00.776Z,english_64.wav,0,pill,1850,60,5,5,français,m,3,0.3,-20.17707595,0.69563875
640095c783a33710a484adee,44,0,2024-02-27T11:18:00.776Z,english_64.wav,0,pill,1850,60,5,5,français,m,4,0.32341667,53.05828969,1.51814807
640095c783a33710a484adee,45,0,2024-02-27T11:18:00.776Z,english_32.wav,0,peel,2182,60,5,5,français,m,0,0.0,89.50349963,1.73304916
640095c783a33710a484adee,45,0,2024-02-27T11:18:00.776Z,english_32.wav,0,peel,2182,60,5,5,français,m,1,0.1,51.51128255,0.02192789
640095c783a33710a484adee,45,0,2024-02-27T11:18:00.776Z,english_32.wav,0,peel,2182,60,5,5,français,m,2,0.2,-58.32910347,1.71493142
640095c783a33710a484adee,45,0,2024-02-27T11:18:00.776Z,english_32.wav,0,peel,2182,60,5,5,français,m,3,0.3,15.96172744,1.28451373
640095c783a33710a484adee,45,0,2024-02-27T11:18:00.776Z,english_32.wav,0,peel,2182,60,5,5,français,m,4,0.32341667,84.40449403,1.22971166
640095c783a33710a484adee,46,0,2024-02-27T11:18:00.776Z,english_188.wav,0,peel,627,60,5,5,français,m,0,0.0,-13.13088252,0.29227292
640095c783a33710a484adee,46,0,2024-02-27T11:18:00.776Z,english_188.wav,0,peel,627,60,5,5,français,m,1,0.1,51.13663316,1.25360943
640095c783a33710a484adee,46,0,2024-02-27T11:18:00.776Z,english_188.wav,0,peel,627,60,5,5,français,m,2,0.2,-80.18048506,1.7916357
640095c783a33710a484adee,46,0,2024-02-27T11:18:00.776Z,english_188.wav,0,peel,627,60,5,5,français,m,3,0.3,-47.89773773,0.58346705
640095c783a33710a484adee,46,0,2024-02-27T11:18:00.776Z,english_188.wav,0,peel,627,60,5,5,français,m,4,0.32341667,-7.0568118,1.77612328
640095c783a33710a484adee,47,0,2024-02-27T11:18:00.776Z,english_534.wav,0,pill,664,60,5,5,français,m,0,0.0,-42.4271338,1.1267565
640095c783a33710a484adee,47,0,2024-02-27T11:18:00.776Z,english_534.wav,0,pill,664,60,5,5,français,m,1,0.1,-80.6424644,0.6842577
640095c783a33710a484adee,47,0,2024-02-27T11:18:00.776Z,english_534.wav,0,pill,664,60,5,5,français,m,2,0.2,59.29592388,0.01459656
640095c783a33710a484adee,47,0,2024-02-27T11:18:00.776Z,english_534.wav,0,pill,664,60,5,5,français,m,3,0.3,75.02007223,1.03701198
640095c783a33710a484adee,47,0,2024-02-27T11:18:00.776Z,english_534.wav,0,pill,664,60,5,5,français,m,4,0.32341667,-57.55026449,1.25840342
640095c783a33710a484adee,48,0,2024-02-27T11:18:00.776Z,english_74.wav,0,pill,4620,60,5,5,français,m,0,0.0,86.29588785,1.196208
640095c783a33710a484adee,48,0,2024-02-27T11:18:00.776Z,english_74.wav,0,pill,4620,60,5,5,français,m,1,0.1,-14.52381687,1.63208143
640095c783a33710a484adee,48,0,2024-02-27T11:18:00.776Z,english_74.wav,0,pill,4620,60,5,5,français,m,2,0.2,77.94321906,0.46125368
640095c783a33710a484adee,48,0,2024-02-27T11:18:00.776Z,english_74.wav,0,pill,4620,60,5,5,français,m,3,0.3,-32.33104188,1.38278461
640095c783a33710a484adee,48,0,2024-02-27T11:18:00.776Z,english_74.wav,0,pill,4620,60,5,5,français,m,4,0.32341667,9.46602754,0.83147108
640095c783a33710a484adee,49,0,2024-02-27T11:18:00.776Z,english_144.wav,0,pill,554,60,5,5,français,m,0,0.0,-68.95587174,0.23806678
640095c783a33710a484adee,49,0,2024-02-27T11:18:00.776Z,english_144.wav,0,pill,554,60,5,5,français,m,1,0.1,-74.16141139,0.77020267
640095c783a33710a484adee,49,0,2024-02-27T11:18:00.776Z,english_144.wav,0,pill,554,60,5,5,français,m,2,0.2,-19.31034794,0.33858197
640095c783a33710a484adee,49,0,2024-02-27T11:18:00.776Z,english_144.wav,0,pill,554,60,5,5,français,m,3,0.3,-77.96768175,1.42512122
640095c783a33710a484adee,49,0,2024-02-27T11:18:00.776Z,english_144.wav,0,pill,554,60,5,5,français,m,4,0.32341667,3.46911061,0.57629619
640095c783a33710a484adee,50,1,2024-02-27T11:18:00.776Z,english_206.wav,0,peel,689,60,5,5,français,m,0,0.0,29.86029141,0.9413203
640095c783a33710a484adee,50,1,2024-02-27T11:18:00.776Z,english_206.wav,0,peel,689,60,5,5,français,m,1,0.1,-65.49550847,1.58501733
640095c783a33710a484adee,50,1,2024-02-27T11:18:00.776Z,english_206.wav,0,peel,689,60,5,5,français,m,2,0.2,-8.37849199,1.84833856
640095c783a33710a484adee,50,1,2024-02-27T11:18:00.776Z,english_206.wav,0,peel,689,60,5,5,français,m,3,0.3,16.32170521,1.12864021
640095c783a33710a484adee,50,1,2024-02-27T11:18:00.776Z,english_206.wav,0,peel,689,60,5,5,français,m,4,0.32341667,-96.55544023,0.85017735
640095c783a33710a484adee,51,1,2024-02-27T11:18:00.776Z,english_311.wav,0,pill,725,60,5,5,français,m,0,0.0,-35.59355899,0.16094856
640095c783a33710a484adee,51,1,2024-02-27T11:18:00.776Z,english_311.wav,0,pill,725,60,5,5,français,m,1,0.1,-50.39310557,1.33895436
640095c783a33710a484adee,51,1,2024-02-27T11:18:00.776Z,english_311.wav,0,pill,725,60,5,5,français,m,2,0.2,-53.37222601,0.01028283
640095c783a33710a484adee,51,1,2024-02-27T11:18:00.776Z,english_311.wav,0,pill,725,60,5,5,français,m,3,0.3,72.25802658,0.48497386
640095c783a33710a484adee,51,1,2024-02-27T11:18:00.776Z,english_311.wav,0,pill,725,60,5,5,français,m,4,0.32341667,48.72421008,0.48591183
640095c783a33710a484adee,52,1,2024-02-27T11:18:00.776Z,english_700.wav,0,pill,592,60,5,5,français,m,0,0.0,-76.89056698,0.13963816
640095c783a33710a484adee,52,1,2024-02-27T11:18:00.776Z,english_700.wav,0,pill,592,60,5,5,français,m,1,0.1,-93.17552037,0.76842729
640095c783a33710a484adee,52,1,2024-02-27T11:18:00.776Z,english_700.wav,0,pill,592,60,5,5,français,m,2,0.2,51.24439156,0.49149542
640095c783a33710a484adee,52,1,2024-02-27T11:18:00.776Z,english_700.wav,0,pill,592,60,5,5,français,m,3,0.3,89.4516499,1.08714417
640095c783a33710a484adee,52,1,2024-02-27T11:18:00.776Z,english_700.wav,0,pill,592,60,5,5,français,m,4,0.32341667,-68.48659069,1.35188588
640095c783a33710a484adee,53,1,2024-02-27T11:18:00.776Z,english_31.wav,0,peel,588,60,5,5,français,m,0,0.0,21.28810337,1.2057056
640095c783a33710a484adee,53,1,2024-02-27T11:18:00.776Z,english_31.wav,0,peel,588,60,5,5,français,m,1,0.1,68.821868,0.99381392
640095c783a33710a484adee,53,1,2024-02-27T11:18:00.776Z,english_31.wav,0,peel,588,60,5,5,français,m,2,0.2,-73.02143346,0.87600828
640095c783a33710a484adee,53,1,2024-02-27T11:18:00.776Z,english_31.wav,0,peel,588,60,5,5,français,m,3,0.3,68.60173581,1.15844697
640095c783a33710a484adee,53,1,2024-02-27T11:18:00.776Z,english_31.wav,0,peel,588,60,5,5,français,m,4,0.32341667,51.47999234,1.3722803
640095c783a33710a484adee,54,1,2024-02-27T11:18:00.776Z,english_769.wav,0,pill,616,60,5,5,français,m,0,0.0,-12.68288087,1.59358978
640095c783a33710a484adee,54,1,2024-02-27T11:18:00.776Z,english_769.wav,0,pill,616,60,5,5,français,m,1,0.1,13.58895245,0.16681031
640095c783a33710a484adee,54,1,2024-02-27T11:18:00.776Z,english_769.wav,0,pill,616,60,5,5,français,m,2,0.2,-5.57429841,0.74292099
640095c783a33710a484adee,54,1,2024-02-27T11:18:00.776Z,english_769.wav,0,pill,616,60,5,5,français,m,3,0.3,-26.44516544,0.17250104
640095c783a33710a484adee,54,1,2024-02-27T11:18:00.776Z,english_769.wav,0,pill,616,60,5,5,français,m,4,0.32341667,85.93285426,0.16730253
640095c783a33710a484adee,55,1,2024-02-27T11:18:00.776Z,english_790.wav,0,peel,562,60,5,5,français,m,0,0.0,51.18493756,0.66657869
640095c783a33710a484adee,55,1,2024-02-27T11:18:00.776Z,english_790.wav,0,peel,562,60,5,5,français,m,1,0.1,-64.70105349,0.91857876
640095c783a33710a484adee,55,1,2024-02-27T11:18:00.776Z,english_790.wav,0,peel,562,60,5,5,français,m,2,0.2,-90.57968214,1.26779222
640095c783a33710a484adee,55,1,2024-02-27T11:18:00.776Z,english_790.wav,0,peel,562,60,5,5,français,m,3,0.3,-94.64625917,1.54144859
640095c783a33710a484adee,55,1,2024-02-27T11:18:00.776Z,english_790.wav,0,peel,562,60,5,5,français,m,4,0.32341667,-38.85953331,1.32367104
640095c783a33710a484adee,56,1,2024-02-27T11:18:00.776Z,english_603.wav,0,pill,628,60,5,5,français,m,0,0.0,-14.17444723,1.28295305
640095c783a33710a484adee,56,1,2024-02-27T11:18:00.776Z,english_603.wav,0,pill,628,60,5,5,français,m,1,0.1,-4.64921339,0.35920956
640095c783a33710a484adee,56,1,2024-02-27T11:18:00.776Z,english_603.wav,0,pill,628,60,5,5,français,m,2,0.2,-23.32469505,0.60281559
640095c783a33710a484adee,56,1,2024-02-27T11:18:00.776Z,english_603.wav,0,pill,628,60,5,5,français,m,3,0.3,-59.01260874,0.58107079
640095c783a33710a484adee,56,1,2024-02-27T11:18:00.776Z,english_603.wav,0,pill,628,60,5,5,français,m,4,0.32341667,88.53711532,1.19087365
640095c783a33710a484adee,57,1,2024-02-27T11:18:00.776Z,english_2.wav,0,peel,743,60,5,5,français,m,0,0.0,-99.15346184,1.13720105
640095c783a33710a484adee,57,1,2024-02-27T11:18:00.776Z,english_2.wav,0,peel,743,60,5,5,français,m,1,0.1,80.90141422,1.91777804
640095c783a33710a484adee,57,1,2024-02-27T11:18:00.776Z,english_2.wav,0,peel,743,60,5,5,français,m,2,0.2,25.8663891,0.47706995
640095c783a33710a484adee,57,1,2024-02-27T11:18:00.776Z,english_2.wav,0,peel,743,60,5,5,français,m,3,0.3,75.24606714,0.3458575
640095c783a33710a484adee,57,1,2024-02-27T11:18:00.776Z,english_2.wav,0,peel,743,60,5,5,français,m,4,0.32341667,-83.41413367,0.38623968
640095c783a33710a484adee,58,1,2024-02-27T11:18:00.776Z,english_658.wav,0,peel,4345,60,5,5,français,m,0,0.0,-80.21976745,0.49170119
640095c783a33710a484adee,58,1,2024-02-27T11:18:00.776Z,english_658.wav,0,peel,4345,60,5,5,français,m,1,0.1,11.23314836,0.6994793
640095c783a33710a484adee,58,1,2024-02-27T11:18:00.776Z,english_658.wav,0,peel,4345,60,5,5,français,m,2,0.2,8.94946791,1.18458539
640095c783a33710a484adee,58,1,2024-02-27T11:18:00.776Z,english_658.wav,0,peel,4345,60,5,5,français,m,3,0.3,17.22411688,0.7091276
640095c783a33710a484adee,58,1,2024-02-27T11:18:00.776Z,english_658.wav,0,peel,4345,60,5,5,français,m,4,0.32341667,10.67081381,1.7453453
640095c783a33710a484adee,59,1,2024-02-27T11:18:00.776Z,english_428.wav,0,peel,838,60,5,5,français,m,0,0.0,-98.34466569,1.83106884
640095c783a33710a484adee,59,1,2024-02-27T11:18:00.776Z,english_428.wav,0,peel,838,60,5,5,français,m,1,0.1,-10.51162175,1.34345266
640095c783a33710a484adee,59,1,2024-02-27T11:18:00.776Z,english_428.wav,0,peel,838,60,5,5,français,m,2,0.2,97.93427859,0.65853672
640095c783a33710a484adee,59,1,2024-02-27T11:18:00.776Z,english_428.wav,0,peel,838,60,5,5,français,m,3,0.3,35.61870537,1.28105878
640095c783a33710a484adee,59,1,2024-02-27T11:18:00.776Z,english_428.wav,0,peel,838,60,5,5,français,m,4,0.32341667,-12.49352836,0.15324236
640095c783a33710a484adee,60,1,2024-02-27T11:18:00.776Z,english_951.wav,0,peel,433,60,5,5,français,m,0,0.0,-0.1209724,0.19208806
640095c783a33710a484adee,60,1,2024-02-27T11:18:00.776Z,english_951.wav,0,peel,433,60,5,5,français,m,1,0.1,-14.6507611,1.44795721
640095c783a33710a484adee,60,1,2024-02-27T11:18:00.776Z,english_951.wav,0,peel,433,60,5,5,français,m,2,0.2,-2.36153686,0.88209985
640095c783a33710a484adee,60,1,2024-02-27T11:18:00.776Z,english_951.wav,0,peel,433,60,5,5,français,m,3,0.3,15.28547447,1.97099669
640095c783a33710a484adee,60,1,2024-02-27T11:18:00.776Z,english_951.wav,0,peel,433,60,5,5,français,m,4,0.32341667,-0.16445922,0.158195
640095c783a33710a484adee,61,1,2024-02-27T11:18:00.776Z,english_59.wav,0,pill,632,60,5,5,français,m,0,0.0,30.26604033,1.5973148
640095c783a33710a484adee,61,1,2024-02-27T11:18:00.776Z,english_59.wav,0,pill,632,60,5,5,français,m,1,0.1,25.69112756,0.24758472
640095c783a33710a484adee,61,1,2024-02-27T11:18:00.776Z,english_59.wav,0,pill,632,60,5,5,français,m,2,0.2,-24.85549033,0.1547886
640095c783a33710a484adee,61,1,2024-02-27T11:18:00.776Z,english_59.wav,0,pill,632,60,5,5,français,m,3,0.3,-31.2790444,0.30754036
640095c783a33710a484adee,61,1,2024-02-27T11:18:00.776Z,english_59.wav,0,pill,632,60,5,5,français,m,4,0.32341667,86.30355152,0.40312024
640095c783a33710a484adee,62,1,2024-02-27T11:18:00.776Z,english_40.wav,0,pill,639,60,5,5,français,m,0,0.0,20.98315678,0.33544846
640095c783a33710a484adee,62,1,2024-02-27T11:18:00.776Z,english_40.wav,0,pill,639,60,5,5,français,m,1,0.1,80.64974175,0.81764939
640095c783a33710a484adee,62,1,2024-02-27T11:18:00.776Z,english_40.wav,0,pill,639,60,5,5,français,m,2,0.2,5.38930518,0.17548883
640095c783a33710a484adee,62,1,2024-02-27T11:18:00.776Z,english_40.wav,0,pill,639,60,5,5,français,m,3,0.3,18.83593916,0.83674413
640095c783a33710a484adee,62,1,2024-02-27T11:18:00.776Z,english_40.wav,0,pill,639,60,5,5,français,m,4,0.32341667,-14.62145671,0.80890384
640095c783a33710a484adee,63,1,2024-02-27T11:18:00.776Z,english_20.wav,0,peel,587,60,5,5,français,m,0,0.0,-56.6830557,0.06363068
640095c783a33710a484adee,63,1,2024-02-27T11:18:00.776Z,english_20.wav,0,peel,587,60,5,5,français,m,1,0.1,50.66790367,1.80739158
640095c783a33710a484adee,63,1,2024-02-27T11:18:00.776Z,english_20.wav,0,peel,587,60,5,5,français,m,2,0.2,-18.96445326,1.41045117
640095c783a33710a484adee,63,1,2024-02-27T11:18:00.776Z,english_20.wav,0,peel,587,60,5,5,français,m,3,0.3,-25.44345058,0.2049667
640095c783a33710a484adee,63,1,2024-02-27T11:18:00.776Z,english_20.wav,0,peel,587,60,5,5,français,m,4,0.32341667,12.75548414,0.27136646
640095c783a33710a484adee,64,1,2024-02-27T11:18:00.776Z,english_655.wav,0,pill,565,60,5,5,français,m,0,0.0,84.9811401,1.09123398
640095c783a33710a484adee,64,1,2024-02-27T11:18:00.776Z,english_655.wav,0,pill,565,60,5,5,français,m,1,0.1,70.1996811,0.51840547
640095c783a33710a484adee,64,1,2024-02-27T11:18:00.776Z,english_655.wav,0,pill,565,60,5,5,français,m,2,0.2,-5.60681941,0.58569322
640095c783a33710a484adee,64,1,2024-02-27T11:18:00.776Z,english_655.wav,0,pill,565,60,5,5,français,m,3,0.3,-33.00324328,1.11132849
640095c783a33710a484adee,64,1,2024-02-27T11:18:00.776Z,english_655.wav,0,pill,565,60,5,5,français,m,4,0.32341667,24.65490624,0.28465301
640095c783a33710a484adee,65,1,2024-02-27T11:18:00.776Z,english_749.wav,0,peel,495,60,5,5,français,m,0,0.0,-84.66020389,1.10062914
640095c783a33710a484adee,65,1,2024-02-27T11:18:00.776Z,english_749.wav,0,peel,495,60,5,5,français,m,1,0.1,45.42505651,0.81865822
640095c783a33710a484adee,65,1,2024-02-27T11:18:00.776Z,english_749.wav,0,peel,495,60,5,5,français,m,2,0.2,27.47623271,1.25164699
640095c783a33710a484adee,65,1,2024-02-27T11:18:00.776Z,english_749.wav,0,peel,495,60,5,5,français,m,3,0.3,44.62305857,1.77685805
640095c783a33710a484adee,65,1,2024-02-27T11:18:00.776Z,english_749.wav,0,peel,495,60,5,5,français,m,4,0.32341667,-87.62087265,0.97343419
640095c783a33710a484adee,66,1,2024-02-27T11:18:00.776Z,english_728.wav,0,pill,1283,60,5,5,français,m,0,0.0,-6.4565561,1.7247049
640095c783a33710a484adee,66,1,2024-02-27T11:18:00.776Z,english_728.wav,0,pill,1283,60,5,5,français,m,1,0.1,2.02882612,1.95158608
640095c783a33710a484adee,66,1,2024-02-27T11:18:00.776Z,english_728.wav,0,pill,1283,60,5,5,français,m,2,0.2,-40.29513079,0.21085377
640095c783a33710a484adee,66,1,2024-02-27T11:18:00.776Z,english_728.wav,0,pill,1283,60,5,5,français,m,3,0.3,-29.37287389,0.85434083
640095c783a33710a484adee,66,1,2024-02-27T11:18:00.776Z,english_728.wav,0,pill,1283,60,5,5,français,m,4,0.32341667,-32.17490136,1.52436666
640095c783a33710a484adee,67,1,2024-02-27T11:18:00.776Z,english_518.wav,0,peel,829,60,5,5,français,m,0,0.0,52.37511869,0.23824141
640095c783a33710a484adee,67,1,2024-02-27T11:18:00.776Z,english_518.wav,0,peel,829,60,5,5,français,m,1,0.1,-33.3490586,0.80559068
640095c783a33710a484adee,67,1,2024-02-27T11:18:00.776Z,english_518.wav,0,peel,829,60,5,5,français,m,2,0.2,-71.20035434,1.24725456
640095c783a33710a484adee,67,1,2024-02-27T11:18:00.776Z,english_518.wav,0,peel,829,60,5,5,français,m,3,0.3,6.23243823,1.01334401
640095c783a33710a484adee,67,1,2024-02-27T11:18:00.776Z,english_518.wav,0,peel,829,60,5,5,français,m,4,0.32341667,-29.48660546,1.51264586
640095c783a33710a484adee,68,1,2024-02-27T11:18:00.776Z,english_861.wav,0,peel,427,60,5,5,français,m,0,0.0,-30.19921015,0.56503536
640095c783a33710a484adee,68,1,2024-02-27T11:18:00.776Z,english_861.wav,0,peel,427,60,5,5,français,m,1,0.1,75.2433288,1.43622494
640095c783a33710a484adee,68,1,2024-02-27T11:18:00.776Z,english_861.wav,0,peel,427,60,5,5,français,m,2,0.2,-49.47813624,1.73497671
640095c783a33710a484adee,68,1,2024-02-27T11:18:00.776Z,english_861.wav,0,peel,427,60,5,5,français,m,3,0.3,86.59581665,0.70763908
640095c783a33710a484adee,68,1,2024-02-27T11:18:00.776Z,english_861.wav,0,peel,427,60,5,5,français,m,4,0.32341667,58.40562581,1.29518241
640095c783a33710a484adee,69,1,2024-02-27T11:18:00.776Z,english_663.wav,0,peel,663,60,5,5,français,m,0,0.0,55.84438863,1.29444713
640095c783a33710a484adee,69,1,2024-02-27T11:18:00.776Z,english_663.wav,0,peel,663,60,5,5,français,m,1,0.1,-89.02249371,0.90215198
640095c783a33710a484adee,69,1,2024-02-27T11:18:00.776Z,english_663.wav,0,peel,663,60,5,5,français,m,2,0.2,-13.61345685,1.61104603
640095c783a33710a484adee,69,1,2024-02-27T11:18:00.776Z,english_663.wav,0,peel,663,60,5,5,français,m,3,0.3,14.50375693,0.31375715
640095c783a33710a484adee,69,1,2024-02-27T11:18:00.776Z,english_663.wav,0,peel,663,60,5,5,français,m,4,0.32341667,80.63633164,1.01784406
640095c783a33710a484adee,70,1,2024-02-27T11:18:00.776Z,english_392.wav,0,pill,559,60,5,5,français,m,0,0.0,-12.90562814,1.13144201
640095c783a33710a484adee,70,1,2024-02-27T11:18:00.776Z,english_392.wav,0,pill,559,60,5,5,français,m,1,0.1,-1.29416779,0.98893381
640095c783a33710a484adee,70,1,2024-02-27T11:18:00.776Z,english_392.wav,0,pill,559,60,5,5,français,m,2,0.2,-53.34155903,0.07204825
640095c783a33710a484adee,70,1,2024-02-27T11:18:00.776Z,english_392.wav,0,pill,559,60,5,5,français,m,3,0.3,-48.65153398,1.52779633
640095c783a33710a484adee,70,1,2024-02-27T11:18:00.776Z,english_392.wav,0,pill,559,60,5,5,français,m,4,0.32341667,-43.47653164,1.32355089
640095c783a33710a484adee,71,1,2024-02-27T11:18:00.776Z,english_159.wav,0,peel,529,60,5,5,français,m,0,0.0,-83.7072706,0.09138871
640095c783a33710a484adee,71,1,2024-02-27T11:18:00.776Z,english_159.wav,0,peel,529,60,5,5,français,m,1,0.1,-62.69238784,0.63335487
640095c783a33710a484adee,71,1,2024-02-27T11:18:00.776Z,english_159.wav,0,peel,529,60,5,5,français,m,2,0.2,22.09248507,1.23550763
640095c783a33710a484adee,71,1,2024-02-27T11:18:00.776Z,english_159.wav,0,peel,529,60,5,5,français,m,3,0.3,-80.94681782,1.83356136
640095c783a33710a484adee,71,1,2024-02-27T11:18:00.776Z,english_159.wav,0,peel,529,60,5,5,français,m,4,0.32341667,-55.76861956,0.76796393
640095c783a33710a484adee,72,1,2024-02-27T11:18:00.776Z,english_946.wav,0,pill,663,60,5,5,français,m,0,0.0,-74.23479435,1.22824298
640095c783a33710a484adee,72,1,2024-02-27T11:18:00.776Z,english_946.wav,0,pill,663,60,5,5,français,m,1,0.1,-11.3601526,0.85784227
640095c783a33710a484adee,72,1,2024-02-27T11:18:00.776Z,english_946.wav,0,pill,663,60,5,5,français,m,2,0.2,36.50675361,0.09585286
640095c783a33710a484adee,72,1,2024-02-27T11:18:00.776Z,english_946.wav,0,pill,663,60,5,5,français,m,3,0.3,-13.94845552,0.43829102
640095c783a33710a484adee,72,1,2024-02-27T11:18:00.776Z,english_946.wav,0,pill,663,60,5,5,français,m,4,0.32341667,-6.97265347,0.86422506
640095c783a33710a484adee,73,1,2024-02-27T11:18:00.776Z,english_661.wav,0,peel,461,60,5,5,français,m,0,0.0,14.15805194,1.06290545
640095c783a33710a484adee,73,1,2024-02-27T11:18:00.776Z,english_661.wav,0,peel,461,60,5,5,français,m,1,0.1,-77.97020538,1.12952287
640095c783a33710a484adee,73,1,2024-02-27T11:18:00.776Z,english_661.wav,0,peel,461,60,5,5,français,m,2,0.2,-31.78835068,1.47556517
640095c783a33710a484adee,73,1,2024-02-27T11:18:00.776Z,english_661.wav,0,peel,461,60,5,5,français,m,3,0.3,1.84085651,0.41137052
640095c783a33710a484adee,73,1,2024-02-27T11:18:00.776Z,english_661.wav,0,peel,461,60,5,5,français,m,4,0.32341667,31.49677972,1.48872703
640095c783a33710a484adee,74,1,2024-02-27T11:18:00.776Z,english_906.wav,0,peel,316,60,5,5,français,m,0,0.0,-40.48589107,1.22436898
640095c783a33710a484adee,74,1,2024-02-27T11:18:00.776Z,english_906.wav,0,peel,316,60,5,5,français,m,1,0.1,47.48995475,1.54823641
640095c783a33710a484adee,74,1,2024-02-27T11:18:00.776Z,english_906.wav,0,peel,316,60,5,5,français,m,2,0.2,-46.73743802,1.02590908
640095c783a33710a484adee,74,1,2024-02-27T11:18:00.776Z,english_906.wav,0,peel,316,60,5,5,français,m,3,0.3,-97.96557374,1.74877791
640095c783a33710a484adee,74,1,2024-02-27T11:18:00.776Z,english_906.wav,0,peel,316,60,5,5,français,m,4,0.32341667,18.48293991,0.76585735
640095c783a33710a484adee,75,1,2024-02-27T11:18:00.776Z,english_160.wav,0,pill,1090,60,5,5,français,m,0,0.0,2.54964477,0.54357393
640095c783a33710a484adee,75,1,2024-02-27T11:18:00.776Z,english_160.wav,0,pill,1090,60,5,5,français,m,1,0.1,26.84692557,1.29343216
640095c783a33710a484adee,75,1,2024-02-27T11:18:00.776Z,english_160.wav,0,pill,1090,60,5,5,français,m,2,0.2,72.58457191,0.42070854
640095c783a33710a484adee,75,1,2024-02-27T11:18:00.776Z,english_160.wav,0,pill,1090,60,5,5,français,m,3,0.3,-6.94481249,1.04489529
640095c783a33710a484adee,75,1,2024-02-27T11:18:00.776Z,english_160.wav,0,pill,1090,60,5,5,français,m,4,0.32341667,35.80656171,0.26802137
640095c783a33710a484adee,76,1,2024-02-27T11:18:00.776Z,english_417.wav,0,peel,616,60,5,5,français,m,0,0.0,-17.25972862,1.29903721
640095c783a33710a484adee,76,1,2024-02-27T11:18:00.776Z,english_417.wav,0,peel,616,60,5,5,français,m,1,0.1,72.11413149,0.87773419
640095c783a33710a484adee,76,1,2024-02-27T11:18:00.776Z,english_417.wav,0,peel,616,60,5,5,français,m,2,0.2,83.70212603,1.45838331
640095c783a33710a484adee,76,1,2024-02-27T11:18:00.776Z,english_417.wav,0,peel,616,60,5,5,français,m,3,0.3,67.19530478,0.90979472
640095c783a33710a484adee,76,1,2024-02-27T11:18:00.776Z,english_417.wav,0,peel,616,60,5,5,français,m,4,0.32341667,29.72084594,0.1224986
640095c783a33710a484adee,77,1,2024-02-27T11:18:00.776Z,english_999.wav,0,peel,3179,60,5,5,français,m,0,0.0,-43.88463807,1.5561212
640095c783a33710a484adee,77,1,2024-02-27T11:18:00.776Z,english_999.wav,0,peel,3179,60,5,5,français,m,1,0.1,-19.69329198,1.76032244
640095c783a33710a484adee,77,1,2024-02-27T11:18:00.776Z,english_999.wav,0,peel,3179,60,5,5,français,m,2,0.2,-16.47401585,0.67323911
640095c783a33710a484adee,77,1,2024-02-27T11:18:00.776Z,english_999.wav,0,peel,3179,60,5,5,français,m,3,0.3,-27.91485083,0.0725875
640095c783a33710a484adee,77,1,2024-02-27T11:18:00.776Z,english_999.wav,0,peel,3179,60,5,5,français,m,4,0.32341667,-38.65265262,0.89314247
640095c783a33710a484adee,78,1,2024-02-27T11:18:00.776Z,english_754.wav,0,peel,740,60,5,5,français,m,0,0.0,-19.76675532,0.85408869
640095c783a33710a484adee,78,1,2024-02-27T11:18:00.776Z,english_754.wav,0,peel,740,60,5,5,français,m,1,0.1,34.48414938,1.68072852
640095c783a33710a484adee,78,1,2024-02-27T11:18:00.776Z,english_754.wav,0,peel,740,60,5,5,français,m,2,0.2,62.52568934,1.92334892
640095c783a33710a484adee,78,1,2024-02-27T11:18:00.776Z,english_754.wav,0,peel,740,60,5,5,français,m,3,0.3,25.41574935,0.35114342
640095c783a33710a484adee,78,1,2024-02-27T11:18:00.776Z,english_754.wav,0,peel,740,60,5,5,français,m,4,0.32341667,-36.16911462,0.9845535
640095c783a33710a484adee,79,1,2024-02-27T11:18:00.776Z,english_279.wav,0,peel,597,60,5,5,français,m,0,0.0,-20.90398108,0.60114424
640095c783a33710a484adee,79,1,2024-02-27T11:18:00.776Z,english_279.wav,0,peel,597,60,5,5,français,m,1,0.1,98.83098338,0.92336304
640095c783a33710a484adee,79,1,2024-02-27T11:18:00.776Z,english_279.wav,0,peel,597,60,5,5,français,m,2,0.2,-95.37608427,1.39045705
640095c783a33710a484adee,79,1,2024-02-27T11:18:00.776Z,english_279.wav,0,peel,597,60,5,5,français,m,3,0.3,-52.65380993,0.64938935
640095c783a33710a484adee,79,1,2024-02-27T11:18:00.776Z,english_279.wav,0,peel,597,60,5,5,français,m,4,0.32341667,47.72500112,1.57478054
640095c783a33710a484adee,80,1,2024-02-27T11:18:00.776Z,english_200.wav,0,peel,883,60,5,5,français,m,0,0.0,48.98677304,1.07797747
640095c783a33710a484adee,80,1,2024-02-27T11:18:00.776Z,english_200.wav,0,peel,883,60,5,5,français,m,1,0.1,13.54292536,1.23698451
640095c783a33710a484adee,80,1,2024-02-27T11:18:00.776Z,english_200.wav,0,peel,883,60,5,5,français,m,2,0.2,15.98335964,0.85343662
640095c783a33710a484adee,80,1,2024-02-27T11:18:00.776Z,english_200.wav,0,peel,883,60,5,5,français,m,3,0.3,-46.7743147,1.38707984
640095c783a33710a484adee,80,1,2024-02-27T11:18:00.776Z,english_200.wav,0,peel,883,60,5,5,français,m,4,0.32341667,-12.18386714,0.65409939
640095c783a33710a484adee,81,1,2024-02-27T11:18:00.776Z,english_52.wav,0,peel,849,60,5,5,français,m,0,0.0,54.63859099,0.91426261
640095c783a33710a484adee,81,1,2024-02-27T11:18:00.776Z,english_52.wav,0,peel,849,60,5,5,français,m,1,0.1,-85.67195477,1.20728413
640095c783a33710a484adee,81,1,2024-02-27T11:18:00.776Z,english_52.wav,0,peel,849,60,5,5,français,m,2,0.2,2.4878885,0.71733995
640095c783a33710a484adee,81,1,2024-02-27T11:18:00.776Z,english_52.wav,0,peel,849,60,5,5,français,m,3,0.3,86.13143505,1.54149443
640095c783a33710a484adee,81,1,2024-02-27T11:18:00.776Z,english_52.wav,0,peel,849,60,5,5,français,m,4,0.32341667,-53.30399902,1.3376245
640095c783a33710a484adee,82,1,2024-02-27T11:18:00.776Z,english_701.wav,0,peel,2395,60,5,5,français,m,0,0.0,87.15265727,1.41120649
640095c783a33710a484adee,82,1,2024-02-27T11:18:00.776Z,english_701.wav,0,peel,2395,60,5,5,français,m,1,0.1,38.39882515,0.44004622
640095c783a33710a484adee,82,1,2024-02-27T11:18:00.776Z,english_701.wav,0,peel,2395,60,5,5,français,m,2,0.2,64.60201562,1.15462264
640095c783a33710a484adee,82,1,2024-02-27T11:18:00.776Z,english_701.wav,0,peel,2395,60,5,5,français,m,3,0.3,12.58613119,1.17454355
640095c783a33710a484adee,82,1,2024-02-27T11:18:00.776Z,english_701.wav,0,peel,2395,60,5,5,français,m,4,0.32341667,46.94968762,1.38716818
640095c783a33710a484adee,83,1,2024-02-27T11:18:00.776Z,english_174.wav,0,pill,760,60,5,5,français,m,0,0.0,-14.93169449,0.27768215
640095c783a33710a484adee,83,1,2024-02-27T11:18:00.776Z,english_174.wav,0,pill,760,60,5,5,français,m,1,0.1,-60.50222611,0.13809097
640095c783a33710a484adee,83,1,2024-02-27T11:18:00.776Z,english_174.wav,0,pill,760,60,5,5,français,m,2,0.2,-88.67347191,0.18584848
640095c783a33710a484adee,83,1,2024-02-27T11:18:00.776Z,english_174.wav,0,pill,760,60,5,5,français,m,3,0.3,-20.58504224,1.46718454
640095c783a33710a484adee,83,1,2024-02-27T11:18:00.776Z,english_174.wav,0,pill,760,60,5,5,français,m,4,0.32341667,-52.28073567,0.17567705
640095c783a33710a484adee,84,1,2024-02-27T11:18:00.776Z,english_968.wav,0,peel,1739,60,5,5,français,m,0,0.0,-36.76350372,0.52322451
640095c783a33710a484adee,84,1,2024-02-27T11:18:00.776Z,english_968.wav,0,peel,1739,60,5,5,français,m,1,0.1,-99.8991193,0.66419732
640095c783a33710a484adee,84,1,2024-02-27T11:18:00.776Z,english_968.wav,0,peel,1739,60,5,5,français,m,2,0.2,27.503089,0.44232096
640095c783a33710a484adee,84,1,2024-02-27T11:18:00.776Z,english_968.wav,0,peel,1739,60,5,5,français,m,3,0.3,-34.85106147,1.90778707
640095c783a33710a484adee,84,1,2024-02-27T11:18:00.776Z,english_968.wav,0,peel,1739,60,5,5,français,m,4,0.32341667,68.2869663,0.59652698
640095c783a33710a484adee,85,1,2024-02-27T11:18:00.776Z,english_824.wav,0,peel,755,60,5,5,français,m,0,0.0,80.46503136,1.43025592
640095c783a33710a484adee,85,1,2024-02-27T11:18:00.776Z,english_824.wav,0,peel,755,60,5,5,français,m,1,0.1,-48.668347,0.89138167
640095c783a33710a484adee,85,1,2024-02-27T11:18:00.776Z,english_824.wav,0,peel,755,60,5,5,français,m,2,0.2,37.27765876,1.91281619
640095c783a33710a484adee,85,1,2024-02-27T11:18:00.776Z,english_824.wav,0,peel,755,60,5,5,français,m,3,0.3,-91.29945309,0.71335031
640095c783a33710a484adee,85,1,2024-02-27T11:18:00.776Z,english_824.wav,0,peel,755,60,5,5,français,m,4,0.32341667,14.46507007,0.89780818
640095c783a33710a484adee,86,1,2024-02-27T11:18:00.776Z,english_78.wav,0,peel,642,60,5,5,français,m,0,0.0,57.57509383,0.85738581
640095c783a33710a484adee,86,1,2024-02-27T11:18:00.776Z,english_78.wav,0,peel,642,60,5,5,français,m,1,0.1,8.37611797,1.59375359
640095c783a33710a484adee,86,1,2024-02-27T11:18:00.776Z,english_78.wav,0,peel,642,60,5,5,français,m,2,0.2,-42.8518908,1.65756647
640095c783a33710a484adee,86,1,2024-02-27T11:18:00.776Z,english_78.wav,0,peel,642,60,5,5,français,m,3,0.3,26.19415986,0.53011742
640095c783a33710a484adee,86,1,2024-02-27T11:18:00.776Z,english_78.wav,0,peel,642,60,5,5,français,m,4,0.32341667,65.52498429,1.5323802
640095c783a33710a484adee,87,1,2024-02-27T11:18:00.776Z,english_379.wav,0,peel,570,60,5,5,français,m,0,0.0,30.14616912,1.43961489
640095c783a33710a484adee,87,1,2024-02-27T11:18:00.776Z,english_379.wav,0,peel,570,60,5,5,français,m,1,0.1,-79.51193423,1.4219763
640095c783a33710a484adee,87,1,2024-02-27T11:18:00.776Z,english_379.wav,0,peel,570,60,5,5,français,m,2,0.2,7.34860539,0.62633101
640095c783a33710a484adee,87,1,2024-02-27T11:18:00.776Z,english_379.wav,0,peel,570,60,5,5,français,m,3,0.3,-43.99342265,1.13621958
640095c783a33710a484adee,87,1,2024-02-27T11:18:00.776Z,english_379.wav,0,peel,570,60,5,5,français,m,4,0.32341667,37.72881761,1.35387794
640095c783a33710a484adee,88,1,2024-02-27T11:18:00.776Z,english_338.wav,0,peel,843,60,5,5,français,m,0,0.0,-22.40965878,1.93572195
640095c783a33710a484adee,88,1,2024-02-27T11:18:00.776Z,english_338.wav,0,peel,843,60,5,5,français,m,1,0.1,-10.16153496,1.78994992
640095c783a33710a484adee,88,1,2024-02-27T11:18:00.776Z,english_338.wav,0,peel,843,60,5,5,français,m,2,0.2,-50.2449588,1.38134059
640095c783a33710a484adee,88,1,2024-02-27T11:18:00.776Z,english_338.wav,0,peel,843,60,5,5,français,m,3,0.3,14.05674122,1.78462007
640095c783a33710a484adee,88,1,2024-02-27T11:18:00.776Z,english_338.wav,0,peel,843,60,5,5,français,m,4,0.32341667,-78.35339858,1.2607094
640095c783a33710a484adee,89,1,2024-02-27T11:18:00.776Z,english_571.wav,0,pill,1036,60,5,5,français,m,0,0.0,-42.92588422,0.65590276
640095c783a33710a484adee,89,1,2024-02-27T11:18:00.776Z,english_571.wav,0,pill,1036,60,5,5,français,m,1,0.1,-87.39276897,1.8306878
640095c783a33710a484adee,89,1,2024-02-27T11:18:00.776Z,english_571.wav,0,pill,1036,60,5,5,français,m,2,0.2,19.06282168,0.06889765
640095c783a33710a484adee,89,1,2024-02-27T11:18:00.776Z,english_571.wav,0,pill,1036,60,5,5,français,m,3,0.3,-99.30459792,0.29364209
640095c783a33710a484adee,89,1,2024-02-27T11:18:00.776Z,english_571.wav,0,pill,1036,60,5,5,français,m,4,0.32341667,41.25263337,1.388798
640095c783a33710a484adee,90,1,2024-02-27T11:18:00.776Z,english_787.wav,0,pill,643,60,5,5,français,m,0,0.0,57.99353047,1.96251481
640095c783a33710a484adee,90,1,2024-02-27T11:18:00.776Z,english_787.wav,0,pill,643,60,5,5,français,m,1,0.1,-40.79525362,0.94444479
640095c783a33710a484adee,90,1,2024-02-27T11:18:00.776Z,english_787.wav,0,pill,643,60,5,5,français,m,2,0.2,23.78072576,0.924778
640095c783a33710a484adee,90,1,2024-02-27T11:18:00.776Z,english_787.wav,0,pill,643,60,5,5,français,m,3,0.3,72.96982422,0.31383508
640095c783a33710a484adee,90,1,2024-02-27T11:18:00.776Z,english_787.wav,0,pill,643,60,5,5,français,m,4,0.32341667,53.76957631,0.68947425
640095c783a33710a484adee,91,1,2024-02-27T11:18:00.776Z,english_394.wav,0,peel,501,60,5,5,français,m,0,0.0,73.08757955,1.29313131
640095c783a33710a484adee,91,1,2024-02-27T11:18:00.776Z,english_394.wav,0,peel,501,60,5,5,français,m,1,0.1,5.60908311,0.62691873
640095c783a33710a484adee,91,1,2024-02-27T11:18:00.776Z,english_394.wav,0,peel,501,60,5,5,français,m,2,0.2,76.56705043,1.4938005
640095c783a33710a484adee,91,1,2024-02-27T11:18:00.776Z,english_394.wav,0,peel,501,60,5,5,français,m,3,0.3,18.85166324,1.2266925
640095c783a33710a484adee,91,1,2024-02-27T11:18:00.776Z,english_394.wav,0,peel,501,60,5,5,français,m,4,0.32341667,8.45052692,0.67844158
640095c783a33710a484adee,92,1,2024-02-27T11:18:00.776Z,english_455.wav,0,peel,507,60,5,5,français,m,0,0.0,16.09493262,0.21208686
640095c783a33710a484adee,92,1,2024-02-27T11:18:00.776Z,english_455.wav,0,peel,507,60,5,5,français,m,1,0.1,24.58982,1.0305564
640095c783a33710a484adee,92,1,2024-02-27T11:18:00.776Z,english_455.wav,0,peel,507,60,5,5,français,m,2,0.2,-59.31201859,1.53057992
640095c783a33710a484adee,92,1,2024-02-27T11:18:00.776Z,english_455.wav,0,peel,507,60,5,5,français,m,3,0.3,40.79603426,0.62599766
640095c783a33710a484adee,92,1,2024-02-27T11:18:00.776Z,english_455.wav,0,peel,507,60,5,5,français,m,4,0.32341667,-39.30035714,1.43054244
640095c783a33710a484adee,93,1,2024-02-27T11:18:00.776Z,english_797.wav,0,peel,508,60,5,5,français,m,0,0.0,-10.77604935,1.75152448
640095c783a33710a484adee,93,1,2024-02-27T11:18:00.776Z,english_797.wav,0,peel,508,60,5,5,français,m,1,0.1,76.52998448,0.25625033
640095c783a33710a484adee,93,1,2024-02-27T11:18:00.776Z,english_797.wav,0,peel,508,60,5,5,français,m,2,0.2,-52.30950648,1.63910521
640095c783a33710a484adee,93,1,2024-02-27T11:18:00.776Z,english_797.wav,0,peel,508,60,5,5,français,m,3,0.3,-19.27189704,1.44412191
640095c783a33710a484adee,93,1,2024-02-27T11:18:00.776Z,english_797.wav,0,peel,508,60,5,5,français,m,4,0.32341667,-68.52312916,1.41513857
640095c783a33710a484adee,94,1,2024-02-27T11:18:00.776Z,english_255.wav,0,pill,3606,60,5,5,français,m,0,0.0,-42.74550593,1.65518669
640095c783a33710a484adee,94,1,2024-02-27T11:18:00.776Z,english_255.wav,0,pill,3606,60,5,5,français,m,1,0.1,35.44578771,1.85823386
640095c783a33710a484adee,94,1,2024-02-27T11:18:00.776Z,english_255.wav,0,pill,3606,60,5,5,français,m,2,0.2,98.7346041,1.2123315
640095c783a33710a484adee,94,1,2024-02-27T11:18:00.776Z,english_255.wav,0,pill,3606,60,5,5,français,m,3,0.3,14.08839822,0.62099519
640095c783a33710a484adee,94,1,2024-02-27T11:18:00.776Z,english_255.wav,0,pill,3606,60,5,5,français,m,4,0.32341667,-55.38739786,1.08486436
640095c783a33710a484adee,95,1,2024-02-27T11:18:00.776Z,english_337.wav,0,peel,764,60,5,5,français,m,0,0.0,17.21863108,0.02346696
640095c783a33710a484adee,95,1,2024-02-27T11:18:00.776Z,english_337.wav,0,peel,764,60,5,5,français,m,1,0.1,-16.30098312,1.2349353
640095c783a33710a484adee,95,1,2024-02-27T11:18:00.776Z,english_337.wav,0,peel,764,60,5,5,français,m,2,0.2,70.17733319,1.07823504
640095c783a33710a484adee,95,1,2024-02-27T11:18:00.776Z,english_337.wav,0,peel,764,60,5,5,français,m,3,0.3,-7.16478631,1.83339424
640095c783a33710a484adee,95,1,2024-02-27T11:18:00.776Z,english_337.wav,0,peel,764,60,5,5,français,m,4,0.32341667,-84.96176299,1.87583376
640095c783a33710a484adee,96,1,2024-02-27T11:18:00.776Z,english_648.wav,0,peel,1633,60,5,5,français,m,0,0.0,-36.17742204,0.57576188
640095c783a33710a484adee,96,1,2024-02-27T11:18:00.776Z,english_648.wav,0,peel,1633,60,5,5,français,m,1,0.1,30.10697278,1.1310908
640095c783a33710a484adee,96,1,2024-02-27T11:18:00.776Z,english_648.wav,0,peel,1633,60,5,5,français,m,2,0.2,-67.31320052,1.67112441
640095c783a33710a484adee,96,1,2024-02-27T11:18:00.776Z,english_648.wav,0,peel,1633,60,5,5,français,m,3,0.3,-10.94597212,0.39641968
640095c783a33710a484adee,96,1,2024-02-27T11:18:00.776Z,english_648.wav,0,peel,1633,60,5,5,français,m,4,0.32341667,72.59648235,1.93789316
640095c783a33710a484adee,97,1,2024-02-27T11:18:00.776Z,english_922.wav,0,peel,1265,60,5,5,français,m,0,0.0,-90.36253489,0.33253962
640095c783a33710a484adee,97,1,2024-02-27T11:18:00.776Z,english_922.wav,0,peel,1265,60,5,5,français,m,1,0.1,-6.38761956,1.51366693
640095c783a33710a484adee,97,1,2024-02-27T11:18:00.776Z,english_922.wav,0,peel,1265,60,5,5,français,m,2,0.2,-78.09661245,0.40049791
640095c783a33710a484adee,97,1,2024-02-27T11:18:00.776Z,english_922.wav,0,peel,1265,60,5,5,français,m,3,0.3,-92.75722173,1.29207892
640095c783a33710a484adee,97,1,2024-02-27T11:18:00.776Z,english_922.wav,0,peel,1265,60,5,5,français,m,4,0.32341667,-80.16719401,1.40400382
640095c783a33710a484adee,98,1,2024-02-27T11:18:00.776Z,english_789.wav,0,peel,722,60,5,5,français,m,0,0.0,70.69388181,1.62690516
640095c783a33710a484adee,98,1,2024-02-27T11:18:00.776Z,english_789.wav,0,peel,722,60,5,5,français,m,1,0.1,-91.45782136,1.02092359
640095c783a33710a484adee,98,1,2024-02-27T11:18:00.776Z,english_789.wav,0,peel,722,60,5,5,français,m,2,0.2,-94.67801392,0.93437639
640095c783a33710a484adee,98,1,2024-02-27T11:18:00.776Z,english_789.wav,0,peel,722,60,5,5,français,m,3,0.3,83.76501612,1.8239896
640095c783a33710a484adee,98,1,2024-02-27T11:18:00.776Z,english_789.wav,0,peel,722,60,5,5,français,m,4,0.32341667,-4.60584958,1.29596798
640095c783a33710a484adee,99,1,2024-02-27T11:18:00.776Z,english_99.wav,0,pill,798,60,5,5,français,m,0,0.0,9.75149611,0.79411887
640095c783a33710a484adee,99,1,2024-02-27T11:18:00.776Z,english_99.wav,0,pill,798,60,5,5,français,m,1,0.1,-7.37998228,0.53064308
640095c783a33710a484adee,99,1,2024-02-27T11:18:00.776Z,english_99.wav,0,pill,798,60,5,5,français,m,2,0.2,29.15889261,0.10254027
640095c783a33710a484adee,99,1,2024-02-27T11:18:00.776Z,english_99.wav,0,pill,798,60,5,5,français,m,3,0.3,-23.23230809,0.53999741
640095c783a33710a484adee,99,1,2024-02-27T11:18:00.776Z,english_99.wav,0,pill,798,60,5,5,français,m,4,0.32341667,51.25937721,0.74302856
640095c783a33710a484adee,100,2,2024-02-27T11:18:00.776Z,english_593.wav,0,pill,666,60,5,5,français,m,0,0.0,0.23295982,1.83954553
640095c783a33710a484adee,100,2,2024-02-27T11:18:00.776Z,english_593.wav,0,pill,666,60,5,5,français,m,1,0.1,-0.52832444,1.77820403
640095c783a33710a484adee,100,2,2024-02-27T11:18:00.776Z,english_593.wav,0,pill,666,60,5,5,français,m,2,0.2,18.28609946,0.36770598
640095c783a33710a484adee,100,2,2024-02-27T11:18:00.776Z,english_593.wav,0,pill,666,60,5,5,français,m,3,0.3,21.25816485,0.42189114
640095c783a33710a484adee,100,2,2024-02-27T11:18:00.776Z,english_593.wav,0,pill,666,60,5,5,français,m,4,0.32341667,60.44039038,0.07588974
640095c783a33710a484adee,101,2,2024-02-27T11:18:00.776Z,english_42.wav,0,pill,405,60,5,5,français,m,0,0.0,-15.36487641,1.81244548
640095c783a33710a484adee,101,2,2024-02-27T11:18:00.776Z,english_42.wav,0,pill,405,60,5,5,français,m,1,0.1,11.43696078,1.472484
640095c783a33710a484adee,101,2,2024-02-27T11:18:00.776Z,english_42.wav,0,pill,405,60,5,5,français,m,2,0.2,34.58464447,0.21504119
640095c783a33710a484adee,101,2,2024-02-27T11:18:00.776Z,english_42.wav,0,pill,405,60,5,5,français,m,3,0.3,68.67640378,0.80253652
640095c783a33710a484adee,101,2,2024-02-27T11:18:00.776Z,english_42.wav,0,pill,405,60,5,5,français,m,4,0.32341667,-67.59461511,1.53231421
640095c783a33710a484adee,102,2,2024-02-27T11:18:00.776Z,english_102.wav,0,peel,333,60,5,5,français,m,0,0.0,32.71328306,1.2311829
640095c783a33710a484adee,102,2,2024-02-27T11:18:00.776Z,english_102.wav,0,peel,333,60,5,5,français,m,1,0.1,59.73255369,0.25599615
640095c783a33710a484adee,102,2,2024-02-27T11:18:00.776Z,english_102.wav,0,peel,333,60,5,5,français,m,2,0.2,-0.64397298,1.7526023
640095c783a33710a484adee,102,2,2024-02-27T11:18:00.776Z,english_102.wav,0,peel,333,60,5,5,français,m,3,0.3,-37.18099902,1.98319627
640095c783a33710a484adee,102,2,2024-02-27T11:18:00.776Z,english_102.wav,0,peel,333,60,5,5,français,m,4,0.32341667,41.63197766,1.38410598
640095c783a33710a484adee,103,2,2024-02-27T11:18:00.776Z,english_247.wav,0,peel,1017,60,5,5,français,m,0,0.0,48.65693284,0.25539499
640095c783a33710a484adee,103,2,2024-02-27T11:18:00.776Z,english_247.wav,0,peel,1017,60,5,5,français,m,1,0.1,-27.64572099,1.09429421
640095c783a33710a484adee,103,2,2024-02-27T11:18:00.776Z,english_247.wav,0,peel,1017,60,5,5,français,m,2,0.2,-20.19701808,0.88115619
640095c783a33710a484adee,103,2,2024-02-27T11:18:00.776Z,english_247.wav,0,peel,1017,60,5,5,français,m,3,0.3,-10.74442668,1.97859338
640095c783a33710a484adee,103,2,2024-02-27T11:18:00.776Z,english_247.wav,0,peel,1017,60,5,5,français,m,4,0.32341667,91.42432082,0.10638235
640095c783a33710a484adee,104,2,2024-02-27T11:18:00.776Z,english_650.wav,0,pill,2143,60,5,5,français,m,0,0.0,-14.34164867,1.10695192
640095c783a33710a484adee,104,2,2024-02-27T11:18:00.776Z,english_650.wav,0,pill,2143,60,5,5,français,m,1,0.1,-59.47569919,1.2442548
640095c783a33710a484adee,104,2,2024-02-27T11:18:00.776Z,english_650.wav,0,pill,2143,60,5,5,français,m,2,0.2,-47.0995584,0.31281267
640095c783a33710a484adee,104,2,2024-02-27T11:18:00.776Z,english_650.wav,0,pill,2143,60,5,5,français,m,3,0.3,-55.25841156,1.9869399
640095c783a33710a484adee,104,2,2024-02-27T11:18:00.776Z,english_650.wav,0,pill,2143,60,5,5,français,m,4,0.32341667,83.92345375,1.10607629
640095c783a33710a484adee,105,2,2024-02-27T11:18:00.776Z,english_583.wav,0,peel,632,60,5,5,français,m,0,0.0,-35.26485382,0.11557093
640095c783a33710a484adee,105,2,2024-02-27T11:18:00.776Z,english_583.wav,0,peel,632,60,5,5,français,m,1,0.1,-69.50197994,0.9917357
640095c783a33710a484adee,105,2,2024-02-27T11:18:00.776Z,english_583.wav,0,peel,632,60,5,5,français,m,2,0.2,73.6796048,1.33727714
640095c783a33710a484adee,105,2,2024-02-27T11:18:00.776Z,english_583.wav,0,peel,632,60,5,5,français,m,3,0.3,-1.04664171,0.97646566
640095c783a33710a484adee,105,2,2024-02-27T11:18:00.776Z,english_583.wav,0,peel,632,60,5,5,français,m,4,0.32341667,-55.46924107,1.06585671
640095c783a33710a484adee,106,2,2024-02-27T11:18:00.776Z,english_357.wav,0,pill,729,60,5,5,français,m,0,0.0,76.35734026,1.14590216
640095c783a33710a484adee,106,2,2024-02-27T11:18:00.776Z,english_357.wav,0,pill,729,60,5,5,français,m,1,0.1,-86.84267031,0.53472093
640095c783a33710a484adee,106,2,2024-02-27T11:18:00.776Z,english_357.wav,0,pill,729,60,5,5,français,m,2,0.2,-64.6676431,0.54723503
640095c783a33710a484adee,106,2,2024-02-27T11:18:00.776Z,english_357.wav,0,pill,729,60,5,5,français,m,3,0.3,-69.9472318,1.29334783
640095c783a33710a484adee,106,2,2024-02-27T11:18:00.776Z,english_357.wav,0,pill,729,60,5,5,français,m,4,0.32341667,87.84988665,1.74725804
640095c783a33710a484adee,107,2,2024-02-27T11:18:00.776Z,english_38.wav,0,peel,486,60,5,5,français,m,0,0.0,-2.78484508,0.45448836
640095c783a33710a484adee,107,2,2024-02-27T11:18:00.776Z,english_38.wav,0,peel,486,60,5,5,français,m,1,0.1,-57.68912839,0.86252605
640095c783a33710a484adee,107,2,2024-02-27T11:18:00.776Z,english_38.wav,0,peel,486,60,5,5,français,m,2,0.2,-17.27242754,1.61904865
640095c783a33710a484adee,107,2,2024-02-27T11:18:00.776Z,english_38.wav,0,peel,486,60,5,5,français,m,3,0.3,-2.64514482,1.39130822
640095c783a33710a484adee,107,2,2024-02-27T11:18:00.776Z,english_38.wav,0,peel,486,60,5,5,français,m,4,0.32341667,55.14373267,1.59066599
640095c783a33710a484adee,108,2,2024-02-27T11:18:00.776Z,english_312.wav,0,peel,1821,60,5,5,français,m,0,0.0,44.01610098,1.36033213
640095c783a33710a484adee,108,2,2024-02-27T11:18:00.776Z,english_312.wav,0,peel,1821,60,5,5,français,m,1,0.1,-34.76139374,0.08557756
640095c783a33710a484adee,108,2,2024-02-27T11:18:00.776Z,english_312.wav,0,peel,1821,60,5,5,français,m,2,0.2,-43.47986862,1.06509633
640095c783a33710a484adee,108,2,2024-02-27T11:18:00.776Z,english_312.wav,0,peel,1821,60,5,5,français,m,3,0.3,-9.79517271,0.67257935
640095c783a33710a484adee,108,2,2024-02-27T11:18:00.776Z,english_312.wav,0,peel,1821,60,5,5,français,m,4,0.32341667,85.48914895,0.12614926
640095c783a33710a484adee,109,2,2024-02-27T11:18:00.776Z,english_689.wav,0,pill,543,60,5,5,français,m,0,0.0,42.02822248,1.89069384
640095c783a33710a484adee,109,2,2024-02-27T11:18:00.776Z,english_689.wav,0,pill,543,60,5,5,français,m,1,0.1,-61.92185233,0.33123617
640095c783a33710a484adee,109,2,2024-02-27T11:18:00.776Z,english_689.wav,0,pill,543,60,5,5,français,m,2,0.2,-8.45156809,0.5478675
640095c783a33710a484adee,109,2,2024-02-27T11:18:00.776Z,english_689.wav,0,pill,543,60,5,5,français,m,3,0.3,15.09500637,0.80334133
640095c783a33710a484adee,109,2,2024-02-27T11:18:00.776Z,english_689.wav,0,pill,543,60,5,5,français,m,4,0.32341667,8.33163023,1.42024866
640095c783a33710a484adee,110,2,2024-02-27T11:18:00.776Z,english_928.wav,0,pill,507,60,5,5,français,m,0,0.0,55.07207497,1.22706758
640095c783a33710a484adee,110,2,2024-02-27T11:18:00.776Z,english_928.wav,0,pill,507,60,5,5,français,m,1,0.1,83.71672672,0.97206042
640095c783a33710a484adee,110,2,2024-02-27T11:18:00.776Z,english_928.wav,0,pill,507,60,5,5,français,m,2,0.2,-43.28929986,0.16969859
640095c783a33710a484adee,110,2,2024-02-27T11:18:00.776Z,english_928.wav,0,pill,507,60,5,5,français,m,3,0.3,-17.1692271,0.90092586
640095c783a33710a484adee,110,2,2024-02-27T11:18:00.776Z,english_928.wav,0,pill,507,60,5,5,français,m,4,0.32341667,-36.644272,0.43024518
640095c783a33710a484adee,111,2,2024-02-27T11:18:00.776Z,english_29.wav,0,pill,507,60,5,5,français,m,0,0.0,-2.71310826,1.50712016
640095c783a33710a484adee,111,2,2024-02-27T11:18:00.776Z,english_29.wav,0,pill,507,60,5,5,français,m,1,0.1,17.7201972,0.83644439
640095c783a33710a484adee,111,2,2024-02-27T11:18:00.776Z,english_29.wav,0,pill,507,60,5,5,français,m,2,0.2,-20.17501418,0.76078741
640095c783a33710a484adee,111,2,2024-02-27T11:18:00.776Z,english_29.wav,0,pill,507,60,5,5,français,m,3,0.3,12.48271646,0.17009155
640095c783a33710a484adee,111,2,2024-02-27T11:18:00.776Z,english_29.wav,0,pill,507,60,5,5,français,m,4,0.32341667,29.42079391,1.26727983
640095c783a33710a484adee,112,2,2024-02-27T11:18:00.776Z,english_816.wav,0,peel,413,60,5,5,français,m,0,0.0,-5.39935373,0.27372013
640095c783a33710a484adee,112,2,2024-02-27T11:18:00.776Z,english_816.wav,0,peel,413,60,5,5,français,m,1,0.1,-58.12348851,1.23542608
640095c783a33710a484adee,112,2,2024-02-27T11:18:00.776Z,english_816.wav,0,peel,413,60,5,5,français,m,2,0.2,-97.19740724,1.6956732
640095c783a33710a484adee,112,2,2024-02-27T11:18:00.776Z,english_816.wav,0,peel,413,60,5,5,français,m,3,0.3,4.60418864,0.17466083
640095c783a33710a484adee,112,2,2024-02-27T11:18:00.776Z,english_816.wav,0,peel,413,60,5,5,français,m,4,0.32341667,57.92285533,0.69657013
640095c783a33710a484adee,113,2,2024-02-27T11:18:00.776Z,english_615.wav,0,peel,873,60,5,5,français,m,0,0.0,76.05955912,1.68553334
640095c783a33710a484adee,113,2,2024-02-27T11:18:00.776Z,english_615.wav,0,peel,873,60,5,5,français,m,1,0.1,54.62950786,1.5058876
640095c783a33710a484adee,113,2,2024-02-27T11:18:00.776Z,english_615.wav,0,peel,873,60,5,5,français,m,2,0.2,-31.02204933,1.66676809
640095c783a33710a484adee,113,2,2024-02-27T11:18:00.776Z,english_615.wav,0,peel,873,60,5,5,français,m,3,0.3,-3.27946314,1.09840801
640095c783a33710a484adee,113,2,2024-02-27T11:18:00.776Z,english_615.wav,0,peel,873,60,5,5,français,m,4,0.32341667,51.350795,0.25314986
640095c783a33710a484adee,114,2,2024-02-27T11:18:00.776Z,english_871.wav,0,peel,650,60,5,5,français,m,0,0.0,84.63625516,0.21643415
640095c783a33710a484adee,114,2,2024-02-27T11:18:00.776Z,english_871.wav,0,peel,650,60,5,5,français,m,1,0.1,-19.11058767,1.23538017
640095c783a33710a484adee,114,2,2024-02-27T11:18:00.776Z,english_871.wav,0,peel,650,60,5,5,français,m,2,0.2,49.1497137,1.26375285
640095c783a33710a484adee,114,2,2024-02-27T11:18:00.776Z,english_871.wav,0,peel,650,60,5,5,français,m,3,0.3,-83.07816512,0.03257235
640095c783a33710a484adee,114,2,2024-02-27T11:18:00.776Z,english_871.wav,0,peel,650,60,5,5,français,m,4,0.32341667,11.22002909,1.90703832
640095c783a33710a484adee,115,2,2024-02-27T11:18:00.776Z,english_517.wav,0,peel,539,60,5,5,français,m,0,0.0,11.23661905,0.76208972
640095c783a33710a484adee,115,2,2024-02-27T11:18:00.776Z,english_517.wav,0,peel,539,60,5,5,français,m,1,0.1,58.81241605,0.18193562
640095c783a33710a484adee,115,2,2024-02-27T11:18:00.776Z,english_517.wav,0,peel,539,60,5,5,français,m,2,0.2,38.38790279,1.85963831
640095c783a33710a484adee,115,2,2024-02-27T11:18:00.776Z,english_517.wav,0,peel,539,60,5,5,français,m,3,0.3,-74.61462092,0.20223028
640095c783a33710a484adee,115,2,2024-02-27T11:18:00.776Z,english_517.wav,0,peel,539,60,5,5,français,m,4,0.32341667,-36.69086471,1.46287498
640095c783a33710a484adee,116,2,2024-02-27T11:18:00.776Z,english_629.wav,0,peel,1787,60,5,5,français,m,0,0.0,76.68747977,0.56482572
640095c783a33710a484adee,116,2,2024-02-27T11:18:00.776Z,english_629.wav,0,peel,1787,60,5,5,français,m,1,0.1,72.0676039,0.14075004
640095c783a33710a484adee,116,2,2024-02-27T11:18:00.776Z,english_629.wav,0,peel,1787,60,5,5,français,m,2,0.2,-3.42071834,0.80885654
640095c783a33710a484adee,116,2,2024-02-27T11:18:00.776Z,english_629.wav,0,peel,1787,60,5,5,français,m,3,0.3,-75.36993348,1.43133267
640095c783a33710a484adee,116,2,2024-02-27T11:18:00.776Z,english_629.wav,0,peel,1787,60,5,5,français,m,4,0.32341667,-15.4233884,0.14234351
640095c783a33710a484adee,117,2,2024-02-27T11:18:00.776Z,english_591.wav,0,peel,1040,60,5,5,français,m,0,0.0,-17.23532002,0.16408748
640095c783a33710a484adee,117,2,2024-02-27T11:18:00.776Z,english_591.wav,0,peel,1040,60,5,5,français,m,1,0.1,-55.20494434,0.21361432
640095c783a33710a484adee,117,2,2024-02-27T11:18:00.776Z,english_591.wav,0,peel,1040,60,5,5,français,m,2,0.2,-36.65883109,0.19384467
640095c783a33710a484adee,117,2,2024-02-27T11:18:00.776Z,english_591.wav,0,peel,1040,60,5,5,français,m,3,0.3,75.34514139,0.82850175
640095c783a33710a484adee,117,2,2024-02-27T11:18:00.776Z,english_591.wav,0,peel,1040,60,5,5,français,m,4,0.32341667,31.2832342,1.471328
640095c783a33710a484adee,118,2,2024-02-27T11:18:00.776Z,english_903.wav,0,peel,476,60,5,5,français,m,0,0.0,73.58848698,0.30588109
640095c783a33710a484adee,118,2,2024-02-27T11:18:00.776Z,english_903.wav,0,peel,476,60,5,5,français,m,1,0.1,-95.58060262,0.88963747
640095c783a33710a484adee,118,2,2024-02-27T11:18:00.776Z,english_903.wav,0,peel,476,60,5,5,français,m,2,0.2,17.41642173,1.73634476
640095c783a33710a484adee,118,2,2024-02-27T11:18:00.776Z,english_903.wav,0,peel,476,60,5,5,français,m,3,0.3,94.35223882,0.71257749
640095c783a33710a484adee,118,2,2024-02-27T11:18:00.776Z,english_903.wav,0,peel,476,60,5,5,français,m,4,0.32341667,-49.48803877,1.4824474
640095c783a33710a484adee,119,2,2024-02-27T11:18:00.776Z,english_933.wav,0,peel,463,60,5,5,français,m,0,0.0,-48.12258855,1.54767366
640095c783a33710a484adee,119,2,2024-02-27T11:18:00.776Z,english_933.wav,0,peel,463,60,5,5,français,m,1,0.1,27.26905516,0.30219473
640095c783a33710a484adee,119,2,2024-02-27T11:18:00.776Z,english_933.wav,0,peel,463,60,5,5,français,m,2,0.2,0.35087756,1.50410475
640095c783a33710a484adee,119,2,2024-02-27T11:18:00.776Z,english_933.wav,0,peel,463,60,5,5,français,m,3,0.3,94.96402149,1.44820406
640095c783a33710a484adee,119,2,2024-02-27T11:18:00.776Z,english_933.wav,0,peel,463,60,5,5,français,m,4,0.32341667,61.52669097,0.05049928
640095c783a33710a484adee,120,2,2024-02-27T11:18:00.776Z,english_248.wav,0,pill,1060,60,5,5,français,m,0,0.0,62.49888219,0.01612638
640095c783a33710a484adee,120,2,2024-02-27T11:18:00.776Z,english_248.wav,0,pill,1060,60,5,5,français,m,1,0.1,-37.43052778,0.65001727
640095c783a33710a484adee,120,2,2024-02-27T11:18:00.776Z,english_248.wav,0,pill,1060,60,5,5,français,m,2,0.2,50.26474258,1.10053755
640095c783a33710a484adee,120,2,2024-02-27T11:18:00.776Z,english_248.wav,0,pill,1060,60,5,5,français,m,3,0.3,-90.47385391,0.93833438
640095c783a33710a484adee,120,2,2024-02-27T11:18:00.776Z,english_248.wav,0,pill,1060,60,5,5,français,m,4,0.32341667,-16.4169983,1.90627888
640095c783a33710a484adee,121,2,2024-02-27T11:18:00.776Z,english_818.wav,0,pill,696,60,5,5,français,m,0,0.0,88.49542613,1.4873036
640095c783a33710a484adee,121,2,2024-02-27T11:18:00.776Z,english_818.wav,0,pill,696,60,5,5,français,m,1,0.1,-7.37005163,1.25102077
640095c783a33710a484adee,121,2,2024-02-27T11:18:00.776Z,english_818.wav,0,pill,696,60,5,5,français,m,2,0.2,-1.58613611,0.80764036
640095c783a33710a484adee,121,2,2024-02-27T11:18:00.776Z,english_818.wav,0,pill,696,60,5,5,français,m,3,0.3,-69.41222379,0.80656775
640095c783a33710a484adee,121,2,2024-02-27T11:18:00.776Z,english_818.wav,0,pill,696,60,5,5,français,m,4,0.32341667,14.01707612,1.41859799
640095c783a33710a484adee,122,2,2024-02-27T11:18:00.776Z,english_887.wav,0,peel,674,60,5,5,français,m,0,0.0,21.36154006,0.58574694
640095c783a33710a484adee,122,2,2024-02-27T11:18:00.776Z,english_887.wav,0,peel,674,60,5,5,français,m,1,0.1,-21.46213737,0.48413962
640095c783a33710a484adee,122,2,2024-02-27T11:18:00.776Z,english_887.wav,0,peel,674,60,5,5,français,m,2,0.2,-45.53850124,1.16923549
640095c783a33710a484adee,122,2,2024-02-27T11:18:00.776Z,english_887.wav,0,peel,674,60,5,5,français,m,3,0.3,-75.36110743,1.46190157
640095c783a33710a484adee,122,2,2024-02-27T11:18:00.776Z,english_887.wav,0,peel,674,60,5,5,français,m,4,0.32341667,-96.67184991,0.00789239
640095c783a33710a484adee,123,2,2024-02-27T11:18:00.776Z,english_413.wav,0,peel,1185,60,5,5,français,m,0,0.0,-9.66675054,1.82887045
640095c783a33710a484adee,123,2,2024-02-27T11:18:00.776Z,english_413.wav,0,peel,1185,60,5,5,français,m,1,0.1,15.27504309,0.80668743
640095c783a33710a484adee,123,2,2024-02-27T11:18:00.776Z,english_413.wav,0,peel,1185,60,5,5,français,m,2,0.2,-94.93171401,0.90586838
640095c783a33710a484adee,123,2,2024-02-27T11:18:00.776Z,english_413.wav,0,peel,1185,60,5,5,français,m,3,0.3,-42.87800999,1.3937681
640095c783a33710a484adee,123,2,2024-02-27T11:18:00.776Z,english_413.wav,0,peel,1185,60,5,5,français,m,4,0.32341667,-63.39385234,0.34165264
640095c783a33710a484adee,124,2,2024-02-27T11:18:00.776Z,english_748.wav,0,peel,849,60,5,5,français,m,0,0.0,0.23647087,0.91094575
640095c783a33710a484adee,124,2,2024-02-27T11:18:00.776Z,english_748.wav,0,peel,849,60,5,5,français,m,1,0.1,45.60572596,1.68800655
640095c783a33710a484adee,124,2,2024-02-27T11:18:00.776Z,english_748.wav,0,peel,849,60,5,5,français,m,2,0.2,6.14588966,1.37684191
640095c783a33710a484adee,124,2,2024-02-27T11:18:00.776Z,english_748.wav,0,peel,849,60,5,5,français,m,3,0.3,-10.39850874,0.70556294
640095c783a33710a484adee,124,2,2024-02-27T11:18:00.776Z,english_748.wav,0,peel,849,60,5,5,français,m,4,0.32341667,-7.86503132,1.52987196
640095c783a33710a484adee,125,2,2024-02-27T11:18:00.776Z,english_558.wav,0,pill,657,60,5,5,français,m,0,0.0,-73.38624366,1.58797859
640095c783a33710a484adee,125,2,2024-02-27T11:18:00.776Z,english_558.wav,0,pill,657,60,5,5,français,m,1,0.1,-42.42633216,1.10525313
640095c783a33710a484adee,125,2,2024-02-27T11:18:00.776Z,english_558.wav,0,pill,657,60,5,5,français,m,2,0.2,15.99713578,0.42598769
640095c783a33710a484adee,125,2,2024-02-27T11:18:00.776Z,english_558.wav,0,pill,657,60,5,5,français,m,3,0.3,-33.12568725,0.25629603
640095c783a33710a484adee,125,2,2024-02-27T11:18:00.776Z,english_558.wav,0,pill,657,60,5,5,français,m,4,0.32341667,44.00446366,1.81995896
640095c783a33710a484adee,126,2,2024-02-27T11:18:00.776Z,english_287.wav,0,peel,574,60,5,5,français,m,0,0.0,-5.71925808,1.04112926
640095c783a33710a484adee,126,2,2024-02-27T11:18:00.776Z,english_287.wav,0,peel,574,60,5,5,français,m,1,0.1,-94.78041007,0.35149142
640095c783a33710a484adee,126,2,2024-02-27T11:18:00.776Z,english_287.wav,0,peel,574,60,5,5,français,m,2,0.2,8.34641368,0.86781598
640095c783a33710a484adee,126,2,2024-02-27T11:18:00.776Z,english_287.wav,0,peel,574,60,5,5,français,m,3,0.3,36.34893025,1.897904
640095c783a33710a484adee,126,2,2024-02-27T11:18:00.776Z,english_287.wav,0,peel,574,60,5,5,français,m,4,0.32341667,-22.47689594,0.5607403
640095c783a33710a484adee,127,2,2024-02-27T11:18:00.776Z,english_409.wav,0,pill,569,60,5,5,français,m,0,0.0,-24.04105399,0.29560797
640095c783a33710a484adee,127,2,2024-02-27T11:18:00.776Z,english_409.wav,0,pill,569,60,5,5,français,m,1,0.1,-26.67389605,1.53762848
640095c783a33710a484adee,127,2,2024-02-27T11:18:00.776Z,english_409.wav,0,pill,569,60,5,5,français,m,2,0.2,23.9966363,0.34602898
640095c783a33710a484adee,127,2,2024-02-27T11:18:00.776Z,english_409.wav,0,pill,569,60,5,5,français,m,3,0.3,16.61705293,1.21824435
640095c783a33710a484adee,127,2,2024-02-27T11:18:00.776Z,english_409.wav,0,pill,569,60,5,5,français,m,4,0.32341667,73.09980407,1.55330233
640095c783a33710a484adee,128,2,2024-02-27T11:18:00.776Z,english_622.wav,0,peel,725,60,5,5,français,m,0,0.0,-46.49267806,1.425187
640095c783a33710a484adee,128,2,2024-02-27T11:18:00.776Z,english_622.wav,0,peel,725,60,5,5,français,m,1,0.1,-80.07623079,0.61910367
640095c783a33710a484adee,128,2,2024-02-27T11:18:00.776Z,english_622.wav,0,peel,725,60,5,5,français,m,2,0.2,-28.70131311,1.30297951
640095c783a33710a484adee,128,2,2024-02-27T11:18:00.776Z,english_622.wav,0,peel,725,60,5,5,français,m,3,0.3,-26.89352847,1.73248838
640095c783a33710a484adee,128,2,2024-02-27T11:18:00.776Z,english_622.wav,0,peel,725,60,5,5,français,m,4,0.32341667,-24.31243398,0.85523545
640095c783a33710a484adee,129,2,2024-02-27T11:18:00.776Z,english_923.wav,0,pill,741,60,5,5,français,m,0,0.0,-0.59122564,1.19594648
640095c783a33710a484adee,129,2,2024-02-27T11:18:00.776Z,english_923.wav,0,pill,741,60,5,5,français,m,1,0.1,-5.70499959,1.05419104
640095c783a33710a484adee,129,2,2024-02-27T11:18:00.776Z,english_923.wav,0,pill,741,60,5,5,français,m,2,0.2,-29.88927864,0.73000078
640095c783a33710a484adee,129,2,2024-02-27T11:18:00.776Z,english_923.wav,0,pill,741,60,5,5,français,m,3,0.3,-82.02126299,1.36390543
640095c783a33710a484adee,129,2,2024-02-27T11:18:00.776Z,english_923.wav,0,pill,741,60,5,5,français,m,4,0.32341667,16.89967319,1.13865732
640095c783a33710a484adee,130,2,2024-02-27T11:18:00.776Z,english_92.wav,0,peel,511,60,5,5,français,m,0,0.0,31.88505953,1.50112375
640095c783a33710a484adee,130,2,2024-02-27T11:18:00.776Z,english_92.wav,0,peel,511,60,5,5,français,m,1,0.1,-5.62534355,0.35596674
640095c783a33710a484adee,130,2,2024-02-27T11:18:00.776Z,english_92.wav,0,peel,511,60,5,5,français,m,2,0.2,-66.19250112,1.12270031
640095c783a33710a484adee,130,2,2024-02-27T11:18:00.776Z,english_92.wav,0,peel,511,60,5,5,français,m,3,0.3,-77.62644198,1.09837269
640095c783a33710a484adee,130,2,2024-02-27T11:18:00.776Z,english_92.wav,0,peel,511,60,5,5,français,m,4,0.32341667,-66.61656061,1.16274455
640095c783a33710a484adee,131,2,2024-02-27T11:18:00.776Z,english_555.wav,0,peel,841,60,5,5,français,m,0,0.0,69.49762262,1.08530069
640095c783a33710a484adee,131,2,2024-02-27T11:18:00.776Z,english_555.wav,0,peel,841,60,5,5,français,m,1,0.1,42.72159746,0.99979939
640095c783a33710a484adee,131,2,2024-02-27T11:18:00.776Z,english_555.wav,0,peel,841,60,5,5,français,m,2,0.2,96.74773092,1.75882447
640095c783a33710a484adee,131,2,2024-02-27T11:18:00.776Z,english_555.wav,0,peel,841,60,5,5,français,m,3,0.3,-27.92411753,1.36775981
640095c783a33710a484adee,131,2,2024-02-27T11:18:00.776Z,english_555.wav,0,peel,841,60,5,5,français,m,4,0.32341667,33.93273626,0.90104071
640095c783a33710a484adee,132,2,2024-02-27T11:18:00.776Z,english_448.wav,0,peel,3150,60,5,5,français,m,0,0.0,0.37188167,1.15390094
640095c783a33710a484adee,132,2,2024-02-27T11:18:00.776Z,english_448.wav,0,peel,3150,60,5,5,français,m,1,0.1,-67.82723624,1.58767458
640095c783a33710a484adee,132,2,2024-02-27T11:18:00.776Z,english_448.wav,0,peel,3150,60,5,5,français,m,2,0.2,65.77705469,1.13313853
640095c783a33710a484adee,132,2,2024-02-27T11:18:00.776Z,english_448.wav,0,peel,3150,60,5,5,français,m,3,0.3,83.31626383,0.27075507
640095c783a33710a484adee,132,2,2024-02-27T11:18:00.776Z,english_448.wav,0,peel,3150,60,5,5,français,m,4,0.32341667,-27.56829045,1.20964916
640095c783a33710a484adee,133,2,2024-02-27T11:18:00.776Z,english_732.wav,0,pill,923,60,5,5,français,m,0,0.0,-12.49530298,1.28394154
640095c783a33710a484adee,133,2,2024-02-27T11:18:00.776Z,english_732.wav,0,pill,923,60,5,5,français,m,1,0.1,77.35683448,1.95772399
640095c783a33710a484adee,133,2,2024-02-27T11:18:00.776Z,english_732.wav,0,pill,923,60,5,5,français,m,2,0.2,46.14200593,1.14408971
640095c783a33710a484adee,133,2,2024-02-27T11:18:00.776Z,english_732.wav,0,pill,923,60,5,5,français,m,3,0.3,-17.19403126,0.21034957
640095c783a33710a484adee,133,2,2024-02-27T11:18:00.776Z,english_732.wav,0,pill,923,60,5,5,français,m,4,0.32341667,-81.60069167,0.50538316
640095c783a33710a484adee,134,2,2024-02-27T11:18:00.776Z,english_916.wav,0,peel,921,60,5,5,français,m,0,0.0,-50.62314768,0.5519299
640095c783a33710a484adee,134,2,2024-02-27T11:18:00.776Z,english_916.wav,0,peel,921,60,5,5,français,m,1,0.1,-52.55300278,1.16723516
640095c783a33710a484adee,134,2,2024-02-27T11:18:00.776Z,english_916.wav,0,peel,921,60,5,5,français,m,2,0.2,54.298582,1.72376738
640095c783a33710a484adee,134,2,2024-02-27T11:18:00.776Z,english_916.wav,0,peel,921,60,5,5,français,m,3,0.3,-23.99088857,0.41493786
640095c783a33710a484adee,134,2,2024-02-27T11:18:00.776Z,english_916.wav,0,peel,921,60,5,5,français,m,4,0.32341667,4.88948607,1.97918138
640095c783a33710a484adee,135,2,2024-02-27T11:18:00.776Z,english_704.wav,0,peel,677,60,5,5,français,m,0,0.0,-24.48288207,0.92043902
640095c783a33710a484adee,135,2,2024-02-27T11:18:00.776Z,english_704.wav,0,peel,677,60,5,5,français,m,1,0.1,-9.94163531,0.96595902
640095c783a33710a484adee,135,2,2024-02-27T11:18:00.776Z,english_704.wav,0,peel,677,60,5,5,français,m,2,0.2,74.85271107,1.40327859
640095c783a33710a484adee,135,2,2024-02-27T11:18:00.776Z,english_704.wav,0,peel,677,60,5,5,français,m,3,0.3,-38.44921803,1.07325586
640095c783a33710a484adee,135,2,2024-02-27T11:18:00.776Z,english_704.wav,0,peel,677,60,5,5,français,m,4,0.32341667,-21.20994959,1.87555588
640095c783a33710a484adee,136,2,2024-02-27T11:18:00.776Z,english_784.wav,0,peel,515,60,5,5,français,m,0,0.0,8.33598236,1.26617784
640095c783a33710a484adee,136,2,2024-02-27T11:18:00.776Z,english_784.wav,0,peel,515,60,5,5,français,m,1,0.1,-95.44591543,0.3784594
640095c783a33710a484adee,136,2,2024-02-27T11:18:00.776Z,english_784.wav,0,peel,515,60,5,5,français,m,2,0.2,-36.57026964,1.54775832
640095c783a33710a484adee,136,2,2024-02-27T11:18:00.776Z,english_784.wav,0,peel,515,60,5,5,français,m,3,0.3,21.49915707,0.94378056
640095c783a33710a484adee,136,2,2024-02-27T11:18:00.776Z,english_784.wav,0,peel,515,60,5,5,français,m,4,0.32341667,14.63720491,0.98781772
640095c783a33710a484adee,137,2,2024-02-27T11:18:00.776Z,english_122.wav,0,peel,2736,60,5,5,français,m,0,0.0,64.29837997,0.06121643
640095c783a33710a484adee,137,2,2024-02-27T11:18:00.776Z,english_122.wav,0,peel,2736,60,5,5,français,m,1,0.1,-6.72103776,1.56183773
640095c783a33710a484adee,137,2,2024-02-27T11:18:00.776Z,english_122.wav,0,peel,2736,60,5,5,français,m,2,0.2,34.67911304,1.3577209
640095c783a33710a484adee,137,2,2024-02-27T11:18:00.776Z,english_122.wav,0,peel,2736,60,5,5,français,m,3,0.3,25.29178735,0.94012362
640095c783a33710a484adee,137,2,2024-02-27T11:18:00.776Z,english_122.wav,0,peel,2736,60,5,5,français,m,4,0.32341667,-20.34954259,1.04570986
640095c783a33710a484adee,138,2,2024-02-27T11:18:00.776Z,english_649.wav,0,pill,598,60,5,5,français,m,0,0.0,65.82222467,0.56154429
640095c783a33710a484adee,138,2,2024-02-27T11:18:00.776Z,english_649.wav,0,pill,598,60,5,5,français,m,1,0.1,-9.35575527,0.64767017
640095c783a33710a484adee,138,2,2024-02-27T11:18:00.776Z,english_649.wav,0,pill,598,60,5,5,français,m,2,0.2,-91.83315911,0.84538271
640095c783a33710a484adee,138,2,2024-02-27T11:18:00.776Z,english_649.wav,0,pill,598,60,5,5,français,m,3,0.3,79.30022345,0.4979411
640095c783a33710a484adee,138,2,2024-02-27T11:18:00.776Z,english_649.wav,0,pill,598,60,5,5,français,m,4,0.32341667,45.86180924,0.89353148
640095c783a33710a484adee,139,2,2024-02-27T11:18:00.776Z,english_614.wav,0,peel,712,60,5,5,français,m,0,0.0,78.57791509,1.76663636
640095c783a33710a484adee,139,2,2024-02-27T11:18:00.776Z,english_614.wav,0,peel,712,60,5,5,français,m,1,0.1,-6.15631212,0.7337869
640095c783a33710a484adee,139,2,2024-02-27T11:18:00.776Z,english_614.wav,0,peel,712,60,5,5,français,m,2,0.2,-15.34092719,1.62880485
640095c783a33710a484adee,139,2,2024-02-27T11:18:00.776Z,english_614.wav,0,peel,712,60,5,5,français,m,3,0.3,21.91351344,0.61213133
640095c783a33710a484adee,139,2,2024-02-27T11:18:00.776Z,english_614.wav,0,peel,712,60,5,5,français,m,4,0.32341667,-10.50820757,0.41097232
640095c783a33710a484adee,140,2,2024-02-27T11:18:00.776Z,english_902.wav,0,peel,540,60,5,5,français,m,0,0.0,-4.27617126,0.16330526
640095c783a33710a484adee,140,2,2024-02-27T11:18:00.776Z,english_902.wav,0,peel,540,60,5,5,français,m,1,0.1,-5.01127315,0.62492789
640095c783a33710a484adee,140,2,2024-02-27T11:18:00.776Z,english_902.wav,0,peel,540,60,5,5,français,m,2,0.2,83.22080084,1.08638924
640095c783a33710a484adee,140,2,2024-02-27T11:18:00.776Z,english_902.wav,0,peel,540,60,5,5,français,m,3,0.3,77.56473772,1.61764227
640095c783a33710a484adee,140,2,2024-02-27T11:18:00.776Z,english_902.wav,0,peel,540,60,5,5,français,m,4,0.32341667,-13.02741535,1.72075309
640095c783a33710a484adee,141,2,2024-02-27T11:18:00.776Z,english_925.wav,0,pill,1001,60,5,5,français,m,0,0.0,-23.38055082,1.07708889
640095c783a33710a484adee,141,2,2024-02-27T11:18:00.776Z,english_925.wav,0,pill,1001,60,5,5,français,m,1,0.1,12.69502826,1.65606803
640095c783a33710a484adee,141,2,2024-02-27T11:18:00.776Z,english_925.wav,0,pill,1001,60,5,5,français,m,2,0.2,77.53463838,0.48648737
640095c783a33710a484adee,141,2,2024-02-27T11:18:00.776Z,english_925.wav,0,pill,1001,60,5,5,français,m,3,0.3,58.05299948,0.8939016
640095c783a33710a484adee,141,2,2024-02-27T11:18:00.776Z,english_925.wav,0,pill,1001,60,5,5,français,m,4,0.32341667,54.12197927,0.72199492
640095c783a33710a484adee,142,2,2024-02-27T11:18:00.776Z,english_115.wav,0,peel,867,60,5,5,français,m,0,0.0,-6.4126324,0.37361158
640095c783a33710a484adee,142,2,2024-02-27T11:18:00.776Z,english_115.wav,0,peel,867,60,5,5,français,m,1,0.1,-78.70213007,1.5865766
640095c783a33710a484adee,142,2,2024-02-27T11:18:00.776Z,english_115.wav,0,peel,867,60,5,5,français,m,2,0.2,-0.36204046,1.00360432
640095c783a33710a484adee,142,2,2024-02-27T11:18:00.776Z,english_115.wav,0,peel,867,60,5,5,français,m,3,0.3,-47.97210547,1.3933449
640095c783a33710a484adee,142,2,2024-02-27T11:18:00.776Z,english_115.wav,0,peel,867,60,5,5,français,m,4,0.32341667,3.06964689,1.1205092
640095c783a33710a484adee,143,2,2024-02-27T11:18:00.776Z,english_106.wav,0,peel,1155,60,5,5,français,m,0,0.0,-46.25200282,0.21046793
640095c783a33710a484adee,143,2,2024-02-27T11:18:00.776Z,english_106.wav,0,peel,1155,60,5,5,français,m,1,0.1,-83.38564728,1.42142181
640095c783a33710a484adee,143,2,2024-02-27T11:18:00.776Z,english_106.wav,0,peel,1155,60,5,5,français,m,2,0.2,68.00501759,0.86156936
640095c783a33710a484adee,143,2,2024-02-27T11:18:00.776Z,english_106.wav,0,peel,1155,60,5,5,français,m,3,0.3,49.15199267,0.65348811
640095c783a33710a484adee,143,2,2024-02-27T11:18:00.776Z,english_106.wav,0,peel,1155,60,5,5,français,m,4,0.32341667,-5.93966373,0.76273979
640095c783a33710a484adee,144,2,2024-02-27T11:18:00.776Z,english_960.wav,0,peel,459,60,5,5,français,m,0,0.0,35.80457434,0.79357899
640095c783a33710a484adee,144,2,2024-02-27T11:18:00.776Z,english_960.wav,0,peel,459,60,5,5,français,m,1,0.1,-19.98469691,0.63900775
640095c783a33710a484adee,144,2,2024-02-27T11:18:00.776Z,english_960.wav,0,peel,459,60,5,5,français,m,2,0.2,-8.88025322,1.83966222
640095c783a33710a484adee,144,2,2024-02-27T11:18:00.776Z,english_960.wav,0,peel,459,60,5,5,français,m,3,0.3,6.59365348,1.05168668
640095c783a33710a484adee,144,2,2024-02-27T11:18:00.776Z,english_960.wav,0,peel,459,60,5,5,français,m,4,0.32341667,64.0885905,1.66020449
640095c783a33710a484adee,145,2,2024-02-27T11:18:00.776Z,english_296.wav,0,pill,646,60,5,5,français,m,0,0.0,-4.92142852,1.99305172
640095c783a33710a484adee,145,2,2024-02-27T11:18:00.776Z,english_296.wav,0,pill,646,60,5,5,français,m,1,0.1,-5.74196289,0.92633133
640095c783a33710a484adee,145,2,2024-02-27T11:18:00.776Z,english_296.wav,0,pill,646,60,5,5,français,m,2,0.2,76.26647078,0.44879969
640095c783a33710a484adee,145,2,2024-02-27T11:18:00.776Z,english_296.wav,0,pill,646,60,5,5,français,m,3,0.3,-62.74030654,1.47417428
640095c783a33710a484adee,145,2,2024-02-27T11:18:00.776Z,english_296.wav,0,pill,646,60,5,5,français,m,4,0.32341667,-60.661992,1.05571007
640095c783a33710a484adee,146,2,2024-02-27T11:18:00.776Z,english_891.wav,0,pill,673,60,5,5,français,m,0,0.0,21.29241244,0.7419472
640095c783a33710a484adee,146,2,2024-02-27T11:18:00.776Z,english_891.wav,0,pill,673,60,5,5,français,m,1,0.1,-1.23713702,1.09270952
640095c783a33710a484adee,146,2,2024-02-27T11:18:00.776Z,english_891.wav,0,pill,673,60,5,5,français,m,2,0.2,-74.86460599,0.8129571
640095c783a33710a484adee,146,2,2024-02-27T11:18:00.776Z,english_891.wav,0,pill,673,60,5,5,français,m,3,0.3,18.81587233,0.16019775
640095c783a33710a484adee,146,2,2024-02-27T11:18:00.776Z,english_891.wav,0,pill,673,60,5,5,français,m,4,0.32341667,35.3489582,1.17476401
640095c783a33710a484adee,147,2,2024-02-27T11:18:00.776Z,english_490.wav,0,peel,350,60,5,5,français,m,0,0.0,39.23640548,0.12600295
640095c783a33710a484adee,147,2,2024-02-27T11:18:00.776Z,english_490.wav,0,peel,350,60,5,5,français,m,1,0.1,-42.18123516,0.88631808
640095c783a33710a484adee,147,2,2024-02-27T11:18:00.776Z,english_490.wav,0,peel,350,60,5,5,français,m,2,0.2,53.94030347,1.76218548
640095c783a33710a484adee,147,2,2024-02-27T11:18:00.776Z,english_490.wav,0,peel,350,60,5,5,français,m,3,0.3,-65.41993581,1.86160188
640095c783a33710a484adee,147,2,2024-02-27T11:18:00.776Z,english_490.wav,0,peel,350,60,5,5,français,m,4,0.32341667,90.15742696,1.03493088
640095c783a33710a484adee,148,2,2024-02-27T11:18:00.776Z,english_852.wav,0,pill,686,60,5,5,français,m,0,0.0,-59.21906832,1.76087743
640095c783a33710a484adee,148,2,2024-02-27T11:18:00.776Z,english_852.wav,0,pill,686,60,5,5,français,m,1,0.1,5.96662808,0.85304022
640095c783a33710a484adee,148,2,2024-02-27T11:18:00.776Z,english_852.wav,0,pill,686,60,5,5,français,m,2,0.2,12.29830648,0.5029047
640095c783a33710a484adee,148,2,2024-02-27T11:18:00.776Z,english_852.wav,0,pill,686,60,5,5,français,m,3,0.3,-98.20735767,0.66544939
640095c783a33710a484adee,148,2,2024-02-27T11:18:00.776Z,english_852.wav,0,pill,686,60,5,5,français,m,4,0.32341667,-0.5186354,0.26669214
640095c783a33710a484adee,149,2,2024-02-27T11:18:00.776Z,english_587.wav,0,peel,825,60,5,5,français,m,0,0.0,-33.32102811,0.7972352
640095c783a33710a484adee,149,2,2024-02-27T11:18:00.776Z,english_587.wav,0,peel,825,60,5,5,français,m,1,0.1,46.1287001,1.97425238
640095c783a33710a484adee,149,2,2024-02-27T11:18:00.776Z,english_587.wav,0,peel,825,60,5,5,français,m,2,0.2,-62.23894368,0.99609006
640095c783a33710a484adee,149,2,2024-02-27T11:18:00.776Z,english_587.wav,0,peel,825,60,5,5,français,m,3,0.3,36.67711132,1.18577707
640095c783a33710a484adee,149,2,2024-02-27T11:18:00.776Z,english_587.wav,0,peel,825,60,5,5,français,m,4,0.32341667,-11.53320103,1.64089558
640095c783a33710a484adee,150,3,2024-02-27T11:18:00.776Z,english_388.wav,0,peel,547,60,5,5,français,m,0,0.0,17.9760939,0.95494184
640095c783a33710a484adee,150,3,2024-02-27T11:18:00.776Z,english_388.wav,0,peel,547,60,5,5,français,m,1,0.1,-43.00340989,0.10281418
640095c783a33710a484adee,150,3,2024-02-27T11:18:00.776Z,english_388.wav,0,peel,547,60,5,5,français,m,2,0.2,-30.55059063,1.52164503
640095c783a33710a484adee,150,3,2024-02-27T11:18:00.776Z,english_388.wav,0,peel,547,60,5,5,français,m,3,0.3,-92.55876504,1.24827519
640095c783a33710a484adee,150,3,2024-02-27T11:18:00.776Z,english_388.wav,0,peel,547,60,5,5,français,m,4,0.32341667,-64.21175873,0.08180338
640095c783a33710a484adee,151,3,2024-02-27T11:18:00.776Z,english_158.wav,0,peel,2981,60,5,5,français,m,0,0.0,33.09785739,1.71128449
640095c783a33710a484adee,151,3,2024-02-27T11:18:00.776Z,english_158.wav,0,peel,2981,60,5,5,français,m,1,0.1,-85.08083727,1.56145129
640095c783a33710a484adee,151,3,2024-02-27T11:18:00.776Z,english_158.wav,0,peel,2981,60,5,5,français,m,2,0.2,97.70701203,0.69707892
640095c783a33710a484adee,151,3,2024-02-27T11:18:00.776Z,english_158.wav,0,peel,2981,60,5,5,français,m,3,0.3,2.54261044,1.19647348
640095c783a33710a484adee,151,3,2024-02-27T11:18:00.776Z,english_158.wav,0,peel,2981,60,5,5,français,m,4,0.32341667,-59.73934841,1.17782448
640095c783a33710a484adee,152,3,2024-02-27T11:18:00.776Z,english_998.wav,0,pill,1213,60,5,5,français,m,0,0.0,-57.03196796,0.0179282
640095c783a33710a484adee,152,3,2024-02-27T11:18:00.776Z,english_998.wav,0,pill,1213,60,5,5,français,m,1,0.1,-12.93623633,1.72217412
