subj,trial,block,date,stim,stim_order,response,rt,age,english,french,language,sex,param_index,segment,pitch,stretch
5c3fa4c5b1b52400013ba707,0,0,2024-02-27T11:08:09.835Z,english_624.wav,0,peel,4156,24,4,5,français,m,0,0.0,-66.94889137,0.79130031
5c3fa4c5b1b52400013ba707,0,0,2024-02-27T11:08:09.835Z,english_624.wav,0,peel,4156,24,4,5,français,m,1,0.1,-6.87427926,1.85178888
5c3fa4c5b1b52400013ba707,0,0,2024-02-27T11:08:09.835Z,english_624.wav,0,peel,4156,24,4,5,français,m,2,0.2,69.52298075,0.79988954
5c3fa4c5b1b52400013ba707,0,0,2024-02-27T11:08:09.835Z,english_624.wav,0,peel,4156,24,4,5,français,m,3,0.3,-45.26015132,0.87521033
5c3fa4c5b1b52400013ba707,0,0,2024-02-27T11:08:09.835Z,english_624.wav,0,peel,4156,24,4,5,français,m,4,0.32341667,-50.37935108,1.50754026
5c3fa4c5b1b52400013ba707,1,0,2024-02-27T11:08:09.835Z,english_323.wav,0,peel,9416,24,4,5,français,m,0,0.0,92.33188111,1.59668922
5c3fa4c5b1b52400013ba707,1,0,2024-02-27T11:08:09.835Z,english_323.wav,0,peel,9416,24,4,5,français,m,1,0.1,4.22577609,1.75306106
5c3fa4c5b1b52400013ba707,1,0,2024-02-27T11:08:09.835Z,english_323.wav,0,peel,9416,24,4,5,français,m,2,0.2,-35.48560344,1.06071567
5c3fa4c5b1b52400013ba707,1,0,2024-02-27T11:08:09.835Z,english_323.wav,0,peel,9416,24,4,5,français,m,3,0.3,7.73763769,1.9328625
5c3fa4c5b1b52400013ba707,1,0,2024-02-27T11:08:09.835Z,english_323.wav,0,peel,9416,24,4,5,français,m,4,0.32341667,55.62458321,1.27347405
5c3fa4c5b1b52400013ba707,2,0,2024-02-27T11:08:09.835Z,english_816.wav,0,peel,2471,24,4,5,français,m,0,0.0,-5.39935373,0.27372013
5c3fa4c5b1b52400013ba707,2,0,2024-02-27T11:08:09.835Z,english_816.wav,0,peel,2471,24,4,5,français,m,1,0.1,-58.12348851,1.23542608
5c3fa4c5b1b52400013ba707,2,0,2024-02-27T11:08:09.835Z,english_816.wav,0,peel,2471,24,4,5,français,m,2,0.2,-97.19740724,1.6956732
5c3fa4c5b1b52400013ba707,2,0,2024-02-27T11:08:09.835Z,english_816.wav,0,peel,2471,24,4,5,français,m,3,0.3,4.60418864,0.17466083
5c3fa4c5b1b52400013ba707,2,0,2024-02-27T11:08:09.835Z,english_816.wav,0,peel,2471,24,4,5,français,m,4,0.32341667,57.92285533,0.69657013
5c3fa4c5b1b52400013ba707,3,0,2024-02-27T11:08:09.835Z,english_540.wav,0,peel,1627,24,4,5,français,m,0,0.0,-46.6752609,1.16352469
5c3fa4c5b1b52400013ba707,3,0,2024-02-27T11:08:09.835Z,english_540.wav,0,peel,1627,24,4,5,français,m,1,0.1,-93.20209644,0.0234781
5c3fa4c5b1b52400013ba707,3,0,2024-02-27T11:08:09.835Z,english_540.wav,0,peel,1627,24,4,5,français,m,2,0.2,64.96419662,0.05926191
5c3fa4c5b1b52400013ba707,3,0,2024-02-27T11:08:09.835Z,english_540.wav,0,peel,1627,24,4,5,français,m,3,0.3,-12.16484387,1.47406284
5c3fa4c5b1b52400013ba707,3,0,2024-02-27T11:08:09.835Z,english_540.wav,0,peel,1627,24,4,5,français,m,4,0.32341667,-44.34688232,0.60104864
5c3fa4c5b1b52400013ba707,4,0,2024-02-27T11:08:09.835Z,english_526.wav,0,peel,713,24,4,5,français,m,0,0.0,-32.34532461,0.924261
5c3fa4c5b1b52400013ba707,4,0,2024-02-27T11:08:09.835Z,english_526.wav,0,peel,713,24,4,5,français,m,1,0.1,-46.6208459,0.25414499
5c3fa4c5b1b52400013ba707,4,0,2024-02-27T11:08:09.835Z,english_526.wav,0,peel,713,24,4,5,français,m,2,0.2,-42.84927068,1.01925886
5c3fa4c5b1b52400013ba707,4,0,2024-02-27T11:08:09.835Z,english_526.wav,0,peel,713,24,4,5,français,m,3,0.3,3.47643827,0.65966822
5c3fa4c5b1b52400013ba707,4,0,2024-02-27T11:08:09.835Z,english_526.wav,0,peel,713,24,4,5,français,m,4,0.32341667,52.79087598,1.50872035
5c3fa4c5b1b52400013ba707,5,0,2024-02-27T11:08:09.835Z,english_401.wav,0,peel,3425,24,4,5,français,m,0,0.0,-70.37998858,1.11338134
5c3fa4c5b1b52400013ba707,5,0,2024-02-27T11:08:09.835Z,english_401.wav,0,peel,3425,24,4,5,français,m,1,0.1,49.27188779,1.59691292
5c3fa4c5b1b52400013ba707,5,0,2024-02-27T11:08:09.835Z,english_401.wav,0,peel,3425,24,4,5,français,m,2,0.2,5.09566389,0.88679935
5c3fa4c5b1b52400013ba707,5,0,2024-02-27T11:08:09.835Z,english_401.wav,0,peel,3425,24,4,5,français,m,3,0.3,58.42368176,1.89749174
5c3fa4c5b1b52400013ba707,5,0,2024-02-27T11:08:09.835Z,english_401.wav,0,peel,3425,24,4,5,français,m,4,0.32341667,-43.06407799,1.35831765
5c3fa4c5b1b52400013ba707,6,0,2024-02-27T11:08:09.835Z,english_762.wav,0,pill,1790,24,4,5,français,m,0,0.0,-56.40971946,1.43822993
5c3fa4c5b1b52400013ba707,6,0,2024-02-27T11:08:09.835Z,english_762.wav,0,pill,1790,24,4,5,français,m,1,0.1,-9.09046034,1.11776807
5c3fa4c5b1b52400013ba707,6,0,2024-02-27T11:08:09.835Z,english_762.wav,0,pill,1790,24,4,5,français,m,2,0.2,20.98892014,0.71531135
5c3fa4c5b1b52400013ba707,6,0,2024-02-27T11:08:09.835Z,english_762.wav,0,pill,1790,24,4,5,français,m,3,0.3,-66.43296232,0.54997993
5c3fa4c5b1b52400013ba707,6,0,2024-02-27T11:08:09.835Z,english_762.wav,0,pill,1790,24,4,5,français,m,4,0.32341667,-91.78640069,0.26897274
5c3fa4c5b1b52400013ba707,7,0,2024-02-27T11:08:09.835Z,english_963.wav,0,peel,2855,24,4,5,français,m,0,0.0,-60.03327616,0.86711865
5c3fa4c5b1b52400013ba707,7,0,2024-02-27T11:08:09.835Z,english_963.wav,0,peel,2855,24,4,5,français,m,1,0.1,-15.51067414,1.69273621
5c3fa4c5b1b52400013ba707,7,0,2024-02-27T11:08:09.835Z,english_963.wav,0,peel,2855,24,4,5,français,m,2,0.2,59.36715957,0.74157302
5c3fa4c5b1b52400013ba707,7,0,2024-02-27T11:08:09.835Z,english_963.wav,0,peel,2855,24,4,5,français,m,3,0.3,-98.70464219,1.73078555
5c3fa4c5b1b52400013ba707,7,0,2024-02-27T11:08:09.835Z,english_963.wav,0,peel,2855,24,4,5,français,m,4,0.32341667,37.26723218,1.37482324
5c3fa4c5b1b52400013ba707,8,0,2024-02-27T11:08:09.835Z,english_3.wav,0,peel,1838,24,4,5,français,m,0,0.0,-57.66547148,1.73485112
5c3fa4c5b1b52400013ba707,8,0,2024-02-27T11:08:09.835Z,english_3.wav,0,peel,1838,24,4,5,français,m,1,0.1,-70.60568286,1.4226462
5c3fa4c5b1b52400013ba707,8,0,2024-02-27T11:08:09.835Z,english_3.wav,0,peel,1838,24,4,5,français,m,2,0.2,70.86912423,1.06235888
5c3fa4c5b1b52400013ba707,8,0,2024-02-27T11:08:09.835Z,english_3.wav,0,peel,1838,24,4,5,français,m,3,0.3,-17.39285893,1.05619652
5c3fa4c5b1b52400013ba707,8,0,2024-02-27T11:08:09.835Z,english_3.wav,0,peel,1838,24,4,5,français,m,4,0.32341667,-60.61780379,1.35606233
5c3fa4c5b1b52400013ba707,9,0,2024-02-27T11:08:09.835Z,english_980.wav,0,pill,1606,24,4,5,français,m,0,0.0,-32.33629208,1.21290567
5c3fa4c5b1b52400013ba707,9,0,2024-02-27T11:08:09.835Z,english_980.wav,0,pill,1606,24,4,5,français,m,1,0.1,-4.4140807,0.22350007
5c3fa4c5b1b52400013ba707,9,0,2024-02-27T11:08:09.835Z,english_980.wav,0,pill,1606,24,4,5,français,m,2,0.2,76.81412515,1.68078519
5c3fa4c5b1b52400013ba707,9,0,2024-02-27T11:08:09.835Z,english_980.wav,0,pill,1606,24,4,5,français,m,3,0.3,-16.24877133,0.16816052
5c3fa4c5b1b52400013ba707,9,0,2024-02-27T11:08:09.835Z,english_980.wav,0,pill,1606,24,4,5,français,m,4,0.32341667,-26.44128118,1.48722631
5c3fa4c5b1b52400013ba707,10,0,2024-02-27T11:08:09.835Z,english_907.wav,0,peel,2344,24,4,5,français,m,0,0.0,13.97638225,0.68575839
5c3fa4c5b1b52400013ba707,10,0,2024-02-27T11:08:09.835Z,english_907.wav,0,peel,2344,24,4,5,français,m,1,0.1,36.81481791,1.58611259
5c3fa4c5b1b52400013ba707,10,0,2024-02-27T11:08:09.835Z,english_907.wav,0,peel,2344,24,4,5,français,m,2,0.2,1.21651202,1.59547025
5c3fa4c5b1b52400013ba707,10,0,2024-02-27T11:08:09.835Z,english_907.wav,0,peel,2344,24,4,5,français,m,3,0.3,35.47405672,0.75888392
5c3fa4c5b1b52400013ba707,10,0,2024-02-27T11:08:09.835Z,english_907.wav,0,peel,2344,24,4,5,français,m,4,0.32341667,-27.93760057,0.06937964
5c3fa4c5b1b52400013ba707,11,0,2024-02-27T11:08:09.835Z,english_639.wav,0,peel,779,24,4,5,français,m,0,0.0,-8.64176861,1.80061108
5c3fa4c5b1b52400013ba707,11,0,2024-02-27T11:08:09.835Z,english_639.wav,0,peel,779,24,4,5,français,m,1,0.1,-2.28240571,0.32075858
5c3fa4c5b1b52400013ba707,11,0,2024-02-27T11:08:09.835Z,english_639.wav,0,peel,779,24,4,5,français,m,2,0.2,61.07673865,0.35362442
5c3fa4c5b1b52400013ba707,11,0,2024-02-27T11:08:09.835Z,english_639.wav,0,peel,779,24,4,5,français,m,3,0.3,-20.33592136,1.48415136
5c3fa4c5b1b52400013ba707,11,0,2024-02-27T11:08:09.835Z,english_639.wav,0,peel,779,24,4,5,français,m,4,0.32341667,-24.05835486,0.14560931
5c3fa4c5b1b52400013ba707,12,0,2024-02-27T11:08:09.835Z,english_147.wav,0,pill,955,24,4,5,français,m,0,0.0,-14.37625717,1.08714974
5c3fa4c5b1b52400013ba707,12,0,2024-02-27T11:08:09.835Z,english_147.wav,0,pill,955,24,4,5,français,m,1,0.1,-48.99147792,1.05600262
5c3fa4c5b1b52400013ba707,12,0,2024-02-27T11:08:09.835Z,english_147.wav,0,pill,955,24,4,5,français,m,2,0.2,-76.025031,0.62193731
5c3fa4c5b1b52400013ba707,12,0,2024-02-27T11:08:09.835Z,english_147.wav,0,pill,955,24,4,5,français,m,3,0.3,-4.271985,1.23272935
5c3fa4c5b1b52400013ba707,12,0,2024-02-27T11:08:09.835Z,english_147.wav,0,pill,955,24,4,5,français,m,4,0.32341667,90.36670579,0.90867663
5c3fa4c5b1b52400013ba707,13,0,2024-02-27T11:08:09.835Z,english_856.wav,0,pill,906,24,4,5,français,m,0,0.0,-44.08940674,1.51880133
5c3fa4c5b1b52400013ba707,13,0,2024-02-27T11:08:09.835Z,english_856.wav,0,pill,906,24,4,5,français,m,1,0.1,-25.77644107,0.99524475
5c3fa4c5b1b52400013ba707,13,0,2024-02-27T11:08:09.835Z,english_856.wav,0,pill,906,24,4,5,français,m,2,0.2,6.39263247,1.11391415
5c3fa4c5b1b52400013ba707,13,0,2024-02-27T11:08:09.835Z,english_856.wav,0,pill,906,24,4,5,français,m,3,0.3,92.67536145,0.95575529
5c3fa4c5b1b52400013ba707,13,0,2024-02-27T11:08:09.835Z,english_856.wav,0,pill,906,24,4,5,français,m,4,0.32341667,45.15991817,1.02944292
5c3fa4c5b1b52400013ba707,14,0,2024-02-27T11:08:09.835Z,english_589.wav,0,peel,980,24,4,5,français,m,0,0.0,58.55453646,1.98928345
5c3fa4c5b1b52400013ba707,14,0,2024-02-27T11:08:09.835Z,english_589.wav,0,peel,980,24,4,5,français,m,1,0.1,30.45164265,1.49107718
5c3fa4c5b1b52400013ba707,14,0,2024-02-27T11:08:09.835Z,english_589.wav,0,peel,980,24,4,5,français,m,2,0.2,-45.43400091,0.52639062
5c3fa4c5b1b52400013ba707,14,0,2024-02-27T11:08:09.835Z,english_589.wav,0,peel,980,24,4,5,français,m,3,0.3,84.99084473,0.34590986
5c3fa4c5b1b52400013ba707,14,0,2024-02-27T11:08:09.835Z,english_589.wav,0,peel,980,24,4,5,français,m,4,0.32341667,65.45411119,0.67022481
5c3fa4c5b1b52400013ba707,15,0,2024-02-27T11:08:09.835Z,english_937.wav,0,peel,4207,24,4,5,français,m,0,0.0,76.77394395,1.55370699
5c3fa4c5b1b52400013ba707,15,0,2024-02-27T11:08:09.835Z,english_937.wav,0,peel,4207,24,4,5,français,m,1,0.1,49.33576264,1.82028848
5c3fa4c5b1b52400013ba707,15,0,2024-02-27T11:08:09.835Z,english_937.wav,0,peel,4207,24,4,5,français,m,2,0.2,-87.39935237,1.42487505
5c3fa4c5b1b52400013ba707,15,0,2024-02-27T11:08:09.835Z,english_937.wav,0,peel,4207,24,4,5,français,m,3,0.3,11.02170053,0.87896062
5c3fa4c5b1b52400013ba707,15,0,2024-02-27T11:08:09.835Z,english_937.wav,0,peel,4207,24,4,5,français,m,4,0.32341667,91.99381322,0.96516852
5c3fa4c5b1b52400013ba707,16,0,2024-02-27T11:08:09.835Z,english_898.wav,0,pill,2801,24,4,5,français,m,0,0.0,77.23607787,0.41308158
5c3fa4c5b1b52400013ba707,16,0,2024-02-27T11:08:09.835Z,english_898.wav,0,pill,2801,24,4,5,français,m,1,0.1,-36.99854877,1.59324842
5c3fa4c5b1b52400013ba707,16,0,2024-02-27T11:08:09.835Z,english_898.wav,0,pill,2801,24,4,5,français,m,2,0.2,16.09723403,1.42339693
5c3fa4c5b1b52400013ba707,16,0,2024-02-27T11:08:09.835Z,english_898.wav,0,pill,2801,24,4,5,français,m,3,0.3,29.12208023,1.17478291
5c3fa4c5b1b52400013ba707,16,0,2024-02-27T11:08:09.835Z,english_898.wav,0,pill,2801,24,4,5,français,m,4,0.32341667,-69.45423228,1.88393163
5c3fa4c5b1b52400013ba707,17,0,2024-02-27T11:08:09.835Z,english_237.wav,0,pill,1057,24,4,5,français,m,0,0.0,-40.35335157,0.42178982
5c3fa4c5b1b52400013ba707,17,0,2024-02-27T11:08:09.835Z,english_237.wav,0,pill,1057,24,4,5,français,m,1,0.1,42.86374565,0.6060796
5c3fa4c5b1b52400013ba707,17,0,2024-02-27T11:08:09.835Z,english_237.wav,0,pill,1057,24,4,5,français,m,2,0.2,7.79480372,0.58312984
5c3fa4c5b1b52400013ba707,17,0,2024-02-27T11:08:09.835Z,english_237.wav,0,pill,1057,24,4,5,français,m,3,0.3,-48.50613844,1.50499267
5c3fa4c5b1b52400013ba707,17,0,2024-02-27T11:08:09.835Z,english_237.wav,0,pill,1057,24,4,5,français,m,4,0.32341667,17.78174719,1.72211243
5c3fa4c5b1b52400013ba707,18,0,2024-02-27T11:08:09.835Z,english_507.wav,0,peel,781,24,4,5,français,m,0,0.0,-61.1842488,1.97653192
5c3fa4c5b1b52400013ba707,18,0,2024-02-27T11:08:09.835Z,english_507.wav,0,peel,781,24,4,5,français,m,1,0.1,-67.40048172,1.52355847
5c3fa4c5b1b52400013ba707,18,0,2024-02-27T11:08:09.835Z,english_507.wav,0,peel,781,24,4,5,français,m,2,0.2,12.41471853,0.98006415
5c3fa4c5b1b52400013ba707,18,0,2024-02-27T11:08:09.835Z,english_507.wav,0,peel,781,24,4,5,français,m,3,0.3,-23.82579329,0.44372312
5c3fa4c5b1b52400013ba707,18,0,2024-02-27T11:08:09.835Z,english_507.wav,0,peel,781,24,4,5,français,m,4,0.32341667,9.53005369,0.65281453
5c3fa4c5b1b52400013ba707,19,0,2024-02-27T11:08:09.835Z,english_982.wav,0,pill,828,24,4,5,français,m,0,0.0,12.44046596,0.81508625
5c3fa4c5b1b52400013ba707,19,0,2024-02-27T11:08:09.835Z,english_982.wav,0,pill,828,24,4,5,français,m,1,0.1,-60.41666302,0.92712357
5c3fa4c5b1b52400013ba707,19,0,2024-02-27T11:08:09.835Z,english_982.wav,0,pill,828,24,4,5,français,m,2,0.2,-35.31499742,0.77678916
5c3fa4c5b1b52400013ba707,19,0,2024-02-27T11:08:09.835Z,english_982.wav,0,pill,828,24,4,5,français,m,3,0.3,-10.96739076,1.0294352
5c3fa4c5b1b52400013ba707,19,0,2024-02-27T11:08:09.835Z,english_982.wav,0,pill,828,24,4,5,français,m,4,0.32341667,44.50624474,1.1322674
5c3fa4c5b1b52400013ba707,20,0,2024-02-27T11:08:09.835Z,english_971.wav,0,pill,2214,24,4,5,français,m,0,0.0,27.0641734,0.01013217
5c3fa4c5b1b52400013ba707,20,0,2024-02-27T11:08:09.835Z,english_971.wav,0,pill,2214,24,4,5,français,m,1,0.1,-43.13434162,0.95424486
5c3fa4c5b1b52400013ba707,20,0,2024-02-27T11:08:09.835Z,english_971.wav,0,pill,2214,24,4,5,français,m,2,0.2,83.45364082,1.16332163
5c3fa4c5b1b52400013ba707,20,0,2024-02-27T11:08:09.835Z,english_971.wav,0,pill,2214,24,4,5,français,m,3,0.3,46.6736971,0.56494555
5c3fa4c5b1b52400013ba707,20,0,2024-02-27T11:08:09.835Z,english_971.wav,0,pill,2214,24,4,5,français,m,4,0.32341667,-28.9166607,0.73596031
5c3fa4c5b1b52400013ba707,21,0,2024-02-27T11:08:09.835Z,english_959.wav,0,peel,3572,24,4,5,français,m,0,0.0,-78.42285057,1.71892855
5c3fa4c5b1b52400013ba707,21,0,2024-02-27T11:08:09.835Z,english_959.wav,0,peel,3572,24,4,5,français,m,1,0.1,6.44734251,1.96402951
5c3fa4c5b1b52400013ba707,21,0,2024-02-27T11:08:09.835Z,english_959.wav,0,peel,3572,24,4,5,français,m,2,0.2,20.74966326,0.26247596
5c3fa4c5b1b52400013ba707,21,0,2024-02-27T11:08:09.835Z,english_959.wav,0,peel,3572,24,4,5,français,m,3,0.3,-29.69680039,1.29464598
5c3fa4c5b1b52400013ba707,21,0,2024-02-27T11:08:09.835Z,english_959.wav,0,peel,3572,24,4,5,français,m,4,0.32341667,34.2282551,1.77868038
5c3fa4c5b1b52400013ba707,22,0,2024-02-27T11:08:09.835Z,english_64.wav,0,pill,1781,24,4,5,français,m,0,0.0,-77.75081389,0.01503168
5c3fa4c5b1b52400013ba707,22,0,2024-02-27T11:08:09.835Z,english_64.wav,0,pill,1781,24,4,5,français,m,1,0.1,47.79712302,0.51971923
5c3fa4c5b1b52400013ba707,22,0,2024-02-27T11:08:09.835Z,english_64.wav,0,pill,1781,24,4,5,français,m,2,0.2,-98.04646937,1.01128345
5c3fa4c5b1b52400013ba707,22,0,2024-02-27T11:08:09.835Z,english_64.wav,0,pill,1781,24,4,5,français,m,3,0.3,-20.17707595,0.69563875
5c3fa4c5b1b52400013ba707,22,0,2024-02-27T11:08:09.835Z,english_64.wav,0,pill,1781,24,4,5,français,m,4,0.32341667,53.05828969,1.51814807
5c3fa4c5b1b52400013ba707,23,0,2024-02-27T11:08:09.835Z,english_320.wav,0,pill,3636,24,4,5,français,m,0,0.0,-85.59568725,1.40519879
5c3fa4c5b1b52400013ba707,23,0,2024-02-27T11:08:09.835Z,english_320.wav,0,pill,3636,24,4,5,français,m,1,0.1,-85.79055124,0.4213256
5c3fa4c5b1b52400013ba707,23,0,2024-02-27T11:08:09.835Z,english_320.wav,0,pill,3636,24,4,5,français,m,2,0.2,-34.52195848,0.82537755
5c3fa4c5b1b52400013ba707,23,0,2024-02-27T11:08:09.835Z,english_320.wav,0,pill,3636,24,4,5,français,m,3,0.3,14.03031204,0.50617831
5c3fa4c5b1b52400013ba707,23,0,2024-02-27T11:08:09.835Z,english_320.wav,0,pill,3636,24,4,5,français,m,4,0.32341667,45.83597199,1.22725326
5c3fa4c5b1b52400013ba707,24,0,2024-02-27T11:08:09.835Z,english_746.wav,0,peel,956,24,4,5,français,m,0,0.0,-1.32395796,1.72273729
5c3fa4c5b1b52400013ba707,24,0,2024-02-27T11:08:09.835Z,english_746.wav,0,peel,956,24,4,5,français,m,1,0.1,-67.07117971,1.22961235
5c3fa4c5b1b52400013ba707,24,0,2024-02-27T11:08:09.835Z,english_746.wav,0,peel,956,24,4,5,français,m,2,0.2,75.09604974,1.29107068
5c3fa4c5b1b52400013ba707,24,0,2024-02-27T11:08:09.835Z,english_746.wav,0,peel,956,24,4,5,français,m,3,0.3,-48.59278454,1.34694816
5c3fa4c5b1b52400013ba707,24,0,2024-02-27T11:08:09.835Z,english_746.wav,0,peel,956,24,4,5,français,m,4,0.32341667,-6.52080997,0.94274536
5c3fa4c5b1b52400013ba707,25,0,2024-02-27T11:08:09.835Z,english_178.wav,0,peel,894,24,4,5,français,m,0,0.0,-14.41838744,0.71193749
5c3fa4c5b1b52400013ba707,25,0,2024-02-27T11:08:09.835Z,english_178.wav,0,peel,894,24,4,5,français,m,1,0.1,64.59665955,0.54024543
5c3fa4c5b1b52400013ba707,25,0,2024-02-27T11:08:09.835Z,english_178.wav,0,peel,894,24,4,5,français,m,2,0.2,-96.76492712,1.78065704
5c3fa4c5b1b52400013ba707,25,0,2024-02-27T11:08:09.835Z,english_178.wav,0,peel,894,24,4,5,français,m,3,0.3,-50.00654232,1.40559917
5c3fa4c5b1b52400013ba707,25,0,2024-02-27T11:08:09.835Z,english_178.wav,0,peel,894,24,4,5,français,m,4,0.32341667,42.56426636,0.99785593
5c3fa4c5b1b52400013ba707,26,0,2024-02-27T11:08:09.835Z,english_74.wav,0,peel,660,24,4,5,français,m,0,0.0,86.29588785,1.196208
5c3fa4c5b1b52400013ba707,26,0,2024-02-27T11:08:09.835Z,english_74.wav,0,peel,660,24,4,5,français,m,1,0.1,-14.52381687,1.63208143
5c3fa4c5b1b52400013ba707,26,0,2024-02-27T11:08:09.835Z,english_74.wav,0,peel,660,24,4,5,français,m,2,0.2,77.94321906,0.46125368
5c3fa4c5b1b52400013ba707,26,0,2024-02-27T11:08:09.835Z,english_74.wav,0,peel,660,24,4,5,français,m,3,0.3,-32.33104188,1.38278461
5c3fa4c5b1b52400013ba707,26,0,2024-02-27T11:08:09.835Z,english_74.wav,0,peel,660,24,4,5,français,m,4,0.32341667,9.46602754,0.83147108
5c3fa4c5b1b52400013ba707,27,0,2024-02-27T11:08:09.835Z,english_520.wav,0,peel,1999,24,4,5,français,m,0,0.0,86.3711843,1.94117834
5c3fa4c5b1b52400013ba707,27,0,2024-02-27T11:08:09.835Z,english_520.wav,0,peel,1999,24,4,5,français,m,1,0.1,30.73905166,1.71866566
5c3fa4c5b1b52400013ba707,27,0,2024-02-27T11:08:09.835Z,english_520.wav,0,peel,1999,24,4,5,français,m,2,0.2,6.06230503,1.15295637
5c3fa4c5b1b52400013ba707,27,0,2024-02-27T11:08:09.835Z,english_520.wav,0,peel,1999,24,4,5,français,m,3,0.3,-72.93527416,0.80072648
5c3fa4c5b1b52400013ba707,27,0,2024-02-27T11:08:09.835Z,english_520.wav,0,peel,1999,24,4,5,français,m,4,0.32341667,40.17700679,1.71054199
5c3fa4c5b1b52400013ba707,28,0,2024-02-27T11:08:09.835Z,english_383.wav,0,pill,916,24,4,5,français,m,0,0.0,-1.49759031,0.61403304
5c3fa4c5b1b52400013ba707,28,0,2024-02-27T11:08:09.835Z,english_383.wav,0,pill,916,24,4,5,français,m,1,0.1,48.0809444,0.69225556
5c3fa4c5b1b52400013ba707,28,0,2024-02-27T11:08:09.835Z,english_383.wav,0,pill,916,24,4,5,français,m,2,0.2,-84.09524499,0.33452268
5c3fa4c5b1b52400013ba707,28,0,2024-02-27T11:08:09.835Z,english_383.wav,0,pill,916,24,4,5,français,m,3,0.3,95.23220486,1.06792504
5c3fa4c5b1b52400013ba707,28,0,2024-02-27T11:08:09.835Z,english_383.wav,0,pill,916,24,4,5,français,m,4,0.32341667,64.91086902,0.58483827
5c3fa4c5b1b52400013ba707,29,0,2024-02-27T11:08:09.835Z,english_793.wav,0,pill,698,24,4,5,français,m,0,0.0,-3.59370976,0.95327953
5c3fa4c5b1b52400013ba707,29,0,2024-02-27T11:08:09.835Z,english_793.wav,0,pill,698,24,4,5,français,m,1,0.1,-92.44382947,0.8890172
5c3fa4c5b1b52400013ba707,29,0,2024-02-27T11:08:09.835Z,english_793.wav,0,pill,698,24,4,5,français,m,2,0.2,-89.84008222,0.47547445
5c3fa4c5b1b52400013ba707,29,0,2024-02-27T11:08:09.835Z,english_793.wav,0,pill,698,24,4,5,français,m,3,0.3,96.09352514,1.09208031
5c3fa4c5b1b52400013ba707,29,0,2024-02-27T11:08:09.835Z,english_793.wav,0,pill,698,24,4,5,français,m,4,0.32341667,42.94050617,0.63383093
5c3fa4c5b1b52400013ba707,30,0,2024-02-27T11:08:09.835Z,english_1.wav,0,peel,802,24,4,5,français,m,0,0.0,53.99031816,1.91732561
5c3fa4c5b1b52400013ba707,30,0,2024-02-27T11:08:09.835Z,english_1.wav,0,peel,802,24,4,5,français,m,1,0.1,-58.32145174,0.75352701
5c3fa4c5b1b52400013ba707,30,0,2024-02-27T11:08:09.835Z,english_1.wav,0,peel,802,24,4,5,français,m,2,0.2,-86.75659624,1.40297919
5c3fa4c5b1b52400013ba707,30,0,2024-02-27T11:08:09.835Z,english_1.wav,0,peel,802,24,4,5,français,m,3,0.3,-31.84945767,0.12157709
5c3fa4c5b1b52400013ba707,30,0,2024-02-27T11:08:09.835Z,english_1.wav,0,peel,802,24,4,5,français,m,4,0.32341667,-59.21997754,1.57687546
5c3fa4c5b1b52400013ba707,31,0,2024-02-27T11:08:09.835Z,english_349.wav,0,pill,5421,24,4,5,français,m,0,0.0,-10.00495534,0.36915768
5c3fa4c5b1b52400013ba707,31,0,2024-02-27T11:08:09.835Z,english_349.wav,0,pill,5421,24,4,5,français,m,1,0.1,54.31199814,0.83111041
5c3fa4c5b1b52400013ba707,31,0,2024-02-27T11:08:09.835Z,english_349.wav,0,pill,5421,24,4,5,français,m,2,0.2,48.17968705,1.70147194
5c3fa4c5b1b52400013ba707,31,0,2024-02-27T11:08:09.835Z,english_349.wav,0,pill,5421,24,4,5,français,m,3,0.3,8.48926652,1.08588898
5c3fa4c5b1b52400013ba707,31,0,2024-02-27T11:08:09.835Z,english_349.wav,0,pill,5421,24,4,5,français,m,4,0.32341667,42.05620052,0.02584958
5c3fa4c5b1b52400013ba707,32,0,2024-02-27T11:08:09.835Z,english_989.wav,0,pill,740,24,4,5,français,m,0,0.0,-51.1051603,1.00035195
5c3fa4c5b1b52400013ba707,32,0,2024-02-27T11:08:09.835Z,english_989.wav,0,pill,740,24,4,5,français,m,1,0.1,-91.26717948,0.46124463
5c3fa4c5b1b52400013ba707,32,0,2024-02-27T11:08:09.835Z,english_989.wav,0,pill,740,24,4,5,français,m,2,0.2,73.5145218,0.77735517
5c3fa4c5b1b52400013ba707,32,0,2024-02-27T11:08:09.835Z,english_989.wav,0,pill,740,24,4,5,français,m,3,0.3,54.43703181,1.21549894
5c3fa4c5b1b52400013ba707,32,0,2024-02-27T11:08:09.835Z,english_989.wav,0,pill,740,24,4,5,français,m,4,0.32341667,-36.95823638,0.33045291
5c3fa4c5b1b52400013ba707,33,0,2024-02-27T11:08:09.835Z,english_310.wav,0,peel,807,24,4,5,français,m,0,0.0,82.1385274,0.14341218
5c3fa4c5b1b52400013ba707,33,0,2024-02-27T11:08:09.835Z,english_310.wav,0,peel,807,24,4,5,français,m,1,0.1,-33.74608058,1.80934389
5c3fa4c5b1b52400013ba707,33,0,2024-02-27T11:08:09.835Z,english_310.wav,0,peel,807,24,4,5,français,m,2,0.2,62.12487376,1.28785402
5c3fa4c5b1b52400013ba707,33,0,2024-02-27T11:08:09.835Z,english_310.wav,0,peel,807,24,4,5,français,m,3,0.3,96.31437548,1.13060378
5c3fa4c5b1b52400013ba707,33,0,2024-02-27T11:08:09.835Z,english_310.wav,0,peel,807,24,4,5,français,m,4,0.32341667,-23.64802517,1.05137249
5c3fa4c5b1b52400013ba707,34,0,2024-02-27T11:08:09.835Z,english_544.wav,0,peel,751,24,4,5,français,m,0,0.0,96.80704334,1.85115917
5c3fa4c5b1b52400013ba707,34,0,2024-02-27T11:08:09.835Z,english_544.wav,0,peel,751,24,4,5,français,m,1,0.1,70.5198752,0.8718407
5c3fa4c5b1b52400013ba707,34,0,2024-02-27T11:08:09.835Z,english_544.wav,0,peel,751,24,4,5,français,m,2,0.2,78.21609099,1.82238935
5c3fa4c5b1b52400013ba707,34,0,2024-02-27T11:08:09.835Z,english_544.wav,0,peel,751,24,4,5,français,m,3,0.3,-95.7752672,0.25719172
5c3fa4c5b1b52400013ba707,34,0,2024-02-27T11:08:09.835Z,english_544.wav,0,peel,751,24,4,5,français,m,4,0.32341667,-56.58918052,0.72929157
5c3fa4c5b1b52400013ba707,35,0,2024-02-27T11:08:09.835Z,english_646.wav,0,peel,631,24,4,5,français,m,0,0.0,65.65927644,1.85038449
5c3fa4c5b1b52400013ba707,35,0,2024-02-27T11:08:09.835Z,english_646.wav,0,peel,631,24,4,5,français,m,1,0.1,-31.23211399,1.10748568
5c3fa4c5b1b52400013ba707,35,0,2024-02-27T11:08:09.835Z,english_646.wav,0,peel,631,24,4,5,français,m,2,0.2,62.59110385,1.14052106
5c3fa4c5b1b52400013ba707,35,0,2024-02-27T11:08:09.835Z,english_646.wav,0,peel,631,24,4,5,français,m,3,0.3,-86.43369357,1.38971404
5c3fa4c5b1b52400013ba707,35,0,2024-02-27T11:08:09.835Z,english_646.wav,0,peel,631,24,4,5,français,m,4,0.32341667,41.84315348,0.49971738
5c3fa4c5b1b52400013ba707,36,0,2024-02-27T11:08:09.835Z,english_238.wav,0,pill,1386,24,4,5,français,m,0,0.0,87.78466979,1.0750983
5c3fa4c5b1b52400013ba707,36,0,2024-02-27T11:08:09.835Z,english_238.wav,0,pill,1386,24,4,5,français,m,1,0.1,65.39287108,0.03626896
5c3fa4c5b1b52400013ba707,36,0,2024-02-27T11:08:09.835Z,english_238.wav,0,pill,1386,24,4,5,français,m,2,0.2,-38.39100082,1.9832234
5c3fa4c5b1b52400013ba707,36,0,2024-02-27T11:08:09.835Z,english_238.wav,0,pill,1386,24,4,5,français,m,3,0.3,-20.01297649,0.17604691
5c3fa4c5b1b52400013ba707,36,0,2024-02-27T11:08:09.835Z,english_238.wav,0,pill,1386,24,4,5,français,m,4,0.32341667,78.31880556,1.61383808
5c3fa4c5b1b52400013ba707,37,0,2024-02-27T11:08:09.835Z,english_836.wav,0,pill,885,24,4,5,français,m,0,0.0,34.85846782,1.04017402
5c3fa4c5b1b52400013ba707,37,0,2024-02-27T11:08:09.835Z,english_836.wav,0,pill,885,24,4,5,français,m,1,0.1,41.54458908,0.35535359
5c3fa4c5b1b52400013ba707,37,0,2024-02-27T11:08:09.835Z,english_836.wav,0,pill,885,24,4,5,français,m,2,0.2,23.27363575,0.10471693
5c3fa4c5b1b52400013ba707,37,0,2024-02-27T11:08:09.835Z,english_836.wav,0,pill,885,24,4,5,français,m,3,0.3,86.83996211,0.55523491
5c3fa4c5b1b52400013ba707,37,0,2024-02-27T11:08:09.835Z,english_836.wav,0,pill,885,24,4,5,français,m,4,0.32341667,-32.25656931,0.70311776
5c3fa4c5b1b52400013ba707,38,0,2024-02-27T11:08:09.835Z,english_220.wav,0,pill,2106,24,4,5,français,m,0,0.0,-49.83323752,1.6244524
5c3fa4c5b1b52400013ba707,38,0,2024-02-27T11:08:09.835Z,english_220.wav,0,pill,2106,24,4,5,français,m,1,0.1,49.13629021,0.7812698
5c3fa4c5b1b52400013ba707,38,0,2024-02-27T11:08:09.835Z,english_220.wav,0,pill,2106,24,4,5,français,m,2,0.2,10.673463,1.29736816
5c3fa4c5b1b52400013ba707,38,0,2024-02-27T11:08:09.835Z,english_220.wav,0,pill,2106,24,4,5,français,m,3,0.3,-2.35218347,1.3419496
5c3fa4c5b1b52400013ba707,38,0,2024-02-27T11:08:09.835Z,english_220.wav,0,pill,2106,24,4,5,français,m,4,0.32341667,-2.61587219,1.06575232
5c3fa4c5b1b52400013ba707,39,0,2024-02-27T11:08:09.835Z,english_792.wav,0,peel,4034,24,4,5,français,m,0,0.0,-56.39949456,1.32676777
5c3fa4c5b1b52400013ba707,39,0,2024-02-27T11:08:09.835Z,english_792.wav,0,peel,4034,24,4,5,français,m,1,0.1,-76.36067248,1.08004851
5c3fa4c5b1b52400013ba707,39,0,2024-02-27T11:08:09.835Z,english_792.wav,0,peel,4034,24,4,5,français,m,2,0.2,-58.44160547,1.5809308
5c3fa4c5b1b52400013ba707,39,0,2024-02-27T11:08:09.835Z,english_792.wav,0,peel,4034,24,4,5,français,m,3,0.3,25.29086486,0.16508433
5c3fa4c5b1b52400013ba707,39,0,2024-02-27T11:08:09.835Z,english_792.wav,0,peel,4034,24,4,5,français,m,4,0.32341667,-6.58788169,1.18870574
5c3fa4c5b1b52400013ba707,40,0,2024-02-27T11:08:09.835Z,english_921.wav,0,pill,536,24,4,5,français,m,0,0.0,60.93482672,0.06624465
5c3fa4c5b1b52400013ba707,40,0,2024-02-27T11:08:09.835Z,english_921.wav,0,pill,536,24,4,5,français,m,1,0.1,-71.63665921,1.88925143
5c3fa4c5b1b52400013ba707,40,0,2024-02-27T11:08:09.835Z,english_921.wav,0,pill,536,24,4,5,français,m,2,0.2,-30.77028929,0.40013084
5c3fa4c5b1b52400013ba707,40,0,2024-02-27T11:08:09.835Z,english_921.wav,0,pill,536,24,4,5,français,m,3,0.3,-44.68164597,1.26601564
5c3fa4c5b1b52400013ba707,40,0,2024-02-27T11:08:09.835Z,english_921.wav,0,pill,536,24,4,5,français,m,4,0.32341667,34.59415858,1.98956357
5c3fa4c5b1b52400013ba707,41,0,2024-02-27T11:08:09.835Z,english_249.wav,0,peel,1026,24,4,5,français,m,0,0.0,78.40227579,1.91339694
5c3fa4c5b1b52400013ba707,41,0,2024-02-27T11:08:09.835Z,english_249.wav,0,peel,1026,24,4,5,français,m,1,0.1,-55.1129652,1.00834957
5c3fa4c5b1b52400013ba707,41,0,2024-02-27T11:08:09.835Z,english_249.wav,0,peel,1026,24,4,5,français,m,2,0.2,6.74447168,0.29418026
5c3fa4c5b1b52400013ba707,41,0,2024-02-27T11:08:09.835Z,english_249.wav,0,peel,1026,24,4,5,français,m,3,0.3,27.3376716,1.53256547
5c3fa4c5b1b52400013ba707,41,0,2024-02-27T11:08:09.835Z,english_249.wav,0,peel,1026,24,4,5,français,m,4,0.32341667,-97.08031886,0.99264532
5c3fa4c5b1b52400013ba707,42,0,2024-02-27T11:08:09.835Z,english_765.wav,0,pill,1101,24,4,5,français,m,0,0.0,-52.71695997,0.24697616
5c3fa4c5b1b52400013ba707,42,0,2024-02-27T11:08:09.835Z,english_765.wav,0,pill,1101,24,4,5,français,m,1,0.1,-0.72548599,1.34458244
5c3fa4c5b1b52400013ba707,42,0,2024-02-27T11:08:09.835Z,english_765.wav,0,pill,1101,24,4,5,français,m,2,0.2,-25.46106624,0.2833524
5c3fa4c5b1b52400013ba707,42,0,2024-02-27T11:08:09.835Z,english_765.wav,0,pill,1101,24,4,5,français,m,3,0.3,-15.36834083,0.99517128
5c3fa4c5b1b52400013ba707,42,0,2024-02-27T11:08:09.835Z,english_765.wav,0,pill,1101,24,4,5,français,m,4,0.32341667,-34.08212533,0.81265208
5c3fa4c5b1b52400013ba707,43,0,2024-02-27T11:08:09.835Z,english_236.wav,0,pill,938,24,4,5,français,m,0,0.0,14.26564849,0.89253674
5c3fa4c5b1b52400013ba707,43,0,2024-02-27T11:08:09.835Z,english_236.wav,0,pill,938,24,4,5,français,m,1,0.1,60.97219358,0.38957934
5c3fa4c5b1b52400013ba707,43,0,2024-02-27T11:08:09.835Z,english_236.wav,0,pill,938,24,4,5,français,m,2,0.2,-12.39626346,1.55558051
5c3fa4c5b1b52400013ba707,43,0,2024-02-27T11:08:09.835Z,english_236.wav,0,pill,938,24,4,5,français,m,3,0.3,-62.87774076,0.2682718
5c3fa4c5b1b52400013ba707,43,0,2024-02-27T11:08:09.835Z,english_236.wav,0,pill,938,24,4,5,français,m,4,0.32341667,-75.97684705,1.92182597
5c3fa4c5b1b52400013ba707,44,0,2024-02-27T11:08:09.835Z,english_885.wav,0,pill,9596,24,4,5,français,m,0,0.0,36.3288655,0.78617108
5c3fa4c5b1b52400013ba707,44,0,2024-02-27T11:08:09.835Z,english_885.wav,0,pill,9596,24,4,5,français,m,1,0.1,-33.4786966,0.96292114
5c3fa4c5b1b52400013ba707,44,0,2024-02-27T11:08:09.835Z,english_885.wav,0,pill,9596,24,4,5,français,m,2,0.2,8.05827153,0.70266535
5c3fa4c5b1b52400013ba707,44,0,2024-02-27T11:08:09.835Z,english_885.wav,0,pill,9596,24,4,5,français,m,3,0.3,84.98004341,0.45613544
5c3fa4c5b1b52400013ba707,44,0,2024-02-27T11:08:09.835Z,english_885.wav,0,pill,9596,24,4,5,français,m,4,0.32341667,-34.65749493,0.81873504
5c3fa4c5b1b52400013ba707,45,0,2024-02-27T11:08:09.835Z,english_400.wav,0,pill,541,24,4,5,français,m,0,0.0,-9.17924521,1.06898792
5c3fa4c5b1b52400013ba707,45,0,2024-02-27T11:08:09.835Z,english_400.wav,0,pill,541,24,4,5,français,m,1,0.1,-51.0410118,0.05890524
5c3fa4c5b1b52400013ba707,45,0,2024-02-27T11:08:09.835Z,english_400.wav,0,pill,541,24,4,5,français,m,2,0.2,66.2548805,1.54728483
5c3fa4c5b1b52400013ba707,45,0,2024-02-27T11:08:09.835Z,english_400.wav,0,pill,541,24,4,5,français,m,3,0.3,92.33374018,1.43953162
5c3fa4c5b1b52400013ba707,45,0,2024-02-27T11:08:09.835Z,english_400.wav,0,pill,541,24,4,5,français,m,4,0.32341667,-60.80730989,1.12546459
5c3fa4c5b1b52400013ba707,46,0,2024-02-27T11:08:09.835Z,english_226.wav,0,pill,863,24,4,5,français,m,0,0.0,-56.53605181,0.51185795
5c3fa4c5b1b52400013ba707,46,0,2024-02-27T11:08:09.835Z,english_226.wav,0,pill,863,24,4,5,français,m,1,0.1,-5.93547338,0.73377568
5c3fa4c5b1b52400013ba707,46,0,2024-02-27T11:08:09.835Z,english_226.wav,0,pill,863,24,4,5,français,m,2,0.2,-81.0596442,1.62034912
5c3fa4c5b1b52400013ba707,46,0,2024-02-27T11:08:09.835Z,english_226.wav,0,pill,863,24,4,5,français,m,3,0.3,-12.14261426,0.19474782
5c3fa4c5b1b52400013ba707,46,0,2024-02-27T11:08:09.835Z,english_226.wav,0,pill,863,24,4,5,français,m,4,0.32341667,40.67667876,0.1395898
5c3fa4c5b1b52400013ba707,47,0,2024-02-27T11:08:09.835Z,english_394.wav,0,pill,3431,24,4,5,français,m,0,0.0,73.08757955,1.29313131
5c3fa4c5b1b52400013ba707,47,0,2024-02-27T11:08:09.835Z,english_394.wav,0,pill,3431,24,4,5,français,m,1,0.1,5.60908311,0.62691873
5c3fa4c5b1b52400013ba707,47,0,2024-02-27T11:08:09.835Z,english_394.wav,0,pill,3431,24,4,5,français,m,2,0.2,76.56705043,1.4938005
5c3fa4c5b1b52400013ba707,47,0,2024-02-27T11:08:09.835Z,english_394.wav,0,pill,3431,24,4,5,français,m,3,0.3,18.85166324,1.2266925
5c3fa4c5b1b52400013ba707,47,0,2024-02-27T11:08:09.835Z,english_394.wav,0,pill,3431,24,4,5,français,m,4,0.32341667,8.45052692,0.67844158
5c3fa4c5b1b52400013ba707,48,0,2024-02-27T11:08:09.835Z,english_11.wav,0,pill,935,24,4,5,français,m,0,0.0,-20.45826732,1.19869378
5c3fa4c5b1b52400013ba707,48,0,2024-02-27T11:08:09.835Z,english_11.wav,0,pill,935,24,4,5,français,m,1,0.1,-31.26113472,0.2059713
5c3fa4c5b1b52400013ba707,48,0,2024-02-27T11:08:09.835Z,english_11.wav,0,pill,935,24,4,5,français,m,2,0.2,84.03210455,0.62296143
5c3fa4c5b1b52400013ba707,48,0,2024-02-27T11:08:09.835Z,english_11.wav,0,pill,935,24,4,5,français,m,3,0.3,30.35463164,1.49781179
5c3fa4c5b1b52400013ba707,48,0,2024-02-27T11:08:09.835Z,english_11.wav,0,pill,935,24,4,5,français,m,4,0.32341667,-63.36217442,0.18750748
5c3fa4c5b1b52400013ba707,49,0,2024-02-27T11:08:09.835Z,english_490.wav,0,pill,4145,24,4,5,français,m,0,0.0,39.23640548,0.12600295
5c3fa4c5b1b52400013ba707,49,0,2024-02-27T11:08:09.835Z,english_490.wav,0,pill,4145,24,4,5,français,m,1,0.1,-42.18123516,0.88631808
5c3fa4c5b1b52400013ba707,49,0,2024-02-27T11:08:09.835Z,english_490.wav,0,pill,4145,24,4,5,français,m,2,0.2,53.94030347,1.76218548
5c3fa4c5b1b52400013ba707,49,0,2024-02-27T11:08:09.835Z,english_490.wav,0,pill,4145,24,4,5,français,m,3,0.3,-65.41993581,1.86160188
5c3fa4c5b1b52400013ba707,49,0,2024-02-27T11:08:09.835Z,english_490.wav,0,pill,4145,24,4,5,français,m,4,0.32341667,90.15742696,1.03493088
5c3fa4c5b1b52400013ba707,50,1,2024-02-27T11:08:09.835Z,english_728.wav,0,peel,820,24,4,5,français,m,0,0.0,-6.4565561,1.7247049
5c3fa4c5b1b52400013ba707,50,1,2024-02-27T11:08:09.835Z,english_728.wav,0,peel,820,24,4,5,français,m,1,0.1,2.02882612,1.95158608
5c3fa4c5b1b52400013ba707,50,1,2024-02-27T11:08:09.835Z,english_728.wav,0,peel,820,24,4,5,français,m,2,0.2,-40.29513079,0.21085377
5c3fa4c5b1b52400013ba707,50,1,2024-02-27T11:08:09.835Z,english_728.wav,0,peel,820,24,4,5,français,m,3,0.3,-29.37287389,0.85434083
5c3fa4c5b1b52400013ba707,50,1,2024-02-27T11:08:09.835Z,english_728.wav,0,peel,820,24,4,5,français,m,4,0.32341667,-32.17490136,1.52436666
5c3fa4c5b1b52400013ba707,51,1,2024-02-27T11:08:09.835Z,english_738.wav,0,peel,771,24,4,5,français,m,0,0.0,-37.88087101,1.83397703
5c3fa4c5b1b52400013ba707,51,1,2024-02-27T11:08:09.835Z,english_738.wav,0,peel,771,24,4,5,français,m,1,0.1,-16.85966727,1.52099356
5c3fa4c5b1b52400013ba707,51,1,2024-02-27T11:08:09.835Z,english_738.wav,0,peel,771,24,4,5,français,m,2,0.2,-79.76891938,1.69283951
5c3fa4c5b1b52400013ba707,51,1,2024-02-27T11:08:09.835Z,english_738.wav,0,peel,771,24,4,5,français,m,3,0.3,-82.30918252,1.81957343
5c3fa4c5b1b52400013ba707,51,1,2024-02-27T11:08:09.835Z,english_738.wav,0,peel,771,24,4,5,français,m,4,0.32341667,59.65991076,0.75908376
5c3fa4c5b1b52400013ba707,52,1,2024-02-27T11:08:09.835Z,english_818.wav,0,peel,1072,24,4,5,français,m,0,0.0,88.49542613,1.4873036
5c3fa4c5b1b52400013ba707,52,1,2024-02-27T11:08:09.835Z,english_818.wav,0,peel,1072,24,4,5,français,m,1,0.1,-7.37005163,1.25102077
5c3fa4c5b1b52400013ba707,52,1,2024-02-27T11:08:09.835Z,english_818.wav,0,peel,1072,24,4,5,français,m,2,0.2,-1.58613611,0.80764036
5c3fa4c5b1b52400013ba707,52,1,2024-02-27T11:08:09.835Z,english_818.wav,0,peel,1072,24,4,5,français,m,3,0.3,-69.41222379,0.80656775
5c3fa4c5b1b52400013ba707,52,1,2024-02-27T11:08:09.835Z,english_818.wav,0,peel,1072,24,4,5,français,m,4,0.32341667,14.01707612,1.41859799
5c3fa4c5b1b52400013ba707,53,1,2024-02-27T11:08:09.835Z,english_207.wav,0,pill,594,24,4,5,français,m,0,0.0,-64.55688296,1.06406661
5c3fa4c5b1b52400013ba707,53,1,2024-02-27T11:08:09.835Z,english_207.wav,0,pill,594,24,4,5,français,m,1,0.1,98.33987034,1.58122859
5c3fa4c5b1b52400013ba707,53,1,2024-02-27T11:08:09.835Z,english_207.wav,0,pill,594,24,4,5,français,m,2,0.2,-40.48281934,1.31381917
5c3fa4c5b1b52400013ba707,53,1,2024-02-27T11:08:09.835Z,english_207.wav,0,pill,594,24,4,5,français,m,3,0.3,-36.48143513,0.83233835
5c3fa4c5b1b52400013ba707,53,1,2024-02-27T11:08:09.835Z,english_207.wav,0,pill,594,24,4,5,français,m,4,0.32341667,-87.11188062,0.12663517
5c3fa4c5b1b52400013ba707,54,1,2024-02-27T11:08:09.835Z,english_659.wav,0,pill,1425,24,4,5,français,m,0,0.0,-86.13080632,0.77157019
5c3fa4c5b1b52400013ba707,54,1,2024-02-27T11:08:09.835Z,english_659.wav,0,pill,1425,24,4,5,français,m,1,0.1,39.51927718,1.34569204
5c3fa4c5b1b52400013ba707,54,1,2024-02-27T11:08:09.835Z,english_659.wav,0,pill,1425,24,4,5,français,m,2,0.2,-6.22185106,0.71695874
5c3fa4c5b1b52400013ba707,54,1,2024-02-27T11:08:09.835Z,english_659.wav,0,pill,1425,24,4,5,français,m,3,0.3,5.64287294,1.04110125
5c3fa4c5b1b52400013ba707,54,1,2024-02-27T11:08:09.835Z,english_659.wav,0,pill,1425,24,4,5,français,m,4,0.32341667,47.08694279,1.84115141
5c3fa4c5b1b52400013ba707,55,1,2024-02-27T11:08:09.835Z,english_403.wav,0,pill,1973,24,4,5,français,m,0,0.0,-92.65414009,1.93574734
5c3fa4c5b1b52400013ba707,55,1,2024-02-27T11:08:09.835Z,english_403.wav,0,pill,1973,24,4,5,français,m,1,0.1,75.99659731,0.36447309
5c3fa4c5b1b52400013ba707,55,1,2024-02-27T11:08:09.835Z,english_403.wav,0,pill,1973,24,4,5,français,m,2,0.2,-27.37801557,1.02888701
5c3fa4c5b1b52400013ba707,55,1,2024-02-27T11:08:09.835Z,english_403.wav,0,pill,1973,24,4,5,français,m,3,0.3,-80.04540334,0.02385722
5c3fa4c5b1b52400013ba707,55,1,2024-02-27T11:08:09.835Z,english_403.wav,0,pill,1973,24,4,5,français,m,4,0.32341667,30.50648557,1.40553938
5c3fa4c5b1b52400013ba707,56,1,2024-02-27T11:08:09.835Z,english_457.wav,0,pill,4504,24,4,5,français,m,0,0.0,-73.30847947,0.35525387
5c3fa4c5b1b52400013ba707,56,1,2024-02-27T11:08:09.835Z,english_457.wav,0,pill,4504,24,4,5,français,m,1,0.1,-25.74413936,0.90483023
5c3fa4c5b1b52400013ba707,56,1,2024-02-27T11:08:09.835Z,english_457.wav,0,pill,4504,24,4,5,français,m,2,0.2,8.82772976,1.30004432
5c3fa4c5b1b52400013ba707,56,1,2024-02-27T11:08:09.835Z,english_457.wav,0,pill,4504,24,4,5,français,m,3,0.3,-2.30416086,0.93422762
5c3fa4c5b1b52400013ba707,56,1,2024-02-27T11:08:09.835Z,english_457.wav,0,pill,4504,24,4,5,français,m,4,0.32341667,-34.04493945,1.31504388
5c3fa4c5b1b52400013ba707,57,1,2024-02-27T11:08:09.835Z,english_690.wav,0,peel,903,24,4,5,français,m,0,0.0,33.047654,1.58265684
5c3fa4c5b1b52400013ba707,57,1,2024-02-27T11:08:09.835Z,english_690.wav,0,peel,903,24,4,5,français,m,1,0.1,0.0212167444,0.6931717
5c3fa4c5b1b52400013ba707,57,1,2024-02-27T11:08:09.835Z,english_690.wav,0,peel,903,24,4,5,français,m,2,0.2,21.343237,1.47002515
5c3fa4c5b1b52400013ba707,57,1,2024-02-27T11:08:09.835Z,english_690.wav,0,peel,903,24,4,5,français,m,3,0.3,35.4710796,1.9856235
5c3fa4c5b1b52400013ba707,57,1,2024-02-27T11:08:09.835Z,english_690.wav,0,peel,903,24,4,5,français,m,4,0.323416667,79.4400816,1.00479917
5c3fa4c5b1b52400013ba707,58,1,2024-02-27T11:08:09.835Z,english_456.wav,0,pill,744,24,4,5,français,m,0,0.0,43.57092671,0.12750432
5c3fa4c5b1b52400013ba707,58,1,2024-02-27T11:08:09.835Z,english_456.wav,0,pill,744,24,4,5,français,m,1,0.1,59.73787768,0.97340157
5c3fa4c5b1b52400013ba707,58,1,2024-02-27T11:08:09.835Z,english_456.wav,0,pill,744,24,4,5,français,m,2,0.2,82.18665257,0.43547726
5c3fa4c5b1b52400013ba707,58,1,2024-02-27T11:08:09.835Z,english_456.wav,0,pill,744,24,4,5,français,m,3,0.3,84.09992258,1.17970357
5c3fa4c5b1b52400013ba707,58,1,2024-02-27T11:08:09.835Z,english_456.wav,0,pill,744,24,4,5,français,m,4,0.32341667,14.68455092,0.64309566
5c3fa4c5b1b52400013ba707,59,1,2024-02-27T11:08:09.835Z,english_742.wav,0,pill,946,24,4,5,français,m,0,0.0,12.62363586,1.26368295
5c3fa4c5b1b52400013ba707,59,1,2024-02-27T11:08:09.835Z,english_742.wav,0,pill,946,24,4,5,français,m,1,0.1,23.02085171,0.7448394
5c3fa4c5b1b52400013ba707,59,1,2024-02-27T11:08:09.835Z,english_742.wav,0,pill,946,24,4,5,français,m,2,0.2,23.36423086,0.05261082
5c3fa4c5b1b52400013ba707,59,1,2024-02-27T11:08:09.835Z,english_742.wav,0,pill,946,24,4,5,français,m,3,0.3,97.70614946,1.01748925
5c3fa4c5b1b52400013ba707,59,1,2024-02-27T11:08:09.835Z,english_742.wav,0,pill,946,24,4,5,français,m,4,0.32341667,-25.72861775,0.88645775
5c3fa4c5b1b52400013ba707,60,1,2024-02-27T11:08:09.835Z,english_621.wav,0,peel,8173,24,4,5,français,m,0,0.0,-58.25251841,1.01186344
5c3fa4c5b1b52400013ba707,60,1,2024-02-27T11:08:09.835Z,english_621.wav,0,peel,8173,24,4,5,français,m,1,0.1,21.8974524,1.03560921
5c3fa4c5b1b52400013ba707,60,1,2024-02-27T11:08:09.835Z,english_621.wav,0,peel,8173,24,4,5,français,m,2,0.2,-22.03552483,0.97057504
5c3fa4c5b1b52400013ba707,60,1,2024-02-27T11:08:09.835Z,english_621.wav,0,peel,8173,24,4,5,français,m,3,0.3,-56.80446909,1.33131235
5c3fa4c5b1b52400013ba707,60,1,2024-02-27T11:08:09.835Z,english_621.wav,0,peel,8173,24,4,5,français,m,4,0.32341667,-23.41760562,0.49151525
5c3fa4c5b1b52400013ba707,61,1,2024-02-27T11:08:09.835Z,english_199.wav,0,pill,1171,24,4,5,français,m,0,0.0,-24.89956817,0.07306367
5c3fa4c5b1b52400013ba707,61,1,2024-02-27T11:08:09.835Z,english_199.wav,0,pill,1171,24,4,5,français,m,1,0.1,-48.49200931,0.10334581
5c3fa4c5b1b52400013ba707,61,1,2024-02-27T11:08:09.835Z,english_199.wav,0,pill,1171,24,4,5,français,m,2,0.2,-89.66548778,1.49062114
5c3fa4c5b1b52400013ba707,61,1,2024-02-27T11:08:09.835Z,english_199.wav,0,pill,1171,24,4,5,français,m,3,0.3,29.20785813,0.36717513
5c3fa4c5b1b52400013ba707,61,1,2024-02-27T11:08:09.835Z,english_199.wav,0,pill,1171,24,4,5,français,m,4,0.32341667,-88.68286362,1.33179809
5c3fa4c5b1b52400013ba707,62,1,2024-02-27T11:08:09.835Z,english_324.wav,0,pill,744,24,4,5,français,m,0,0.0,49.07155908,0.10864525
5c3fa4c5b1b52400013ba707,62,1,2024-02-27T11:08:09.835Z,english_324.wav,0,pill,744,24,4,5,français,m,1,0.1,-58.77252084,1.61132735
5c3fa4c5b1b52400013ba707,62,1,2024-02-27T11:08:09.835Z,english_324.wav,0,pill,744,24,4,5,français,m,2,0.2,-55.40155542,0.60180616
5c3fa4c5b1b52400013ba707,62,1,2024-02-27T11:08:09.835Z,english_324.wav,0,pill,744,24,4,5,français,m,3,0.3,19.02224292,0.93555132
5c3fa4c5b1b52400013ba707,62,1,2024-02-27T11:08:09.835Z,english_324.wav,0,pill,744,24,4,5,français,m,4,0.32341667,21.20382854,0.34417591
5c3fa4c5b1b52400013ba707,63,1,2024-02-27T11:08:09.835Z,english_459.wav,0,pill,608,24,4,5,français,m,0,0.0,30.23503988,1.42205963
5c3fa4c5b1b52400013ba707,63,1,2024-02-27T11:08:09.835Z,english_459.wav,0,pill,608,24,4,5,français,m,1,0.1,-58.09525271,0.13069666
5c3fa4c5b1b52400013ba707,63,1,2024-02-27T11:08:09.835Z,english_459.wav,0,pill,608,24,4,5,français,m,2,0.2,22.03715272,0.55220733
5c3fa4c5b1b52400013ba707,63,1,2024-02-27T11:08:09.835Z,english_459.wav,0,pill,608,24,4,5,français,m,3,0.3,-33.09468511,0.48840502
5c3fa4c5b1b52400013ba707,63,1,2024-02-27T11:08:09.835Z,english_459.wav,0,pill,608,24,4,5,français,m,4,0.32341667,-9.46836848,1.08918734
5c3fa4c5b1b52400013ba707,64,1,2024-02-27T11:08:09.835Z,english_351.wav,0,peel,712,24,4,5,français,m,0,0.0,-56.55455818,0.98366365
5c3fa4c5b1b52400013ba707,64,1,2024-02-27T11:08:09.835Z,english_351.wav,0,peel,712,24,4,5,français,m,1,0.1,-81.1333892,1.13800808
5c3fa4c5b1b52400013ba707,64,1,2024-02-27T11:08:09.835Z,english_351.wav,0,peel,712,24,4,5,français,m,2,0.2,70.95296343,1.04915948
5c3fa4c5b1b52400013ba707,64,1,2024-02-27T11:08:09.835Z,english_351.wav,0,peel,712,24,4,5,français,m,3,0.3,-82.79021433,1.70890302
5c3fa4c5b1b52400013ba707,64,1,2024-02-27T11:08:09.835Z,english_351.wav,0,peel,712,24,4,5,français,m,4,0.32341667,-21.34496407,1.83807055
5c3fa4c5b1b52400013ba707,65,1,2024-02-27T11:08:09.835Z,english_326.wav,0,peel,8680,24,4,5,français,m,0,0.0,-13.70476372,1.64570887
5c3fa4c5b1b52400013ba707,65,1,2024-02-27T11:08:09.835Z,english_326.wav,0,peel,8680,24,4,5,français,m,1,0.1,47.7156259,0.91266102
5c3fa4c5b1b52400013ba707,65,1,2024-02-27T11:08:09.835Z,english_326.wav,0,peel,8680,24,4,5,français,m,2,0.2,23.24839736,0.36997562
5c3fa4c5b1b52400013ba707,65,1,2024-02-27T11:08:09.835Z,english_326.wav,0,peel,8680,24,4,5,français,m,3,0.3,67.08212267,1.96258237
5c3fa4c5b1b52400013ba707,65,1,2024-02-27T11:08:09.835Z,english_326.wav,0,peel,8680,24,4,5,français,m,4,0.32341667,78.79356023,1.01334204
5c3fa4c5b1b52400013ba707,66,1,2024-02-27T11:08:09.835Z,english_977.wav,0,peel,541,24,4,5,français,m,0,0.0,63.46196139,0.87194913
5c3fa4c5b1b52400013ba707,66,1,2024-02-27T11:08:09.835Z,english_977.wav,0,peel,541,24,4,5,français,m,1,0.1,-23.64022125,1.67919547
5c3fa4c5b1b52400013ba707,66,1,2024-02-27T11:08:09.835Z,english_977.wav,0,peel,541,24,4,5,français,m,2,0.2,31.65242203,0.97011806
5c3fa4c5b1b52400013ba707,66,1,2024-02-27T11:08:09.835Z,english_977.wav,0,peel,541,24,4,5,français,m,3,0.3,16.19881364,1.40431802
5c3fa4c5b1b52400013ba707,66,1,2024-02-27T11:08:09.835Z,english_977.wav,0,peel,541,24,4,5,français,m,4,0.32341667,-33.08554183,1.02563167
5c3fa4c5b1b52400013ba707,67,1,2024-02-27T11:08:09.835Z,english_197.wav,0,peel,942,24,4,5,français,m,0,0.0,-60.72223742,1.8449777
5c3fa4c5b1b52400013ba707,67,1,2024-02-27T11:08:09.835Z,english_197.wav,0,peel,942,24,4,5,français,m,1,0.1,-88.93421142,1.74693134
5c3fa4c5b1b52400013ba707,67,1,2024-02-27T11:08:09.835Z,english_197.wav,0,peel,942,24,4,5,français,m,2,0.2,51.43827126,1.11057597
5c3fa4c5b1b52400013ba707,67,1,2024-02-27T11:08:09.835Z,english_197.wav,0,peel,942,24,4,5,français,m,3,0.3,7.80125839,1.67371275
5c3fa4c5b1b52400013ba707,67,1,2024-02-27T11:08:09.835Z,english_197.wav,0,peel,942,24,4,5,français,m,4,0.32341667,-53.06876459,1.16077516
5c3fa4c5b1b52400013ba707,68,1,2024-02-27T11:08:09.835Z,english_358.wav,0,peel,660,24,4,5,français,m,0,0.0,-24.40280242,0.64702298
5c3fa4c5b1b52400013ba707,68,1,2024-02-27T11:08:09.835Z,english_358.wav,0,peel,660,24,4,5,français,m,1,0.1,62.18566088,0.86836285
5c3fa4c5b1b52400013ba707,68,1,2024-02-27T11:08:09.835Z,english_358.wav,0,peel,660,24,4,5,français,m,2,0.2,5.26675109,1.05826104
5c3fa4c5b1b52400013ba707,68,1,2024-02-27T11:08:09.835Z,english_358.wav,0,peel,660,24,4,5,français,m,3,0.3,-31.91571391,1.98011631
5c3fa4c5b1b52400013ba707,68,1,2024-02-27T11:08:09.835Z,english_358.wav,0,peel,660,24,4,5,français,m,4,0.32341667,27.35112364,0.35058307
5c3fa4c5b1b52400013ba707,69,1,2024-02-27T11:08:09.835Z,english_710.wav,0,peel,648,24,4,5,français,m,0,0.0,-75.8732007,1.76991952
5c3fa4c5b1b52400013ba707,69,1,2024-02-27T11:08:09.835Z,english_710.wav,0,peel,648,24,4,5,français,m,1,0.1,-57.22858583,1.84377411
5c3fa4c5b1b52400013ba707,69,1,2024-02-27T11:08:09.835Z,english_710.wav,0,peel,648,24,4,5,français,m,2,0.2,28.4956072,1.20069914
5c3fa4c5b1b52400013ba707,69,1,2024-02-27T11:08:09.835Z,english_710.wav,0,peel,648,24,4,5,français,m,3,0.3,-96.06281818,0.06088286
5c3fa4c5b1b52400013ba707,69,1,2024-02-27T11:08:09.835Z,english_710.wav,0,peel,648,24,4,5,français,m,4,0.32341667,12.57492899,1.86160088
5c3fa4c5b1b52400013ba707,70,1,2024-02-27T11:08:09.835Z,english_522.wav,0,pill,768,24,4,5,français,m,0,0.0,11.68148217,0.44643579
5c3fa4c5b1b52400013ba707,70,1,2024-02-27T11:08:09.835Z,english_522.wav,0,pill,768,24,4,5,français,m,1,0.1,-74.55265788,0.16885459
5c3fa4c5b1b52400013ba707,70,1,2024-02-27T11:08:09.835Z,english_522.wav,0,pill,768,24,4,5,français,m,2,0.2,95.15954448,1.67161326
5c3fa4c5b1b52400013ba707,70,1,2024-02-27T11:08:09.835Z,english_522.wav,0,pill,768,24,4,5,français,m,3,0.3,-17.14209769,0.53349848
5c3fa4c5b1b52400013ba707,70,1,2024-02-27T11:08:09.835Z,english_522.wav,0,pill,768,24,4,5,français,m,4,0.32341667,-35.38302731,0.4645726
5c3fa4c5b1b52400013ba707,71,1,2024-02-27T11:08:09.835Z,english_861.wav,0,pill,838,24,4,5,français,m,0,0.0,-30.19921015,0.56503536
5c3fa4c5b1b52400013ba707,71,1,2024-02-27T11:08:09.835Z,english_861.wav,0,pill,838,24,4,5,français,m,1,0.1,75.2433288,1.43622494
5c3fa4c5b1b52400013ba707,71,1,2024-02-27T11:08:09.835Z,english_861.wav,0,pill,838,24,4,5,français,m,2,0.2,-49.47813624,1.73497671
5c3fa4c5b1b52400013ba707,71,1,2024-02-27T11:08:09.835Z,english_861.wav,0,pill,838,24,4,5,français,m,3,0.3,86.59581665,0.70763908
5c3fa4c5b1b52400013ba707,71,1,2024-02-27T11:08:09.835Z,english_861.wav,0,pill,838,24,4,5,français,m,4,0.32341667,58.40562581,1.29518241
5c3fa4c5b1b52400013ba707,72,1,2024-02-27T11:08:09.835Z,english_607.wav,0,pill,1128,24,4,5,français,m,0,0.0,46.6865757,1.30575186
5c3fa4c5b1b52400013ba707,72,1,2024-02-27T11:08:09.835Z,english_607.wav,0,pill,1128,24,4,5,français,m,1,0.1,39.2269946,1.04660061
5c3fa4c5b1b52400013ba707,72,1,2024-02-27T11:08:09.835Z,english_607.wav,0,pill,1128,24,4,5,français,m,2,0.2,9.54774619,0.88274406
5c3fa4c5b1b52400013ba707,72,1,2024-02-27T11:08:09.835Z,english_607.wav,0,pill,1128,24,4,5,français,m,3,0.3,16.02187378,1.5824547
5c3fa4c5b1b52400013ba707,72,1,2024-02-27T11:08:09.835Z,english_607.wav,0,pill,1128,24,4,5,français,m,4,0.32341667,75.62266759,0.67660632
5c3fa4c5b1b52400013ba707,73,1,2024-02-27T11:08:09.835Z,english_63.wav,0,peel,595,24,4,5,français,m,0,0.0,-99.27532027,1.55063038
5c3fa4c5b1b52400013ba707,73,1,2024-02-27T11:08:09.835Z,english_63.wav,0,peel,595,24,4,5,français,m,1,0.1,76.75365344,0.78453917
5c3fa4c5b1b52400013ba707,73,1,2024-02-27T11:08:09.835Z,english_63.wav,0,peel,595,24,4,5,français,m,2,0.2,-4.19867406,1.54061689
5c3fa4c5b1b52400013ba707,73,1,2024-02-27T11:08:09.835Z,english_63.wav,0,peel,595,24,4,5,français,m,3,0.3,58.21469339,0.9417581
5c3fa4c5b1b52400013ba707,73,1,2024-02-27T11:08:09.835Z,english_63.wav,0,peel,595,24,4,5,français,m,4,0.32341667,-76.25580242,1.07689855
5c3fa4c5b1b52400013ba707,74,1,2024-02-27T11:08:09.835Z,english_126.wav,0,peel,912,24,4,5,français,m,0,0.0,-71.89060105,0.84485729
5c3fa4c5b1b52400013ba707,74,1,2024-02-27T11:08:09.835Z,english_126.wav,0,peel,912,24,4,5,français,m,1,0.1,-54.28004149,1.61340521
5c3fa4c5b1b52400013ba707,74,1,2024-02-27T11:08:09.835Z,english_126.wav,0,peel,912,24,4,5,français,m,2,0.2,67.0997098,1.10892805
5c3fa4c5b1b52400013ba707,74,1,2024-02-27T11:08:09.835Z,english_126.wav,0,peel,912,24,4,5,français,m,3,0.3,-96.31741745,1.20133652
5c3fa4c5b1b52400013ba707,74,1,2024-02-27T11:08:09.835Z,english_126.wav,0,peel,912,24,4,5,français,m,4,0.32341667,22.67293764,0.33470898
5c3fa4c5b1b52400013ba707,75,1,2024-02-27T11:08:09.835Z,english_533.wav,0,pill,1680,24,4,5,français,m,0,0.0,-10.36570298,0.10013008
5c3fa4c5b1b52400013ba707,75,1,2024-02-27T11:08:09.835Z,english_533.wav,0,pill,1680,24,4,5,français,m,1,0.1,-67.04420928,1.73583104
5c3fa4c5b1b52400013ba707,75,1,2024-02-27T11:08:09.835Z,english_533.wav,0,pill,1680,24,4,5,français,m,2,0.2,-31.24691396,1.00550506
5c3fa4c5b1b52400013ba707,75,1,2024-02-27T11:08:09.835Z,english_533.wav,0,pill,1680,24,4,5,français,m,3,0.3,-22.73912087,1.21009828
5c3fa4c5b1b52400013ba707,75,1,2024-02-27T11:08:09.835Z,english_533.wav,0,pill,1680,24,4,5,français,m,4,0.32341667,-4.63915005,1.69946188
5c3fa4c5b1b52400013ba707,76,1,2024-02-27T11:08:09.835Z,english_562.wav,0,pill,1408,24,4,5,français,m,0,0.0,-40.22672309,0.64031882
5c3fa4c5b1b52400013ba707,76,1,2024-02-27T11:08:09.835Z,english_562.wav,0,pill,1408,24,4,5,français,m,1,0.1,77.961849,0.7637006
5c3fa4c5b1b52400013ba707,76,1,2024-02-27T11:08:09.835Z,english_562.wav,0,pill,1408,24,4,5,français,m,2,0.2,25.52463525,0.87632482
5c3fa4c5b1b52400013ba707,76,1,2024-02-27T11:08:09.835Z,english_562.wav,0,pill,1408,24,4,5,français,m,3,0.3,84.62788358,0.98972612
5c3fa4c5b1b52400013ba707,76,1,2024-02-27T11:08:09.835Z,english_562.wav,0,pill,1408,24,4,5,français,m,4,0.32341667,-53.67427145,0.74010285
5c3fa4c5b1b52400013ba707,77,1,2024-02-27T11:08:09.835Z,english_41.wav,0,pill,2374,24,4,5,français,m,0,0.0,42.21237724,0.98996482
5c3fa4c5b1b52400013ba707,77,1,2024-02-27T11:08:09.835Z,english_41.wav,0,pill,2374,24,4,5,français,m,1,0.1,33.8271633,0.77076848
5c3fa4c5b1b52400013ba707,77,1,2024-02-27T11:08:09.835Z,english_41.wav,0,pill,2374,24,4,5,français,m,2,0.2,20.96644351,0.37402384
5c3fa4c5b1b52400013ba707,77,1,2024-02-27T11:08:09.835Z,english_41.wav,0,pill,2374,24,4,5,français,m,3,0.3,-53.61985723,1.98545705
5c3fa4c5b1b52400013ba707,77,1,2024-02-27T11:08:09.835Z,english_41.wav,0,pill,2374,24,4,5,français,m,4,0.32341667,-55.68725705,1.53352273
5c3fa4c5b1b52400013ba707,78,1,2024-02-27T11:08:09.835Z,english_128.wav,0,pill,1286,24,4,5,français,m,0,0.0,-84.07301703,0.96445051
5c3fa4c5b1b52400013ba707,78,1,2024-02-27T11:08:09.835Z,english_128.wav,0,pill,1286,24,4,5,français,m,1,0.1,0.2051398,0.77165422
5c3fa4c5b1b52400013ba707,78,1,2024-02-27T11:08:09.835Z,english_128.wav,0,pill,1286,24,4,5,français,m,2,0.2,50.77588291,0.60279997
5c3fa4c5b1b52400013ba707,78,1,2024-02-27T11:08:09.835Z,english_128.wav,0,pill,1286,24,4,5,français,m,3,0.3,3.27834455,0.59915485
5c3fa4c5b1b52400013ba707,78,1,2024-02-27T11:08:09.835Z,english_128.wav,0,pill,1286,24,4,5,français,m,4,0.32341667,59.5943459,0.43521132
5c3fa4c5b1b52400013ba707,79,1,2024-02-27T11:08:09.835Z,english_321.wav,0,peel,693,24,4,5,français,m,0,0.0,2.07721816,1.69623759
5c3fa4c5b1b52400013ba707,79,1,2024-02-27T11:08:09.835Z,english_321.wav,0,peel,693,24,4,5,français,m,1,0.1,59.48735819,1.35736687
5c3fa4c5b1b52400013ba707,79,1,2024-02-27T11:08:09.835Z,english_321.wav,0,peel,693,24,4,5,français,m,2,0.2,64.78149714,1.92920457
5c3fa4c5b1b52400013ba707,79,1,2024-02-27T11:08:09.835Z,english_321.wav,0,peel,693,24,4,5,français,m,3,0.3,65.58393414,0.66559077
5c3fa4c5b1b52400013ba707,79,1,2024-02-27T11:08:09.835Z,english_321.wav,0,peel,693,24,4,5,français,m,4,0.32341667,14.66673939,1.66523208
5c3fa4c5b1b52400013ba707,80,1,2024-02-27T11:08:09.835Z,english_954.wav,0,peel,541,24,4,5,français,m,0,0.0,-31.7323473,1.78985335
5c3fa4c5b1b52400013ba707,80,1,2024-02-27T11:08:09.835Z,english_954.wav,0,peel,541,24,4,5,français,m,1,0.1,26.42807939,1.38754521
5c3fa4c5b1b52400013ba707,80,1,2024-02-27T11:08:09.835Z,english_954.wav,0,peel,541,24,4,5,français,m,2,0.2,22.25968883,1.54917493
5c3fa4c5b1b52400013ba707,80,1,2024-02-27T11:08:09.835Z,english_954.wav,0,peel,541,24,4,5,français,m,3,0.3,-25.30270181,1.54718362
5c3fa4c5b1b52400013ba707,80,1,2024-02-27T11:08:09.835Z,english_954.wav,0,peel,541,24,4,5,français,m,4,0.32341667,46.97185243,0.09638929
5c3fa4c5b1b52400013ba707,81,1,2024-02-27T11:08:09.835Z,english_640.wav,0,peel,691,24,4,5,français,m,0,0.0,74.95875769,1.81273707
5c3fa4c5b1b52400013ba707,81,1,2024-02-27T11:08:09.835Z,english_640.wav,0,peel,691,24,4,5,français,m,1,0.1,87.73764633,1.50076703
5c3fa4c5b1b52400013ba707,81,1,2024-02-27T11:08:09.835Z,english_640.wav,0,peel,691,24,4,5,français,m,2,0.2,-71.36544648,0.25286143
5c3fa4c5b1b52400013ba707,81,1,2024-02-27T11:08:09.835Z,english_640.wav,0,peel,691,24,4,5,français,m,3,0.3,11.07583082,0.53181051
5c3fa4c5b1b52400013ba707,81,1,2024-02-27T11:08:09.835Z,english_640.wav,0,peel,691,24,4,5,français,m,4,0.32341667,18.32643638,0.76351343
5c3fa4c5b1b52400013ba707,82,1,2024-02-27T11:08:09.835Z,english_370.wav,0,peel,706,24,4,5,français,m,0,0.0,-90.17078727,0.17796458
5c3fa4c5b1b52400013ba707,82,1,2024-02-27T11:08:09.835Z,english_370.wav,0,peel,706,24,4,5,français,m,1,0.1,-71.99280791,1.08934715
5c3fa4c5b1b52400013ba707,82,1,2024-02-27T11:08:09.835Z,english_370.wav,0,peel,706,24,4,5,français,m,2,0.2,-13.60727202,1.05914244
5c3fa4c5b1b52400013ba707,82,1,2024-02-27T11:08:09.835Z,english_370.wav,0,peel,706,24,4,5,français,m,3,0.3,-0.93192742,1.87852505
5c3fa4c5b1b52400013ba707,82,1,2024-02-27T11:08:09.835Z,english_370.wav,0,peel,706,24,4,5,français,m,4,0.32341667,33.27852394,1.24161401
5c3fa4c5b1b52400013ba707,83,1,2024-02-27T11:08:09.835Z,english_376.wav,0,peel,789,24,4,5,français,m,0,0.0,-10.66231765,0.83936518
5c3fa4c5b1b52400013ba707,83,1,2024-02-27T11:08:09.835Z,english_376.wav,0,peel,789,24,4,5,français,m,1,0.1,-53.95799634,1.7265478
5c3fa4c5b1b52400013ba707,83,1,2024-02-27T11:08:09.835Z,english_376.wav,0,peel,789,24,4,5,français,m,2,0.2,-44.60014177,0.44309389
5c3fa4c5b1b52400013ba707,83,1,2024-02-27T11:08:09.835Z,english_376.wav,0,peel,789,24,4,5,français,m,3,0.3,-84.32777745,1.91772458
5c3fa4c5b1b52400013ba707,83,1,2024-02-27T11:08:09.835Z,english_376.wav,0,peel,789,24,4,5,français,m,4,0.32341667,-2.76179289,0.76255227
5c3fa4c5b1b52400013ba707,84,1,2024-02-27T11:08:09.835Z,english_987.wav,0,peel,760,24,4,5,français,m,0,0.0,91.33137772,1.82656395
5c3fa4c5b1b52400013ba707,84,1,2024-02-27T11:08:09.835Z,english_987.wav,0,peel,760,24,4,5,français,m,1,0.1,-39.20299527,1.12122948
5c3fa4c5b1b52400013ba707,84,1,2024-02-27T11:08:09.835Z,english_987.wav,0,peel,760,24,4,5,français,m,2,0.2,78.9852337,1.12025045
5c3fa4c5b1b52400013ba707,84,1,2024-02-27T11:08:09.835Z,english_987.wav,0,peel,760,24,4,5,français,m,3,0.3,-94.66209845,1.02557261
5c3fa4c5b1b52400013ba707,84,1,2024-02-27T11:08:09.835Z,english_987.wav,0,peel,760,24,4,5,français,m,4,0.32341667,-71.76730894,1.06580695
5c3fa4c5b1b52400013ba707,85,1,2024-02-27T11:08:09.835Z,english_279.wav,0,pill,697,24,4,5,français,m,0,0.0,-20.90398108,0.60114424
5c3fa4c5b1b52400013ba707,85,1,2024-02-27T11:08:09.835Z,english_279.wav,0,pill,697,24,4,5,français,m,1,0.1,98.83098338,0.92336304
5c3fa4c5b1b52400013ba707,85,1,2024-02-27T11:08:09.835Z,english_279.wav,0,pill,697,24,4,5,français,m,2,0.2,-95.37608427,1.39045705
5c3fa4c5b1b52400013ba707,85,1,2024-02-27T11:08:09.835Z,english_279.wav,0,pill,697,24,4,5,français,m,3,0.3,-52.65380993,0.64938935
5c3fa4c5b1b52400013ba707,85,1,2024-02-27T11:08:09.835Z,english_279.wav,0,pill,697,24,4,5,français,m,4,0.32341667,47.72500112,1.57478054
5c3fa4c5b1b52400013ba707,86,1,2024-02-27T11:08:09.835Z,english_904.wav,0,pill,635,24,4,5,français,m,0,0.0,54.28678019,0.96279628
5c3fa4c5b1b52400013ba707,86,1,2024-02-27T11:08:09.835Z,english_904.wav,0,pill,635,24,4,5,français,m,1,0.1,-13.24417266,0.20212872
5c3fa4c5b1b52400013ba707,86,1,2024-02-27T11:08:09.835Z,english_904.wav,0,pill,635,24,4,5,français,m,2,0.2,18.94666669,1.39381084
5c3fa4c5b1b52400013ba707,86,1,2024-02-27T11:08:09.835Z,english_904.wav,0,pill,635,24,4,5,français,m,3,0.3,-21.97018078,1.57516234
5c3fa4c5b1b52400013ba707,86,1,2024-02-27T11:08:09.835Z,english_904.wav,0,pill,635,24,4,5,français,m,4,0.32341667,4.05624244,0.97228596
5c3fa4c5b1b52400013ba707,87,1,2024-02-27T11:08:09.835Z,english_695.wav,0,pill,555,24,4,5,français,m,0,0.0,-74.02191529,1.19534619
5c3fa4c5b1b52400013ba707,87,1,2024-02-27T11:08:09.835Z,english_695.wav,0,pill,555,24,4,5,français,m,1,0.1,54.28596986,0.93917139
5c3fa4c5b1b52400013ba707,87,1,2024-02-27T11:08:09.835Z,english_695.wav,0,pill,555,24,4,5,français,m,2,0.2,-13.22196683,0.1241488
5c3fa4c5b1b52400013ba707,87,1,2024-02-27T11:08:09.835Z,english_695.wav,0,pill,555,24,4,5,français,m,3,0.3,1.82272444,1.20091234
5c3fa4c5b1b52400013ba707,87,1,2024-02-27T11:08:09.835Z,english_695.wav,0,pill,555,24,4,5,français,m,4,0.32341667,-11.74905262,0.46222147
5c3fa4c5b1b52400013ba707,88,1,2024-02-27T11:08:09.835Z,english_336.wav,0,peel,733,24,4,5,français,m,0,0.0,29.43389708,1.05594545
5c3fa4c5b1b52400013ba707,88,1,2024-02-27T11:08:09.835Z,english_336.wav,0,peel,733,24,4,5,français,m,1,0.1,-98.82505887,1.57774783
5c3fa4c5b1b52400013ba707,88,1,2024-02-27T11:08:09.835Z,english_336.wav,0,peel,733,24,4,5,français,m,2,0.2,33.95949266,1.35373128
5c3fa4c5b1b52400013ba707,88,1,2024-02-27T11:08:09.835Z,english_336.wav,0,peel,733,24,4,5,français,m,3,0.3,-57.79711044,1.04960404
5c3fa4c5b1b52400013ba707,88,1,2024-02-27T11:08:09.835Z,english_336.wav,0,peel,733,24,4,5,français,m,4,0.32341667,81.65015026,0.39151968
5c3fa4c5b1b52400013ba707,89,1,2024-02-27T11:08:09.835Z,english_644.wav,0,peel,630,24,4,5,français,m,0,0.0,21.57551932,1.87520752
5c3fa4c5b1b52400013ba707,89,1,2024-02-27T11:08:09.835Z,english_644.wav,0,peel,630,24,4,5,français,m,1,0.1,-11.98636437,1.28750901
5c3fa4c5b1b52400013ba707,89,1,2024-02-27T11:08:09.835Z,english_644.wav,0,peel,630,24,4,5,français,m,2,0.2,-86.21942338,0.33708129
5c3fa4c5b1b52400013ba707,89,1,2024-02-27T11:08:09.835Z,english_644.wav,0,peel,630,24,4,5,français,m,3,0.3,-38.98906039,1.53524213
5c3fa4c5b1b52400013ba707,89,1,2024-02-27T11:08:09.835Z,english_644.wav,0,peel,630,24,4,5,français,m,4,0.32341667,-28.58177745,0.3058721
5c3fa4c5b1b52400013ba707,90,1,2024-02-27T11:08:09.835Z,english_664.wav,0,pill,926,24,4,5,français,m,0,0.0,-76.94516773,1.88823832
5c3fa4c5b1b52400013ba707,90,1,2024-02-27T11:08:09.835Z,english_664.wav,0,pill,926,24,4,5,français,m,1,0.1,-6.4858311,1.41396893
5c3fa4c5b1b52400013ba707,90,1,2024-02-27T11:08:09.835Z,english_664.wav,0,pill,926,24,4,5,français,m,2,0.2,46.60528691,0.11773869
5c3fa4c5b1b52400013ba707,90,1,2024-02-27T11:08:09.835Z,english_664.wav,0,pill,926,24,4,5,français,m,3,0.3,9.48323043,1.80376032
5c3fa4c5b1b52400013ba707,90,1,2024-02-27T11:08:09.835Z,english_664.wav,0,pill,926,24,4,5,français,m,4,0.32341667,89.85696022,1.43209877
5c3fa4c5b1b52400013ba707,91,1,2024-02-27T11:08:09.835Z,english_597.wav,0,peel,899,24,4,5,français,m,0,0.0,-83.66792118,0.17389721
5c3fa4c5b1b52400013ba707,91,1,2024-02-27T11:08:09.835Z,english_597.wav,0,peel,899,24,4,5,français,m,1,0.1,-19.98744657,0.39349672
5c3fa4c5b1b52400013ba707,91,1,2024-02-27T11:08:09.835Z,english_597.wav,0,peel,899,24,4,5,français,m,2,0.2,-30.38458549,1.97590818
5c3fa4c5b1b52400013ba707,91,1,2024-02-27T11:08:09.835Z,english_597.wav,0,peel,899,24,4,5,français,m,3,0.3,-63.4406446,1.84988074
5c3fa4c5b1b52400013ba707,91,1,2024-02-27T11:08:09.835Z,english_597.wav,0,peel,899,24,4,5,français,m,4,0.32341667,25.67812426,1.17620678
5c3fa4c5b1b52400013ba707,92,1,2024-02-27T11:08:09.835Z,english_754.wav,0,peel,622,24,4,5,français,m,0,0.0,-19.76675532,0.85408869
5c3fa4c5b1b52400013ba707,92,1,2024-02-27T11:08:09.835Z,english_754.wav,0,peel,622,24,4,5,français,m,1,0.1,34.48414938,1.68072852
5c3fa4c5b1b52400013ba707,92,1,2024-02-27T11:08:09.835Z,english_754.wav,0,peel,622,24,4,5,français,m,2,0.2,62.52568934,1.92334892
5c3fa4c5b1b52400013ba707,92,1,2024-02-27T11:08:09.835Z,english_754.wav,0,peel,622,24,4,5,français,m,3,0.3,25.41574935,0.35114342
5c3fa4c5b1b52400013ba707,92,1,2024-02-27T11:08:09.835Z,english_754.wav,0,peel,622,24,4,5,français,m,4,0.32341667,-36.16911462,0.9845535
5c3fa4c5b1b52400013ba707,93,1,2024-02-27T11:08:09.835Z,english_187.wav,0,peel,598,24,4,5,français,m,0,0.0,-18.35695568,0.61755768
5c3fa4c5b1b52400013ba707,93,1,2024-02-27T11:08:09.835Z,english_187.wav,0,peel,598,24,4,5,français,m,1,0.1,10.21632188,1.6626445
5c3fa4c5b1b52400013ba707,93,1,2024-02-27T11:08:09.835Z,english_187.wav,0,peel,598,24,4,5,français,m,2,0.2,0.69047377,0.70950015
5c3fa4c5b1b52400013ba707,93,1,2024-02-27T11:08:09.835Z,english_187.wav,0,peel,598,24,4,5,français,m,3,0.3,67.68385624,0.8856252
5c3fa4c5b1b52400013ba707,93,1,2024-02-27T11:08:09.835Z,english_187.wav,0,peel,598,24,4,5,français,m,4,0.32341667,48.15291114,1.92627472
5c3fa4c5b1b52400013ba707,94,1,2024-02-27T11:08:09.835Z,english_854.wav,0,peel,683,24,4,5,français,m,0,0.0,-3.2532791,1.78139632
5c3fa4c5b1b52400013ba707,94,1,2024-02-27T11:08:09.835Z,english_854.wav,0,peel,683,24,4,5,français,m,1,0.1,19.40039505,1.50161717
5c3fa4c5b1b52400013ba707,94,1,2024-02-27T11:08:09.835Z,english_854.wav,0,peel,683,24,4,5,français,m,2,0.2,-14.62360686,0.8978804
5c3fa4c5b1b52400013ba707,94,1,2024-02-27T11:08:09.835Z,english_854.wav,0,peel,683,24,4,5,français,m,3,0.3,-63.13820282,1.66267041
5c3fa4c5b1b52400013ba707,94,1,2024-02-27T11:08:09.835Z,english_854.wav,0,peel,683,24,4,5,français,m,4,0.32341667,44.42181264,1.68588082
5c3fa4c5b1b52400013ba707,95,1,2024-02-27T11:08:09.835Z,english_636.wav,0,peel,587,24,4,5,français,m,0,0.0,-20.37295141,1.69276631
5c3fa4c5b1b52400013ba707,95,1,2024-02-27T11:08:09.835Z,english_636.wav,0,peel,587,24,4,5,français,m,1,0.1,-84.7288786,1.69908726
5c3fa4c5b1b52400013ba707,95,1,2024-02-27T11:08:09.835Z,english_636.wav,0,peel,587,24,4,5,français,m,2,0.2,24.84265136,1.44836333
5c3fa4c5b1b52400013ba707,95,1,2024-02-27T11:08:09.835Z,english_636.wav,0,peel,587,24,4,5,français,m,3,0.3,-9.2443485,1.36647816
5c3fa4c5b1b52400013ba707,95,1,2024-02-27T11:08:09.835Z,english_636.wav,0,peel,587,24,4,5,français,m,4,0.32341667,49.04875774,0.88112598
5c3fa4c5b1b52400013ba707,96,1,2024-02-27T11:08:09.835Z,english_729.wav,0,peel,1216,24,4,5,français,m,0,0.0,31.16849918,1.30127688
5c3fa4c5b1b52400013ba707,96,1,2024-02-27T11:08:09.835Z,english_729.wav,0,peel,1216,24,4,5,français,m,1,0.1,-74.04657477,1.28998605
5c3fa4c5b1b52400013ba707,96,1,2024-02-27T11:08:09.835Z,english_729.wav,0,peel,1216,24,4,5,français,m,2,0.2,98.28479208,0.71365363
5c3fa4c5b1b52400013ba707,96,1,2024-02-27T11:08:09.835Z,english_729.wav,0,peel,1216,24,4,5,français,m,3,0.3,45.68234461,0.61436371
5c3fa4c5b1b52400013ba707,96,1,2024-02-27T11:08:09.835Z,english_729.wav,0,peel,1216,24,4,5,français,m,4,0.32341667,-23.12232547,0.96520681
5c3fa4c5b1b52400013ba707,97,1,2024-02-27T11:08:09.835Z,english_22.wav,0,pill,1406,24,4,5,français,m,0,0.0,78.11206964,1.48448967
5c3fa4c5b1b52400013ba707,97,1,2024-02-27T11:08:09.835Z,english_22.wav,0,pill,1406,24,4,5,français,m,1,0.1,30.08823316,0.28770474
5c3fa4c5b1b52400013ba707,97,1,2024-02-27T11:08:09.835Z,english_22.wav,0,pill,1406,24,4,5,français,m,2,0.2,62.70691674,1.03274311
5c3fa4c5b1b52400013ba707,97,1,2024-02-27T11:08:09.835Z,english_22.wav,0,pill,1406,24,4,5,français,m,3,0.3,-69.9857022,0.45071415
5c3fa4c5b1b52400013ba707,97,1,2024-02-27T11:08:09.835Z,english_22.wav,0,pill,1406,24,4,5,français,m,4,0.32341667,-1.96178027,0.30900593
5c3fa4c5b1b52400013ba707,98,1,2024-02-27T11:08:09.835Z,english_515.wav,0,pill,565,24,4,5,français,m,0,0.0,-51.44071002,1.17100165
5c3fa4c5b1b52400013ba707,98,1,2024-02-27T11:08:09.835Z,english_515.wav,0,pill,565,24,4,5,français,m,1,0.1,-54.80209221,0.37535268
5c3fa4c5b1b52400013ba707,98,1,2024-02-27T11:08:09.835Z,english_515.wav,0,pill,565,24,4,5,français,m,2,0.2,64.47174239,1.31079719
5c3fa4c5b1b52400013ba707,98,1,2024-02-27T11:08:09.835Z,english_515.wav,0,pill,565,24,4,5,français,m,3,0.3,-10.56071982,1.40472496
5c3fa4c5b1b52400013ba707,98,1,2024-02-27T11:08:09.835Z,english_515.wav,0,pill,565,24,4,5,français,m,4,0.32341667,-39.86348554,0.6392892
5c3fa4c5b1b52400013ba707,99,1,2024-02-27T11:08:09.835Z,english_680.wav,0,pill,1232,24,4,5,français,m,0,0.0,93.24972168,1.89994278
5c3fa4c5b1b52400013ba707,99,1,2024-02-27T11:08:09.835Z,english_680.wav,0,pill,1232,24,4,5,français,m,1,0.1,21.55707386,1.06559033
5c3fa4c5b1b52400013ba707,99,1,2024-02-27T11:08:09.835Z,english_680.wav,0,pill,1232,24,4,5,français,m,2,0.2,-58.84044748,0.79606997
5c3fa4c5b1b52400013ba707,99,1,2024-02-27T11:08:09.835Z,english_680.wav,0,pill,1232,24,4,5,français,m,3,0.3,-13.55367876,0.35899559
5c3fa4c5b1b52400013ba707,99,1,2024-02-27T11:08:09.835Z,english_680.wav,0,pill,1232,24,4,5,français,m,4,0.32341667,17.98073729,1.50925573
5c3fa4c5b1b52400013ba707,100,2,2024-02-27T11:08:09.835Z,english_895.wav,0,peel,2531,24,4,5,français,m,0,0.0,-36.05432491,1.57991636
5c3fa4c5b1b52400013ba707,100,2,2024-02-27T11:08:09.835Z,english_895.wav,0,peel,2531,24,4,5,français,m,1,0.1,0.27991529,1.29141926
5c3fa4c5b1b52400013ba707,100,2,2024-02-27T11:08:09.835Z,english_895.wav,0,peel,2531,24,4,5,français,m,2,0.2,-68.50060493,0.78617821
5c3fa4c5b1b52400013ba707,100,2,2024-02-27T11:08:09.835Z,english_895.wav,0,peel,2531,24,4,5,français,m,3,0.3,-65.34452755,0.53071912
5c3fa4c5b1b52400013ba707,100,2,2024-02-27T11:08:09.835Z,english_895.wav,0,peel,2531,24,4,5,français,m,4,0.32341667,44.30205494,1.44568828
5c3fa4c5b1b52400013ba707,101,2,2024-02-27T11:08:09.835Z,english_628.wav,0,peel,1115,24,4,5,français,m,0,0.0,-19.71295886,0.8960583
5c3fa4c5b1b52400013ba707,101,2,2024-02-27T11:08:09.835Z,english_628.wav,0,peel,1115,24,4,5,français,m,1,0.1,-79.294697,1.61949508
5c3fa4c5b1b52400013ba707,101,2,2024-02-27T11:08:09.835Z,english_628.wav,0,peel,1115,24,4,5,français,m,2,0.2,-59.93256946,0.65483299
5c3fa4c5b1b52400013ba707,101,2,2024-02-27T11:08:09.835Z,english_628.wav,0,peel,1115,24,4,5,français,m,3,0.3,-18.46863719,0.12001531
5c3fa4c5b1b52400013ba707,101,2,2024-02-27T11:08:09.835Z,english_628.wav,0,peel,1115,24,4,5,français,m,4,0.32341667,53.30350975,0.85308449
5c3fa4c5b1b52400013ba707,102,2,2024-02-27T11:08:09.835Z,english_444.wav,0,pill,970,24,4,5,français,m,0,0.0,57.2872587,0.52242118
5c3fa4c5b1b52400013ba707,102,2,2024-02-27T11:08:09.835Z,english_444.wav,0,pill,970,24,4,5,français,m,1,0.1,68.85097071,1.61316948
5c3fa4c5b1b52400013ba707,102,2,2024-02-27T11:08:09.835Z,english_444.wav,0,pill,970,24,4,5,français,m,2,0.2,-30.10164543,0.15196309
5c3fa4c5b1b52400013ba707,102,2,2024-02-27T11:08:09.835Z,english_444.wav,0,pill,970,24,4,5,français,m,3,0.3,-57.0249627,0.44426911
5c3fa4c5b1b52400013ba707,102,2,2024-02-27T11:08:09.835Z,english_444.wav,0,pill,970,24,4,5,français,m,4,0.32341667,-54.19692118,1.48693747
5c3fa4c5b1b52400013ba707,103,2,2024-02-27T11:08:09.835Z,english_165.wav,0,peel,635,24,4,5,français,m,0,0.0,-65.85966689,0.99094124
5c3fa4c5b1b52400013ba707,103,2,2024-02-27T11:08:09.835Z,english_165.wav,0,peel,635,24,4,5,français,m,1,0.1,57.4210377,1.25140592
5c3fa4c5b1b52400013ba707,103,2,2024-02-27T11:08:09.835Z,english_165.wav,0,peel,635,24,4,5,français,m,2,0.2,-53.4891742,1.66606931
5c3fa4c5b1b52400013ba707,103,2,2024-02-27T11:08:09.835Z,english_165.wav,0,peel,635,24,4,5,français,m,3,0.3,-32.80877015,0.56557264
5c3fa4c5b1b52400013ba707,103,2,2024-02-27T11:08:09.835Z,english_165.wav,0,peel,635,24,4,5,français,m,4,0.32341667,-23.63509804,1.31427626
5c3fa4c5b1b52400013ba707,104,2,2024-02-27T11:08:09.835Z,english_760.wav,0,peel,694,24,4,5,français,m,0,0.0,24.3902693,0.67210823
5c3fa4c5b1b52400013ba707,104,2,2024-02-27T11:08:09.835Z,english_760.wav,0,peel,694,24,4,5,français,m,1,0.1,-0.0247174936,1.89588113
5c3fa4c5b1b52400013ba707,104,2,2024-02-27T11:08:09.835Z,english_760.wav,0,peel,694,24,4,5,français,m,2,0.2,82.8662613,0.23432987
5c3fa4c5b1b52400013ba707,104,2,2024-02-27T11:08:09.835Z,english_760.wav,0,peel,694,24,4,5,français,m,3,0.3,-7.97314524,1.20797246
5c3fa4c5b1b52400013ba707,104,2,2024-02-27T11:08:09.835Z,english_760.wav,0,peel,694,24,4,5,français,m,4,0.323416667,-6.32438983,1.72866971
5c3fa4c5b1b52400013ba707,105,2,2024-02-27T11:08:09.835Z,english_974.wav,0,peel,2309,24,4,5,français,m,0,0.0,29.63575745,0.7371821
5c3fa4c5b1b52400013ba707,105,2,2024-02-27T11:08:09.835Z,english_974.wav,0,peel,2309,24,4,5,français,m,1,0.1,-49.63946334,1.15838362
5c3fa4c5b1b52400013ba707,105,2,2024-02-27T11:08:09.835Z,english_974.wav,0,peel,2309,24,4,5,français,m,2,0.2,87.75163431,1.66312363
5c3fa4c5b1b52400013ba707,105,2,2024-02-27T11:08:09.835Z,english_974.wav,0,peel,2309,24,4,5,français,m,3,0.3,-62.39844007,0.85783748
5c3fa4c5b1b52400013ba707,105,2,2024-02-27T11:08:09.835Z,english_974.wav,0,peel,2309,24,4,5,français,m,4,0.32341667,-98.5513891,1.53033297
5c3fa4c5b1b52400013ba707,106,2,2024-02-27T11:08:09.835Z,english_468.wav,0,pill,1661,24,4,5,français,m,0,0.0,-33.82586043,0.35164089
5c3fa4c5b1b52400013ba707,106,2,2024-02-27T11:08:09.835Z,english_468.wav,0,pill,1661,24,4,5,français,m,1,0.1,-42.55840131,0.20114733
5c3fa4c5b1b52400013ba707,106,2,2024-02-27T11:08:09.835Z,english_468.wav,0,pill,1661,24,4,5,français,m,2,0.2,-36.6492295,1.40729654
5c3fa4c5b1b52400013ba707,106,2,2024-02-27T11:08:09.835Z,english_468.wav,0,pill,1661,24,4,5,français,m,3,0.3,39.91321296,0.04300573
5c3fa4c5b1b52400013ba707,106,2,2024-02-27T11:08:09.835Z,english_468.wav,0,pill,1661,24,4,5,français,m,4,0.32341667,54.14936319,1.79642733
5c3fa4c5b1b52400013ba707,107,2,2024-02-27T11:08:09.835Z,english_28.wav,0,pill,737,24,4,5,français,m,0,0.0,46.68805065,0.37315412
5c3fa4c5b1b52400013ba707,107,2,2024-02-27T11:08:09.835Z,english_28.wav,0,pill,737,24,4,5,français,m,1,0.1,-19.91180265,0.08560602
5c3fa4c5b1b52400013ba707,107,2,2024-02-27T11:08:09.835Z,english_28.wav,0,pill,737,24,4,5,français,m,2,0.2,30.74929008,0.67724734
5c3fa4c5b1b52400013ba707,107,2,2024-02-27T11:08:09.835Z,english_28.wav,0,pill,737,24,4,5,français,m,3,0.3,14.01537548,0.53332652
5c3fa4c5b1b52400013ba707,107,2,2024-02-27T11:08:09.835Z,english_28.wav,0,pill,737,24,4,5,français,m,4,0.32341667,-32.95915121,1.33480721
5c3fa4c5b1b52400013ba707,108,2,2024-02-27T11:08:09.835Z,english_270.wav,0,peel,2484,24,4,5,français,m,0,0.0,-54.89328754,1.02368747
5c3fa4c5b1b52400013ba707,108,2,2024-02-27T11:08:09.835Z,english_270.wav,0,peel,2484,24,4,5,français,m,1,0.1,-41.12345733,1.74263534
5c3fa4c5b1b52400013ba707,108,2,2024-02-27T11:08:09.835Z,english_270.wav,0,peel,2484,24,4,5,français,m,2,0.2,79.03328036,0.45342006
5c3fa4c5b1b52400013ba707,108,2,2024-02-27T11:08:09.835Z,english_270.wav,0,peel,2484,24,4,5,français,m,3,0.3,-87.71335894,1.29911503
5c3fa4c5b1b52400013ba707,108,2,2024-02-27T11:08:09.835Z,english_270.wav,0,peel,2484,24,4,5,français,m,4,0.32341667,-48.20373708,0.95859349
5c3fa4c5b1b52400013ba707,109,2,2024-02-27T11:08:09.835Z,english_838.wav,0,peel,1306,24,4,5,français,m,0,0.0,-46.43239877,0.57293762
5c3fa4c5b1b52400013ba707,109,2,2024-02-27T11:08:09.835Z,english_838.wav,0,peel,1306,24,4,5,français,m,1,0.1,-0.77549132,1.65450135
5c3fa4c5b1b52400013ba707,109,2,2024-02-27T11:08:09.835Z,english_838.wav,0,peel,1306,24,4,5,français,m,2,0.2,-47.56158581,0.30574951
5c3fa4c5b1b52400013ba707,109,2,2024-02-27T11:08:09.835Z,english_838.wav,0,peel,1306,24,4,5,français,m,3,0.3,7.18116474,0.96315644
5c3fa4c5b1b52400013ba707,109,2,2024-02-27T11:08:09.835Z,english_838.wav,0,peel,1306,24,4,5,français,m,4,0.32341667,-87.38880816,0.83017899
5c3fa4c5b1b52400013ba707,110,2,2024-02-27T11:08:09.835Z,english_586.wav,0,peel,3229,24,4,5,français,m,0,0.0,-62.23642036,1.06144709
5c3fa4c5b1b52400013ba707,110,2,2024-02-27T11:08:09.835Z,english_586.wav,0,peel,3229,24,4,5,français,m,1,0.1,79.13201234,0.54207142
5c3fa4c5b1b52400013ba707,110,2,2024-02-27T11:08:09.835Z,english_586.wav,0,peel,3229,24,4,5,français,m,2,0.2,-89.54923437,0.72134233
5c3fa4c5b1b52400013ba707,110,2,2024-02-27T11:08:09.835Z,english_586.wav,0,peel,3229,24,4,5,français,m,3,0.3,-19.27573078,0.33417878
5c3fa4c5b1b52400013ba707,110,2,2024-02-27T11:08:09.835Z,english_586.wav,0,peel,3229,24,4,5,français,m,4,0.32341667,-62.71214645,1.54129631
5c3fa4c5b1b52400013ba707,111,2,2024-02-27T11:08:09.835Z,english_106.wav,0,peel,3835,24,4,5,français,m,0,0.0,-46.25200282,0.21046793
5c3fa4c5b1b52400013ba707,111,2,2024-02-27T11:08:09.835Z,english_106.wav,0,peel,3835,24,4,5,français,m,1,0.1,-83.38564728,1.42142181
5c3fa4c5b1b52400013ba707,111,2,2024-02-27T11:08:09.835Z,english_106.wav,0,peel,3835,24,4,5,français,m,2,0.2,68.00501759,0.86156936
5c3fa4c5b1b52400013ba707,111,2,2024-02-27T11:08:09.835Z,english_106.wav,0,peel,3835,24,4,5,français,m,3,0.3,49.15199267,0.65348811
5c3fa4c5b1b52400013ba707,111,2,2024-02-27T11:08:09.835Z,english_106.wav,0,peel,3835,24,4,5,français,m,4,0.32341667,-5.93966373,0.76273979
5c3fa4c5b1b52400013ba707,112,2,2024-02-27T11:08:09.835Z,english_223.wav,0,pill,1593,24,4,5,français,m,0,0.0,-51.58222533,0.62889348
5c3fa4c5b1b52400013ba707,112,2,2024-02-27T11:08:09.835Z,english_223.wav,0,pill,1593,24,4,5,français,m,1,0.1,-36.02700064,1.73736573
5c3fa4c5b1b52400013ba707,112,2,2024-02-27T11:08:09.835Z,english_223.wav,0,pill,1593,24,4,5,français,m,2,0.2,-35.4915315,1.20130681
5c3fa4c5b1b52400013ba707,112,2,2024-02-27T11:08:09.835Z,english_223.wav,0,pill,1593,24,4,5,français,m,3,0.3,1.26892628,0.53176439
5c3fa4c5b1b52400013ba707,112,2,2024-02-27T11:08:09.835Z,english_223.wav,0,pill,1593,24,4,5,français,m,4,0.32341667,72.37143842,1.24562253
5c3fa4c5b1b52400013ba707,113,2,2024-02-27T11:08:09.835Z,english_205.wav,0,peel,1352,24,4,5,français,m,0,0.0,55.03693902,1.41699591
5c3fa4c5b1b52400013ba707,113,2,2024-02-27T11:08:09.835Z,english_205.wav,0,peel,1352,24,4,5,français,m,1,0.1,59.05347117,0.25749205
5c3fa4c5b1b52400013ba707,113,2,2024-02-27T11:08:09.835Z,english_205.wav,0,peel,1352,24,4,5,français,m,2,0.2,-51.93258482,1.78695407
5c3fa4c5b1b52400013ba707,113,2,2024-02-27T11:08:09.835Z,english_205.wav,0,peel,1352,24,4,5,français,m,3,0.3,-18.66886592,0.11157042
5c3fa4c5b1b52400013ba707,113,2,2024-02-27T11:08:09.835Z,english_205.wav,0,peel,1352,24,4,5,français,m,4,0.32341667,-25.16213195,1.74030417
5c3fa4c5b1b52400013ba707,114,2,2024-02-27T11:08:09.835Z,english_733.wav,0,pill,2425,24,4,5,français,m,0,0.0,-77.09135463,1.21028291
5c3fa4c5b1b52400013ba707,114,2,2024-02-27T11:08:09.835Z,english_733.wav,0,pill,2425,24,4,5,français,m,1,0.1,-30.68901019,1.14931675
5c3fa4c5b1b52400013ba707,114,2,2024-02-27T11:08:09.835Z,english_733.wav,0,pill,2425,24,4,5,français,m,2,0.2,-27.18135709,1.68866455
5c3fa4c5b1b52400013ba707,114,2,2024-02-27T11:08:09.835Z,english_733.wav,0,pill,2425,24,4,5,français,m,3,0.3,-10.74804936,0.29390693
5c3fa4c5b1b52400013ba707,114,2,2024-02-27T11:08:09.835Z,english_733.wav,0,pill,2425,24,4,5,français,m,4,0.32341667,-57.14773718,0.43305962
5c3fa4c5b1b52400013ba707,115,2,2024-02-27T11:08:09.835Z,english_556.wav,0,peel,3081,24,4,5,français,m,0,0.0,35.62658416,1.88481821
5c3fa4c5b1b52400013ba707,115,2,2024-02-27T11:08:09.835Z,english_556.wav,0,peel,3081,24,4,5,français,m,1,0.1,28.75181601,0.4023528
5c3fa4c5b1b52400013ba707,115,2,2024-02-27T11:08:09.835Z,english_556.wav,0,peel,3081,24,4,5,français,m,2,0.2,-2.62389444,1.49364055
5c3fa4c5b1b52400013ba707,115,2,2024-02-27T11:08:09.835Z,english_556.wav,0,peel,3081,24,4,5,français,m,3,0.3,64.03572584,1.54190039
5c3fa4c5b1b52400013ba707,115,2,2024-02-27T11:08:09.835Z,english_556.wav,0,peel,3081,24,4,5,français,m,4,0.32341667,72.79696002,0.53435232
5c3fa4c5b1b52400013ba707,116,2,2024-02-27T11:08:09.835Z,english_946.wav,0,pill,1020,24,4,5,français,m,0,0.0,-74.23479435,1.22824298
5c3fa4c5b1b52400013ba707,116,2,2024-02-27T11:08:09.835Z,english_946.wav,0,pill,1020,24,4,5,français,m,1,0.1,-11.3601526,0.85784227
5c3fa4c5b1b52400013ba707,116,2,2024-02-27T11:08:09.835Z,english_946.wav,0,pill,1020,24,4,5,français,m,2,0.2,36.50675361,0.09585286
5c3fa4c5b1b52400013ba707,116,2,2024-02-27T11:08:09.835Z,english_946.wav,0,pill,1020,24,4,5,français,m,3,0.3,-13.94845552,0.43829102
5c3fa4c5b1b52400013ba707,116,2,2024-02-27T11:08:09.835Z,english_946.wav,0,pill,1020,24,4,5,français,m,4,0.32341667,-6.97265347,0.86422506
5c3fa4c5b1b52400013ba707,117,2,2024-02-27T11:08:09.835Z,english_322.wav,0,pill,7074,24,4,5,français,m,0,0.0,-27.28438319,0.79345249
5c3fa4c5b1b52400013ba707,117,2,2024-02-27T11:08:09.835Z,english_322.wav,0,pill,7074,24,4,5,français,m,1,0.1,-98.66999083,0.28651419
5c3fa4c5b1b52400013ba707,117,2,2024-02-27T11:08:09.835Z,english_322.wav,0,pill,7074,24,4,5,français,m,2,0.2,-54.08694108,1.26482546
5c3fa4c5b1b52400013ba707,117,2,2024-02-27T11:08:09.835Z,english_322.wav,0,pill,7074,24,4,5,français,m,3,0.3,-7.3933801,0.6947791
5c3fa4c5b1b52400013ba707,117,2,2024-02-27T11:08:09.835Z,english_322.wav,0,pill,7074,24,4,5,français,m,4,0.32341667,72.49489683,0.74875353
5c3fa4c5b1b52400013ba707,118,2,2024-02-27T11:08:09.835Z,english_853.wav,0,pill,2232,24,4,5,français,m,0,0.0,87.83319324,0.81037323
5c3fa4c5b1b52400013ba707,118,2,2024-02-27T11:08:09.835Z,english_853.wav,0,pill,2232,24,4,5,français,m,1,0.1,64.16710312,1.2495933
5c3fa4c5b1b52400013ba707,118,2,2024-02-27T11:08:09.835Z,english_853.wav,0,pill,2232,24,4,5,français,m,2,0.2,12.98667351,0.22916278
5c3fa4c5b1b52400013ba707,118,2,2024-02-27T11:08:09.835Z,english_853.wav,0,pill,2232,24,4,5,français,m,3,0.3,25.03434444,0.67764146
5c3fa4c5b1b52400013ba707,118,2,2024-02-27T11:08:09.835Z,english_853.wav,0,pill,2232,24,4,5,français,m,4,0.32341667,98.3458188,0.13807639
5c3fa4c5b1b52400013ba707,119,2,2024-02-27T11:08:09.835Z,english_486.wav,0,pill,2022,24,4,5,français,m,0,0.0,31.41997184,1.22599644
5c3fa4c5b1b52400013ba707,119,2,2024-02-27T11:08:09.835Z,english_486.wav,0,pill,2022,24,4,5,français,m,1,0.1,58.03480486,1.4547445
5c3fa4c5b1b52400013ba707,119,2,2024-02-27T11:08:09.835Z,english_486.wav,0,pill,2022,24,4,5,français,m,2,0.2,-62.84801238,0.27967606
5c3fa4c5b1b52400013ba707,119,2,2024-02-27T11:08:09.835Z,english_486.wav,0,pill,2022,24,4,5,français,m,3,0.3,10.62451678,0.02065399
5c3fa4c5b1b52400013ba707,119,2,2024-02-27T11:08:09.835Z,english_486.wav,0,pill,2022,24,4,5,français,m,4,0.32341667,10.31835057,0.3128479
5c3fa4c5b1b52400013ba707,120,2,2024-02-27T11:08:09.835Z,english_747.wav,0,peel,1516,24,4,5,français,m,0,0.0,-77.73977436,1.00478752
5c3fa4c5b1b52400013ba707,120,2,2024-02-27T11:08:09.835Z,english_747.wav,0,peel,1516,24,4,5,français,m,1,0.1,-18.96284798,0.15717617
5c3fa4c5b1b52400013ba707,120,2,2024-02-27T11:08:09.835Z,english_747.wav,0,peel,1516,24,4,5,français,m,2,0.2,-36.55549612,1.90654565
5c3fa4c5b1b52400013ba707,120,2,2024-02-27T11:08:09.835Z,english_747.wav,0,peel,1516,24,4,5,français,m,3,0.3,89.20291952,0.7651101
5c3fa4c5b1b52400013ba707,120,2,2024-02-27T11:08:09.835Z,english_747.wav,0,peel,1516,24,4,5,français,m,4,0.32341667,-97.78574386,0.92755825
5c3fa4c5b1b52400013ba707,121,2,2024-02-27T11:08:09.835Z,english_872.wav,0,pill,1307,24,4,5,français,m,0,0.0,0.56374655,0.10935802
5c3fa4c5b1b52400013ba707,121,2,2024-02-27T11:08:09.835Z,english_872.wav,0,pill,1307,24,4,5,français,m,1,0.1,-70.88107799,0.91778609
5c3fa4c5b1b52400013ba707,121,2,2024-02-27T11:08:09.835Z,english_872.wav,0,pill,1307,24,4,5,français,m,2,0.2,6.46677515,1.38740199
5c3fa4c5b1b52400013ba707,121,2,2024-02-27T11:08:09.835Z,english_872.wav,0,pill,1307,24,4,5,français,m,3,0.3,-23.51354109,0.12682507
5c3fa4c5b1b52400013ba707,121,2,2024-02-27T11:08:09.835Z,english_872.wav,0,pill,1307,24,4,5,français,m,4,0.32341667,81.64578493,0.71067476
5c3fa4c5b1b52400013ba707,122,2,2024-02-27T11:08:09.835Z,english_606.wav,0,pill,2657,24,4,5,français,m,0,0.0,-54.19201916,1.71730642
5c3fa4c5b1b52400013ba707,122,2,2024-02-27T11:08:09.835Z,english_606.wav,0,pill,2657,24,4,5,français,m,1,0.1,-9.49104439,0.42216081
5c3fa4c5b1b52400013ba707,122,2,2024-02-27T11:08:09.835Z,english_606.wav,0,pill,2657,24,4,5,français,m,2,0.2,1.17868262,1.31506394
5c3fa4c5b1b52400013ba707,122,2,2024-02-27T11:08:09.835Z,english_606.wav,0,pill,2657,24,4,5,français,m,3,0.3,-95.39718692,0.06922913
5c3fa4c5b1b52400013ba707,122,2,2024-02-27T11:08:09.835Z,english_606.wav,0,pill,2657,24,4,5,français,m,4,0.32341667,-48.659775,0.08316227
5c3fa4c5b1b52400013ba707,123,2,2024-02-27T11:08:09.835Z,english_689.wav,0,pill,943,24,4,5,français,m,0,0.0,42.02822248,1.89069384
5c3fa4c5b1b52400013ba707,123,2,2024-02-27T11:08:09.835Z,english_689.wav,0,pill,943,24,4,5,français,m,1,0.1,-61.92185233,0.33123617
5c3fa4c5b1b52400013ba707,123,2,2024-02-27T11:08:09.835Z,english_689.wav,0,pill,943,24,4,5,français,m,2,0.2,-8.45156809,0.5478675
5c3fa4c5b1b52400013ba707,123,2,2024-02-27T11:08:09.835Z,english_689.wav,0,pill,943,24,4,5,français,m,3,0.3,15.09500637,0.80334133
5c3fa4c5b1b52400013ba707,123,2,2024-02-27T11:08:09.835Z,english_689.wav,0,pill,943,24,4,5,français,m,4,0.32341667,8.33163023,1.42024866
5c3fa4c5b1b52400013ba707,124,2,2024-02-27T11:08:09.835Z,english_778.wav,0,peel,862,24,4,5,français,m,0,0.0,99.37283207,0.92158405
5c3fa4c5b1b52400013ba707,124,2,2024-02-27T11:08:09.835Z,english_778.wav,0,peel,862,24,4,5,français,m,1,0.1,61.02900927,1.90392814
5c3fa4c5b1b52400013ba707,124,2,2024-02-27T11:08:09.835Z,english_778.wav,0,peel,862,24,4,5,français,m,2,0.2,-43.89505842,0.34916702
5c3fa4c5b1b52400013ba707,124,2,2024-02-27T11:08:09.835Z,english_778.wav,0,peel,862,24,4,5,français,m,3,0.3,-6.51139434,1.21087231
5c3fa4c5b1b52400013ba707,124,2,2024-02-27T11:08:09.835Z,english_778.wav,0,peel,862,24,4,5,français,m,4,0.32341667,-98.37213751,0.72140227
5c3fa4c5b1b52400013ba707,125,2,2024-02-27T11:08:09.835Z,english_366.wav,0,pill,8449,24,4,5,français,m,0,0.0,30.08929792,0.87054072
5c3fa4c5b1b52400013ba707,125,2,2024-02-27T11:08:09.835Z,english_366.wav,0,pill,8449,24,4,5,français,m,1,0.1,-17.9139155,0.34658018
5c3fa4c5b1b52400013ba707,125,2,2024-02-27T11:08:09.835Z,english_366.wav,0,pill,8449,24,4,5,français,m,2,0.2,-66.75779592,0.49970414
5c3fa4c5b1b52400013ba707,125,2,2024-02-27T11:08:09.835Z,english_366.wav,0,pill,8449,24,4,5,français,m,3,0.3,77.64459909,1.94720887
5c3fa4c5b1b52400013ba707,125,2,2024-02-27T11:08:09.835Z,english_366.wav,0,pill,8449,24,4,5,français,m,4,0.32341667,72.64294537,1.76390144
5c3fa4c5b1b52400013ba707,126,2,2024-02-27T11:08:09.835Z,english_177.wav,0,pill,3575,24,4,5,français,m,0,0.0,87.98258728,1.54790065
5c3fa4c5b1b52400013ba707,126,2,2024-02-27T11:08:09.835Z,english_177.wav,0,pill,3575,24,4,5,français,m,1,0.1,87.12011565,0.90861448
5c3fa4c5b1b52400013ba707,126,2,2024-02-27T11:08:09.835Z,english_177.wav,0,pill,3575,24,4,5,français,m,2,0.2,-29.82518494,0.58649069
5c3fa4c5b1b52400013ba707,126,2,2024-02-27T11:08:09.835Z,english_177.wav,0,pill,3575,24,4,5,français,m,3,0.3,54.38835911,0.51296238
5c3fa4c5b1b52400013ba707,126,2,2024-02-27T11:08:09.835Z,english_177.wav,0,pill,3575,24,4,5,français,m,4,0.32341667,53.98423531,1.78492888
5c3fa4c5b1b52400013ba707,127,2,2024-02-27T11:08:09.835Z,english_505.wav,0,peel,796,24,4,5,français,m,0,0.0,-14.1569725,0.45361713
5c3fa4c5b1b52400013ba707,127,2,2024-02-27T11:08:09.835Z,english_505.wav,0,peel,796,24,4,5,français,m,1,0.1,55.52926248,0.94516805
5c3fa4c5b1b52400013ba707,127,2,2024-02-27T11:08:09.835Z,english_505.wav,0,peel,796,24,4,5,français,m,2,0.2,53.00334781,0.85342654
5c3fa4c5b1b52400013ba707,127,2,2024-02-27T11:08:09.835Z,english_505.wav,0,peel,796,24,4,5,français,m,3,0.3,75.03788466,1.32942474
5c3fa4c5b1b52400013ba707,127,2,2024-02-27T11:08:09.835Z,english_505.wav,0,peel,796,24,4,5,français,m,4,0.32341667,-7.91266729,0.93790665
5c3fa4c5b1b52400013ba707,128,2,2024-02-27T11:08:09.835Z,english_722.wav,0,peel,1699,24,4,5,français,m,0,0.0,56.33358757,0.09194264
5c3fa4c5b1b52400013ba707,128,2,2024-02-27T11:08:09.835Z,english_722.wav,0,peel,1699,24,4,5,français,m,1,0.1,-63.11389498,1.89550133
5c3fa4c5b1b52400013ba707,128,2,2024-02-27T11:08:09.835Z,english_722.wav,0,peel,1699,24,4,5,français,m,2,0.2,65.64746862,0.18403216
5c3fa4c5b1b52400013ba707,128,2,2024-02-27T11:08:09.835Z,english_722.wav,0,peel,1699,24,4,5,français,m,3,0.3,-93.10605514,1.23223326
5c3fa4c5b1b52400013ba707,128,2,2024-02-27T11:08:09.835Z,english_722.wav,0,peel,1699,24,4,5,français,m,4,0.32341667,-45.92743551,0.28331892
5c3fa4c5b1b52400013ba707,129,2,2024-02-27T11:08:09.835Z,english_509.wav,0,pill,1060,24,4,5,français,m,0,0.0,58.37136146,0.93627824
5c3fa4c5b1b52400013ba707,129,2,2024-02-27T11:08:09.835Z,english_509.wav,0,pill,1060,24,4,5,français,m,1,0.1,-30.59588084,1.268957
5c3fa4c5b1b52400013ba707,129,2,2024-02-27T11:08:09.835Z,english_509.wav,0,pill,1060,24,4,5,français,m,2,0.2,-42.62400689,0.87018438
5c3fa4c5b1b52400013ba707,129,2,2024-02-27T11:08:09.835Z,english_509.wav,0,pill,1060,24,4,5,français,m,3,0.3,58.46483968,1.67134466
5c3fa4c5b1b52400013ba707,129,2,2024-02-27T11:08:09.835Z,english_509.wav,0,pill,1060,24,4,5,français,m,4,0.32341667,44.09610342,1.96584472
5c3fa4c5b1b52400013ba707,130,2,2024-02-27T11:08:09.835Z,english_568.wav,0,pill,3874,24,4,5,français,m,0,0.0,-80.38325009,1.52383372
5c3fa4c5b1b52400013ba707,130,2,2024-02-27T11:08:09.835Z,english_568.wav,0,pill,3874,24,4,5,français,m,1,0.1,65.28340143,0.37337456
5c3fa4c5b1b52400013ba707,130,2,2024-02-27T11:08:09.835Z,english_568.wav,0,pill,3874,24,4,5,français,m,2,0.2,22.57833022,0.67023469
5c3fa4c5b1b52400013ba707,130,2,2024-02-27T11:08:09.835Z,english_568.wav,0,pill,3874,24,4,5,français,m,3,0.3,-55.44872251,1.98652091
5c3fa4c5b1b52400013ba707,130,2,2024-02-27T11:08:09.835Z,english_568.wav,0,pill,3874,24,4,5,français,m,4,0.32341667,-94.3142815,1.15861726
5c3fa4c5b1b52400013ba707,131,2,2024-02-27T11:08:09.835Z,english_600.wav,0,peel,953,24,4,5,français,m,0,0.0,37.30285492,1.23507691
5c3fa4c5b1b52400013ba707,131,2,2024-02-27T11:08:09.835Z,english_600.wav,0,peel,953,24,4,5,français,m,1,0.1,57.58729363,0.65453179
5c3fa4c5b1b52400013ba707,131,2,2024-02-27T11:08:09.835Z,english_600.wav,0,peel,953,24,4,5,français,m,2,0.2,-74.33256695,1.70226061
5c3fa4c5b1b52400013ba707,131,2,2024-02-27T11:08:09.835Z,english_600.wav,0,peel,953,24,4,5,français,m,3,0.3,-35.711252,0.4723836
5c3fa4c5b1b52400013ba707,131,2,2024-02-27T11:08:09.835Z,english_600.wav,0,peel,953,24,4,5,français,m,4,0.32341667,3.54782198,0.49080622
5c3fa4c5b1b52400013ba707,132,2,2024-02-27T11:08:09.835Z,english_156.wav,0,pill,1642,24,4,5,français,m,0,0.0,93.86570948,0.27803573
5c3fa4c5b1b52400013ba707,132,2,2024-02-27T11:08:09.835Z,english_156.wav,0,pill,1642,24,4,5,français,m,1,0.1,63.74639013,0.76121308
5c3fa4c5b1b52400013ba707,132,2,2024-02-27T11:08:09.835Z,english_156.wav,0,pill,1642,24,4,5,français,m,2,0.2,-97.10775444,0.98438609
5c3fa4c5b1b52400013ba707,132,2,2024-02-27T11:08:09.835Z,english_156.wav,0,pill,1642,24,4,5,français,m,3,0.3,99.76737427,0.34877861
5c3fa4c5b1b52400013ba707,132,2,2024-02-27T11:08:09.835Z,english_156.wav,0,pill,1642,24,4,5,français,m,4,0.32341667,11.29868277,0.58154428
5c3fa4c5b1b52400013ba707,133,2,2024-02-27T11:08:09.835Z,english_780.wav,0,pill,1972,24,4,5,français,m,0,0.0,-15.29393571,0.99089132
5c3fa4c5b1b52400013ba707,133,2,2024-02-27T11:08:09.835Z,english_780.wav,0,pill,1972,24,4,5,français,m,1,0.1,-51.86215325,0.3216491
5c3fa4c5b1b52400013ba707,133,2,2024-02-27T11:08:09.835Z,english_780.wav,0,pill,1972,24,4,5,français,m,2,0.2,-27.43889325,1.38797184
5c3fa4c5b1b52400013ba707,133,2,2024-02-27T11:08:09.835Z,english_780.wav,0,pill,1972,24,4,5,français,m,3,0.3,37.56841363,0.96060741
5c3fa4c5b1b52400013ba707,133,2,2024-02-27T11:08:09.835Z,english_780.wav,0,pill,1972,24,4,5,français,m,4,0.32341667,-40.51855496,0.89048449
5c3fa4c5b1b52400013ba707,134,2,2024-02-27T11:08:09.835Z,english_261.wav,0,peel,1262,24,4,5,français,m,0,0.0,-19.34212076,1.20182597
5c3fa4c5b1b52400013ba707,134,2,2024-02-27T11:08:09.835Z,english_261.wav,0,peel,1262,24,4,5,français,m,1,0.1,-90.49371254,0.701642
5c3fa4c5b1b52400013ba707,134,2,2024-02-27T11:08:09.835Z,english_261.wav,0,peel,1262,24,4,5,français,m,2,0.2,-2.84874079,0.72931556
5c3fa4c5b1b52400013ba707,134,2,2024-02-27T11:08:09.835Z,english_261.wav,0,peel,1262,24,4,5,français,m,3,0.3,26.59732755,0.86687176
5c3fa4c5b1b52400013ba707,134,2,2024-02-27T11:08:09.835Z,english_261.wav,0,peel,1262,24,4,5,français,m,4,0.32341667,39.97770901,1.42617677
5c3fa4c5b1b52400013ba707,135,2,2024-02-27T11:08:09.835Z,english_304.wav,0,pill,1444,24,4,5,français,m,0,0.0,-80.7192326,0.54130022
5c3fa4c5b1b52400013ba707,135,2,2024-02-27T11:08:09.835Z,english_304.wav,0,pill,1444,24,4,5,français,m,1,0.1,34.14230443,0.20766845
5c3fa4c5b1b52400013ba707,135,2,2024-02-27T11:08:09.835Z,english_304.wav,0,pill,1444,24,4,5,français,m,2,0.2,-43.78548789,1.25157904
5c3fa4c5b1b52400013ba707,135,2,2024-02-27T11:08:09.835Z,english_304.wav,0,pill,1444,24,4,5,français,m,3,0.3,85.79520644,0.76195837
5c3fa4c5b1b52400013ba707,135,2,2024-02-27T11:08:09.835Z,english_304.wav,0,pill,1444,24,4,5,français,m,4,0.32341667,-29.32737886,0.20991234
5c3fa4c5b1b52400013ba707,136,2,2024-02-27T11:08:09.835Z,english_494.wav,0,pill,2911,24,4,5,français,m,0,0.0,-3.60210196,0.92014098
5c3fa4c5b1b52400013ba707,136,2,2024-02-27T11:08:09.835Z,english_494.wav,0,pill,2911,24,4,5,français,m,1,0.1,-0.0120609558,1.08763174
5c3fa4c5b1b52400013ba707,136,2,2024-02-27T11:08:09.835Z,english_494.wav,0,pill,2911,24,4,5,français,m,2,0.2,-75.2550513,0.29239621
5c3fa4c5b1b52400013ba707,136,2,2024-02-27T11:08:09.835Z,english_494.wav,0,pill,2911,24,4,5,français,m,3,0.3,39.6800445,0.26357805
5c3fa4c5b1b52400013ba707,136,2,2024-02-27T11:08:09.835Z,english_494.wav,0,pill,2911,24,4,5,français,m,4,0.323416667,78.1977592,1.67878037
5c3fa4c5b1b52400013ba707,137,2,2024-02-27T11:08:09.835Z,english_140.wav,0,peel,1393,24,4,5,français,m,0,0.0,-63.97366245,1.49783115
5c3fa4c5b1b52400013ba707,137,2,2024-02-27T11:08:09.835Z,english_140.wav,0,peel,1393,24,4,5,français,m,1,0.1,-84.90656008,1.37250299
5c3fa4c5b1b52400013ba707,137,2,2024-02-27T11:08:09.835Z,english_140.wav,0,peel,1393,24,4,5,français,m,2,0.2,93.42782744,0.10650492
5c3fa4c5b1b52400013ba707,137,2,2024-02-27T11:08:09.835Z,english_140.wav,0,peel,1393,24,4,5,français,m,3,0.3,11.57634117,0.84315206
5c3fa4c5b1b52400013ba707,137,2,2024-02-27T11:08:09.835Z,english_140.wav,0,peel,1393,24,4,5,français,m,4,0.32341667,80.35905055,1.26233419
5c3fa4c5b1b52400013ba707,138,2,2024-02-27T11:08:09.835Z,english_276.wav,0,pill,2020,24,4,5,français,m,0,0.0,-87.25523595,1.1918401
5c3fa4c5b1b52400013ba707,138,2,2024-02-27T11:08:09.835Z,english_276.wav,0,pill,2020,24,4,5,français,m,1,0.1,16.91650801,0.89399115
5c3fa4c5b1b52400013ba707,138,2,2024-02-27T11:08:09.835Z,english_276.wav,0,pill,2020,24,4,5,français,m,2,0.2,-40.09372932,0.89701806
5c3fa4c5b1b52400013ba707,138,2,2024-02-27T11:08:09.835Z,english_276.wav,0,pill,2020,24,4,5,français,m,3,0.3,3.19229046,1.98333504
5c3fa4c5b1b52400013ba707,138,2,2024-02-27T11:08:09.835Z,english_276.wav,0,pill,2020,24,4,5,français,m,4,0.32341667,18.84785296,1.85350493
5c3fa4c5b1b52400013ba707,139,2,2024-02-27T11:08:09.835Z,english_54.wav,0,pill,2228,24,4,5,français,m,0,0.0,1.86764875,1.47639799
5c3fa4c5b1b52400013ba707,139,2,2024-02-27T11:08:09.835Z,english_54.wav,0,pill,2228,24,4,5,français,m,1,0.1,-1.78672474,1.92944336
5c3fa4c5b1b52400013ba707,139,2,2024-02-27T11:08:09.835Z,english_54.wav,0,pill,2228,24,4,5,français,m,2,0.2,-26.58380414,0.76292987
5c3fa4c5b1b52400013ba707,139,2,2024-02-27T11:08:09.835Z,english_54.wav,0,pill,2228,24,4,5,français,m,3,0.3,-2.56688864,1.78735236
5c3fa4c5b1b52400013ba707,139,2,2024-02-27T11:08:09.835Z,english_54.wav,0,pill,2228,24,4,5,français,m,4,0.32341667,-76.29238916,0.80366269
5c3fa4c5b1b52400013ba707,140,2,2024-02-27T11:08:09.835Z,english_808.wav,0,pill,855,24,4,5,français,m,0,0.0,23.02589628,1.07384277
5c3fa4c5b1b52400013ba707,140,2,2024-02-27T11:08:09.835Z,english_808.wav,0,pill,855,24,4,5,français,m,1,0.1,10.58817829,1.3919179
5c3fa4c5b1b52400013ba707,140,2,2024-02-27T11:08:09.835Z,english_808.wav,0,pill,855,24,4,5,français,m,2,0.2,36.77134597,0.54960524
5c3fa4c5b1b52400013ba707,140,2,2024-02-27T11:08:09.835Z,english_808.wav,0,pill,855,24,4,5,français,m,3,0.3,-30.31603221,1.95871365
5c3fa4c5b1b52400013ba707,140,2,2024-02-27T11:08:09.835Z,english_808.wav,0,pill,855,24,4,5,français,m,4,0.32341667,9.74764343,0.79150541
5c3fa4c5b1b52400013ba707,141,2,2024-02-27T11:08:09.835Z,english_381.wav,0,pill,831,24,4,5,français,m,0,0.0,-64.83599525,0.77808766
5c3fa4c5b1b52400013ba707,141,2,2024-02-27T11:08:09.835Z,english_381.wav,0,pill,831,24,4,5,français,m,1,0.1,97.61236857,1.62635576
5c3fa4c5b1b52400013ba707,141,2,2024-02-27T11:08:09.835Z,english_381.wav,0,pill,831,24,4,5,français,m,2,0.2,-60.27157178,0.65298664
5c3fa4c5b1b52400013ba707,141,2,2024-02-27T11:08:09.835Z,english_381.wav,0,pill,831,24,4,5,français,m,3,0.3,84.45732791,0.46881793
5c3fa4c5b1b52400013ba707,141,2,2024-02-27T11:08:09.835Z,english_381.wav,0,pill,831,24,4,5,français,m,4,0.32341667,-87.53832291,1.22836965
5c3fa4c5b1b52400013ba707,142,2,2024-02-27T11:08:09.835Z,english_38.wav,0,pill,1497,24,4,5,français,m,0,0.0,-2.78484508,0.45448836
5c3fa4c5b1b52400013ba707,142,2,2024-02-27T11:08:09.835Z,english_38.wav,0,pill,1497,24,4,5,français,m,1,0.1,-57.68912839,0.86252605
5c3fa4c5b1b52400013ba707,142,2,2024-02-27T11:08:09.835Z,english_38.wav,0,pill,1497,24,4,5,français,m,2,0.2,-17.27242754,1.61904865
5c3fa4c5b1b52400013ba707,142,2,2024-02-27T11:08:09.835Z,english_38.wav,0,pill,1497,24,4,5,français,m,3,0.3,-2.64514482,1.39130822
5c3fa4c5b1b52400013ba707,142,2,2024-02-27T11:08:09.835Z,english_38.wav,0,pill,1497,24,4,5,français,m,4,0.32341667,55.14373267,1.59066599
5c3fa4c5b1b52400013ba707,143,2,2024-02-27T11:08:09.835Z,english_157.wav,0,pill,1815,24,4,5,français,m,0,0.0,-74.01864956,1.10168906
5c3fa4c5b1b52400013ba707,143,2,2024-02-27T11:08:09.835Z,english_157.wav,0,pill,1815,24,4,5,français,m,1,0.1,1.44529667,1.71225259
5c3fa4c5b1b52400013ba707,143,2,2024-02-27T11:08:09.835Z,english_157.wav,0,pill,1815,24,4,5,français,m,2,0.2,-42.76251303,1.71884561
5c3fa4c5b1b52400013ba707,143,2,2024-02-27T11:08:09.835Z,english_157.wav,0,pill,1815,24,4,5,français,m,3,0.3,-49.01483239,1.47822148
5c3fa4c5b1b52400013ba707,143,2,2024-02-27T11:08:09.835Z,english_157.wav,0,pill,1815,24,4,5,français,m,4,0.32341667,-96.85595697,1.36273156
5c3fa4c5b1b52400013ba707,144,2,2024-02-27T11:08:09.835Z,english_115.wav,0,pill,830,24,4,5,français,m,0,0.0,-6.4126324,0.37361158
5c3fa4c5b1b52400013ba707,144,2,2024-02-27T11:08:09.835Z,english_115.wav,0,pill,830,24,4,5,français,m,1,0.1,-78.70213007,1.5865766
5c3fa4c5b1b52400013ba707,144,2,2024-02-27T11:08:09.835Z,english_115.wav,0,pill,830,24,4,5,français,m,2,0.2,-0.36204046,1.00360432
5c3fa4c5b1b52400013ba707,144,2,2024-02-27T11:08:09.835Z,english_115.wav,0,pill,830,24,4,5,français,m,3,0.3,-47.97210547,1.3933449
5c3fa4c5b1b52400013ba707,144,2,2024-02-27T11:08:09.835Z,english_115.wav,0,pill,830,24,4,5,français,m,4,0.32341667,3.06964689,1.1205092
5c3fa4c5b1b52400013ba707,145,2,2024-02-27T11:08:09.835Z,english_217.wav,0,pill,1457,24,4,5,français,m,0,0.0,-87.44045162,1.20965721
5c3fa4c5b1b52400013ba707,145,2,2024-02-27T11:08:09.835Z,english_217.wav,0,pill,1457,24,4,5,français,m,1,0.1,26.67222095,0.05295089
5c3fa4c5b1b52400013ba707,145,2,2024-02-27T11:08:09.835Z,english_217.wav,0,pill,1457,24,4,5,français,m,2,0.2,97.90977363,1.23557872
5c3fa4c5b1b52400013ba707,145,2,2024-02-27T11:08:09.835Z,english_217.wav,0,pill,1457,24,4,5,français,m,3,0.3,4.49718441,1.80752812
5c3fa4c5b1b52400013ba707,145,2,2024-02-27T11:08:09.835Z,english_217.wav,0,pill,1457,24,4,5,français,m,4,0.32341667,13.31384309,1.57586313
5c3fa4c5b1b52400013ba707,146,2,2024-02-27T11:08:09.835Z,english_745.wav,0,pill,1914,24,4,5,français,m,0,0.0,-57.64472866,1.88925258
5c3fa4c5b1b52400013ba707,146,2,2024-02-27T11:08:09.835Z,english_745.wav,0,pill,1914,24,4,5,français,m,1,0.1,-14.80975681,0.26333653
5c3fa4c5b1b52400013ba707,146,2,2024-02-27T11:08:09.835Z,english_745.wav,0,pill,1914,24,4,5,français,m,2,0.2,44.46939178,1.01945351
5c3fa4c5b1b52400013ba707,146,2,2024-02-27T11:08:09.835Z,english_745.wav,0,pill,1914,24,4,5,français,m,3,0.3,56.80280999,0.00901457
5c3fa4c5b1b52400013ba707,146,2,2024-02-27T11:08:09.835Z,english_745.wav,0,pill,1914,24,4,5,français,m,4,0.32341667,-16.53068296,0.38778228
5c3fa4c5b1b52400013ba707,147,2,2024-02-27T11:08:09.835Z,english_289.wav,0,pill,1848,24,4,5,français,m,0,0.0,-55.97739865,0.95213243
5c3fa4c5b1b52400013ba707,147,2,2024-02-27T11:08:09.835Z,english_289.wav,0,pill,1848,24,4,5,français,m,1,0.1,-97.9801122,0.81858491
5c3fa4c5b1b52400013ba707,147,2,2024-02-27T11:08:09.835Z,english_289.wav,0,pill,1848,24,4,5,français,m,2,0.2,44.28679287,1.16094748
5c3fa4c5b1b52400013ba707,147,2,2024-02-27T11:08:09.835Z,english_289.wav,0,pill,1848,24,4,5,français,m,3,0.3,-74.0895039,0.92969459
5c3fa4c5b1b52400013ba707,147,2,2024-02-27T11:08:09.835Z,english_289.wav,0,pill,1848,24,4,5,français,m,4,0.32341667,-44.25845537,0.41504245
5c3fa4c5b1b52400013ba707,148,2,2024-02-27T11:08:09.835Z,english_968.wav,0,peel,940,24,4,5,français,m,0,0.0,-36.76350372,0.52322451
5c3fa4c5b1b52400013ba707,148,2,2024-02-27T11:08:09.835Z,english_968.wav,0,peel,940,24,4,5,français,m,1,0.1,-99.8991193,0.66419732
5c3fa4c5b1b52400013ba707,148,2,2024-02-27T11:08:09.835Z,english_968.wav,0,peel,940,24,4,5,français,m,2,0.2,27.503089,0.44232096
5c3fa4c5b1b52400013ba707,148,2,2024-02-27T11:08:09.835Z,english_968.wav,0,peel,940,24,4,5,français,m,3,0.3,-34.85106147,1.90778707
5c3fa4c5b1b52400013ba707,148,2,2024-02-27T11:08:09.835Z,english_968.wav,0,peel,940,24,4,5,français,m,4,0.32341667,68.2869663,0.59652698
5c3fa4c5b1b52400013ba707,149,2,2024-02-27T11:08:09.835Z,english_779.wav,0,pill,935,24,4,5,français,m,0,0.0,-66.48303018,1.22216448
5c3fa4c5b1b52400013ba707,149,2,2024-02-27T11:08:09.835Z,english_779.wav,0,pill,935,24,4,5,français,m,1,0.1,55.33592885,1.30288261
5c3fa4c5b1b52400013ba707,149,2,2024-02-27T11:08:09.835Z,english_779.wav,0,pill,935,24,4,5,français,m,2,0.2,67.38671669,0.25409759
5c3fa4c5b1b52400013ba707,149,2,2024-02-27T11:08:09.835Z,english_779.wav,0,pill,935,24,4,5,français,m,3,0.3,65.49052189,1.76174581
5c3fa4c5b1b52400013ba707,149,2,2024-02-27T11:08:09.835Z,english_779.wav,0,pill,935,24,4,5,français,m,4,0.32341667,-12.12955258,0.12280057
5c3fa4c5b1b52400013ba707,150,3,2024-02-27T11:08:09.835Z,english_769.wav,0,peel,960,24,4,5,français,m,0,0.0,-12.68288087,1.59358978
5c3fa4c5b1b52400013ba707,150,3,2024-02-27T11:08:09.835Z,english_769.wav,0,peel,960,24,4,5,français,m,1,0.1,13.58895245,0.16681031
5c3fa4c5b1b52400013ba707,150,3,2024-02-27T11:08:09.835Z,english_769.wav,0,peel,960,24,4,5,français,m,2,0.2,-5.57429841,0.74292099
5c3fa4c5b1b52400013ba707,150,3,2024-02-27T11:08:09.835Z,english_769.wav,0,peel,960,24,4,5,français,m,3,0.3,-26.44516544,0.17250104
5c3fa4c5b1b52400013ba707,150,3,2024-02-27T11:08:09.835Z,english_769.wav,0,peel,960,24,4,5,français,m,4,0.32341667,85.93285426,0.16730253
5c3fa4c5b1b52400013ba707,151,3,2024-02-27T11:08:09.835Z,english_44.wav,0,peel,677,24,4,5,français,m,0,0.0,-68.86201344,1.38154723
5c3fa4c5b1b52400013ba707,151,3,2024-02-27T11:08:09.835Z,english_44.wav,0,peel,677,24,4,5,français,m,1,0.1,36.61833882,0.11193842
5c3fa4c5b1b52400013ba707,151,3,2024-02-27T11:08:09.835Z,english_44.wav,0,peel,677,24,4,5,français,m,2,0.2,-60.65796264,0.83798569
5c3fa4c5b1b52400013ba707,151,3,2024-02-27T11:08:09.835Z,english_44.wav,0,peel,677,24,4,5,français,m,3,0.3,-99.582901,0.3073865
5c3fa4c5b1b52400013ba707,151,3,2024-02-27T11:08:09.835Z,english_44.wav,0,peel,677,24,4,5,français,m,4,0.32341667,68.59920212,1.10922951
