subj,trial,block,date,stim,stim_order,response,rt,age,english,french,language,sex,param_index,segment,pitch,stretch
5b8fffca220be50001c59858,0,0,2024-02-27T11:06:33.800Z,english_654.wav,0,peel,5563,26,5,5,français,f,0,0.0,-97.13147194,0.91673578
5b8fffca220be50001c59858,0,0,2024-02-27T11:06:33.800Z,english_654.wav,0,peel,5563,26,5,5,français,f,1,0.1,-81.37819023,1.23280851
5b8fffca220be50001c59858,0,0,2024-02-27T11:06:33.800Z,english_654.wav,0,peel,5563,26,5,5,français,f,2,0.2,51.48571278,1.64688363
5b8fffca220be50001c59858,0,0,2024-02-27T11:06:33.800Z,english_654.wav,0,peel,5563,26,5,5,français,f,3,0.3,54.00949099,1.75994168
5b8fffca220be50001c59858,0,0,2024-02-27T11:06:33.800Z,english_654.wav,0,peel,5563,26,5,5,français,f,4,0.32341667,-95.1633683,0.20104411
5b8fffca220be50001c59858,1,0,2024-02-27T11:06:33.800Z,english_867.wav,0,peel,596,26,5,5,français,f,0,0.0,9.0283109,0.25019481
5b8fffca220be50001c59858,1,0,2024-02-27T11:06:33.800Z,english_867.wav,0,peel,596,26,5,5,français,f,1,0.1,6.96107974,0.62311927
5b8fffca220be50001c59858,1,0,2024-02-27T11:06:33.800Z,english_867.wav,0,peel,596,26,5,5,français,f,2,0.2,14.88339172,1.78918939
5b8fffca220be50001c59858,1,0,2024-02-27T11:06:33.800Z,english_867.wav,0,peel,596,26,5,5,français,f,3,0.3,-2.73093064,1.34945049
5b8fffca220be50001c59858,1,0,2024-02-27T11:06:33.800Z,english_867.wav,0,peel,596,26,5,5,français,f,4,0.32341667,-85.27526638,0.75720604
5b8fffca220be50001c59858,2,0,2024-02-27T11:06:33.800Z,english_889.wav,0,pill,965,26,5,5,français,f,0,0.0,-92.0683747,0.69619005
5b8fffca220be50001c59858,2,0,2024-02-27T11:06:33.800Z,english_889.wav,0,pill,965,26,5,5,français,f,1,0.1,92.92883541,1.46059979
5b8fffca220be50001c59858,2,0,2024-02-27T11:06:33.800Z,english_889.wav,0,pill,965,26,5,5,français,f,2,0.2,-38.78028918,1.13034103
5b8fffca220be50001c59858,2,0,2024-02-27T11:06:33.800Z,english_889.wav,0,pill,965,26,5,5,français,f,3,0.3,33.48812202,1.0639125
5b8fffca220be50001c59858,2,0,2024-02-27T11:06:33.800Z,english_889.wav,0,pill,965,26,5,5,français,f,4,0.32341667,68.79643169,0.42066581
5b8fffca220be50001c59858,3,0,2024-02-27T11:06:33.800Z,english_2.wav,0,peel,693,26,5,5,français,f,0,0.0,-99.15346184,1.13720105
5b8fffca220be50001c59858,3,0,2024-02-27T11:06:33.800Z,english_2.wav,0,peel,693,26,5,5,français,f,1,0.1,80.90141422,1.91777804
5b8fffca220be50001c59858,3,0,2024-02-27T11:06:33.800Z,english_2.wav,0,peel,693,26,5,5,français,f,2,0.2,25.8663891,0.47706995
5b8fffca220be50001c59858,3,0,2024-02-27T11:06:33.800Z,english_2.wav,0,peel,693,26,5,5,français,f,3,0.3,75.24606714,0.3458575
5b8fffca220be50001c59858,3,0,2024-02-27T11:06:33.800Z,english_2.wav,0,peel,693,26,5,5,français,f,4,0.32341667,-83.41413367,0.38623968
5b8fffca220be50001c59858,4,0,2024-02-27T11:06:33.800Z,english_390.wav,0,peel,2026,26,5,5,français,f,0,0.0,-50.40750922,1.41643644
5b8fffca220be50001c59858,4,0,2024-02-27T11:06:33.800Z,english_390.wav,0,peel,2026,26,5,5,français,f,1,0.1,-38.67641955,0.84399933
5b8fffca220be50001c59858,4,0,2024-02-27T11:06:33.800Z,english_390.wav,0,peel,2026,26,5,5,français,f,2,0.2,-37.03459725,1.67796426
5b8fffca220be50001c59858,4,0,2024-02-27T11:06:33.800Z,english_390.wav,0,peel,2026,26,5,5,français,f,3,0.3,-24.07335547,0.43781117
5b8fffca220be50001c59858,4,0,2024-02-27T11:06:33.800Z,english_390.wav,0,peel,2026,26,5,5,français,f,4,0.32341667,75.09366884,0.01225463
5b8fffca220be50001c59858,5,0,2024-02-27T11:06:33.800Z,english_972.wav,0,peel,1070,26,5,5,français,f,0,0.0,-87.82800068,1.28286493
5b8fffca220be50001c59858,5,0,2024-02-27T11:06:33.800Z,english_972.wav,0,peel,1070,26,5,5,français,f,1,0.1,-25.45661385,0.89058027
5b8fffca220be50001c59858,5,0,2024-02-27T11:06:33.800Z,english_972.wav,0,peel,1070,26,5,5,français,f,2,0.2,2.95853851,1.4716374
5b8fffca220be50001c59858,5,0,2024-02-27T11:06:33.800Z,english_972.wav,0,peel,1070,26,5,5,français,f,3,0.3,84.61583696,0.6386035
5b8fffca220be50001c59858,5,0,2024-02-27T11:06:33.800Z,english_972.wav,0,peel,1070,26,5,5,français,f,4,0.32341667,42.95706616,1.51056083
5b8fffca220be50001c59858,6,0,2024-02-27T11:06:33.800Z,english_171.wav,0,pill,355,26,5,5,français,f,0,0.0,13.65984607,0.71637608
5b8fffca220be50001c59858,6,0,2024-02-27T11:06:33.800Z,english_171.wav,0,pill,355,26,5,5,français,f,1,0.1,70.55092655,1.80826384
5b8fffca220be50001c59858,6,0,2024-02-27T11:06:33.800Z,english_171.wav,0,pill,355,26,5,5,français,f,2,0.2,57.57935127,0.47277884
5b8fffca220be50001c59858,6,0,2024-02-27T11:06:33.800Z,english_171.wav,0,pill,355,26,5,5,français,f,3,0.3,-55.35579571,1.22036711
5b8fffca220be50001c59858,6,0,2024-02-27T11:06:33.800Z,english_171.wav,0,pill,355,26,5,5,français,f,4,0.32341667,13.04572565,0.00907712
5b8fffca220be50001c59858,7,0,2024-02-27T11:06:33.800Z,english_992.wav,0,pill,369,26,5,5,français,f,0,0.0,-6.68189934,0.46848529
5b8fffca220be50001c59858,7,0,2024-02-27T11:06:33.800Z,english_992.wav,0,pill,369,26,5,5,français,f,1,0.1,78.76679047,0.9874556
5b8fffca220be50001c59858,7,0,2024-02-27T11:06:33.800Z,english_992.wav,0,pill,369,26,5,5,français,f,2,0.2,-58.5917679,0.57881803
5b8fffca220be50001c59858,7,0,2024-02-27T11:06:33.800Z,english_992.wav,0,pill,369,26,5,5,français,f,3,0.3,-98.64651588,0.88425299
5b8fffca220be50001c59858,7,0,2024-02-27T11:06:33.800Z,english_992.wav,0,pill,369,26,5,5,français,f,4,0.32341667,73.76402904,0.6994588
5b8fffca220be50001c59858,8,0,2024-02-27T11:06:33.800Z,english_649.wav,0,pill,609,26,5,5,français,f,0,0.0,65.82222467,0.56154429
5b8fffca220be50001c59858,8,0,2024-02-27T11:06:33.800Z,english_649.wav,0,pill,609,26,5,5,français,f,1,0.1,-9.35575527,0.64767017
5b8fffca220be50001c59858,8,0,2024-02-27T11:06:33.800Z,english_649.wav,0,pill,609,26,5,5,français,f,2,0.2,-91.83315911,0.84538271
5b8fffca220be50001c59858,8,0,2024-02-27T11:06:33.800Z,english_649.wav,0,pill,609,26,5,5,français,f,3,0.3,79.30022345,0.4979411
5b8fffca220be50001c59858,8,0,2024-02-27T11:06:33.800Z,english_649.wav,0,pill,609,26,5,5,français,f,4,0.32341667,45.86180924,0.89353148
5b8fffca220be50001c59858,9,0,2024-02-27T11:06:33.800Z,english_924.wav,0,peel,271,26,5,5,français,f,0,0.0,63.64154058,1.83477076
5b8fffca220be50001c59858,9,0,2024-02-27T11:06:33.800Z,english_924.wav,0,peel,271,26,5,5,français,f,1,0.1,-60.55254199,0.21366754
5b8fffca220be50001c59858,9,0,2024-02-27T11:06:33.800Z,english_924.wav,0,peel,271,26,5,5,français,f,2,0.2,-47.94670646,1.07859551
5b8fffca220be50001c59858,9,0,2024-02-27T11:06:33.800Z,english_924.wav,0,peel,271,26,5,5,français,f,3,0.3,-76.50696127,1.9507375
5b8fffca220be50001c59858,9,0,2024-02-27T11:06:33.800Z,english_924.wav,0,peel,271,26,5,5,français,f,4,0.32341667,44.23103111,1.33476666
5b8fffca220be50001c59858,10,0,2024-02-27T11:06:33.800Z,english_574.wav,0,peel,914,26,5,5,français,f,0,0.0,53.128433,0.28349694
5b8fffca220be50001c59858,10,0,2024-02-27T11:06:33.800Z,english_574.wav,0,peel,914,26,5,5,français,f,1,0.1,70.24248151,0.66519348
5b8fffca220be50001c59858,10,0,2024-02-27T11:06:33.800Z,english_574.wav,0,peel,914,26,5,5,français,f,2,0.2,47.13290739,1.25768036
5b8fffca220be50001c59858,10,0,2024-02-27T11:06:33.800Z,english_574.wav,0,peel,914,26,5,5,français,f,3,0.3,52.31480293,1.43482954
5b8fffca220be50001c59858,10,0,2024-02-27T11:06:33.800Z,english_574.wav,0,peel,914,26,5,5,français,f,4,0.32341667,-33.06438127,1.23350688
5b8fffca220be50001c59858,11,0,2024-02-27T11:06:33.800Z,english_618.wav,0,peel,471,26,5,5,français,f,0,0.0,58.31579708,1.46895394
5b8fffca220be50001c59858,11,0,2024-02-27T11:06:33.800Z,english_618.wav,0,peel,471,26,5,5,français,f,1,0.1,6.96253647,0.48660613
5b8fffca220be50001c59858,11,0,2024-02-27T11:06:33.800Z,english_618.wav,0,peel,471,26,5,5,français,f,2,0.2,-4.41581756,1.00963977
5b8fffca220be50001c59858,11,0,2024-02-27T11:06:33.800Z,english_618.wav,0,peel,471,26,5,5,français,f,3,0.3,-63.5775247,1.29399549
5b8fffca220be50001c59858,11,0,2024-02-27T11:06:33.800Z,english_618.wav,0,peel,471,26,5,5,français,f,4,0.32341667,97.77631762,0.84060701
5b8fffca220be50001c59858,12,0,2024-02-27T11:06:33.800Z,english_749.wav,0,peel,489,26,5,5,français,f,0,0.0,-84.66020389,1.10062914
5b8fffca220be50001c59858,12,0,2024-02-27T11:06:33.800Z,english_749.wav,0,peel,489,26,5,5,français,f,1,0.1,45.42505651,0.81865822
5b8fffca220be50001c59858,12,0,2024-02-27T11:06:33.800Z,english_749.wav,0,peel,489,26,5,5,français,f,2,0.2,27.47623271,1.25164699
5b8fffca220be50001c59858,12,0,2024-02-27T11:06:33.800Z,english_749.wav,0,peel,489,26,5,5,français,f,3,0.3,44.62305857,1.77685805
5b8fffca220be50001c59858,12,0,2024-02-27T11:06:33.800Z,english_749.wav,0,peel,489,26,5,5,français,f,4,0.32341667,-87.62087265,0.97343419
5b8fffca220be50001c59858,13,0,2024-02-27T11:06:33.800Z,english_533.wav,0,pill,282,26,5,5,français,f,0,0.0,-10.36570298,0.10013008
5b8fffca220be50001c59858,13,0,2024-02-27T11:06:33.800Z,english_533.wav,0,pill,282,26,5,5,français,f,1,0.1,-67.04420928,1.73583104
5b8fffca220be50001c59858,13,0,2024-02-27T11:06:33.800Z,english_533.wav,0,pill,282,26,5,5,français,f,2,0.2,-31.24691396,1.00550506
5b8fffca220be50001c59858,13,0,2024-02-27T11:06:33.800Z,english_533.wav,0,pill,282,26,5,5,français,f,3,0.3,-22.73912087,1.21009828
5b8fffca220be50001c59858,13,0,2024-02-27T11:06:33.800Z,english_533.wav,0,pill,282,26,5,5,français,f,4,0.32341667,-4.63915005,1.69946188
5b8fffca220be50001c59858,14,0,2024-02-27T11:06:33.800Z,english_141.wav,0,peel,388,26,5,5,français,f,0,0.0,-85.83390244,1.36546316
5b8fffca220be50001c59858,14,0,2024-02-27T11:06:33.800Z,english_141.wav,0,peel,388,26,5,5,français,f,1,0.1,-83.68236309,0.39424104
5b8fffca220be50001c59858,14,0,2024-02-27T11:06:33.800Z,english_141.wav,0,peel,388,26,5,5,français,f,2,0.2,-69.95552588,1.31629396
5b8fffca220be50001c59858,14,0,2024-02-27T11:06:33.800Z,english_141.wav,0,peel,388,26,5,5,français,f,3,0.3,-14.67715053,0.23786768
5b8fffca220be50001c59858,14,0,2024-02-27T11:06:33.800Z,english_141.wav,0,peel,388,26,5,5,français,f,4,0.32341667,73.76142723,0.2069198
5b8fffca220be50001c59858,15,0,2024-02-27T11:06:33.800Z,english_418.wav,0,peel,408,26,5,5,français,f,0,0.0,-7.92859899,0.20369216
5b8fffca220be50001c59858,15,0,2024-02-27T11:06:33.800Z,english_418.wav,0,peel,408,26,5,5,français,f,1,0.1,10.19863107,0.15242613
5b8fffca220be50001c59858,15,0,2024-02-27T11:06:33.800Z,english_418.wav,0,peel,408,26,5,5,français,f,2,0.2,-44.82770696,0.77695319
5b8fffca220be50001c59858,15,0,2024-02-27T11:06:33.800Z,english_418.wav,0,peel,408,26,5,5,français,f,3,0.3,-80.4141896,0.71786342
5b8fffca220be50001c59858,15,0,2024-02-27T11:06:33.800Z,english_418.wav,0,peel,408,26,5,5,français,f,4,0.32341667,32.43674468,1.20494416
5b8fffca220be50001c59858,16,0,2024-02-27T11:06:33.800Z,english_52.wav,0,pill,248,26,5,5,français,f,0,0.0,54.63859099,0.91426261
5b8fffca220be50001c59858,16,0,2024-02-27T11:06:33.800Z,english_52.wav,0,pill,248,26,5,5,français,f,1,0.1,-85.67195477,1.20728413
5b8fffca220be50001c59858,16,0,2024-02-27T11:06:33.800Z,english_52.wav,0,pill,248,26,5,5,français,f,2,0.2,2.4878885,0.71733995
5b8fffca220be50001c59858,16,0,2024-02-27T11:06:33.800Z,english_52.wav,0,pill,248,26,5,5,français,f,3,0.3,86.13143505,1.54149443
5b8fffca220be50001c59858,16,0,2024-02-27T11:06:33.800Z,english_52.wav,0,pill,248,26,5,5,français,f,4,0.32341667,-53.30399902,1.3376245
5b8fffca220be50001c59858,17,0,2024-02-27T11:06:33.800Z,english_981.wav,0,peel,370,26,5,5,français,f,0,0.0,-19.49446297,1.96452006
5b8fffca220be50001c59858,17,0,2024-02-27T11:06:33.800Z,english_981.wav,0,peel,370,26,5,5,français,f,1,0.1,-69.0386812,1.2006287
5b8fffca220be50001c59858,17,0,2024-02-27T11:06:33.800Z,english_981.wav,0,peel,370,26,5,5,français,f,2,0.2,-25.77088537,0.98600753
5b8fffca220be50001c59858,17,0,2024-02-27T11:06:33.800Z,english_981.wav,0,peel,370,26,5,5,français,f,3,0.3,65.67633712,0.21362544
5b8fffca220be50001c59858,17,0,2024-02-27T11:06:33.800Z,english_981.wav,0,peel,370,26,5,5,français,f,4,0.32341667,-6.1640169,0.33780549
5b8fffca220be50001c59858,18,0,2024-02-27T11:06:33.800Z,english_883.wav,0,peel,399,26,5,5,français,f,0,0.0,-17.60743744,1.86037562
5b8fffca220be50001c59858,18,0,2024-02-27T11:06:33.800Z,english_883.wav,0,peel,399,26,5,5,français,f,1,0.1,-37.46625877,0.9331332
5b8fffca220be50001c59858,18,0,2024-02-27T11:06:33.800Z,english_883.wav,0,peel,399,26,5,5,français,f,2,0.2,55.1108939,1.34322635
5b8fffca220be50001c59858,18,0,2024-02-27T11:06:33.800Z,english_883.wav,0,peel,399,26,5,5,français,f,3,0.3,87.45591348,0.07818604
5b8fffca220be50001c59858,18,0,2024-02-27T11:06:33.800Z,english_883.wav,0,peel,399,26,5,5,français,f,4,0.32341667,-90.78539671,1.31446095
5b8fffca220be50001c59858,19,0,2024-02-27T11:06:33.800Z,english_416.wav,0,pill,383,26,5,5,français,f,0,0.0,26.92040942,0.66708871
5b8fffca220be50001c59858,19,0,2024-02-27T11:06:33.800Z,english_416.wav,0,pill,383,26,5,5,français,f,1,0.1,32.98463782,0.46140785
5b8fffca220be50001c59858,19,0,2024-02-27T11:06:33.800Z,english_416.wav,0,pill,383,26,5,5,français,f,2,0.2,94.30298269,0.4311344
5b8fffca220be50001c59858,19,0,2024-02-27T11:06:33.800Z,english_416.wav,0,pill,383,26,5,5,français,f,3,0.3,71.4008894,0.4522554
5b8fffca220be50001c59858,19,0,2024-02-27T11:06:33.800Z,english_416.wav,0,pill,383,26,5,5,français,f,4,0.32341667,-13.61584313,0.23817019
5b8fffca220be50001c59858,20,0,2024-02-27T11:06:33.800Z,english_815.wav,0,peel,840,26,5,5,français,f,0,0.0,-76.1669867,0.29426078
5b8fffca220be50001c59858,20,0,2024-02-27T11:06:33.800Z,english_815.wav,0,peel,840,26,5,5,français,f,1,0.1,-40.517901,0.96858733
5b8fffca220be50001c59858,20,0,2024-02-27T11:06:33.800Z,english_815.wav,0,peel,840,26,5,5,français,f,2,0.2,-46.68959253,0.83382199
5b8fffca220be50001c59858,20,0,2024-02-27T11:06:33.800Z,english_815.wav,0,peel,840,26,5,5,français,f,3,0.3,-79.23468646,1.13727176
5b8fffca220be50001c59858,20,0,2024-02-27T11:06:33.800Z,english_815.wav,0,peel,840,26,5,5,français,f,4,0.32341667,-63.63497058,0.09357312
5b8fffca220be50001c59858,21,0,2024-02-27T11:06:33.800Z,english_397.wav,0,peel,535,26,5,5,français,f,0,0.0,89.67962381,0.42719638
5b8fffca220be50001c59858,21,0,2024-02-27T11:06:33.800Z,english_397.wav,0,peel,535,26,5,5,français,f,1,0.1,-80.29722345,0.89466904
5b8fffca220be50001c59858,21,0,2024-02-27T11:06:33.800Z,english_397.wav,0,peel,535,26,5,5,français,f,2,0.2,60.53564011,0.56174568
5b8fffca220be50001c59858,21,0,2024-02-27T11:06:33.800Z,english_397.wav,0,peel,535,26,5,5,français,f,3,0.3,9.94565725,0.1553242
5b8fffca220be50001c59858,21,0,2024-02-27T11:06:33.800Z,english_397.wav,0,peel,535,26,5,5,français,f,4,0.32341667,0.1319882,1.89079641
5b8fffca220be50001c59858,22,0,2024-02-27T11:06:33.800Z,english_467.wav,0,peel,435,26,5,5,français,f,0,0.0,-0.54983343,1.824027
5b8fffca220be50001c59858,22,0,2024-02-27T11:06:33.800Z,english_467.wav,0,peel,435,26,5,5,français,f,1,0.1,-84.54516502,1.06295632
5b8fffca220be50001c59858,22,0,2024-02-27T11:06:33.800Z,english_467.wav,0,peel,435,26,5,5,français,f,2,0.2,54.30123894,1.09976952
5b8fffca220be50001c59858,22,0,2024-02-27T11:06:33.800Z,english_467.wav,0,peel,435,26,5,5,français,f,3,0.3,-82.00368026,1.11766566
5b8fffca220be50001c59858,22,0,2024-02-27T11:06:33.800Z,english_467.wav,0,peel,435,26,5,5,français,f,4,0.32341667,-54.10816942,0.44824559
5b8fffca220be50001c59858,23,0,2024-02-27T11:06:33.800Z,english_361.wav,0,peel,397,26,5,5,français,f,0,0.0,47.37783877,1.2281625
5b8fffca220be50001c59858,23,0,2024-02-27T11:06:33.800Z,english_361.wav,0,peel,397,26,5,5,français,f,1,0.1,41.96620543,0.32170701
5b8fffca220be50001c59858,23,0,2024-02-27T11:06:33.800Z,english_361.wav,0,peel,397,26,5,5,français,f,2,0.2,-99.83447432,0.41267147
5b8fffca220be50001c59858,23,0,2024-02-27T11:06:33.800Z,english_361.wav,0,peel,397,26,5,5,français,f,3,0.3,-83.75612903,0.32528287
5b8fffca220be50001c59858,23,0,2024-02-27T11:06:33.800Z,english_361.wav,0,peel,397,26,5,5,français,f,4,0.32341667,99.31228573,0.29737668
5b8fffca220be50001c59858,24,0,2024-02-27T11:06:33.800Z,english_901.wav,0,peel,295,26,5,5,français,f,0,0.0,-14.81770559,1.5194741
5b8fffca220be50001c59858,24,0,2024-02-27T11:06:33.800Z,english_901.wav,0,peel,295,26,5,5,français,f,1,0.1,-27.73561163,1.98674938
5b8fffca220be50001c59858,24,0,2024-02-27T11:06:33.800Z,english_901.wav,0,peel,295,26,5,5,français,f,2,0.2,-22.44015454,0.54356598
5b8fffca220be50001c59858,24,0,2024-02-27T11:06:33.800Z,english_901.wav,0,peel,295,26,5,5,français,f,3,0.3,-41.34815185,1.30497628
5b8fffca220be50001c59858,24,0,2024-02-27T11:06:33.800Z,english_901.wav,0,peel,295,26,5,5,français,f,4,0.32341667,10.13492358,0.61526789
5b8fffca220be50001c59858,25,0,2024-02-27T11:06:33.800Z,english_605.wav,0,pill,234,26,5,5,français,f,0,0.0,-82.65591545,0.90945233
5b8fffca220be50001c59858,25,0,2024-02-27T11:06:33.800Z,english_605.wav,0,pill,234,26,5,5,français,f,1,0.1,35.78886654,1.65178877
5b8fffca220be50001c59858,25,0,2024-02-27T11:06:33.800Z,english_605.wav,0,pill,234,26,5,5,français,f,2,0.2,-36.80716754,0.21181898
5b8fffca220be50001c59858,25,0,2024-02-27T11:06:33.800Z,english_605.wav,0,pill,234,26,5,5,français,f,3,0.3,-4.39131435,1.21754483
5b8fffca220be50001c59858,25,0,2024-02-27T11:06:33.800Z,english_605.wav,0,pill,234,26,5,5,français,f,4,0.32341667,-17.17702763,1.60493484
5b8fffca220be50001c59858,26,0,2024-02-27T11:06:33.800Z,english_117.wav,0,peel,443,26,5,5,français,f,0,0.0,-98.72491255,1.42659946
5b8fffca220be50001c59858,26,0,2024-02-27T11:06:33.800Z,english_117.wav,0,peel,443,26,5,5,français,f,1,0.1,-15.15642563,1.64599539
5b8fffca220be50001c59858,26,0,2024-02-27T11:06:33.800Z,english_117.wav,0,peel,443,26,5,5,français,f,2,0.2,24.45806353,0.97767705
5b8fffca220be50001c59858,26,0,2024-02-27T11:06:33.800Z,english_117.wav,0,peel,443,26,5,5,français,f,3,0.3,-80.67224668,0.37962884
5b8fffca220be50001c59858,26,0,2024-02-27T11:06:33.800Z,english_117.wav,0,peel,443,26,5,5,français,f,4,0.32341667,-97.50349755,0.74274723
5b8fffca220be50001c59858,27,0,2024-02-27T11:06:33.800Z,english_933.wav,0,peel,437,26,5,5,français,f,0,0.0,-48.12258855,1.54767366
5b8fffca220be50001c59858,27,0,2024-02-27T11:06:33.800Z,english_933.wav,0,peel,437,26,5,5,français,f,1,0.1,27.26905516,0.30219473
5b8fffca220be50001c59858,27,0,2024-02-27T11:06:33.800Z,english_933.wav,0,peel,437,26,5,5,français,f,2,0.2,0.35087756,1.50410475
5b8fffca220be50001c59858,27,0,2024-02-27T11:06:33.800Z,english_933.wav,0,peel,437,26,5,5,français,f,3,0.3,94.96402149,1.44820406
5b8fffca220be50001c59858,27,0,2024-02-27T11:06:33.800Z,english_933.wav,0,peel,437,26,5,5,français,f,4,0.32341667,61.52669097,0.05049928
5b8fffca220be50001c59858,28,0,2024-02-27T11:06:33.800Z,english_779.wav,0,pill,405,26,5,5,français,f,0,0.0,-66.48303018,1.22216448
5b8fffca220be50001c59858,28,0,2024-02-27T11:06:33.800Z,english_779.wav,0,pill,405,26,5,5,français,f,1,0.1,55.33592885,1.30288261
5b8fffca220be50001c59858,28,0,2024-02-27T11:06:33.800Z,english_779.wav,0,pill,405,26,5,5,français,f,2,0.2,67.38671669,0.25409759
5b8fffca220be50001c59858,28,0,2024-02-27T11:06:33.800Z,english_779.wav,0,pill,405,26,5,5,français,f,3,0.3,65.49052189,1.76174581
5b8fffca220be50001c59858,28,0,2024-02-27T11:06:33.800Z,english_779.wav,0,pill,405,26,5,5,français,f,4,0.32341667,-12.12955258,0.12280057
5b8fffca220be50001c59858,29,0,2024-02-27T11:06:33.800Z,english_434.wav,0,peel,433,26,5,5,français,f,0,0.0,-4.12787863,0.96421208
5b8fffca220be50001c59858,29,0,2024-02-27T11:06:33.800Z,english_434.wav,0,peel,433,26,5,5,français,f,1,0.1,-30.19441281,1.08561731
5b8fffca220be50001c59858,29,0,2024-02-27T11:06:33.800Z,english_434.wav,0,peel,433,26,5,5,français,f,2,0.2,41.04377471,1.46356301
5b8fffca220be50001c59858,29,0,2024-02-27T11:06:33.800Z,english_434.wav,0,peel,433,26,5,5,français,f,3,0.3,-32.43591961,0.25116585
5b8fffca220be50001c59858,29,0,2024-02-27T11:06:33.800Z,english_434.wav,0,peel,433,26,5,5,français,f,4,0.32341667,61.53108406,0.73120458
5b8fffca220be50001c59858,30,0,2024-02-27T11:06:33.800Z,english_357.wav,0,peel,499,26,5,5,français,f,0,0.0,76.35734026,1.14590216
5b8fffca220be50001c59858,30,0,2024-02-27T11:06:33.800Z,english_357.wav,0,peel,499,26,5,5,français,f,1,0.1,-86.84267031,0.53472093
5b8fffca220be50001c59858,30,0,2024-02-27T11:06:33.800Z,english_357.wav,0,peel,499,26,5,5,français,f,2,0.2,-64.6676431,0.54723503
5b8fffca220be50001c59858,30,0,2024-02-27T11:06:33.800Z,english_357.wav,0,peel,499,26,5,5,français,f,3,0.3,-69.9472318,1.29334783
5b8fffca220be50001c59858,30,0,2024-02-27T11:06:33.800Z,english_357.wav,0,peel,499,26,5,5,français,f,4,0.32341667,87.84988665,1.74725804
5b8fffca220be50001c59858,31,0,2024-02-27T11:06:33.800Z,english_638.wav,0,peel,1163,26,5,5,français,f,0,0.0,6.92468799,1.1702122
5b8fffca220be50001c59858,31,0,2024-02-27T11:06:33.800Z,english_638.wav,0,peel,1163,26,5,5,français,f,1,0.1,52.10042521,0.51269982
5b8fffca220be50001c59858,31,0,2024-02-27T11:06:33.800Z,english_638.wav,0,peel,1163,26,5,5,français,f,2,0.2,-39.07293948,0.1912204
5b8fffca220be50001c59858,31,0,2024-02-27T11:06:33.800Z,english_638.wav,0,peel,1163,26,5,5,français,f,3,0.3,38.46029754,0.91406415
5b8fffca220be50001c59858,31,0,2024-02-27T11:06:33.800Z,english_638.wav,0,peel,1163,26,5,5,français,f,4,0.32341667,-16.6630855,1.67689755
5b8fffca220be50001c59858,32,0,2024-02-27T11:06:33.800Z,english_73.wav,0,pill,462,26,5,5,français,f,0,0.0,-73.49165063,1.41947215
5b8fffca220be50001c59858,32,0,2024-02-27T11:06:33.800Z,english_73.wav,0,pill,462,26,5,5,français,f,1,0.1,65.54847429,1.68852165
5b8fffca220be50001c59858,32,0,2024-02-27T11:06:33.800Z,english_73.wav,0,pill,462,26,5,5,français,f,2,0.2,-55.11967081,0.59259525
5b8fffca220be50001c59858,32,0,2024-02-27T11:06:33.800Z,english_73.wav,0,pill,462,26,5,5,français,f,3,0.3,68.77466141,0.85140805
5b8fffca220be50001c59858,32,0,2024-02-27T11:06:33.800Z,english_73.wav,0,pill,462,26,5,5,français,f,4,0.32341667,-37.79888894,1.17745107
5b8fffca220be50001c59858,33,0,2024-02-27T11:06:33.800Z,english_623.wav,0,pill,743,26,5,5,français,f,0,0.0,-23.54178515,1.91881792
5b8fffca220be50001c59858,33,0,2024-02-27T11:06:33.800Z,english_623.wav,0,pill,743,26,5,5,français,f,1,0.1,-47.52772515,0.99675119
5b8fffca220be50001c59858,33,0,2024-02-27T11:06:33.800Z,english_623.wav,0,pill,743,26,5,5,français,f,2,0.2,47.20668934,0.26332691
5b8fffca220be50001c59858,33,0,2024-02-27T11:06:33.800Z,english_623.wav,0,pill,743,26,5,5,français,f,3,0.3,-98.32001938,1.33317057
5b8fffca220be50001c59858,33,0,2024-02-27T11:06:33.800Z,english_623.wav,0,pill,743,26,5,5,français,f,4,0.32341667,-63.09014275,1.04211108
5b8fffca220be50001c59858,34,0,2024-02-27T11:06:33.800Z,english_123.wav,0,peel,271,26,5,5,français,f,0,0.0,67.91608163,1.13046919
5b8fffca220be50001c59858,34,0,2024-02-27T11:06:33.800Z,english_123.wav,0,peel,271,26,5,5,français,f,1,0.1,-92.32097988,1.99597614
5b8fffca220be50001c59858,34,0,2024-02-27T11:06:33.800Z,english_123.wav,0,peel,271,26,5,5,français,f,2,0.2,57.07371841,1.53523853
5b8fffca220be50001c59858,34,0,2024-02-27T11:06:33.800Z,english_123.wav,0,peel,271,26,5,5,français,f,3,0.3,19.28317816,0.24385811
5b8fffca220be50001c59858,34,0,2024-02-27T11:06:33.800Z,english_123.wav,0,peel,271,26,5,5,français,f,4,0.32341667,15.30546887,0.39158976
5b8fffca220be50001c59858,35,0,2024-02-27T11:06:33.800Z,english_281.wav,0,peel,1155,26,5,5,français,f,0,0.0,-55.42099824,1.64310908
5b8fffca220be50001c59858,35,0,2024-02-27T11:06:33.800Z,english_281.wav,0,peel,1155,26,5,5,français,f,1,0.1,30.44020676,0.76997124
5b8fffca220be50001c59858,35,0,2024-02-27T11:06:33.800Z,english_281.wav,0,peel,1155,26,5,5,français,f,2,0.2,53.34739709,0.1940809
5b8fffca220be50001c59858,35,0,2024-02-27T11:06:33.800Z,english_281.wav,0,peel,1155,26,5,5,français,f,3,0.3,-32.26512488,0.25794937
5b8fffca220be50001c59858,35,0,2024-02-27T11:06:33.800Z,english_281.wav,0,peel,1155,26,5,5,français,f,4,0.32341667,-59.86883114,1.27043487
5b8fffca220be50001c59858,36,0,2024-02-27T11:06:33.800Z,english_375.wav,0,peel,1220,26,5,5,français,f,0,0.0,18.096335,0.30735121
5b8fffca220be50001c59858,36,0,2024-02-27T11:06:33.800Z,english_375.wav,0,peel,1220,26,5,5,français,f,1,0.1,-55.77885891,1.17808606
5b8fffca220be50001c59858,36,0,2024-02-27T11:06:33.800Z,english_375.wav,0,peel,1220,26,5,5,français,f,2,0.2,-79.80603762,1.03107785
5b8fffca220be50001c59858,36,0,2024-02-27T11:06:33.800Z,english_375.wav,0,peel,1220,26,5,5,français,f,3,0.3,-57.7566014,0.46519988
5b8fffca220be50001c59858,36,0,2024-02-27T11:06:33.800Z,english_375.wav,0,peel,1220,26,5,5,français,f,4,0.32341667,74.14673873,1.41875211
5b8fffca220be50001c59858,37,0,2024-02-27T11:06:33.800Z,english_127.wav,0,peel,477,26,5,5,français,f,0,0.0,-69.70750805,0.25070661
5b8fffca220be50001c59858,37,0,2024-02-27T11:06:33.800Z,english_127.wav,0,peel,477,26,5,5,français,f,1,0.1,-23.17484413,1.1475992
5b8fffca220be50001c59858,37,0,2024-02-27T11:06:33.800Z,english_127.wav,0,peel,477,26,5,5,français,f,2,0.2,16.27024862,1.99299371
5b8fffca220be50001c59858,37,0,2024-02-27T11:06:33.800Z,english_127.wav,0,peel,477,26,5,5,français,f,3,0.3,-50.08342814,0.57749513
5b8fffca220be50001c59858,37,0,2024-02-27T11:06:33.800Z,english_127.wav,0,peel,477,26,5,5,français,f,4,0.32341667,22.60332787,1.27832678
5b8fffca220be50001c59858,38,0,2024-02-27T11:06:33.800Z,english_537.wav,0,pill,299,26,5,5,français,f,0,0.0,70.8709352,0.55947112
5b8fffca220be50001c59858,38,0,2024-02-27T11:06:33.800Z,english_537.wav,0,pill,299,26,5,5,français,f,1,0.1,32.34369018,1.10627241
5b8fffca220be50001c59858,38,0,2024-02-27T11:06:33.800Z,english_537.wav,0,pill,299,26,5,5,français,f,2,0.2,-92.9302278,1.10842043
5b8fffca220be50001c59858,38,0,2024-02-27T11:06:33.800Z,english_537.wav,0,pill,299,26,5,5,français,f,3,0.3,14.89115364,0.86800797
5b8fffca220be50001c59858,38,0,2024-02-27T11:06:33.800Z,english_537.wav,0,pill,299,26,5,5,français,f,4,0.32341667,-67.12260703,1.7659473
5b8fffca220be50001c59858,39,0,2024-02-27T11:06:33.800Z,english_939.wav,0,peel,213,26,5,5,français,f,0,0.0,-23.2558256,0.1774722
5b8fffca220be50001c59858,39,0,2024-02-27T11:06:33.800Z,english_939.wav,0,peel,213,26,5,5,français,f,1,0.1,-16.62065377,0.56271239
5b8fffca220be50001c59858,39,0,2024-02-27T11:06:33.800Z,english_939.wav,0,peel,213,26,5,5,français,f,2,0.2,-49.54734698,1.42782479
5b8fffca220be50001c59858,39,0,2024-02-27T11:06:33.800Z,english_939.wav,0,peel,213,26,5,5,français,f,3,0.3,22.82101289,0.76516147
5b8fffca220be50001c59858,39,0,2024-02-27T11:06:33.800Z,english_939.wav,0,peel,213,26,5,5,français,f,4,0.32341667,28.63490654,1.70219777
5b8fffca220be50001c59858,40,0,2024-02-27T11:06:33.800Z,english_849.wav,0,pill,379,26,5,5,français,f,0,0.0,-24.45439181,1.62147024
5b8fffca220be50001c59858,40,0,2024-02-27T11:06:33.800Z,english_849.wav,0,pill,379,26,5,5,français,f,1,0.1,-64.97605389,1.28655358
5b8fffca220be50001c59858,40,0,2024-02-27T11:06:33.800Z,english_849.wav,0,pill,379,26,5,5,français,f,2,0.2,-67.78874915,0.154454
5b8fffca220be50001c59858,40,0,2024-02-27T11:06:33.800Z,english_849.wav,0,pill,379,26,5,5,français,f,3,0.3,-6.53184928,1.49227138
5b8fffca220be50001c59858,40,0,2024-02-27T11:06:33.800Z,english_849.wav,0,pill,379,26,5,5,français,f,4,0.32341667,59.1884023,1.08662162
5b8fffca220be50001c59858,41,0,2024-02-27T11:06:33.800Z,english_526.wav,0,peel,639,26,5,5,français,f,0,0.0,-32.34532461,0.924261
5b8fffca220be50001c59858,41,0,2024-02-27T11:06:33.800Z,english_526.wav,0,peel,639,26,5,5,français,f,1,0.1,-46.6208459,0.25414499
5b8fffca220be50001c59858,41,0,2024-02-27T11:06:33.800Z,english_526.wav,0,peel,639,26,5,5,français,f,2,0.2,-42.84927068,1.01925886
5b8fffca220be50001c59858,41,0,2024-02-27T11:06:33.800Z,english_526.wav,0,peel,639,26,5,5,français,f,3,0.3,3.47643827,0.65966822
5b8fffca220be50001c59858,41,0,2024-02-27T11:06:33.800Z,english_526.wav,0,peel,639,26,5,5,français,f,4,0.32341667,52.79087598,1.50872035
5b8fffca220be50001c59858,42,0,2024-02-27T11:06:33.800Z,english_820.wav,0,pill,244,26,5,5,français,f,0,0.0,-46.83321603,0.84618107
5b8fffca220be50001c59858,42,0,2024-02-27T11:06:33.800Z,english_820.wav,0,pill,244,26,5,5,français,f,1,0.1,41.6487922,0.98544532
5b8fffca220be50001c59858,42,0,2024-02-27T11:06:33.800Z,english_820.wav,0,pill,244,26,5,5,français,f,2,0.2,8.4156442,0.7701051
5b8fffca220be50001c59858,42,0,2024-02-27T11:06:33.800Z,english_820.wav,0,pill,244,26,5,5,français,f,3,0.3,-54.82963666,1.20043732
5b8fffca220be50001c59858,42,0,2024-02-27T11:06:33.800Z,english_820.wav,0,pill,244,26,5,5,français,f,4,0.32341667,30.43602938,1.85489027
5b8fffca220be50001c59858,43,0,2024-02-27T11:06:33.800Z,english_948.wav,0,peel,180,26,5,5,français,f,0,0.0,12.28616187,1.33435242
5b8fffca220be50001c59858,43,0,2024-02-27T11:06:33.800Z,english_948.wav,0,peel,180,26,5,5,français,f,1,0.1,33.44634687,1.33862855
5b8fffca220be50001c59858,43,0,2024-02-27T11:06:33.800Z,english_948.wav,0,peel,180,26,5,5,français,f,2,0.2,98.80566767,1.25876505
5b8fffca220be50001c59858,43,0,2024-02-27T11:06:33.800Z,english_948.wav,0,peel,180,26,5,5,français,f,3,0.3,-93.57044844,1.87938727
5b8fffca220be50001c59858,43,0,2024-02-27T11:06:33.800Z,english_948.wav,0,peel,180,26,5,5,français,f,4,0.32341667,-51.09398555,1.88731406
5b8fffca220be50001c59858,44,0,2024-02-27T11:06:33.800Z,english_463.wav,0,peel,244,26,5,5,français,f,0,0.0,-17.89775534,1.84132871
5b8fffca220be50001c59858,44,0,2024-02-27T11:06:33.800Z,english_463.wav,0,peel,244,26,5,5,français,f,1,0.1,-21.51631701,1.66361617
5b8fffca220be50001c59858,44,0,2024-02-27T11:06:33.800Z,english_463.wav,0,peel,244,26,5,5,français,f,2,0.2,-12.53951077,0.64060514
5b8fffca220be50001c59858,44,0,2024-02-27T11:06:33.800Z,english_463.wav,0,peel,244,26,5,5,français,f,3,0.3,33.47501925,1.01091097
5b8fffca220be50001c59858,44,0,2024-02-27T11:06:33.800Z,english_463.wav,0,peel,244,26,5,5,français,f,4,0.32341667,-93.09525534,0.69499506
5b8fffca220be50001c59858,45,0,2024-02-27T11:06:33.800Z,english_90.wav,0,peel,309,26,5,5,français,f,0,0.0,82.68866707,0.54239523
5b8fffca220be50001c59858,45,0,2024-02-27T11:06:33.800Z,english_90.wav,0,peel,309,26,5,5,français,f,1,0.1,-81.25370946,1.03335699
5b8fffca220be50001c59858,45,0,2024-02-27T11:06:33.800Z,english_90.wav,0,peel,309,26,5,5,français,f,2,0.2,56.28719083,1.93576477
5b8fffca220be50001c59858,45,0,2024-02-27T11:06:33.800Z,english_90.wav,0,peel,309,26,5,5,français,f,3,0.3,-46.43338119,0.74570916
5b8fffca220be50001c59858,45,0,2024-02-27T11:06:33.800Z,english_90.wav,0,peel,309,26,5,5,français,f,4,0.32341667,-19.93520327,1.11115504
5b8fffca220be50001c59858,46,0,2024-02-27T11:06:33.800Z,english_348.wav,0,peel,565,26,5,5,français,f,0,0.0,21.35215111,0.19799702
5b8fffca220be50001c59858,46,0,2024-02-27T11:06:33.800Z,english_348.wav,0,peel,565,26,5,5,français,f,1,0.1,14.79849269,0.60931017
5b8fffca220be50001c59858,46,0,2024-02-27T11:06:33.800Z,english_348.wav,0,peel,565,26,5,5,français,f,2,0.2,53.1788992,0.16102666
5b8fffca220be50001c59858,46,0,2024-02-27T11:06:33.800Z,english_348.wav,0,peel,565,26,5,5,français,f,3,0.3,-95.85723561,1.54818605
5b8fffca220be50001c59858,46,0,2024-02-27T11:06:33.800Z,english_348.wav,0,peel,565,26,5,5,français,f,4,0.32341667,5.27283499,0.26552753
5b8fffca220be50001c59858,47,0,2024-02-27T11:06:33.800Z,english_322.wav,0,peel,434,26,5,5,français,f,0,0.0,-27.28438319,0.79345249
5b8fffca220be50001c59858,47,0,2024-02-27T11:06:33.800Z,english_322.wav,0,peel,434,26,5,5,français,f,1,0.1,-98.66999083,0.28651419
5b8fffca220be50001c59858,47,0,2024-02-27T11:06:33.800Z,english_322.wav,0,peel,434,26,5,5,français,f,2,0.2,-54.08694108,1.26482546
5b8fffca220be50001c59858,47,0,2024-02-27T11:06:33.800Z,english_322.wav,0,peel,434,26,5,5,français,f,3,0.3,-7.3933801,0.6947791
5b8fffca220be50001c59858,47,0,2024-02-27T11:06:33.800Z,english_322.wav,0,peel,434,26,5,5,français,f,4,0.32341667,72.49489683,0.74875353
5b8fffca220be50001c59858,48,0,2024-02-27T11:06:33.800Z,english_513.wav,0,peel,514,26,5,5,français,f,0,0.0,76.78578212,0.02403043
5b8fffca220be50001c59858,48,0,2024-02-27T11:06:33.800Z,english_513.wav,0,peel,514,26,5,5,français,f,1,0.1,20.42124481,0.85164369
5b8fffca220be50001c59858,48,0,2024-02-27T11:06:33.800Z,english_513.wav,0,peel,514,26,5,5,français,f,2,0.2,83.32251122,1.08658436
5b8fffca220be50001c59858,48,0,2024-02-27T11:06:33.800Z,english_513.wav,0,peel,514,26,5,5,français,f,3,0.3,47.28432413,0.40639055
5b8fffca220be50001c59858,48,0,2024-02-27T11:06:33.800Z,english_513.wav,0,peel,514,26,5,5,français,f,4,0.32341667,-50.64117466,1.29336046
5b8fffca220be50001c59858,49,0,2024-02-27T11:06:33.800Z,english_254.wav,0,peel,519,26,5,5,français,f,0,0.0,-9.19838866,1.99657173
5b8fffca220be50001c59858,49,0,2024-02-27T11:06:33.800Z,english_254.wav,0,peel,519,26,5,5,français,f,1,0.1,15.86633291,1.39044581
5b8fffca220be50001c59858,49,0,2024-02-27T11:06:33.800Z,english_254.wav,0,peel,519,26,5,5,français,f,2,0.2,-42.67167238,1.09933375
5b8fffca220be50001c59858,49,0,2024-02-27T11:06:33.800Z,english_254.wav,0,peel,519,26,5,5,français,f,3,0.3,-11.53254556,0.78821302
5b8fffca220be50001c59858,49,0,2024-02-27T11:06:33.800Z,english_254.wav,0,peel,519,26,5,5,français,f,4,0.32341667,-12.27536806,0.39297423
5b8fffca220be50001c59858,50,1,2024-02-27T11:08:18.221Z,english_788.wav,0,peel,1087,26,5,5,français,f,0,0.0,-93.79628683,0.67330318
5b8fffca220be50001c59858,50,1,2024-02-27T11:08:18.221Z,english_788.wav,0,peel,1087,26,5,5,français,f,1,0.1,-45.29703147,1.33385595
5b8fffca220be50001c59858,50,1,2024-02-27T11:08:18.221Z,english_788.wav,0,peel,1087,26,5,5,français,f,2,0.2,-46.01001772,1.35248941
5b8fffca220be50001c59858,50,1,2024-02-27T11:08:18.221Z,english_788.wav,0,peel,1087,26,5,5,français,f,3,0.3,-56.6729179,1.33220146
5b8fffca220be50001c59858,50,1,2024-02-27T11:08:18.221Z,english_788.wav,0,peel,1087,26,5,5,français,f,4,0.32341667,51.29020462,1.32468206
5b8fffca220be50001c59858,51,1,2024-02-27T11:08:18.221Z,english_591.wav,0,peel,541,26,5,5,français,f,0,0.0,-17.23532002,0.16408748
5b8fffca220be50001c59858,51,1,2024-02-27T11:08:18.221Z,english_591.wav,0,peel,541,26,5,5,français,f,1,0.1,-55.20494434,0.21361432
5b8fffca220be50001c59858,51,1,2024-02-27T11:08:18.221Z,english_591.wav,0,peel,541,26,5,5,français,f,2,0.2,-36.65883109,0.19384467
5b8fffca220be50001c59858,51,1,2024-02-27T11:08:18.221Z,english_591.wav,0,peel,541,26,5,5,français,f,3,0.3,75.34514139,0.82850175
5b8fffca220be50001c59858,51,1,2024-02-27T11:08:18.221Z,english_591.wav,0,peel,541,26,5,5,français,f,4,0.32341667,31.2832342,1.471328
5b8fffca220be50001c59858,52,1,2024-02-27T11:08:18.221Z,english_628.wav,0,peel,481,26,5,5,français,f,0,0.0,-19.71295886,0.8960583
5b8fffca220be50001c59858,52,1,2024-02-27T11:08:18.221Z,english_628.wav,0,peel,481,26,5,5,français,f,1,0.1,-79.294697,1.61949508
5b8fffca220be50001c59858,52,1,2024-02-27T11:08:18.221Z,english_628.wav,0,peel,481,26,5,5,français,f,2,0.2,-59.93256946,0.65483299
5b8fffca220be50001c59858,52,1,2024-02-27T11:08:18.221Z,english_628.wav,0,peel,481,26,5,5,français,f,3,0.3,-18.46863719,0.12001531
5b8fffca220be50001c59858,52,1,2024-02-27T11:08:18.221Z,english_628.wav,0,peel,481,26,5,5,français,f,4,0.32341667,53.30350975,0.85308449
5b8fffca220be50001c59858,53,1,2024-02-27T11:08:18.221Z,english_782.wav,0,peel,351,26,5,5,français,f,0,0.0,-98.70381677,1.47488053
5b8fffca220be50001c59858,53,1,2024-02-27T11:08:18.221Z,english_782.wav,0,peel,351,26,5,5,français,f,1,0.1,-69.82387258,0.7270016
5b8fffca220be50001c59858,53,1,2024-02-27T11:08:18.221Z,english_782.wav,0,peel,351,26,5,5,français,f,2,0.2,35.26613747,0.08778447
5b8fffca220be50001c59858,53,1,2024-02-27T11:08:18.221Z,english_782.wav,0,peel,351,26,5,5,français,f,3,0.3,-81.38004879,1.16903228
5b8fffca220be50001c59858,53,1,2024-02-27T11:08:18.221Z,english_782.wav,0,peel,351,26,5,5,français,f,4,0.32341667,-61.83067014,0.92727902
5b8fffca220be50001c59858,54,1,2024-02-27T11:08:18.221Z,english_180.wav,0,peel,240,26,5,5,français,f,0,0.0,-79.96502932,0.84610218
5b8fffca220be50001c59858,54,1,2024-02-27T11:08:18.221Z,english_180.wav,0,peel,240,26,5,5,français,f,1,0.1,33.21752916,1.88919334
5b8fffca220be50001c59858,54,1,2024-02-27T11:08:18.221Z,english_180.wav,0,peel,240,26,5,5,français,f,2,0.2,-97.52705813,0.18699196
5b8fffca220be50001c59858,54,1,2024-02-27T11:08:18.221Z,english_180.wav,0,peel,240,26,5,5,français,f,3,0.3,42.51331828,0.0366283
5b8fffca220be50001c59858,54,1,2024-02-27T11:08:18.221Z,english_180.wav,0,peel,240,26,5,5,français,f,4,0.32341667,-42.98571984,0.95813987
5b8fffca220be50001c59858,55,1,2024-02-27T11:08:18.221Z,english_365.wav,0,peel,117,26,5,5,français,f,0,0.0,58.11205919,0.53708026
5b8fffca220be50001c59858,55,1,2024-02-27T11:08:18.221Z,english_365.wav,0,peel,117,26,5,5,français,f,1,0.1,-61.04014877,1.10456153
5b8fffca220be50001c59858,55,1,2024-02-27T11:08:18.221Z,english_365.wav,0,peel,117,26,5,5,français,f,2,0.2,12.43042802,1.31731937
5b8fffca220be50001c59858,55,1,2024-02-27T11:08:18.221Z,english_365.wav,0,peel,117,26,5,5,français,f,3,0.3,17.00746388,1.02387946
5b8fffca220be50001c59858,55,1,2024-02-27T11:08:18.221Z,english_365.wav,0,peel,117,26,5,5,français,f,4,0.32341667,-69.10644956,1.31633463
5b8fffca220be50001c59858,56,1,2024-02-27T11:08:18.221Z,english_767.wav,0,peel,219,26,5,5,français,f,0,0.0,29.63321135,0.17563718
5b8fffca220be50001c59858,56,1,2024-02-27T11:08:18.221Z,english_767.wav,0,peel,219,26,5,5,français,f,1,0.1,-31.63783795,0.61981002
5b8fffca220be50001c59858,56,1,2024-02-27T11:08:18.221Z,english_767.wav,0,peel,219,26,5,5,français,f,2,0.2,56.53254366,1.38773128
5b8fffca220be50001c59858,56,1,2024-02-27T11:08:18.221Z,english_767.wav,0,peel,219,26,5,5,français,f,3,0.3,52.69149806,1.37795514
5b8fffca220be50001c59858,56,1,2024-02-27T11:08:18.221Z,english_767.wav,0,peel,219,26,5,5,français,f,4,0.32341667,-0.8536295,1.97315338
5b8fffca220be50001c59858,57,1,2024-02-27T11:08:18.221Z,english_47.wav,0,peel,627,26,5,5,français,f,0,0.0,70.62381491,1.36620222
5b8fffca220be50001c59858,57,1,2024-02-27T11:08:18.221Z,english_47.wav,0,peel,627,26,5,5,français,f,1,0.1,-43.60565268,0.47559644
5b8fffca220be50001c59858,57,1,2024-02-27T11:08:18.221Z,english_47.wav,0,peel,627,26,5,5,français,f,2,0.2,29.54670776,0.92078875
5b8fffca220be50001c59858,57,1,2024-02-27T11:08:18.221Z,english_47.wav,0,peel,627,26,5,5,français,f,3,0.3,95.208653,0.83015506
5b8fffca220be50001c59858,57,1,2024-02-27T11:08:18.221Z,english_47.wav,0,peel,627,26,5,5,français,f,4,0.32341667,-87.83630424,1.40747595
5b8fffca220be50001c59858,58,1,2024-02-27T11:08:18.221Z,english_498.wav,0,peel,560,26,5,5,français,f,0,0.0,2.49020902,0.78964515
5b8fffca220be50001c59858,58,1,2024-02-27T11:08:18.221Z,english_498.wav,0,peel,560,26,5,5,français,f,1,0.1,-20.55300452,0.24391593
5b8fffca220be50001c59858,58,1,2024-02-27T11:08:18.221Z,english_498.wav,0,peel,560,26,5,5,français,f,2,0.2,-34.14985779,0.11401041
5b8fffca220be50001c59858,58,1,2024-02-27T11:08:18.221Z,english_498.wav,0,peel,560,26,5,5,français,f,3,0.3,79.54997135,1.52582154
5b8fffca220be50001c59858,58,1,2024-02-27T11:08:18.221Z,english_498.wav,0,peel,560,26,5,5,français,f,4,0.32341667,20.54695207,0.62547878
5b8fffca220be50001c59858,59,1,2024-02-27T11:08:18.221Z,english_553.wav,0,peel,274,26,5,5,français,f,0,0.0,-18.85071283,1.30647824
5b8fffca220be50001c59858,59,1,2024-02-27T11:08:18.221Z,english_553.wav,0,peel,274,26,5,5,français,f,1,0.1,56.72439372,1.55205535
5b8fffca220be50001c59858,59,1,2024-02-27T11:08:18.221Z,english_553.wav,0,peel,274,26,5,5,français,f,2,0.2,-32.51510613,1.79127341
5b8fffca220be50001c59858,59,1,2024-02-27T11:08:18.221Z,english_553.wav,0,peel,274,26,5,5,français,f,3,0.3,-81.56708954,0.1795284
5b8fffca220be50001c59858,59,1,2024-02-27T11:08:18.221Z,english_553.wav,0,peel,274,26,5,5,français,f,4,0.32341667,42.80590219,0.48805839
5b8fffca220be50001c59858,60,1,2024-02-27T11:08:18.221Z,english_310.wav,0,peel,186,26,5,5,français,f,0,0.0,82.1385274,0.14341218
5b8fffca220be50001c59858,60,1,2024-02-27T11:08:18.221Z,english_310.wav,0,peel,186,26,5,5,français,f,1,0.1,-33.74608058,1.80934389
5b8fffca220be50001c59858,60,1,2024-02-27T11:08:18.221Z,english_310.wav,0,peel,186,26,5,5,français,f,2,0.2,62.12487376,1.28785402
5b8fffca220be50001c59858,60,1,2024-02-27T11:08:18.221Z,english_310.wav,0,peel,186,26,5,5,français,f,3,0.3,96.31437548,1.13060378
5b8fffca220be50001c59858,60,1,2024-02-27T11:08:18.221Z,english_310.wav,0,peel,186,26,5,5,français,f,4,0.32341667,-23.64802517,1.05137249
5b8fffca220be50001c59858,61,1,2024-02-27T11:08:18.221Z,english_586.wav,0,peel,1711,26,5,5,français,f,0,0.0,-62.23642036,1.06144709
5b8fffca220be50001c59858,61,1,2024-02-27T11:08:18.221Z,english_586.wav,0,peel,1711,26,5,5,français,f,1,0.1,79.13201234,0.54207142
5b8fffca220be50001c59858,61,1,2024-02-27T11:08:18.221Z,english_586.wav,0,peel,1711,26,5,5,français,f,2,0.2,-89.54923437,0.72134233
5b8fffca220be50001c59858,61,1,2024-02-27T11:08:18.221Z,english_586.wav,0,peel,1711,26,5,5,français,f,3,0.3,-19.27573078,0.33417878
5b8fffca220be50001c59858,61,1,2024-02-27T11:08:18.221Z,english_586.wav,0,peel,1711,26,5,5,français,f,4,0.32341667,-62.71214645,1.54129631
5b8fffca220be50001c59858,62,1,2024-02-27T11:08:18.221Z,english_246.wav,0,peel,467,26,5,5,français,f,0,0.0,-62.23082525,0.02615808
5b8fffca220be50001c59858,62,1,2024-02-27T11:08:18.221Z,english_246.wav,0,peel,467,26,5,5,français,f,1,0.1,59.67623932,1.52596932
5b8fffca220be50001c59858,62,1,2024-02-27T11:08:18.221Z,english_246.wav,0,peel,467,26,5,5,français,f,2,0.2,-63.30715513,1.87080553
5b8fffca220be50001c59858,62,1,2024-02-27T11:08:18.221Z,english_246.wav,0,peel,467,26,5,5,français,f,3,0.3,15.41118057,0.81226596
5b8fffca220be50001c59858,62,1,2024-02-27T11:08:18.221Z,english_246.wav,0,peel,467,26,5,5,français,f,4,0.32341667,90.60814582,0.64975072
5b8fffca220be50001c59858,63,1,2024-02-27T11:08:18.221Z,english_766.wav,0,peel,579,26,5,5,français,f,0,0.0,-86.57417509,1.21737292
5b8fffca220be50001c59858,63,1,2024-02-27T11:08:18.221Z,english_766.wav,0,peel,579,26,5,5,français,f,1,0.1,-67.75686223,1.61484435
5b8fffca220be50001c59858,63,1,2024-02-27T11:08:18.221Z,english_766.wav,0,peel,579,26,5,5,français,f,2,0.2,74.21258041,1.47872362
5b8fffca220be50001c59858,63,1,2024-02-27T11:08:18.221Z,english_766.wav,0,peel,579,26,5,5,français,f,3,0.3,65.20164426,1.81064247
5b8fffca220be50001c59858,63,1,2024-02-27T11:08:18.221Z,english_766.wav,0,peel,579,26,5,5,français,f,4,0.32341667,-26.41371036,1.37776493
5b8fffca220be50001c59858,64,1,2024-02-27T11:08:18.221Z,english_908.wav,0,peel,292,26,5,5,français,f,0,0.0,48.62867987,1.27180628
5b8fffca220be50001c59858,64,1,2024-02-27T11:08:18.221Z,english_908.wav,0,peel,292,26,5,5,français,f,1,0.1,15.18588807,0.65893562
5b8fffca220be50001c59858,64,1,2024-02-27T11:08:18.221Z,english_908.wav,0,peel,292,26,5,5,français,f,2,0.2,-42.37345339,1.07678682
5b8fffca220be50001c59858,64,1,2024-02-27T11:08:18.221Z,english_908.wav,0,peel,292,26,5,5,français,f,3,0.3,10.74033392,1.66111239
5b8fffca220be50001c59858,64,1,2024-02-27T11:08:18.221Z,english_908.wav,0,peel,292,26,5,5,français,f,4,0.32341667,-40.14378972,0.30218678
5b8fffca220be50001c59858,65,1,2024-02-27T11:08:18.221Z,english_178.wav,0,peel,198,26,5,5,français,f,0,0.0,-14.41838744,0.71193749
5b8fffca220be50001c59858,65,1,2024-02-27T11:08:18.221Z,english_178.wav,0,peel,198,26,5,5,français,f,1,0.1,64.59665955,0.54024543
5b8fffca220be50001c59858,65,1,2024-02-27T11:08:18.221Z,english_178.wav,0,peel,198,26,5,5,français,f,2,0.2,-96.76492712,1.78065704
5b8fffca220be50001c59858,65,1,2024-02-27T11:08:18.221Z,english_178.wav,0,peel,198,26,5,5,français,f,3,0.3,-50.00654232,1.40559917
5b8fffca220be50001c59858,65,1,2024-02-27T11:08:18.221Z,english_178.wav,0,peel,198,26,5,5,français,f,4,0.32341667,42.56426636,0.99785593
5b8fffca220be50001c59858,66,1,2024-02-27T11:08:18.221Z,english_173.wav,0,peel,214,26,5,5,français,f,0,0.0,11.1251521,0.60172576
5b8fffca220be50001c59858,66,1,2024-02-27T11:08:18.221Z,english_173.wav,0,peel,214,26,5,5,français,f,1,0.1,94.22411188,0.44802145
5b8fffca220be50001c59858,66,1,2024-02-27T11:08:18.221Z,english_173.wav,0,peel,214,26,5,5,français,f,2,0.2,89.44753043,1.27552997
5b8fffca220be50001c59858,66,1,2024-02-27T11:08:18.221Z,english_173.wav,0,peel,214,26,5,5,français,f,3,0.3,74.30769895,1.09756939
5b8fffca220be50001c59858,66,1,2024-02-27T11:08:18.221Z,english_173.wav,0,peel,214,26,5,5,français,f,4,0.32341667,-37.47679669,0.7907315
5b8fffca220be50001c59858,67,1,2024-02-27T11:08:18.221Z,english_273.wav,0,peel,195,26,5,5,français,f,0,0.0,-44.98289573,1.94838534
5b8fffca220be50001c59858,67,1,2024-02-27T11:08:18.221Z,english_273.wav,0,peel,195,26,5,5,français,f,1,0.1,24.32546199,0.68888608
5b8fffca220be50001c59858,67,1,2024-02-27T11:08:18.221Z,english_273.wav,0,peel,195,26,5,5,français,f,2,0.2,61.84573583,1.95265796
5b8fffca220be50001c59858,67,1,2024-02-27T11:08:18.221Z,english_273.wav,0,peel,195,26,5,5,français,f,3,0.3,-1.88803465,1.62060328
5b8fffca220be50001c59858,67,1,2024-02-27T11:08:18.221Z,english_273.wav,0,peel,195,26,5,5,français,f,4,0.32341667,57.02125087,0.94638053
5b8fffca220be50001c59858,68,1,2024-02-27T11:08:18.221Z,english_230.wav,0,peel,243,26,5,5,français,f,0,0.0,59.01519707,0.66464778
5b8fffca220be50001c59858,68,1,2024-02-27T11:08:18.221Z,english_230.wav,0,peel,243,26,5,5,français,f,1,0.1,-74.67447784,1.09498554
5b8fffca220be50001c59858,68,1,2024-02-27T11:08:18.221Z,english_230.wav,0,peel,243,26,5,5,français,f,2,0.2,78.11378701,0.24708562
5b8fffca220be50001c59858,68,1,2024-02-27T11:08:18.221Z,english_230.wav,0,peel,243,26,5,5,français,f,3,0.3,26.79367619,1.40152246
5b8fffca220be50001c59858,68,1,2024-02-27T11:08:18.221Z,english_230.wav,0,peel,243,26,5,5,français,f,4,0.32341667,29.92451654,1.02203861
5b8fffca220be50001c59858,69,1,2024-02-27T11:08:18.221Z,english_344.wav,0,peel,168,26,5,5,français,f,0,0.0,-81.18103124,1.80730522
5b8fffca220be50001c59858,69,1,2024-02-27T11:08:18.221Z,english_344.wav,0,peel,168,26,5,5,français,f,1,0.1,-15.12635331,1.30606229
5b8fffca220be50001c59858,69,1,2024-02-27T11:08:18.221Z,english_344.wav,0,peel,168,26,5,5,français,f,2,0.2,92.11407185,0.89739403
5b8fffca220be50001c59858,69,1,2024-02-27T11:08:18.221Z,english_344.wav,0,peel,168,26,5,5,français,f,3,0.3,-26.28325028,0.17834637
5b8fffca220be50001c59858,69,1,2024-02-27T11:08:18.221Z,english_344.wav,0,peel,168,26,5,5,français,f,4,0.32341667,-10.89648072,0.48618419
5b8fffca220be50001c59858,70,1,2024-02-27T11:08:18.221Z,english_327.wav,0,peel,229,26,5,5,français,f,0,0.0,-65.34261839,0.94624792
5b8fffca220be50001c59858,70,1,2024-02-27T11:08:18.221Z,english_327.wav,0,peel,229,26,5,5,français,f,1,0.1,-88.88296173,0.88463276
5b8fffca220be50001c59858,70,1,2024-02-27T11:08:18.221Z,english_327.wav,0,peel,229,26,5,5,français,f,2,0.2,-52.48624316,0.8064175
5b8fffca220be50001c59858,70,1,2024-02-27T11:08:18.221Z,english_327.wav,0,peel,229,26,5,5,français,f,3,0.3,35.3894457,1.08656597
5b8fffca220be50001c59858,70,1,2024-02-27T11:08:18.221Z,english_327.wav,0,peel,229,26,5,5,français,f,4,0.32341667,-31.26503482,0.95323019
5b8fffca220be50001c59858,71,1,2024-02-27T11:08:18.221Z,english_31.wav,0,peel,520,26,5,5,français,f,0,0.0,21.28810337,1.2057056
5b8fffca220be50001c59858,71,1,2024-02-27T11:08:18.221Z,english_31.wav,0,peel,520,26,5,5,français,f,1,0.1,68.821868,0.99381392
5b8fffca220be50001c59858,71,1,2024-02-27T11:08:18.221Z,english_31.wav,0,peel,520,26,5,5,français,f,2,0.2,-73.02143346,0.87600828
5b8fffca220be50001c59858,71,1,2024-02-27T11:08:18.221Z,english_31.wav,0,peel,520,26,5,5,français,f,3,0.3,68.60173581,1.15844697
5b8fffca220be50001c59858,71,1,2024-02-27T11:08:18.221Z,english_31.wav,0,peel,520,26,5,5,français,f,4,0.32341667,51.47999234,1.3722803
5b8fffca220be50001c59858,72,1,2024-02-27T11:08:18.221Z,english_976.wav,0,peel,178,26,5,5,français,f,0,0.0,-92.49082032,0.30893725
5b8fffca220be50001c59858,72,1,2024-02-27T11:08:18.221Z,english_976.wav,0,peel,178,26,5,5,français,f,1,0.1,92.01562452,1.54393752
5b8fffca220be50001c59858,72,1,2024-02-27T11:08:18.221Z,english_976.wav,0,peel,178,26,5,5,français,f,2,0.2,-80.55764576,1.31466429
5b8fffca220be50001c59858,72,1,2024-02-27T11:08:18.221Z,english_976.wav,0,peel,178,26,5,5,français,f,3,0.3,-70.09009567,1.88171095
5b8fffca220be50001c59858,72,1,2024-02-27T11:08:18.221Z,english_976.wav,0,peel,178,26,5,5,français,f,4,0.32341667,-7.5394989,1.71314556
5b8fffca220be50001c59858,73,1,2024-02-27T11:08:18.221Z,english_721.wav,0,pill,491,26,5,5,français,f,0,0.0,-1.67193172,0.23966059
5b8fffca220be50001c59858,73,1,2024-02-27T11:08:18.221Z,english_721.wav,0,pill,491,26,5,5,français,f,1,0.1,23.81304459,1.61361986
5b8fffca220be50001c59858,73,1,2024-02-27T11:08:18.221Z,english_721.wav,0,pill,491,26,5,5,français,f,2,0.2,94.27532923,0.58045828
5b8fffca220be50001c59858,73,1,2024-02-27T11:08:18.221Z,english_721.wav,0,pill,491,26,5,5,français,f,3,0.3,10.08520391,1.63757532
5b8fffca220be50001c59858,73,1,2024-02-27T11:08:18.221Z,english_721.wav,0,pill,491,26,5,5,français,f,4,0.32341667,-26.68837018,1.4581473
5b8fffca220be50001c59858,74,1,2024-02-27T11:08:18.221Z,english_804.wav,0,peel,234,26,5,5,français,f,0,0.0,11.23319328,0.16159815
5b8fffca220be50001c59858,74,1,2024-02-27T11:08:18.221Z,english_804.wav,0,peel,234,26,5,5,français,f,1,0.1,-75.15189859,1.76023076
5b8fffca220be50001c59858,74,1,2024-02-27T11:08:18.221Z,english_804.wav,0,peel,234,26,5,5,français,f,2,0.2,5.39397939,0.7355024
5b8fffca220be50001c59858,74,1,2024-02-27T11:08:18.221Z,english_804.wav,0,peel,234,26,5,5,français,f,3,0.3,42.92141331,1.74636497
5b8fffca220be50001c59858,74,1,2024-02-27T11:08:18.221Z,english_804.wav,0,peel,234,26,5,5,français,f,4,0.32341667,-79.84726866,1.05562007
5b8fffca220be50001c59858,75,1,2024-02-27T11:08:18.221Z,english_249.wav,0,peel,230,26,5,5,français,f,0,0.0,78.40227579,1.91339694
5b8fffca220be50001c59858,75,1,2024-02-27T11:08:18.221Z,english_249.wav,0,peel,230,26,5,5,français,f,1,0.1,-55.1129652,1.00834957
5b8fffca220be50001c59858,75,1,2024-02-27T11:08:18.221Z,english_249.wav,0,peel,230,26,5,5,français,f,2,0.2,6.74447168,0.29418026
5b8fffca220be50001c59858,75,1,2024-02-27T11:08:18.221Z,english_249.wav,0,peel,230,26,5,5,français,f,3,0.3,27.3376716,1.53256547
5b8fffca220be50001c59858,75,1,2024-02-27T11:08:18.221Z,english_249.wav,0,peel,230,26,5,5,français,f,4,0.32341667,-97.08031886,0.99264532
5b8fffca220be50001c59858,76,1,2024-02-27T11:08:18.221Z,english_432.wav,0,peel,245,26,5,5,français,f,0,0.0,34.04923955,0.51661687
5b8fffca220be50001c59858,76,1,2024-02-27T11:08:18.221Z,english_432.wav,0,peel,245,26,5,5,français,f,1,0.1,-20.16773507,0.2259012
5b8fffca220be50001c59858,76,1,2024-02-27T11:08:18.221Z,english_432.wav,0,peel,245,26,5,5,français,f,2,0.2,58.06800811,1.98214485
5b8fffca220be50001c59858,76,1,2024-02-27T11:08:18.221Z,english_432.wav,0,peel,245,26,5,5,français,f,3,0.3,46.82268278,1.23025235
5b8fffca220be50001c59858,76,1,2024-02-27T11:08:18.221Z,english_432.wav,0,peel,245,26,5,5,français,f,4,0.32341667,16.04458546,1.72803009
5b8fffca220be50001c59858,77,1,2024-02-27T11:08:18.221Z,english_289.wav,0,peel,289,26,5,5,français,f,0,0.0,-55.97739865,0.95213243
5b8fffca220be50001c59858,77,1,2024-02-27T11:08:18.221Z,english_289.wav,0,peel,289,26,5,5,français,f,1,0.1,-97.9801122,0.81858491
5b8fffca220be50001c59858,77,1,2024-02-27T11:08:18.221Z,english_289.wav,0,peel,289,26,5,5,français,f,2,0.2,44.28679287,1.16094748
5b8fffca220be50001c59858,77,1,2024-02-27T11:08:18.221Z,english_289.wav,0,peel,289,26,5,5,français,f,3,0.3,-74.0895039,0.92969459
5b8fffca220be50001c59858,77,1,2024-02-27T11:08:18.221Z,english_289.wav,0,peel,289,26,5,5,français,f,4,0.32341667,-44.25845537,0.41504245
5b8fffca220be50001c59858,78,1,2024-02-27T11:08:18.221Z,english_57.wav,0,peel,350,26,5,5,français,f,0,0.0,-27.39668164,1.97835384
5b8fffca220be50001c59858,78,1,2024-02-27T11:08:18.221Z,english_57.wav,0,peel,350,26,5,5,français,f,1,0.1,63.52389761,0.69906452
5b8fffca220be50001c59858,78,1,2024-02-27T11:08:18.221Z,english_57.wav,0,peel,350,26,5,5,français,f,2,0.2,-55.42033209,0.75389415
5b8fffca220be50001c59858,78,1,2024-02-27T11:08:18.221Z,english_57.wav,0,peel,350,26,5,5,français,f,3,0.3,40.81906742,0.20375649
5b8fffca220be50001c59858,78,1,2024-02-27T11:08:18.221Z,english_57.wav,0,peel,350,26,5,5,français,f,4,0.32341667,-12.75543821,1.65585112
5b8fffca220be50001c59858,79,1,2024-02-27T11:08:18.221Z,english_485.wav,0,peel,266,26,5,5,français,f,0,0.0,-7.08941798,1.8206563
5b8fffca220be50001c59858,79,1,2024-02-27T11:08:18.221Z,english_485.wav,0,peel,266,26,5,5,français,f,1,0.1,-70.64579204,0.10660577
5b8fffca220be50001c59858,79,1,2024-02-27T11:08:18.221Z,english_485.wav,0,peel,266,26,5,5,français,f,2,0.2,23.79115045,1.92760945
5b8fffca220be50001c59858,79,1,2024-02-27T11:08:18.221Z,english_485.wav,0,peel,266,26,5,5,français,f,3,0.3,0.80487994,0.77499174
5b8fffca220be50001c59858,79,1,2024-02-27T11:08:18.221Z,english_485.wav,0,peel,266,26,5,5,français,f,4,0.32341667,4.72097057,1.20070888
5b8fffca220be50001c59858,80,1,2024-02-27T11:08:18.221Z,english_970.wav,0,peel,167,26,5,5,français,f,0,0.0,37.22911191,0.60712849
5b8fffca220be50001c59858,80,1,2024-02-27T11:08:18.221Z,english_970.wav,0,peel,167,26,5,5,français,f,1,0.1,36.57191813,1.26781741
5b8fffca220be50001c59858,80,1,2024-02-27T11:08:18.221Z,english_970.wav,0,peel,167,26,5,5,français,f,2,0.2,20.2344678,1.29373459
5b8fffca220be50001c59858,80,1,2024-02-27T11:08:18.221Z,english_970.wav,0,peel,167,26,5,5,français,f,3,0.3,-86.31030026,0.18112256
5b8fffca220be50001c59858,80,1,2024-02-27T11:08:18.221Z,english_970.wav,0,peel,167,26,5,5,français,f,4,0.32341667,-83.96880691,1.07780169
5b8fffca220be50001c59858,81,1,2024-02-27T11:08:18.221Z,english_304.wav,0,peel,793,26,5,5,français,f,0,0.0,-80.7192326,0.54130022
5b8fffca220be50001c59858,81,1,2024-02-27T11:08:18.221Z,english_304.wav,0,peel,793,26,5,5,français,f,1,0.1,34.14230443,0.20766845
5b8fffca220be50001c59858,81,1,2024-02-27T11:08:18.221Z,english_304.wav,0,peel,793,26,5,5,français,f,2,0.2,-43.78548789,1.25157904
5b8fffca220be50001c59858,81,1,2024-02-27T11:08:18.221Z,english_304.wav,0,peel,793,26,5,5,français,f,3,0.3,85.79520644,0.76195837
5b8fffca220be50001c59858,81,1,2024-02-27T11:08:18.221Z,english_304.wav,0,peel,793,26,5,5,français,f,4,0.32341667,-29.32737886,0.20991234
5b8fffca220be50001c59858,82,1,2024-02-27T11:08:18.221Z,english_10.wav,0,pill,1552,26,5,5,français,f,0,0.0,-80.92247099,1.33142191
5b8fffca220be50001c59858,82,1,2024-02-27T11:08:18.221Z,english_10.wav,0,pill,1552,26,5,5,français,f,1,0.1,11.56157957,0.6588087
5b8fffca220be50001c59858,82,1,2024-02-27T11:08:18.221Z,english_10.wav,0,pill,1552,26,5,5,français,f,2,0.2,72.61501241,1.62851887
5b8fffca220be50001c59858,82,1,2024-02-27T11:08:18.221Z,english_10.wav,0,pill,1552,26,5,5,français,f,3,0.3,91.01400741,1.4109269
5b8fffca220be50001c59858,82,1,2024-02-27T11:08:18.221Z,english_10.wav,0,pill,1552,26,5,5,français,f,4,0.32341667,-64.58672822,0.76235223
5b8fffca220be50001c59858,83,1,2024-02-27T11:08:18.221Z,english_107.wav,0,peel,427,26,5,5,français,f,0,0.0,-19.24931684,0.69122185
5b8fffca220be50001c59858,83,1,2024-02-27T11:08:18.221Z,english_107.wav,0,peel,427,26,5,5,français,f,1,0.1,24.04874113,0.13674094
5b8fffca220be50001c59858,83,1,2024-02-27T11:08:18.221Z,english_107.wav,0,peel,427,26,5,5,français,f,2,0.2,59.01955179,1.47608642
5b8fffca220be50001c59858,83,1,2024-02-27T11:08:18.221Z,english_107.wav,0,peel,427,26,5,5,français,f,3,0.3,49.74315823,1.52525824
5b8fffca220be50001c59858,83,1,2024-02-27T11:08:18.221Z,english_107.wav,0,peel,427,26,5,5,français,f,4,0.32341667,-75.23844627,0.11985114
5b8fffca220be50001c59858,84,1,2024-02-27T11:08:18.221Z,english_98.wav,0,pill,387,26,5,5,français,f,0,0.0,-23.07451683,0.55932234
5b8fffca220be50001c59858,84,1,2024-02-27T11:08:18.221Z,english_98.wav,0,pill,387,26,5,5,français,f,1,0.1,58.83766866,1.03192869
5b8fffca220be50001c59858,84,1,2024-02-27T11:08:18.221Z,english_98.wav,0,pill,387,26,5,5,français,f,2,0.2,75.90401246,1.16154403
5b8fffca220be50001c59858,84,1,2024-02-27T11:08:18.221Z,english_98.wav,0,pill,387,26,5,5,français,f,3,0.3,-86.31256295,0.50819795
5b8fffca220be50001c59858,84,1,2024-02-27T11:08:18.221Z,english_98.wav,0,pill,387,26,5,5,français,f,4,0.32341667,26.17624316,1.94690859
5b8fffca220be50001c59858,85,1,2024-02-27T11:08:18.221Z,english_328.wav,0,pill,418,26,5,5,français,f,0,0.0,-24.96515822,0.68772771
5b8fffca220be50001c59858,85,1,2024-02-27T11:08:18.221Z,english_328.wav,0,pill,418,26,5,5,français,f,1,0.1,36.64267249,0.30369637
5b8fffca220be50001c59858,85,1,2024-02-27T11:08:18.221Z,english_328.wav,0,pill,418,26,5,5,français,f,2,0.2,-93.60804347,1.16330199
5b8fffca220be50001c59858,85,1,2024-02-27T11:08:18.221Z,english_328.wav,0,pill,418,26,5,5,français,f,3,0.3,9.86556644,0.69001341
5b8fffca220be50001c59858,85,1,2024-02-27T11:08:18.221Z,english_328.wav,0,pill,418,26,5,5,français,f,4,0.32341667,-17.13685423,0.54642887
5b8fffca220be50001c59858,86,1,2024-02-27T11:08:18.221Z,english_682.wav,0,peel,194,26,5,5,français,f,0,0.0,-19.80167737,1.6131825
5b8fffca220be50001c59858,86,1,2024-02-27T11:08:18.221Z,english_682.wav,0,peel,194,26,5,5,français,f,1,0.1,-30.98220326,1.03205672
5b8fffca220be50001c59858,86,1,2024-02-27T11:08:18.221Z,english_682.wav,0,peel,194,26,5,5,français,f,2,0.2,26.07010201,1.08357256
5b8fffca220be50001c59858,86,1,2024-02-27T11:08:18.221Z,english_682.wav,0,peel,194,26,5,5,français,f,3,0.3,-7.79776739,1.70642947
5b8fffca220be50001c59858,86,1,2024-02-27T11:08:18.221Z,english_682.wav,0,peel,194,26,5,5,français,f,4,0.32341667,-10.9148898,0.86858281
5b8fffca220be50001c59858,87,1,2024-02-27T11:08:18.221Z,english_42.wav,0,pill,616,26,5,5,français,f,0,0.0,-15.36487641,1.81244548
5b8fffca220be50001c59858,87,1,2024-02-27T11:08:18.221Z,english_42.wav,0,pill,616,26,5,5,français,f,1,0.1,11.43696078,1.472484
5b8fffca220be50001c59858,87,1,2024-02-27T11:08:18.221Z,english_42.wav,0,pill,616,26,5,5,français,f,2,0.2,34.58464447,0.21504119
5b8fffca220be50001c59858,87,1,2024-02-27T11:08:18.221Z,english_42.wav,0,pill,616,26,5,5,français,f,3,0.3,68.67640378,0.80253652
5b8fffca220be50001c59858,87,1,2024-02-27T11:08:18.221Z,english_42.wav,0,pill,616,26,5,5,français,f,4,0.32341667,-67.59461511,1.53231421
5b8fffca220be50001c59858,88,1,2024-02-27T11:08:18.221Z,english_374.wav,0,peel,274,26,5,5,français,f,0,0.0,-43.98521466,1.11607514
5b8fffca220be50001c59858,88,1,2024-02-27T11:08:18.221Z,english_374.wav,0,peel,274,26,5,5,français,f,1,0.1,-24.87181663,0.38249505
5b8fffca220be50001c59858,88,1,2024-02-27T11:08:18.221Z,english_374.wav,0,peel,274,26,5,5,français,f,2,0.2,-29.31566683,1.56774755
5b8fffca220be50001c59858,88,1,2024-02-27T11:08:18.221Z,english_374.wav,0,peel,274,26,5,5,français,f,3,0.3,-43.36019392,1.33837662
5b8fffca220be50001c59858,88,1,2024-02-27T11:08:18.221Z,english_374.wav,0,peel,274,26,5,5,français,f,4,0.32341667,-35.5175379,0.68793086
5b8fffca220be50001c59858,89,1,2024-02-27T11:08:18.221Z,english_571.wav,0,peel,640,26,5,5,français,f,0,0.0,-42.92588422,0.65590276
5b8fffca220be50001c59858,89,1,2024-02-27T11:08:18.221Z,english_571.wav,0,peel,640,26,5,5,français,f,1,0.1,-87.39276897,1.8306878
5b8fffca220be50001c59858,89,1,2024-02-27T11:08:18.221Z,english_571.wav,0,peel,640,26,5,5,français,f,2,0.2,19.06282168,0.06889765
5b8fffca220be50001c59858,89,1,2024-02-27T11:08:18.221Z,english_571.wav,0,peel,640,26,5,5,français,f,3,0.3,-99.30459792,0.29364209
5b8fffca220be50001c59858,89,1,2024-02-27T11:08:18.221Z,english_571.wav,0,peel,640,26,5,5,français,f,4,0.32341667,41.25263337,1.388798
5b8fffca220be50001c59858,90,1,2024-02-27T11:08:18.221Z,english_237.wav,0,pill,442,26,5,5,français,f,0,0.0,-40.35335157,0.42178982
5b8fffca220be50001c59858,90,1,2024-02-27T11:08:18.221Z,english_237.wav,0,pill,442,26,5,5,français,f,1,0.1,42.86374565,0.6060796
5b8fffca220be50001c59858,90,1,2024-02-27T11:08:18.221Z,english_237.wav,0,pill,442,26,5,5,français,f,2,0.2,7.79480372,0.58312984
5b8fffca220be50001c59858,90,1,2024-02-27T11:08:18.221Z,english_237.wav,0,pill,442,26,5,5,français,f,3,0.3,-48.50613844,1.50499267
5b8fffca220be50001c59858,90,1,2024-02-27T11:08:18.221Z,english_237.wav,0,pill,442,26,5,5,français,f,4,0.32341667,17.78174719,1.72211243
5b8fffca220be50001c59858,91,1,2024-02-27T11:08:18.221Z,english_108.wav,0,pill,561,26,5,5,français,f,0,0.0,-20.69942707,0.77052949
5b8fffca220be50001c59858,91,1,2024-02-27T11:08:18.221Z,english_108.wav,0,pill,561,26,5,5,français,f,1,0.1,-59.42152954,1.01445352
5b8fffca220be50001c59858,91,1,2024-02-27T11:08:18.221Z,english_108.wav,0,pill,561,26,5,5,français,f,2,0.2,-8.09170222,0.42363715
5b8fffca220be50001c59858,91,1,2024-02-27T11:08:18.221Z,english_108.wav,0,pill,561,26,5,5,français,f,3,0.3,21.99826779,1.45799831
5b8fffca220be50001c59858,91,1,2024-02-27T11:08:18.221Z,english_108.wav,0,pill,561,26,5,5,français,f,4,0.32341667,56.38973361,1.71498507
5b8fffca220be50001c59858,92,1,2024-02-27T11:08:18.221Z,english_827.wav,0,peel,1129,26,5,5,français,f,0,0.0,-49.24128803,1.70838213
5b8fffca220be50001c59858,92,1,2024-02-27T11:08:18.221Z,english_827.wav,0,peel,1129,26,5,5,français,f,1,0.1,62.6158679,0.88048656
5b8fffca220be50001c59858,92,1,2024-02-27T11:08:18.221Z,english_827.wav,0,peel,1129,26,5,5,français,f,2,0.2,-85.72053716,1.47530841
5b8fffca220be50001c59858,92,1,2024-02-27T11:08:18.221Z,english_827.wav,0,peel,1129,26,5,5,français,f,3,0.3,-65.54354982,0.04991031
5b8fffca220be50001c59858,92,1,2024-02-27T11:08:18.221Z,english_827.wav,0,peel,1129,26,5,5,français,f,4,0.32341667,-42.30235352,0.1531298
5b8fffca220be50001c59858,93,1,2024-02-27T11:08:18.221Z,english_758.wav,0,peel,297,26,5,5,français,f,0,0.0,-56.29380511,1.72966744
5b8fffca220be50001c59858,93,1,2024-02-27T11:08:18.221Z,english_758.wav,0,peel,297,26,5,5,français,f,1,0.1,1.29517397,1.20455484
5b8fffca220be50001c59858,93,1,2024-02-27T11:08:18.221Z,english_758.wav,0,peel,297,26,5,5,français,f,2,0.2,49.77366466,0.98441853
5b8fffca220be50001c59858,93,1,2024-02-27T11:08:18.221Z,english_758.wav,0,peel,297,26,5,5,français,f,3,0.3,51.49077837,0.78323536
5b8fffca220be50001c59858,93,1,2024-02-27T11:08:18.221Z,english_758.wav,0,peel,297,26,5,5,français,f,4,0.32341667,80.19813303,1.88107652
5b8fffca220be50001c59858,94,1,2024-02-27T11:08:18.221Z,english_593.wav,0,peel,275,26,5,5,français,f,0,0.0,0.23295982,1.83954553
5b8fffca220be50001c59858,94,1,2024-02-27T11:08:18.221Z,english_593.wav,0,peel,275,26,5,5,français,f,1,0.1,-0.52832444,1.77820403
5b8fffca220be50001c59858,94,1,2024-02-27T11:08:18.221Z,english_593.wav,0,peel,275,26,5,5,français,f,2,0.2,18.28609946,0.36770598
5b8fffca220be50001c59858,94,1,2024-02-27T11:08:18.221Z,english_593.wav,0,peel,275,26,5,5,français,f,3,0.3,21.25816485,0.42189114
5b8fffca220be50001c59858,94,1,2024-02-27T11:08:18.221Z,english_593.wav,0,peel,275,26,5,5,français,f,4,0.32341667,60.44039038,0.07588974
5b8fffca220be50001c59858,95,1,2024-02-27T11:08:18.221Z,english_793.wav,0,peel,280,26,5,5,français,f,0,0.0,-3.59370976,0.95327953
5b8fffca220be50001c59858,95,1,2024-02-27T11:08:18.221Z,english_793.wav,0,peel,280,26,5,5,français,f,1,0.1,-92.44382947,0.8890172
5b8fffca220be50001c59858,95,1,2024-02-27T11:08:18.221Z,english_793.wav,0,peel,280,26,5,5,français,f,2,0.2,-89.84008222,0.47547445
5b8fffca220be50001c59858,95,1,2024-02-27T11:08:18.221Z,english_793.wav,0,peel,280,26,5,5,français,f,3,0.3,96.09352514,1.09208031
5b8fffca220be50001c59858,95,1,2024-02-27T11:08:18.221Z,english_793.wav,0,peel,280,26,5,5,français,f,4,0.32341667,42.94050617,0.63383093
5b8fffca220be50001c59858,96,1,2024-02-27T11:08:18.221Z,english_256.wav,0,peel,371,26,5,5,français,f,0,0.0,22.60769813,1.84037168
5b8fffca220be50001c59858,96,1,2024-02-27T11:08:18.221Z,english_256.wav,0,peel,371,26,5,5,français,f,1,0.1,-95.01444593,0.47687766
5b8fffca220be50001c59858,96,1,2024-02-27T11:08:18.221Z,english_256.wav,0,peel,371,26,5,5,français,f,2,0.2,-19.91310746,0.85339151
5b8fffca220be50001c59858,96,1,2024-02-27T11:08:18.221Z,english_256.wav,0,peel,371,26,5,5,français,f,3,0.3,-6.39209363,0.75097161
5b8fffca220be50001c59858,96,1,2024-02-27T11:08:18.221Z,english_256.wav,0,peel,371,26,5,5,français,f,4,0.32341667,24.02209282,1.98695073
5b8fffca220be50001c59858,97,1,2024-02-27T11:08:18.221Z,english_763.wav,0,pill,784,26,5,5,français,f,0,0.0,64.63144232,0.7800836
5b8fffca220be50001c59858,97,1,2024-02-27T11:08:18.221Z,english_763.wav,0,pill,784,26,5,5,français,f,1,0.1,8.86346429,1.26656169
5b8fffca220be50001c59858,97,1,2024-02-27T11:08:18.221Z,english_763.wav,0,pill,784,26,5,5,français,f,2,0.2,32.79569159,1.93170043
5b8fffca220be50001c59858,97,1,2024-02-27T11:08:18.221Z,english_763.wav,0,pill,784,26,5,5,français,f,3,0.3,10.55051177,0.29422641
5b8fffca220be50001c59858,97,1,2024-02-27T11:08:18.221Z,english_763.wav,0,pill,784,26,5,5,français,f,4,0.32341667,6.38738619,1.43860225
5b8fffca220be50001c59858,98,1,2024-02-27T11:08:18.221Z,english_53.wav,0,pill,417,26,5,5,français,f,0,0.0,5.97237457,0.42230306
5b8fffca220be50001c59858,98,1,2024-02-27T11:08:18.221Z,english_53.wav,0,pill,417,26,5,5,français,f,1,0.1,-76.12131912,0.60624646
5b8fffca220be50001c59858,98,1,2024-02-27T11:08:18.221Z,english_53.wav,0,pill,417,26,5,5,français,f,2,0.2,55.18337216,0.26369256
5b8fffca220be50001c59858,98,1,2024-02-27T11:08:18.221Z,english_53.wav,0,pill,417,26,5,5,français,f,3,0.3,70.32610425,1.07400525
5b8fffca220be50001c59858,98,1,2024-02-27T11:08:18.221Z,english_53.wav,0,pill,417,26,5,5,français,f,4,0.32341667,26.40450832,0.2721545
5b8fffca220be50001c59858,99,1,2024-02-27T11:08:18.221Z,english_121.wav,0,peel,252,26,5,5,français,f,0,0.0,-30.24687583,0.23154591
5b8fffca220be50001c59858,99,1,2024-02-27T11:08:18.221Z,english_121.wav,0,peel,252,26,5,5,français,f,1,0.1,-28.09260766,0.6680997
5b8fffca220be50001c59858,99,1,2024-02-27T11:08:18.221Z,english_121.wav,0,peel,252,26,5,5,français,f,2,0.2,-29.54951374,1.79539672
5b8fffca220be50001c59858,99,1,2024-02-27T11:08:18.221Z,english_121.wav,0,peel,252,26,5,5,français,f,3,0.3,-37.35286973,0.57554739
5b8fffca220be50001c59858,99,1,2024-02-27T11:08:18.221Z,english_121.wav,0,peel,252,26,5,5,français,f,4,0.32341667,58.68529554,1.8709958
5b8fffca220be50001c59858,100,2,2024-02-27T11:08:18.221Z,english_683.wav,0,pill,379,26,5,5,français,f,0,0.0,-73.37543508,1.70409633
5b8fffca220be50001c59858,100,2,2024-02-27T11:08:18.221Z,english_683.wav,0,pill,379,26,5,5,français,f,1,0.1,66.4080647,1.25556383
5b8fffca220be50001c59858,100,2,2024-02-27T11:08:18.221Z,english_683.wav,0,pill,379,26,5,5,français,f,2,0.2,46.46812351,0.87554738
5b8fffca220be50001c59858,100,2,2024-02-27T11:08:18.221Z,english_683.wav,0,pill,379,26,5,5,français,f,3,0.3,71.67755016,1.32863005
5b8fffca220be50001c59858,100,2,2024-02-27T11:08:18.221Z,english_683.wav,0,pill,379,26,5,5,français,f,4,0.32341667,2.86253031,0.20364682
5b8fffca220be50001c59858,101,2,2024-02-27T11:08:18.221Z,english_550.wav,0,pill,356,26,5,5,français,f,0,0.0,19.46608022,0.78600887
5b8fffca220be50001c59858,101,2,2024-02-27T11:08:18.221Z,english_550.wav,0,pill,356,26,5,5,français,f,1,0.1,-94.3556307,1.03273328
5b8fffca220be50001c59858,101,2,2024-02-27T11:08:18.221Z,english_550.wav,0,pill,356,26,5,5,français,f,2,0.2,-80.90695222,0.36941932
5b8fffca220be50001c59858,101,2,2024-02-27T11:08:18.221Z,english_550.wav,0,pill,356,26,5,5,français,f,3,0.3,-65.36230075,0.47038634
5b8fffca220be50001c59858,101,2,2024-02-27T11:08:18.221Z,english_550.wav,0,pill,356,26,5,5,français,f,4,0.32341667,-18.45722395,0.11798167
5b8fffca220be50001c59858,102,2,2024-02-27T11:08:18.221Z,english_507.wav,0,peel,255,26,5,5,français,f,0,0.0,-61.1842488,1.97653192
5b8fffca220be50001c59858,102,2,2024-02-27T11:08:18.221Z,english_507.wav,0,peel,255,26,5,5,français,f,1,0.1,-67.40048172,1.52355847
5b8fffca220be50001c59858,102,2,2024-02-27T11:08:18.221Z,english_507.wav,0,peel,255,26,5,5,français,f,2,0.2,12.41471853,0.98006415
5b8fffca220be50001c59858,102,2,2024-02-27T11:08:18.221Z,english_507.wav,0,peel,255,26,5,5,français,f,3,0.3,-23.82579329,0.44372312
5b8fffca220be50001c59858,102,2,2024-02-27T11:08:18.221Z,english_507.wav,0,peel,255,26,5,5,français,f,4,0.32341667,9.53005369,0.65281453
5b8fffca220be50001c59858,103,2,2024-02-27T11:08:18.221Z,english_258.wav,0,peel,218,26,5,5,français,f,0,0.0,-7.1133109,1.89026761
5b8fffca220be50001c59858,103,2,2024-02-27T11:08:18.221Z,english_258.wav,0,peel,218,26,5,5,français,f,1,0.1,44.58564752,1.79361992
5b8fffca220be50001c59858,103,2,2024-02-27T11:08:18.221Z,english_258.wav,0,peel,218,26,5,5,français,f,2,0.2,45.36800295,0.43687845
5b8fffca220be50001c59858,103,2,2024-02-27T11:08:18.221Z,english_258.wav,0,peel,218,26,5,5,français,f,3,0.3,25.81301737,0.04688612
5b8fffca220be50001c59858,103,2,2024-02-27T11:08:18.221Z,english_258.wav,0,peel,218,26,5,5,français,f,4,0.32341667,-77.97513924,0.52567924
5b8fffca220be50001c59858,104,2,2024-02-27T11:08:18.221Z,english_610.wav,0,peel,652,26,5,5,français,f,0,0.0,-14.96432812,0.5672697
5b8fffca220be50001c59858,104,2,2024-02-27T11:08:18.221Z,english_610.wav,0,peel,652,26,5,5,français,f,1,0.1,48.51886955,0.75156182
5b8fffca220be50001c59858,104,2,2024-02-27T11:08:18.221Z,english_610.wav,0,peel,652,26,5,5,français,f,2,0.2,47.07358548,0.38846335
5b8fffca220be50001c59858,104,2,2024-02-27T11:08:18.221Z,english_610.wav,0,peel,652,26,5,5,français,f,3,0.3,17.30383174,1.52072292
5b8fffca220be50001c59858,104,2,2024-02-27T11:08:18.221Z,english_610.wav,0,peel,652,26,5,5,français,f,4,0.32341667,1.51764356,1.56024836
5b8fffca220be50001c59858,105,2,2024-02-27T11:08:18.221Z,english_696.wav,0,peel,384,26,5,5,français,f,0,0.0,-48.45243871,0.15817179
5b8fffca220be50001c59858,105,2,2024-02-27T11:08:18.221Z,english_696.wav,0,peel,384,26,5,5,français,f,1,0.1,82.41340646,0.69939178
5b8fffca220be50001c59858,105,2,2024-02-27T11:08:18.221Z,english_696.wav,0,peel,384,26,5,5,français,f,2,0.2,-7.53339347,1.28466279
5b8fffca220be50001c59858,105,2,2024-02-27T11:08:18.221Z,english_696.wav,0,peel,384,26,5,5,français,f,3,0.3,-30.87957178,1.90686052
5b8fffca220be50001c59858,105,2,2024-02-27T11:08:18.221Z,english_696.wav,0,peel,384,26,5,5,français,f,4,0.32341667,75.39947922,0.63235415
5b8fffca220be50001c59858,106,2,2024-02-27T11:08:18.221Z,english_695.wav,0,pill,315,26,5,5,français,f,0,0.0,-74.02191529,1.19534619
5b8fffca220be50001c59858,106,2,2024-02-27T11:08:18.221Z,english_695.wav,0,pill,315,26,5,5,français,f,1,0.1,54.28596986,0.93917139
5b8fffca220be50001c59858,106,2,2024-02-27T11:08:18.221Z,english_695.wav,0,pill,315,26,5,5,français,f,2,0.2,-13.22196683,0.1241488
5b8fffca220be50001c59858,106,2,2024-02-27T11:08:18.221Z,english_695.wav,0,pill,315,26,5,5,français,f,3,0.3,1.82272444,1.20091234
5b8fffca220be50001c59858,106,2,2024-02-27T11:08:18.221Z,english_695.wav,0,pill,315,26,5,5,français,f,4,0.32341667,-11.74905262,0.46222147
5b8fffca220be50001c59858,107,2,2024-02-27T11:08:18.221Z,english_993.wav,0,pill,454,26,5,5,français,f,0,0.0,-66.15449332,1.17508471
5b8fffca220be50001c59858,107,2,2024-02-27T11:08:18.221Z,english_993.wav,0,pill,454,26,5,5,français,f,1,0.1,33.08083728,0.94744004
5b8fffca220be50001c59858,107,2,2024-02-27T11:08:18.221Z,english_993.wav,0,pill,454,26,5,5,français,f,2,0.2,51.46479562,0.74931244
5b8fffca220be50001c59858,107,2,2024-02-27T11:08:18.221Z,english_993.wav,0,pill,454,26,5,5,français,f,3,0.3,-80.58676237,0.35628979
5b8fffca220be50001c59858,107,2,2024-02-27T11:08:18.221Z,english_993.wav,0,pill,454,26,5,5,français,f,4,0.32341667,81.97884737,1.25416847
5b8fffca220be50001c59858,108,2,2024-02-27T11:08:18.221Z,english_473.wav,0,peel,466,26,5,5,français,f,0,0.0,2.94536382,1.14273616
5b8fffca220be50001c59858,108,2,2024-02-27T11:08:18.221Z,english_473.wav,0,peel,466,26,5,5,français,f,1,0.1,67.15962,0.71228689
5b8fffca220be50001c59858,108,2,2024-02-27T11:08:18.221Z,english_473.wav,0,peel,466,26,5,5,français,f,2,0.2,-20.48190634,1.20280034
5b8fffca220be50001c59858,108,2,2024-02-27T11:08:18.221Z,english_473.wav,0,peel,466,26,5,5,français,f,3,0.3,20.58811131,0.94325649
5b8fffca220be50001c59858,108,2,2024-02-27T11:08:18.221Z,english_473.wav,0,peel,466,26,5,5,français,f,4,0.32341667,-71.10919795,1.82149668
5b8fffca220be50001c59858,109,2,2024-02-27T11:08:18.221Z,english_813.wav,0,pill,367,26,5,5,français,f,0,0.0,55.66932548,1.32885027
5b8fffca220be50001c59858,109,2,2024-02-27T11:08:18.221Z,english_813.wav,0,pill,367,26,5,5,français,f,1,0.1,81.68960615,1.76450173
5b8fffca220be50001c59858,109,2,2024-02-27T11:08:18.221Z,english_813.wav,0,pill,367,26,5,5,français,f,2,0.2,55.75765178,0.71046445
5b8fffca220be50001c59858,109,2,2024-02-27T11:08:18.221Z,english_813.wav,0,pill,367,26,5,5,français,f,3,0.3,-1.25572602,1.00431818
5b8fffca220be50001c59858,109,2,2024-02-27T11:08:18.221Z,english_813.wav,0,pill,367,26,5,5,français,f,4,0.32341667,95.15429199,0.60962601
5b8fffca220be50001c59858,110,2,2024-02-27T11:08:18.221Z,english_722.wav,0,peel,320,26,5,5,français,f,0,0.0,56.33358757,0.09194264
5b8fffca220be50001c59858,110,2,2024-02-27T11:08:18.221Z,english_722.wav,0,peel,320,26,5,5,français,f,1,0.1,-63.11389498,1.89550133
5b8fffca220be50001c59858,110,2,2024-02-27T11:08:18.221Z,english_722.wav,0,peel,320,26,5,5,français,f,2,0.2,65.64746862,0.18403216
5b8fffca220be50001c59858,110,2,2024-02-27T11:08:18.221Z,english_722.wav,0,peel,320,26,5,5,français,f,3,0.3,-93.10605514,1.23223326
5b8fffca220be50001c59858,110,2,2024-02-27T11:08:18.221Z,english_722.wav,0,peel,320,26,5,5,français,f,4,0.32341667,-45.92743551,0.28331892
5b8fffca220be50001c59858,111,2,2024-02-27T11:08:18.221Z,english_515.wav,0,peel,304,26,5,5,français,f,0,0.0,-51.44071002,1.17100165
5b8fffca220be50001c59858,111,2,2024-02-27T11:08:18.221Z,english_515.wav,0,peel,304,26,5,5,français,f,1,0.1,-54.80209221,0.37535268
5b8fffca220be50001c59858,111,2,2024-02-27T11:08:18.221Z,english_515.wav,0,peel,304,26,5,5,français,f,2,0.2,64.47174239,1.31079719
5b8fffca220be50001c59858,111,2,2024-02-27T11:08:18.221Z,english_515.wav,0,peel,304,26,5,5,français,f,3,0.3,-10.56071982,1.40472496
5b8fffca220be50001c59858,111,2,2024-02-27T11:08:18.221Z,english_515.wav,0,peel,304,26,5,5,français,f,4,0.32341667,-39.86348554,0.6392892
5b8fffca220be50001c59858,112,2,2024-02-27T11:08:18.221Z,english_477.wav,0,peel,277,26,5,5,français,f,0,0.0,9.7496965,0.26828956
5b8fffca220be50001c59858,112,2,2024-02-27T11:08:18.221Z,english_477.wav,0,peel,277,26,5,5,français,f,1,0.1,70.56003184,0.51901368
5b8fffca220be50001c59858,112,2,2024-02-27T11:08:18.221Z,english_477.wav,0,peel,277,26,5,5,français,f,2,0.2,34.49551211,0.35677294
5b8fffca220be50001c59858,112,2,2024-02-27T11:08:18.221Z,english_477.wav,0,peel,277,26,5,5,français,f,3,0.3,-75.0597055,1.39462812
5b8fffca220be50001c59858,112,2,2024-02-27T11:08:18.221Z,english_477.wav,0,peel,277,26,5,5,français,f,4,0.32341667,-82.15638008,0.55199483
5b8fffca220be50001c59858,113,2,2024-02-27T11:08:18.221Z,english_742.wav,0,pill,455,26,5,5,français,f,0,0.0,12.62363586,1.26368295
5b8fffca220be50001c59858,113,2,2024-02-27T11:08:18.221Z,english_742.wav,0,pill,455,26,5,5,français,f,1,0.1,23.02085171,0.7448394
5b8fffca220be50001c59858,113,2,2024-02-27T11:08:18.221Z,english_742.wav,0,pill,455,26,5,5,français,f,2,0.2,23.36423086,0.05261082
5b8fffca220be50001c59858,113,2,2024-02-27T11:08:18.221Z,english_742.wav,0,pill,455,26,5,5,français,f,3,0.3,97.70614946,1.01748925
5b8fffca220be50001c59858,113,2,2024-02-27T11:08:18.221Z,english_742.wav,0,pill,455,26,5,5,français,f,4,0.32341667,-25.72861775,0.88645775
5b8fffca220be50001c59858,114,2,2024-02-27T11:08:18.221Z,english_670.wav,0,pill,426,26,5,5,français,f,0,0.0,64.75672565,1.5535903
5b8fffca220be50001c59858,114,2,2024-02-27T11:08:18.221Z,english_670.wav,0,pill,426,26,5,5,français,f,1,0.1,85.95156369,0.12522594
5b8fffca220be50001c59858,114,2,2024-02-27T11:08:18.221Z,english_670.wav,0,pill,426,26,5,5,français,f,2,0.2,-44.32949438,0.22842632
5b8fffca220be50001c59858,114,2,2024-02-27T11:08:18.221Z,english_670.wav,0,pill,426,26,5,5,français,f,3,0.3,22.57192219,0.17636502
5b8fffca220be50001c59858,114,2,2024-02-27T11:08:18.221Z,english_670.wav,0,pill,426,26,5,5,français,f,4,0.32341667,34.74005277,0.16208776
5b8fffca220be50001c59858,115,2,2024-02-27T11:08:18.221Z,english_261.wav,0,pill,163,26,5,5,français,f,0,0.0,-19.34212076,1.20182597
5b8fffca220be50001c59858,115,2,2024-02-27T11:08:18.221Z,english_261.wav,0,pill,163,26,5,5,français,f,1,0.1,-90.49371254,0.701642
5b8fffca220be50001c59858,115,2,2024-02-27T11:08:18.221Z,english_261.wav,0,pill,163,26,5,5,français,f,2,0.2,-2.84874079,0.72931556
5b8fffca220be50001c59858,115,2,2024-02-27T11:08:18.221Z,english_261.wav,0,pill,163,26,5,5,français,f,3,0.3,26.59732755,0.86687176
5b8fffca220be50001c59858,115,2,2024-02-27T11:08:18.221Z,english_261.wav,0,pill,163,26,5,5,français,f,4,0.32341667,39.97770901,1.42617677
5b8fffca220be50001c59858,116,2,2024-02-27T11:08:18.221Z,english_292.wav,0,pill,818,26,5,5,français,f,0,0.0,-39.45275529,0.85174507
5b8fffca220be50001c59858,116,2,2024-02-27T11:08:18.221Z,english_292.wav,0,pill,818,26,5,5,français,f,1,0.1,-35.03464337,0.73996191
5b8fffca220be50001c59858,116,2,2024-02-27T11:08:18.221Z,english_292.wav,0,pill,818,26,5,5,français,f,2,0.2,31.68370279,1.42892595
5b8fffca220be50001c59858,116,2,2024-02-27T11:08:18.221Z,english_292.wav,0,pill,818,26,5,5,français,f,3,0.3,-53.75991965,0.04968332
5b8fffca220be50001c59858,116,2,2024-02-27T11:08:18.221Z,english_292.wav,0,pill,818,26,5,5,français,f,4,0.32341667,12.49992629,0.58931553
5b8fffca220be50001c59858,117,2,2024-02-27T11:08:18.221Z,english_700.wav,0,pill,412,26,5,5,français,f,0,0.0,-76.89056698,0.13963816
5b8fffca220be50001c59858,117,2,2024-02-27T11:08:18.221Z,english_700.wav,0,pill,412,26,5,5,français,f,1,0.1,-93.17552037,0.76842729
5b8fffca220be50001c59858,117,2,2024-02-27T11:08:18.221Z,english_700.wav,0,pill,412,26,5,5,français,f,2,0.2,51.24439156,0.49149542
5b8fffca220be50001c59858,117,2,2024-02-27T11:08:18.221Z,english_700.wav,0,pill,412,26,5,5,français,f,3,0.3,89.4516499,1.08714417
5b8fffca220be50001c59858,117,2,2024-02-27T11:08:18.221Z,english_700.wav,0,pill,412,26,5,5,français,f,4,0.32341667,-68.48659069,1.35188588
5b8fffca220be50001c59858,118,2,2024-02-27T11:08:18.221Z,english_367.wav,0,peel,254,26,5,5,français,f,0,0.0,69.68935346,1.12532443
5b8fffca220be50001c59858,118,2,2024-02-27T11:08:18.221Z,english_367.wav,0,peel,254,26,5,5,français,f,1,0.1,-21.84293244,1.15903886
5b8fffca220be50001c59858,118,2,2024-02-27T11:08:18.221Z,english_367.wav,0,peel,254,26,5,5,français,f,2,0.2,-22.40126322,1.68834661
5b8fffca220be50001c59858,118,2,2024-02-27T11:08:18.221Z,english_367.wav,0,peel,254,26,5,5,français,f,3,0.3,-77.83415675,1.78966274
5b8fffca220be50001c59858,118,2,2024-02-27T11:08:18.221Z,english_367.wav,0,peel,254,26,5,5,français,f,4,0.32341667,18.42522507,1.57311162
5b8fffca220be50001c59858,119,2,2024-02-27T11:08:18.221Z,english_337.wav,0,peel,763,26,5,5,français,f,0,0.0,17.21863108,0.02346696
5b8fffca220be50001c59858,119,2,2024-02-27T11:08:18.221Z,english_337.wav,0,peel,763,26,5,5,français,f,1,0.1,-16.30098312,1.2349353
5b8fffca220be50001c59858,119,2,2024-02-27T11:08:18.221Z,english_337.wav,0,peel,763,26,5,5,français,f,2,0.2,70.17733319,1.07823504
5b8fffca220be50001c59858,119,2,2024-02-27T11:08:18.221Z,english_337.wav,0,peel,763,26,5,5,français,f,3,0.3,-7.16478631,1.83339424
5b8fffca220be50001c59858,119,2,2024-02-27T11:08:18.221Z,english_337.wav,0,peel,763,26,5,5,français,f,4,0.32341667,-84.96176299,1.87583376
5b8fffca220be50001c59858,120,2,2024-02-27T11:08:18.221Z,english_951.wav,0,pill,411,26,5,5,français,f,0,0.0,-0.1209724,0.19208806
5b8fffca220be50001c59858,120,2,2024-02-27T11:08:18.221Z,english_951.wav,0,pill,411,26,5,5,français,f,1,0.1,-14.6507611,1.44795721
5b8fffca220be50001c59858,120,2,2024-02-27T11:08:18.221Z,english_951.wav,0,pill,411,26,5,5,français,f,2,0.2,-2.36153686,0.88209985
5b8fffca220be50001c59858,120,2,2024-02-27T11:08:18.221Z,english_951.wav,0,pill,411,26,5,5,français,f,3,0.3,15.28547447,1.97099669
5b8fffca220be50001c59858,120,2,2024-02-27T11:08:18.221Z,english_951.wav,0,pill,411,26,5,5,français,f,4,0.32341667,-0.16445922,0.158195
5b8fffca220be50001c59858,121,2,2024-02-27T11:08:18.221Z,english_247.wav,0,peel,217,26,5,5,français,f,0,0.0,48.65693284,0.25539499
5b8fffca220be50001c59858,121,2,2024-02-27T11:08:18.221Z,english_247.wav,0,peel,217,26,5,5,français,f,1,0.1,-27.64572099,1.09429421
5b8fffca220be50001c59858,121,2,2024-02-27T11:08:18.221Z,english_247.wav,0,peel,217,26,5,5,français,f,2,0.2,-20.19701808,0.88115619
5b8fffca220be50001c59858,121,2,2024-02-27T11:08:18.221Z,english_247.wav,0,peel,217,26,5,5,français,f,3,0.3,-10.74442668,1.97859338
5b8fffca220be50001c59858,121,2,2024-02-27T11:08:18.221Z,english_247.wav,0,peel,217,26,5,5,français,f,4,0.32341667,91.42432082,0.10638235
5b8fffca220be50001c59858,122,2,2024-02-27T11:08:18.221Z,english_678.wav,0,peel,425,26,5,5,français,f,0,0.0,87.86222938,1.6760541
5b8fffca220be50001c59858,122,2,2024-02-27T11:08:18.221Z,english_678.wav,0,peel,425,26,5,5,français,f,1,0.1,-47.14792626,0.22369522
5b8fffca220be50001c59858,122,2,2024-02-27T11:08:18.221Z,english_678.wav,0,peel,425,26,5,5,français,f,2,0.2,-6.84659798,1.1260271
5b8fffca220be50001c59858,122,2,2024-02-27T11:08:18.221Z,english_678.wav,0,peel,425,26,5,5,français,f,3,0.3,87.67045201,1.53941447
5b8fffca220be50001c59858,122,2,2024-02-27T11:08:18.221Z,english_678.wav,0,peel,425,26,5,5,français,f,4,0.32341667,-51.71213936,1.37136581
5b8fffca220be50001c59858,123,2,2024-02-27T11:08:18.221Z,english_655.wav,0,pill,283,26,5,5,français,f,0,0.0,84.9811401,1.09123398
5b8fffca220be50001c59858,123,2,2024-02-27T11:08:18.221Z,english_655.wav,0,pill,283,26,5,5,français,f,1,0.1,70.1996811,0.51840547
5b8fffca220be50001c59858,123,2,2024-02-27T11:08:18.221Z,english_655.wav,0,pill,283,26,5,5,français,f,2,0.2,-5.60681941,0.58569322
5b8fffca220be50001c59858,123,2,2024-02-27T11:08:18.221Z,english_655.wav,0,pill,283,26,5,5,français,f,3,0.3,-33.00324328,1.11132849
5b8fffca220be50001c59858,123,2,2024-02-27T11:08:18.221Z,english_655.wav,0,pill,283,26,5,5,français,f,4,0.32341667,24.65490624,0.28465301
5b8fffca220be50001c59858,124,2,2024-02-27T11:08:18.221Z,english_86.wav,0,pill,757,26,5,5,français,f,0,0.0,-48.59393833,1.45450552
5b8fffca220be50001c59858,124,2,2024-02-27T11:08:18.221Z,english_86.wav,0,pill,757,26,5,5,français,f,1,0.1,77.37095157,1.8635573
5b8fffca220be50001c59858,124,2,2024-02-27T11:08:18.221Z,english_86.wav,0,pill,757,26,5,5,français,f,2,0.2,44.19816726,1.174515
5b8fffca220be50001c59858,124,2,2024-02-27T11:08:18.221Z,english_86.wav,0,pill,757,26,5,5,français,f,3,0.3,-99.780271,1.46785746
5b8fffca220be50001c59858,124,2,2024-02-27T11:08:18.221Z,english_86.wav,0,pill,757,26,5,5,français,f,4,0.32341667,38.96545556,0.99607158
5b8fffca220be50001c59858,125,2,2024-02-27T11:08:18.221Z,english_167.wav,0,pill,796,26,5,5,français,f,0,0.0,57.26975159,0.44729063
5b8fffca220be50001c59858,125,2,2024-02-27T11:08:18.221Z,english_167.wav,0,pill,796,26,5,5,français,f,1,0.1,54.31010869,1.623568
5b8fffca220be50001c59858,125,2,2024-02-27T11:08:18.221Z,english_167.wav,0,pill,796,26,5,5,français,f,2,0.2,99.57020207,0.28743218
5b8fffca220be50001c59858,125,2,2024-02-27T11:08:18.221Z,english_167.wav,0,pill,796,26,5,5,français,f,3,0.3,27.92735821,0.71837494
5b8fffca220be50001c59858,125,2,2024-02-27T11:08:18.221Z,english_167.wav,0,pill,796,26,5,5,français,f,4,0.32341667,73.13424206,1.35815305
5b8fffca220be50001c59858,126,2,2024-02-27T11:08:18.221Z,english_95.wav,0,peel,716,26,5,5,français,f,0,0.0,-9.17523314,0.73915747
5b8fffca220be50001c59858,126,2,2024-02-27T11:08:18.221Z,english_95.wav,0,peel,716,26,5,5,français,f,1,0.1,-95.16832451,1.01172325
5b8fffca220be50001c59858,126,2,2024-02-27T11:08:18.221Z,english_95.wav,0,peel,716,26,5,5,français,f,2,0.2,-21.6130257,1.19817679
5b8fffca220be50001c59858,126,2,2024-02-27T11:08:18.221Z,english_95.wav,0,peel,716,26,5,5,français,f,3,0.3,0.51006416,1.53285694
5b8fffca220be50001c59858,126,2,2024-02-27T11:08:18.221Z,english_95.wav,0,peel,716,26,5,5,français,f,4,0.32341667,43.00131518,1.08383215
5b8fffca220be50001c59858,127,2,2024-02-27T11:08:18.221Z,english_155.wav,0,peel,683,26,5,5,français,f,0,0.0,53.87474094,1.93436975
5b8fffca220be50001c59858,127,2,2024-02-27T11:08:18.221Z,english_155.wav,0,peel,683,26,5,5,français,f,1,0.1,74.81745726,0.64472983
5b8fffca220be50001c59858,127,2,2024-02-27T11:08:18.221Z,english_155.wav,0,peel,683,26,5,5,français,f,2,0.2,8.25192738,1.6098708
5b8fffca220be50001c59858,127,2,2024-02-27T11:08:18.221Z,english_155.wav,0,peel,683,26,5,5,français,f,3,0.3,-52.88121257,1.15705679
5b8fffca220be50001c59858,127,2,2024-02-27T11:08:18.221Z,english_155.wav,0,peel,683,26,5,5,français,f,4,0.32341667,48.31209788,0.66500292
5b8fffca220be50001c59858,128,2,2024-02-27T11:08:18.221Z,english_694.wav,0,peel,646,26,5,5,français,f,0,0.0,-79.88370205,0.99496101
5b8fffca220be50001c59858,128,2,2024-02-27T11:08:18.221Z,english_694.wav,0,peel,646,26,5,5,français,f,1,0.1,-58.02841319,0.06406007
5b8fffca220be50001c59858,128,2,2024-02-27T11:08:18.221Z,english_694.wav,0,peel,646,26,5,5,français,f,2,0.2,-50.54988317,0.5055253
5b8fffca220be50001c59858,128,2,2024-02-27T11:08:18.221Z,english_694.wav,0,peel,646,26,5,5,français,f,3,0.3,-20.79864769,0.19498426
5b8fffca220be50001c59858,128,2,2024-02-27T11:08:18.221Z,english_694.wav,0,peel,646,26,5,5,français,f,4,0.32341667,-73.64916114,0.36410653
5b8fffca220be50001c59858,129,2,2024-02-27T11:08:18.221Z,english_527.wav,0,pill,449,26,5,5,français,f,0,0.0,-32.70996179,0.06646481
5b8fffca220be50001c59858,129,2,2024-02-27T11:08:18.221Z,english_527.wav,0,pill,449,26,5,5,français,f,1,0.1,-61.96334317,1.75268105
5b8fffca220be50001c59858,129,2,2024-02-27T11:08:18.221Z,english_527.wav,0,pill,449,26,5,5,français,f,2,0.2,86.46317242,0.41061726
5b8fffca220be50001c59858,129,2,2024-02-27T11:08:18.221Z,english_527.wav,0,pill,449,26,5,5,français,f,3,0.3,-18.9429262,1.43024268
5b8fffca220be50001c59858,129,2,2024-02-27T11:08:18.221Z,english_527.wav,0,pill,449,26,5,5,français,f,4,0.32341667,-59.75355058,0.73468543
5b8fffca220be50001c59858,130,2,2024-02-27T11:08:18.221Z,english_63.wav,0,pill,328,26,5,5,français,f,0,0.0,-99.27532027,1.55063038
5b8fffca220be50001c59858,130,2,2024-02-27T11:08:18.221Z,english_63.wav,0,pill,328,26,5,5,français,f,1,0.1,76.75365344,0.78453917
5b8fffca220be50001c59858,130,2,2024-02-27T11:08:18.221Z,english_63.wav,0,pill,328,26,5,5,français,f,2,0.2,-4.19867406,1.54061689
5b8fffca220be50001c59858,130,2,2024-02-27T11:08:18.221Z,english_63.wav,0,pill,328,26,5,5,français,f,3,0.3,58.21469339,0.9417581
5b8fffca220be50001c59858,130,2,2024-02-27T11:08:18.221Z,english_63.wav,0,pill,328,26,5,5,français,f,4,0.32341667,-76.25580242,1.07689855
5b8fffca220be50001c59858,131,2,2024-02-27T11:08:18.221Z,english_984.wav,0,peel,936,26,5,5,français,f,0,0.0,-4.00148485,1.68596177
5b8fffca220be50001c59858,131,2,2024-02-27T11:08:18.221Z,english_984.wav,0,peel,936,26,5,5,français,f,1,0.1,26.28173365,0.06678014
5b8fffca220be50001c59858,131,2,2024-02-27T11:08:18.221Z,english_984.wav,0,peel,936,26,5,5,français,f,2,0.2,80.79042683,0.65490985
5b8fffca220be50001c59858,131,2,2024-02-27T11:08:18.221Z,english_984.wav,0,peel,936,26,5,5,français,f,3,0.3,94.69131331,0.57269921
5b8fffca220be50001c59858,131,2,2024-02-27T11:08:18.221Z,english_984.wav,0,peel,936,26,5,5,français,f,4,0.32341667,75.17511154,0.71264295
5b8fffca220be50001c59858,132,2,2024-02-27T11:08:18.221Z,english_26.wav,0,pill,267,26,5,5,français,f,0,0.0,54.38966875,1.86679487
5b8fffca220be50001c59858,132,2,2024-02-27T11:08:18.221Z,english_26.wav,0,pill,267,26,5,5,français,f,1,0.1,0.3460174,0.79762949
5b8fffca220be50001c59858,132,2,2024-02-27T11:08:18.221Z,english_26.wav,0,pill,267,26,5,5,français,f,2,0.2,-72.33258957,0.93682052
5b8fffca220be50001c59858,132,2,2024-02-27T11:08:18.221Z,english_26.wav,0,pill,267,26,5,5,français,f,3,0.3,67.09142092,1.42469209
5b8fffca220be50001c59858,132,2,2024-02-27T11:08:18.221Z,english_26.wav,0,pill,267,26,5,5,français,f,4,0.32341667,16.00565239,1.17807545
5b8fffca220be50001c59858,133,2,2024-02-27T11:08:18.221Z,english_391.wav,0,pill,578,26,5,5,français,f,0,0.0,67.64906061,0.41951577
5b8fffca220be50001c59858,133,2,2024-02-27T11:08:18.221Z,english_391.wav,0,pill,578,26,5,5,français,f,1,0.1,79.28195584,0.03526883
5b8fffca220be50001c59858,133,2,2024-02-27T11:08:18.221Z,english_391.wav,0,pill,578,26,5,5,français,f,2,0.2,62.27299227,0.81828659
5b8fffca220be50001c59858,133,2,2024-02-27T11:08:18.221Z,english_391.wav,0,pill,578,26,5,5,français,f,3,0.3,-11.10764883,1.2900604
5b8fffca220be50001c59858,133,2,2024-02-27T11:08:18.221Z,english_391.wav,0,pill,578,26,5,5,français,f,4,0.32341667,57.41338752,1.95373865
5b8fffca220be50001c59858,134,2,2024-02-27T11:08:18.221Z,english_159.wav,0,peel,647,26,5,5,français,f,0,0.0,-83.7072706,0.09138871
5b8fffca220be50001c59858,134,2,2024-02-27T11:08:18.221Z,english_159.wav,0,peel,647,26,5,5,français,f,1,0.1,-62.69238784,0.63335487
5b8fffca220be50001c59858,134,2,2024-02-27T11:08:18.221Z,english_159.wav,0,peel,647,26,5,5,français,f,2,0.2,22.09248507,1.23550763
5b8fffca220be50001c59858,134,2,2024-02-27T11:08:18.221Z,english_159.wav,0,peel,647,26,5,5,français,f,3,0.3,-80.94681782,1.83356136
5b8fffca220be50001c59858,134,2,2024-02-27T11:08:18.221Z,english_159.wav,0,peel,647,26,5,5,français,f,4,0.32341667,-55.76861956,0.76796393
5b8fffca220be50001c59858,135,2,2024-02-27T11:08:18.221Z,english_382.wav,0,pill,486,26,5,5,français,f,0,0.0,-83.35497559,1.24516413
5b8fffca220be50001c59858,135,2,2024-02-27T11:08:18.221Z,english_382.wav,0,pill,486,26,5,5,français,f,1,0.1,7.83115402,0.59675254
5b8fffca220be50001c59858,135,2,2024-02-27T11:08:18.221Z,english_382.wav,0,pill,486,26,5,5,français,f,2,0.2,77.46115257,0.61036026
5b8fffca220be50001c59858,135,2,2024-02-27T11:08:18.221Z,english_382.wav,0,pill,486,26,5,5,français,f,3,0.3,89.755233,1.95554414
5b8fffca220be50001c59858,135,2,2024-02-27T11:08:18.221Z,english_382.wav,0,pill,486,26,5,5,français,f,4,0.32341667,-36.08570956,1.60845727
5b8fffca220be50001c59858,136,2,2024-02-27T11:08:18.221Z,english_564.wav,0,peel,405,26,5,5,français,f,0,0.0,-4.16228192,1.35245187
5b8fffca220be50001c59858,136,2,2024-02-27T11:08:18.221Z,english_564.wav,0,peel,405,26,5,5,français,f,1,0.1,-8.38376801,0.24798142
5b8fffca220be50001c59858,136,2,2024-02-27T11:08:18.221Z,english_564.wav,0,peel,405,26,5,5,français,f,2,0.2,52.82752554,1.26376743
5b8fffca220be50001c59858,136,2,2024-02-27T11:08:18.221Z,english_564.wav,0,peel,405,26,5,5,français,f,3,0.3,-92.64870354,0.73548171
5b8fffca220be50001c59858,136,2,2024-02-27T11:08:18.221Z,english_564.wav,0,peel,405,26,5,5,français,f,4,0.32341667,-48.86146536,0.1394123
5b8fffca220be50001c59858,137,2,2024-02-27T11:08:18.221Z,english_818.wav,0,pill,350,26,5,5,français,f,0,0.0,88.49542613,1.4873036
5b8fffca220be50001c59858,137,2,2024-02-27T11:08:18.221Z,english_818.wav,0,pill,350,26,5,5,français,f,1,0.1,-7.37005163,1.25102077
5b8fffca220be50001c59858,137,2,2024-02-27T11:08:18.221Z,english_818.wav,0,pill,350,26,5,5,français,f,2,0.2,-1.58613611,0.80764036
5b8fffca220be50001c59858,137,2,2024-02-27T11:08:18.221Z,english_818.wav,0,pill,350,26,5,5,français,f,3,0.3,-69.41222379,0.80656775
5b8fffca220be50001c59858,137,2,2024-02-27T11:08:18.221Z,english_818.wav,0,pill,350,26,5,5,français,f,4,0.32341667,14.01707612,1.41859799
5b8fffca220be50001c59858,138,2,2024-02-27T11:08:18.221Z,english_341.wav,0,pill,806,26,5,5,français,f,0,0.0,-3.29192029,0.92007635
5b8fffca220be50001c59858,138,2,2024-02-27T11:08:18.221Z,english_341.wav,0,pill,806,26,5,5,français,f,1,0.1,-63.07334109,0.76766635
5b8fffca220be50001c59858,138,2,2024-02-27T11:08:18.221Z,english_341.wav,0,pill,806,26,5,5,français,f,2,0.2,-52.81319379,0.00478881
5b8fffca220be50001c59858,138,2,2024-02-27T11:08:18.221Z,english_341.wav,0,pill,806,26,5,5,français,f,3,0.3,47.65296252,0.69804387
5b8fffca220be50001c59858,138,2,2024-02-27T11:08:18.221Z,english_341.wav,0,pill,806,26,5,5,français,f,4,0.32341667,-2.67842738,0.15231077
5b8fffca220be50001c59858,139,2,2024-02-27T11:08:18.221Z,english_338.wav,0,peel,443,26,5,5,français,f,0,0.0,-22.40965878,1.93572195
5b8fffca220be50001c59858,139,2,2024-02-27T11:08:18.221Z,english_338.wav,0,peel,443,26,5,5,français,f,1,0.1,-10.16153496,1.78994992
5b8fffca220be50001c59858,139,2,2024-02-27T11:08:18.221Z,english_338.wav,0,peel,443,26,5,5,français,f,2,0.2,-50.2449588,1.38134059
5b8fffca220be50001c59858,139,2,2024-02-27T11:08:18.221Z,english_338.wav,0,peel,443,26,5,5,français,f,3,0.3,14.05674122,1.78462007
5b8fffca220be50001c59858,139,2,2024-02-27T11:08:18.221Z,english_338.wav,0,peel,443,26,5,5,français,f,4,0.32341667,-78.35339858,1.2607094
5b8fffca220be50001c59858,140,2,2024-02-27T11:08:18.221Z,english_814.wav,0,peel,301,26,5,5,français,f,0,0.0,-63.32480856,1.93717082
5b8fffca220be50001c59858,140,2,2024-02-27T11:08:18.221Z,english_814.wav,0,peel,301,26,5,5,français,f,1,0.1,34.42157774,0.66627456
5b8fffca220be50001c59858,140,2,2024-02-27T11:08:18.221Z,english_814.wav,0,peel,301,26,5,5,français,f,2,0.2,-1.27362148,1.33718687
5b8fffca220be50001c59858,140,2,2024-02-27T11:08:18.221Z,english_814.wav,0,peel,301,26,5,5,français,f,3,0.3,11.18388565,1.12749716
5b8fffca220be50001c59858,140,2,2024-02-27T11:08:18.221Z,english_814.wav,0,peel,301,26,5,5,français,f,4,0.32341667,-9.56708644,0.66623879
5b8fffca220be50001c59858,141,2,2024-02-27T11:08:18.221Z,english_850.wav,0,peel,1699,26,5,5,français,f,0,0.0,79.79173837,1.46721922
5b8fffca220be50001c59858,141,2,2024-02-27T11:08:18.221Z,english_850.wav,0,peel,1699,26,5,5,français,f,1,0.1,-44.24877139,0.57242606
5b8fffca220be50001c59858,141,2,2024-02-27T11:08:18.221Z,english_850.wav,0,peel,1699,26,5,5,français,f,2,0.2,74.77623955,0.15597525
5b8fffca220be50001c59858,141,2,2024-02-27T11:08:18.221Z,english_850.wav,0,peel,1699,26,5,5,français,f,3,0.3,-86.32612653,1.3358867
5b8fffca220be50001c59858,141,2,2024-02-27T11:08:18.221Z,english_850.wav,0,peel,1699,26,5,5,français,f,4,0.32341667,-11.10230867,1.14618682
5b8fffca220be50001c59858,142,2,2024-02-27T11:08:18.221Z,english_502.wav,0,pill,760,26,5,5,français,f,0,0.0,-23.73065935,0.0797034
5b8fffca220be50001c59858,142,2,2024-02-27T11:08:18.221Z,english_502.wav,0,pill,760,26,5,5,français,f,1,0.1,2.70754613,1.83600464
5b8fffca220be50001c59858,142,2,2024-02-27T11:08:18.221Z,english_502.wav,0,pill,760,26,5,5,français,f,2,0.2,25.650451,1.48948742
5b8fffca220be50001c59858,142,2,2024-02-27T11:08:18.221Z,english_502.wav,0,pill,760,26,5,5,français,f,3,0.3,-49.55254658,1.22465236
5b8fffca220be50001c59858,142,2,2024-02-27T11:08:18.221Z,english_502.wav,0,pill,760,26,5,5,français,f,4,0.32341667,16.82642172,1.41984075
5b8fffca220be50001c59858,143,2,2024-02-27T11:08:18.221Z,english_166.wav,0,peel,540,26,5,5,français,f,0,0.0,37.27670025,1.42766663
5b8fffca220be50001c59858,143,2,2024-02-27T11:08:18.221Z,english_166.wav,0,peel,540,26,5,5,français,f,1,0.1,34.38847046,0.72731767
5b8fffca220be50001c59858,143,2,2024-02-27T11:08:18.221Z,english_166.wav,0,peel,540,26,5,5,français,f,2,0.2,49.91842175,1.80608275
5b8fffca220be50001c59858,143,2,2024-02-27T11:08:18.221Z,english_166.wav,0,peel,540,26,5,5,français,f,3,0.3,56.9541748,1.91598421
5b8fffca220be50001c59858,143,2,2024-02-27T11:08:18.221Z,english_166.wav,0,peel,540,26,5,5,français,f,4,0.32341667,10.97290623,1.21084105
5b8fffca220be50001c59858,144,2,2024-02-27T11:08:18.221Z,english_604.wav,0,peel,326,26,5,5,français,f,0,0.0,11.37360706,1.9162078
5b8fffca220be50001c59858,144,2,2024-02-27T11:08:18.221Z,english_604.wav,0,peel,326,26,5,5,français,f,1,0.1,-50.20832577,0.59247461
5b8fffca220be50001c59858,144,2,2024-02-27T11:08:18.221Z,english_604.wav,0,peel,326,26,5,5,français,f,2,0.2,-34.39542541,1.79911242
5b8fffca220be50001c59858,144,2,2024-02-27T11:08:18.221Z,english_604.wav,0,peel,326,26,5,5,français,f,3,0.3,-9.87560088,0.998763
5b8fffca220be50001c59858,144,2,2024-02-27T11:08:18.221Z,english_604.wav,0,peel,326,26,5,5,français,f,4,0.32341667,34.71454295,0.76768671
5b8fffca220be50001c59858,145,2,2024-02-27T11:08:18.221Z,english_106.wav,0,pill,451,26,5,5,français,f,0,0.0,-46.25200282,0.21046793
5b8fffca220be50001c59858,145,2,2024-02-27T11:08:18.221Z,english_106.wav,0,pill,451,26,5,5,français,f,1,0.1,-83.38564728,1.42142181
5b8fffca220be50001c59858,145,2,2024-02-27T11:08:18.221Z,english_106.wav,0,pill,451,26,5,5,français,f,2,0.2,68.00501759,0.86156936
5b8fffca220be50001c59858,145,2,2024-02-27T11:08:18.221Z,english_106.wav,0,pill,451,26,5,5,français,f,3,0.3,49.15199267,0.65348811
5b8fffca220be50001c59858,145,2,2024-02-27T11:08:18.221Z,english_106.wav,0,pill,451,26,5,5,français,f,4,0.32341667,-5.93966373,0.76273979
5b8fffca220be50001c59858,146,2,2024-02-27T11:08:18.221Z,english_122.wav,0,pill,395,26,5,5,français,f,0,0.0,64.29837997,0.06121643
5b8fffca220be50001c59858,146,2,2024-02-27T11:08:18.221Z,english_122.wav,0,pill,395,26,5,5,français,f,1,0.1,-6.72103776,1.56183773
5b8fffca220be50001c59858,146,2,2024-02-27T11:08:18.221Z,english_122.wav,0,pill,395,26,5,5,français,f,2,0.2,34.67911304,1.3577209
5b8fffca220be50001c59858,146,2,2024-02-27T11:08:18.221Z,english_122.wav,0,pill,395,26,5,5,français,f,3,0.3,25.29178735,0.94012362
5b8fffca220be50001c59858,146,2,2024-02-27T11:08:18.221Z,english_122.wav,0,pill,395,26,5,5,français,f,4,0.32341667,-20.34954259,1.04570986
5b8fffca220be50001c59858,147,2,2024-02-27T11:08:18.221Z,english_291.wav,0,peel,364,26,5,5,français,f,0,0.0,-23.91479102,1.25533579
5b8fffca220be50001c59858,147,2,2024-02-27T11:08:18.221Z,english_291.wav,0,peel,364,26,5,5,français,f,1,0.1,-31.34063508,0.8599513
5b8fffca220be50001c59858,147,2,2024-02-27T11:08:18.221Z,english_291.wav,0,peel,364,26,5,5,français,f,2,0.2,-16.29866726,1.40556138
5b8fffca220be50001c59858,147,2,2024-02-27T11:08:18.221Z,english_291.wav,0,peel,364,26,5,5,français,f,3,0.3,10.36632866,0.42924112
5b8fffca220be50001c59858,147,2,2024-02-27T11:08:18.221Z,english_291.wav,0,peel,364,26,5,5,français,f,4,0.32341667,7.35722843,0.61564446
5b8fffca220be50001c59858,148,2,2024-02-27T11:08:18.221Z,english_215.wav,0,pill,416,26,5,5,français,f,0,0.0,-93.71362427,1.31176069
5b8fffca220be50001c59858,148,2,2024-02-27T11:08:18.221Z,english_215.wav,0,pill,416,26,5,5,français,f,1,0.1,20.4696733,1.25536714
5b8fffca220be50001c59858,148,2,2024-02-27T11:08:18.221Z,english_215.wav,0,pill,416,26,5,5,français,f,2,0.2,-66.57352715,1.5696385
5b8fffca220be50001c59858,148,2,2024-02-27T11:08:18.221Z,english_215.wav,0,pill,416,26,5,5,français,f,3,0.3,-0.6079782,0.03144419
5b8fffca220be50001c59858,148,2,2024-02-27T11:08:18.221Z,english_215.wav,0,pill,416,26,5,5,français,f,4,0.32341667,-5.73921948,0.79048669
5b8fffca220be50001c59858,149,2,2024-02-27T11:08:18.221Z,english_545.wav,0,peel,260,26,5,5,français,f,0,0.0,42.99494118,1.37740168
5b8fffca220be50001c59858,149,2,2024-02-27T11:08:18.221Z,english_545.wav,0,peel,260,26,5,5,français,f,1,0.1,72.53025652,0.91972232
5b8fffca220be50001c59858,149,2,2024-02-27T11:08:18.221Z,english_545.wav,0,peel,260,26,5,5,français,f,2,0.2,4.60849844,0.73226975
5b8fffca220be50001c59858,149,2,2024-02-27T11:08:18.221Z,english_545.wav,0,peel,260,26,5,5,français,f,3,0.3,9.93291538,1.52934768
5b8fffca220be50001c59858,149,2,2024-02-27T11:08:18.221Z,english_545.wav,0,peel,260,26,5,5,français,f,4,0.32341667,-11.25611892,0.18478607
5b8fffca220be50001c59858,150,3,2024-02-27T11:08:18.221Z,english_335.wav,0,peel,451,26,5,5,français,f,0,0.0,2.73277154,0.73564724
5b8fffca220be50001c59858,150,3,2024-02-27T11:08:18.221Z,english_335.wav,0,peel,451,26,5,5,français,f,1,0.1,-7.1950175,0.15546095
5b8fffca220be50001c59858,150,3,2024-02-27T11:08:18.221Z,english_335.wav,0,peel,451,26,5,5,français,f,2,0.2,60.45920583,0.90435367
5b8fffca220be50001c59858,150,3,2024-02-27T11:08:18.221Z,english_335.wav,0,peel,451,26,5,5,français,f,3,0.3,-26.91989021,0.56661996
5b8fffca220be50001c59858,150,3,2024-02-27T11:08:18.221Z,english_335.wav,0,peel,451,26,5,5,français,f,4,0.32341667,-2.30142169,1.21763394
5b8fffca220be50001c59858,151,3,2024-02-27T11:08:18.221Z,english_995.wav,0,pill,1410,26,5,5,français,f,0,0.0,49.33707883,0.89732458
5b8fffca220be50001c59858,151,3,2024-02-27T11:08:18.221Z,english_995.wav,0,pill,1410,26,5,5,français,f,1,0.1,54.78730957,0.49662083
5b8fffca220be50001c59858,151,3,2024-02-27T11:08:18.221Z,english_995.wav,0,pill,1410,26,5,5,français,f,2,0.2,-5.99414072,0.83265132
5b8fffca220be50001c59858,151,3,2024-02-27T11:08:18.221Z,english_995.wav,0,pill,1410,26,5,5,français,f,3,0.3,26.8687238,1.32035917
5b8fffca220be50001c59858,151,3,2024-02-27T11:08:18.221Z,english_995.wav,0,pill,1410,26,5,5,français,f,4,0.32341667,38.3348194,1.99869744
5b8fffca220be50001c59858,152,3,2024-02-27T11:08:18.221Z,english_510.wav,0,peel,641,26,5,5,français,f,0,0.0,-39.77235695,0.97080384
5b8fffca220be50001c59858,152,3,2024-02-27T11:08:18.221Z,english_510.wav,0,peel,641,26,5,5,français,f,1,0.1,-55.9025784,0.1022914
5b8fffca220be50001c59858,152,3,2024-02-27T11:08:18.221Z,english_510.wav,0,peel,641,26,5,5,français,f,2,0.2,42.12378864,1.56878682
