subj,trial,block,date,stim,stim_order,response,rt,age,english,french,language,sex,param_index,segment,pitch,stretch
5cfd119645e1a20001883ee6,0,0,2024-02-27T10:58:40.854Z,english_497.wav,0,peel,2451,27,5,5,français,f,0,0.0,3.92391523,0.25005623
5cfd119645e1a20001883ee6,0,0,2024-02-27T10:58:40.854Z,english_497.wav,0,peel,2451,27,5,5,français,f,1,0.1,-39.44421726,1.18920756
5cfd119645e1a20001883ee6,0,0,2024-02-27T10:58:40.854Z,english_497.wav,0,peel,2451,27,5,5,français,f,2,0.2,-70.21843081,1.75478959
5cfd119645e1a20001883ee6,0,0,2024-02-27T10:58:40.854Z,english_497.wav,0,peel,2451,27,5,5,français,f,3,0.3,-95.13281119,0.47878412
5cfd119645e1a20001883ee6,0,0,2024-02-27T10:58:40.854Z,english_497.wav,0,peel,2451,27,5,5,français,f,4,0.32341667,-23.7064256,0.88125504
5cfd119645e1a20001883ee6,1,0,2024-02-27T10:58:40.854Z,english_478.wav,0,peel,1149,27,5,5,français,f,0,0.0,-70.9954821,0.91489342
5cfd119645e1a20001883ee6,1,0,2024-02-27T10:58:40.854Z,english_478.wav,0,peel,1149,27,5,5,français,f,1,0.1,18.763036,1.0325944
5cfd119645e1a20001883ee6,1,0,2024-02-27T10:58:40.854Z,english_478.wav,0,peel,1149,27,5,5,français,f,2,0.2,84.30682023,1.47139294
5cfd119645e1a20001883ee6,1,0,2024-02-27T10:58:40.854Z,english_478.wav,0,peel,1149,27,5,5,français,f,3,0.3,96.70790152,0.31719256
5cfd119645e1a20001883ee6,1,0,2024-02-27T10:58:40.854Z,english_478.wav,0,peel,1149,27,5,5,français,f,4,0.32341667,-65.75430749,1.1469235
5cfd119645e1a20001883ee6,2,0,2024-02-27T10:58:40.854Z,english_190.wav,0,pill,1379,27,5,5,français,f,0,0.0,81.66607819,0.126715216
5cfd119645e1a20001883ee6,2,0,2024-02-27T10:58:40.854Z,english_190.wav,0,pill,1379,27,5,5,français,f,1,0.1,-14.16938067,0.000178349903
5cfd119645e1a20001883ee6,2,0,2024-02-27T10:58:40.854Z,english_190.wav,0,pill,1379,27,5,5,français,f,2,0.2,15.7443745,1.35192229
5cfd119645e1a20001883ee6,2,0,2024-02-27T10:58:40.854Z,english_190.wav,0,pill,1379,27,5,5,français,f,3,0.3,85.77694093,1.08905811
5cfd119645e1a20001883ee6,2,0,2024-02-27T10:58:40.854Z,english_190.wav,0,pill,1379,27,5,5,français,f,4,0.32341667,33.21115004,1.75580408
5cfd119645e1a20001883ee6,3,0,2024-02-27T10:58:40.854Z,english_860.wav,0,peel,789,27,5,5,français,f,0,0.0,10.25066679,1.47817545
5cfd119645e1a20001883ee6,3,0,2024-02-27T10:58:40.854Z,english_860.wav,0,peel,789,27,5,5,français,f,1,0.1,55.87909831,1.32859058
5cfd119645e1a20001883ee6,3,0,2024-02-27T10:58:40.854Z,english_860.wav,0,peel,789,27,5,5,français,f,2,0.2,81.09373959,0.99201561
5cfd119645e1a20001883ee6,3,0,2024-02-27T10:58:40.854Z,english_860.wav,0,peel,789,27,5,5,français,f,3,0.3,15.52286826,0.3312489
5cfd119645e1a20001883ee6,3,0,2024-02-27T10:58:40.854Z,english_860.wav,0,peel,789,27,5,5,français,f,4,0.32341667,58.18702512,0.66001743
5cfd119645e1a20001883ee6,4,0,2024-02-27T10:58:40.854Z,english_95.wav,0,peel,891,27,5,5,français,f,0,0.0,-9.17523314,0.73915747
5cfd119645e1a20001883ee6,4,0,2024-02-27T10:58:40.854Z,english_95.wav,0,peel,891,27,5,5,français,f,1,0.1,-95.16832451,1.01172325
5cfd119645e1a20001883ee6,4,0,2024-02-27T10:58:40.854Z,english_95.wav,0,peel,891,27,5,5,français,f,2,0.2,-21.6130257,1.19817679
5cfd119645e1a20001883ee6,4,0,2024-02-27T10:58:40.854Z,english_95.wav,0,peel,891,27,5,5,français,f,3,0.3,0.51006416,1.53285694
5cfd119645e1a20001883ee6,4,0,2024-02-27T10:58:40.854Z,english_95.wav,0,peel,891,27,5,5,français,f,4,0.32341667,43.00131518,1.08383215
5cfd119645e1a20001883ee6,5,0,2024-02-27T10:58:40.854Z,english_568.wav,0,pill,1326,27,5,5,français,f,0,0.0,-80.38325009,1.52383372
5cfd119645e1a20001883ee6,5,0,2024-02-27T10:58:40.854Z,english_568.wav,0,pill,1326,27,5,5,français,f,1,0.1,65.28340143,0.37337456
5cfd119645e1a20001883ee6,5,0,2024-02-27T10:58:40.854Z,english_568.wav,0,pill,1326,27,5,5,français,f,2,0.2,22.57833022,0.67023469
5cfd119645e1a20001883ee6,5,0,2024-02-27T10:58:40.854Z,english_568.wav,0,pill,1326,27,5,5,français,f,3,0.3,-55.44872251,1.98652091
5cfd119645e1a20001883ee6,5,0,2024-02-27T10:58:40.854Z,english_568.wav,0,pill,1326,27,5,5,français,f,4,0.32341667,-94.3142815,1.15861726
5cfd119645e1a20001883ee6,6,0,2024-02-27T10:58:40.854Z,english_34.wav,0,peel,628,27,5,5,français,f,0,0.0,-48.07924103,1.44836266
5cfd119645e1a20001883ee6,6,0,2024-02-27T10:58:40.854Z,english_34.wav,0,peel,628,27,5,5,français,f,1,0.1,-64.84739183,1.89580324
5cfd119645e1a20001883ee6,6,0,2024-02-27T10:58:40.854Z,english_34.wav,0,peel,628,27,5,5,français,f,2,0.2,-20.81716265,0.64308549
5cfd119645e1a20001883ee6,6,0,2024-02-27T10:58:40.854Z,english_34.wav,0,peel,628,27,5,5,français,f,3,0.3,91.13652067,0.0848332
5cfd119645e1a20001883ee6,6,0,2024-02-27T10:58:40.854Z,english_34.wav,0,peel,628,27,5,5,français,f,4,0.32341667,-54.46543937,0.8036564
5cfd119645e1a20001883ee6,7,0,2024-02-27T10:58:40.854Z,english_200.wav,0,peel,619,27,5,5,français,f,0,0.0,48.98677304,1.07797747
5cfd119645e1a20001883ee6,7,0,2024-02-27T10:58:40.854Z,english_200.wav,0,peel,619,27,5,5,français,f,1,0.1,13.54292536,1.23698451
5cfd119645e1a20001883ee6,7,0,2024-02-27T10:58:40.854Z,english_200.wav,0,peel,619,27,5,5,français,f,2,0.2,15.98335964,0.85343662
5cfd119645e1a20001883ee6,7,0,2024-02-27T10:58:40.854Z,english_200.wav,0,peel,619,27,5,5,français,f,3,0.3,-46.7743147,1.38707984
5cfd119645e1a20001883ee6,7,0,2024-02-27T10:58:40.854Z,english_200.wav,0,peel,619,27,5,5,français,f,4,0.32341667,-12.18386714,0.65409939
5cfd119645e1a20001883ee6,8,0,2024-02-27T10:58:40.854Z,english_434.wav,0,peel,690,27,5,5,français,f,0,0.0,-4.12787863,0.96421208
5cfd119645e1a20001883ee6,8,0,2024-02-27T10:58:40.854Z,english_434.wav,0,peel,690,27,5,5,français,f,1,0.1,-30.19441281,1.08561731
5cfd119645e1a20001883ee6,8,0,2024-02-27T10:58:40.854Z,english_434.wav,0,peel,690,27,5,5,français,f,2,0.2,41.04377471,1.46356301
5cfd119645e1a20001883ee6,8,0,2024-02-27T10:58:40.854Z,english_434.wav,0,peel,690,27,5,5,français,f,3,0.3,-32.43591961,0.25116585
5cfd119645e1a20001883ee6,8,0,2024-02-27T10:58:40.854Z,english_434.wav,0,peel,690,27,5,5,français,f,4,0.32341667,61.53108406,0.73120458
5cfd119645e1a20001883ee6,9,0,2024-02-27T10:58:40.854Z,english_50.wav,0,peel,1106,27,5,5,français,f,0,0.0,-72.72872807,1.68140442
5cfd119645e1a20001883ee6,9,0,2024-02-27T10:58:40.854Z,english_50.wav,0,peel,1106,27,5,5,français,f,1,0.1,-88.33626222,1.82728433
5cfd119645e1a20001883ee6,9,0,2024-02-27T10:58:40.854Z,english_50.wav,0,peel,1106,27,5,5,français,f,2,0.2,-2.18882928,0.80476824
5cfd119645e1a20001883ee6,9,0,2024-02-27T10:58:40.854Z,english_50.wav,0,peel,1106,27,5,5,français,f,3,0.3,60.61456424,0.21215651
5cfd119645e1a20001883ee6,9,0,2024-02-27T10:58:40.854Z,english_50.wav,0,peel,1106,27,5,5,français,f,4,0.32341667,95.28335061,1.87644163
5cfd119645e1a20001883ee6,10,0,2024-02-27T10:58:40.854Z,english_839.wav,0,peel,658,27,5,5,français,f,0,0.0,48.1700809,1.1821708
5cfd119645e1a20001883ee6,10,0,2024-02-27T10:58:40.854Z,english_839.wav,0,peel,658,27,5,5,français,f,1,0.1,-8.22030768,1.15480022
5cfd119645e1a20001883ee6,10,0,2024-02-27T10:58:40.854Z,english_839.wav,0,peel,658,27,5,5,français,f,2,0.2,53.56121636,1.57293091
5cfd119645e1a20001883ee6,10,0,2024-02-27T10:58:40.854Z,english_839.wav,0,peel,658,27,5,5,français,f,3,0.3,4.54416263,0.22310878
5cfd119645e1a20001883ee6,10,0,2024-02-27T10:58:40.854Z,english_839.wav,0,peel,658,27,5,5,français,f,4,0.32341667,-19.83463627,0.67140257
5cfd119645e1a20001883ee6,11,0,2024-02-27T10:58:40.854Z,english_271.wav,0,pill,1148,27,5,5,français,f,0,0.0,24.41564841,0.25667552
5cfd119645e1a20001883ee6,11,0,2024-02-27T10:58:40.854Z,english_271.wav,0,pill,1148,27,5,5,français,f,1,0.1,-64.42577909,1.20221217
5cfd119645e1a20001883ee6,11,0,2024-02-27T10:58:40.854Z,english_271.wav,0,pill,1148,27,5,5,français,f,2,0.2,32.27025317,0.24658485
5cfd119645e1a20001883ee6,11,0,2024-02-27T10:58:40.854Z,english_271.wav,0,pill,1148,27,5,5,français,f,3,0.3,58.71212772,1.57844265
5cfd119645e1a20001883ee6,11,0,2024-02-27T10:58:40.854Z,english_271.wav,0,pill,1148,27,5,5,français,f,4,0.32341667,46.7300547,1.00400066
5cfd119645e1a20001883ee6,12,0,2024-02-27T10:58:40.854Z,english_408.wav,0,peel,1166,27,5,5,français,f,0,0.0,-0.16211679,1.52185603
5cfd119645e1a20001883ee6,12,0,2024-02-27T10:58:40.854Z,english_408.wav,0,peel,1166,27,5,5,français,f,1,0.1,16.68246491,0.27925492
5cfd119645e1a20001883ee6,12,0,2024-02-27T10:58:40.854Z,english_408.wav,0,peel,1166,27,5,5,français,f,2,0.2,-84.31504289,0.96179544
5cfd119645e1a20001883ee6,12,0,2024-02-27T10:58:40.854Z,english_408.wav,0,peel,1166,27,5,5,français,f,3,0.3,20.95362966,1.64669203
5cfd119645e1a20001883ee6,12,0,2024-02-27T10:58:40.854Z,english_408.wav,0,peel,1166,27,5,5,français,f,4,0.32341667,15.25079186,1.54793764
5cfd119645e1a20001883ee6,13,0,2024-02-27T10:58:40.854Z,english_869.wav,0,peel,519,27,5,5,français,f,0,0.0,31.82870938,0.91730192
5cfd119645e1a20001883ee6,13,0,2024-02-27T10:58:40.854Z,english_869.wav,0,peel,519,27,5,5,français,f,1,0.1,55.69153841,1.54634356
5cfd119645e1a20001883ee6,13,0,2024-02-27T10:58:40.854Z,english_869.wav,0,peel,519,27,5,5,français,f,2,0.2,44.83997999,0.32401745
5cfd119645e1a20001883ee6,13,0,2024-02-27T10:58:40.854Z,english_869.wav,0,peel,519,27,5,5,français,f,3,0.3,-64.6596515,1.34292926
5cfd119645e1a20001883ee6,13,0,2024-02-27T10:58:40.854Z,english_869.wav,0,peel,519,27,5,5,français,f,4,0.32341667,-51.58434075,0.99771643
5cfd119645e1a20001883ee6,14,0,2024-02-27T10:58:40.854Z,english_182.wav,0,peel,846,27,5,5,français,f,0,0.0,57.43769915,0.89919812
5cfd119645e1a20001883ee6,14,0,2024-02-27T10:58:40.854Z,english_182.wav,0,peel,846,27,5,5,français,f,1,0.1,-87.06676545,1.25243937
5cfd119645e1a20001883ee6,14,0,2024-02-27T10:58:40.854Z,english_182.wav,0,peel,846,27,5,5,français,f,2,0.2,-91.52107401,1.35021358
5cfd119645e1a20001883ee6,14,0,2024-02-27T10:58:40.854Z,english_182.wav,0,peel,846,27,5,5,français,f,3,0.3,52.0843588,0.52787795
5cfd119645e1a20001883ee6,14,0,2024-02-27T10:58:40.854Z,english_182.wav,0,peel,846,27,5,5,français,f,4,0.32341667,18.07264914,0.72620624
5cfd119645e1a20001883ee6,15,0,2024-02-27T10:58:40.854Z,english_168.wav,0,pill,1061,27,5,5,français,f,0,0.0,-69.10300998,1.14537751
5cfd119645e1a20001883ee6,15,0,2024-02-27T10:58:40.854Z,english_168.wav,0,pill,1061,27,5,5,français,f,1,0.1,-24.44784794,1.06854972
5cfd119645e1a20001883ee6,15,0,2024-02-27T10:58:40.854Z,english_168.wav,0,pill,1061,27,5,5,français,f,2,0.2,35.31321785,0.45192262
5cfd119645e1a20001883ee6,15,0,2024-02-27T10:58:40.854Z,english_168.wav,0,pill,1061,27,5,5,français,f,3,0.3,-41.77498511,0.2846318
5cfd119645e1a20001883ee6,15,0,2024-02-27T10:58:40.854Z,english_168.wav,0,pill,1061,27,5,5,français,f,4,0.32341667,19.92389913,0.9853942
5cfd119645e1a20001883ee6,16,0,2024-02-27T10:58:40.854Z,english_776.wav,0,peel,600,27,5,5,français,f,0,0.0,29.86548478,0.57139857
5cfd119645e1a20001883ee6,16,0,2024-02-27T10:58:40.854Z,english_776.wav,0,peel,600,27,5,5,français,f,1,0.1,2.8025705,1.94435619
5cfd119645e1a20001883ee6,16,0,2024-02-27T10:58:40.854Z,english_776.wav,0,peel,600,27,5,5,français,f,2,0.2,-38.4768188,0.3951066
5cfd119645e1a20001883ee6,16,0,2024-02-27T10:58:40.854Z,english_776.wav,0,peel,600,27,5,5,français,f,3,0.3,-89.49838949,0.29859462
5cfd119645e1a20001883ee6,16,0,2024-02-27T10:58:40.854Z,english_776.wav,0,peel,600,27,5,5,français,f,4,0.32341667,30.18488016,1.93939037
5cfd119645e1a20001883ee6,17,0,2024-02-27T10:58:40.854Z,english_327.wav,0,pill,1067,27,5,5,français,f,0,0.0,-65.34261839,0.94624792
5cfd119645e1a20001883ee6,17,0,2024-02-27T10:58:40.854Z,english_327.wav,0,pill,1067,27,5,5,français,f,1,0.1,-88.88296173,0.88463276
5cfd119645e1a20001883ee6,17,0,2024-02-27T10:58:40.854Z,english_327.wav,0,pill,1067,27,5,5,français,f,2,0.2,-52.48624316,0.8064175
5cfd119645e1a20001883ee6,17,0,2024-02-27T10:58:40.854Z,english_327.wav,0,pill,1067,27,5,5,français,f,3,0.3,35.3894457,1.08656597
5cfd119645e1a20001883ee6,17,0,2024-02-27T10:58:40.854Z,english_327.wav,0,pill,1067,27,5,5,français,f,4,0.32341667,-31.26503482,0.95323019
5cfd119645e1a20001883ee6,18,0,2024-02-27T10:58:40.854Z,english_13.wav,0,peel,543,27,5,5,français,f,0,0.0,85.79405153,0.93145275
5cfd119645e1a20001883ee6,18,0,2024-02-27T10:58:40.854Z,english_13.wav,0,peel,543,27,5,5,français,f,1,0.1,-22.00296346,0.69811424
5cfd119645e1a20001883ee6,18,0,2024-02-27T10:58:40.854Z,english_13.wav,0,peel,543,27,5,5,français,f,2,0.2,45.89988476,1.08090206
5cfd119645e1a20001883ee6,18,0,2024-02-27T10:58:40.854Z,english_13.wav,0,peel,543,27,5,5,français,f,3,0.3,-17.47250281,0.35305012
5cfd119645e1a20001883ee6,18,0,2024-02-27T10:58:40.854Z,english_13.wav,0,peel,543,27,5,5,français,f,4,0.32341667,-30.34546067,0.65915907
5cfd119645e1a20001883ee6,19,0,2024-02-27T10:58:40.854Z,english_708.wav,0,peel,578,27,5,5,français,f,0,0.0,-27.19248895,0.74061838
5cfd119645e1a20001883ee6,19,0,2024-02-27T10:58:40.854Z,english_708.wav,0,peel,578,27,5,5,français,f,1,0.1,84.25795725,1.13599963
5cfd119645e1a20001883ee6,19,0,2024-02-27T10:58:40.854Z,english_708.wav,0,peel,578,27,5,5,français,f,2,0.2,-19.19551503,1.10086254
5cfd119645e1a20001883ee6,19,0,2024-02-27T10:58:40.854Z,english_708.wav,0,peel,578,27,5,5,français,f,3,0.3,29.88012033,0.53054382
5cfd119645e1a20001883ee6,19,0,2024-02-27T10:58:40.854Z,english_708.wav,0,peel,578,27,5,5,français,f,4,0.32341667,46.0858662,1.51974387
5cfd119645e1a20001883ee6,20,0,2024-02-27T10:58:40.854Z,english_859.wav,0,pill,824,27,5,5,français,f,0,0.0,71.31858369,0.11764496
5cfd119645e1a20001883ee6,20,0,2024-02-27T10:58:40.854Z,english_859.wav,0,pill,824,27,5,5,français,f,1,0.1,-33.60875554,0.29827778
5cfd119645e1a20001883ee6,20,0,2024-02-27T10:58:40.854Z,english_859.wav,0,pill,824,27,5,5,français,f,2,0.2,-64.15502461,0.43254339
5cfd119645e1a20001883ee6,20,0,2024-02-27T10:58:40.854Z,english_859.wav,0,pill,824,27,5,5,français,f,3,0.3,-36.22537369,0.12368506
5cfd119645e1a20001883ee6,20,0,2024-02-27T10:58:40.854Z,english_859.wav,0,pill,824,27,5,5,français,f,4,0.32341667,-23.59955866,0.97858169
5cfd119645e1a20001883ee6,21,0,2024-02-27T10:58:40.854Z,english_957.wav,0,peel,464,27,5,5,français,f,0,0.0,-8.34255742,0.77577071
5cfd119645e1a20001883ee6,21,0,2024-02-27T10:58:40.854Z,english_957.wav,0,peel,464,27,5,5,français,f,1,0.1,-36.8236739,1.35435363
5cfd119645e1a20001883ee6,21,0,2024-02-27T10:58:40.854Z,english_957.wav,0,peel,464,27,5,5,français,f,2,0.2,6.68978896,0.94592229
5cfd119645e1a20001883ee6,21,0,2024-02-27T10:58:40.854Z,english_957.wav,0,peel,464,27,5,5,français,f,3,0.3,-85.51463088,0.8988777
5cfd119645e1a20001883ee6,21,0,2024-02-27T10:58:40.854Z,english_957.wav,0,peel,464,27,5,5,français,f,4,0.32341667,-16.82289389,0.34403417
5cfd119645e1a20001883ee6,22,0,2024-02-27T10:58:40.854Z,english_96.wav,0,peel,486,27,5,5,français,f,0,0.0,-2.60251168,1.33849038
5cfd119645e1a20001883ee6,22,0,2024-02-27T10:58:40.854Z,english_96.wav,0,peel,486,27,5,5,français,f,1,0.1,3.1808695,1.03790095
5cfd119645e1a20001883ee6,22,0,2024-02-27T10:58:40.854Z,english_96.wav,0,peel,486,27,5,5,français,f,2,0.2,-93.89625608,0.32730996
5cfd119645e1a20001883ee6,22,0,2024-02-27T10:58:40.854Z,english_96.wav,0,peel,486,27,5,5,français,f,3,0.3,22.03695444,1.15118519
5cfd119645e1a20001883ee6,22,0,2024-02-27T10:58:40.854Z,english_96.wav,0,peel,486,27,5,5,français,f,4,0.32341667,89.13776591,1.37996061
5cfd119645e1a20001883ee6,23,0,2024-02-27T10:58:40.854Z,english_732.wav,0,peel,497,27,5,5,français,f,0,0.0,-12.49530298,1.28394154
5cfd119645e1a20001883ee6,23,0,2024-02-27T10:58:40.854Z,english_732.wav,0,peel,497,27,5,5,français,f,1,0.1,77.35683448,1.95772399
5cfd119645e1a20001883ee6,23,0,2024-02-27T10:58:40.854Z,english_732.wav,0,peel,497,27,5,5,français,f,2,0.2,46.14200593,1.14408971
5cfd119645e1a20001883ee6,23,0,2024-02-27T10:58:40.854Z,english_732.wav,0,peel,497,27,5,5,français,f,3,0.3,-17.19403126,0.21034957
5cfd119645e1a20001883ee6,23,0,2024-02-27T10:58:40.854Z,english_732.wav,0,peel,497,27,5,5,français,f,4,0.32341667,-81.60069167,0.50538316
5cfd119645e1a20001883ee6,24,0,2024-02-27T10:58:40.854Z,english_891.wav,0,peel,565,27,5,5,français,f,0,0.0,21.29241244,0.7419472
5cfd119645e1a20001883ee6,24,0,2024-02-27T10:58:40.854Z,english_891.wav,0,peel,565,27,5,5,français,f,1,0.1,-1.23713702,1.09270952
5cfd119645e1a20001883ee6,24,0,2024-02-27T10:58:40.854Z,english_891.wav,0,peel,565,27,5,5,français,f,2,0.2,-74.86460599,0.8129571
5cfd119645e1a20001883ee6,24,0,2024-02-27T10:58:40.854Z,english_891.wav,0,peel,565,27,5,5,français,f,3,0.3,18.81587233,0.16019775
5cfd119645e1a20001883ee6,24,0,2024-02-27T10:58:40.854Z,english_891.wav,0,peel,565,27,5,5,français,f,4,0.32341667,35.3489582,1.17476401
5cfd119645e1a20001883ee6,25,0,2024-02-27T10:58:40.854Z,english_588.wav,0,pill,733,27,5,5,français,f,0,0.0,99.95047602,0.54608042
5cfd119645e1a20001883ee6,25,0,2024-02-27T10:58:40.854Z,english_588.wav,0,pill,733,27,5,5,français,f,1,0.1,6.8401109,0.86340392
5cfd119645e1a20001883ee6,25,0,2024-02-27T10:58:40.854Z,english_588.wav,0,pill,733,27,5,5,français,f,2,0.2,-15.9093749,0.01522231
5cfd119645e1a20001883ee6,25,0,2024-02-27T10:58:40.854Z,english_588.wav,0,pill,733,27,5,5,français,f,3,0.3,-95.80500507,0.86017392
5cfd119645e1a20001883ee6,25,0,2024-02-27T10:58:40.854Z,english_588.wav,0,pill,733,27,5,5,français,f,4,0.32341667,23.59255786,0.36914066
5cfd119645e1a20001883ee6,26,0,2024-02-27T10:58:40.854Z,english_683.wav,0,peel,455,27,5,5,français,f,0,0.0,-73.37543508,1.70409633
5cfd119645e1a20001883ee6,26,0,2024-02-27T10:58:40.854Z,english_683.wav,0,peel,455,27,5,5,français,f,1,0.1,66.4080647,1.25556383
5cfd119645e1a20001883ee6,26,0,2024-02-27T10:58:40.854Z,english_683.wav,0,peel,455,27,5,5,français,f,2,0.2,46.46812351,0.87554738
5cfd119645e1a20001883ee6,26,0,2024-02-27T10:58:40.854Z,english_683.wav,0,peel,455,27,5,5,français,f,3,0.3,71.67755016,1.32863005
5cfd119645e1a20001883ee6,26,0,2024-02-27T10:58:40.854Z,english_683.wav,0,peel,455,27,5,5,français,f,4,0.32341667,2.86253031,0.20364682
5cfd119645e1a20001883ee6,27,0,2024-02-27T10:58:40.854Z,english_243.wav,0,pill,706,27,5,5,français,f,0,0.0,-74.41503345,0.65151457
5cfd119645e1a20001883ee6,27,0,2024-02-27T10:58:40.854Z,english_243.wav,0,pill,706,27,5,5,français,f,1,0.1,-16.65530333,0.20623253
5cfd119645e1a20001883ee6,27,0,2024-02-27T10:58:40.854Z,english_243.wav,0,pill,706,27,5,5,français,f,2,0.2,-1.41224798,0.87153721
5cfd119645e1a20001883ee6,27,0,2024-02-27T10:58:40.854Z,english_243.wav,0,pill,706,27,5,5,français,f,3,0.3,37.30419975,0.28583671
5cfd119645e1a20001883ee6,27,0,2024-02-27T10:58:40.854Z,english_243.wav,0,pill,706,27,5,5,français,f,4,0.32341667,-3.40378668,1.90700275
5cfd119645e1a20001883ee6,28,0,2024-02-27T10:58:40.854Z,english_575.wav,0,peel,418,27,5,5,français,f,0,0.0,61.73461998,1.8510319
5cfd119645e1a20001883ee6,28,0,2024-02-27T10:58:40.854Z,english_575.wav,0,peel,418,27,5,5,français,f,1,0.1,-88.57549656,1.54102878
5cfd119645e1a20001883ee6,28,0,2024-02-27T10:58:40.854Z,english_575.wav,0,peel,418,27,5,5,français,f,2,0.2,-30.88461278,1.19801244
5cfd119645e1a20001883ee6,28,0,2024-02-27T10:58:40.854Z,english_575.wav,0,peel,418,27,5,5,français,f,3,0.3,-63.73327026,1.20026237
5cfd119645e1a20001883ee6,28,0,2024-02-27T10:58:40.854Z,english_575.wav,0,peel,418,27,5,5,français,f,4,0.32341667,-0.55806298,1.04112184
5cfd119645e1a20001883ee6,29,0,2024-02-27T10:58:40.854Z,english_670.wav,0,pill,874,27,5,5,français,f,0,0.0,64.75672565,1.5535903
5cfd119645e1a20001883ee6,29,0,2024-02-27T10:58:40.854Z,english_670.wav,0,pill,874,27,5,5,français,f,1,0.1,85.95156369,0.12522594
5cfd119645e1a20001883ee6,29,0,2024-02-27T10:58:40.854Z,english_670.wav,0,pill,874,27,5,5,français,f,2,0.2,-44.32949438,0.22842632
5cfd119645e1a20001883ee6,29,0,2024-02-27T10:58:40.854Z,english_670.wav,0,pill,874,27,5,5,français,f,3,0.3,22.57192219,0.17636502
5cfd119645e1a20001883ee6,29,0,2024-02-27T10:58:40.854Z,english_670.wav,0,pill,874,27,5,5,français,f,4,0.32341667,34.74005277,0.16208776
5cfd119645e1a20001883ee6,30,0,2024-02-27T10:58:40.854Z,english_583.wav,0,peel,480,27,5,5,français,f,0,0.0,-35.26485382,0.11557093
5cfd119645e1a20001883ee6,30,0,2024-02-27T10:58:40.854Z,english_583.wav,0,peel,480,27,5,5,français,f,1,0.1,-69.50197994,0.9917357
5cfd119645e1a20001883ee6,30,0,2024-02-27T10:58:40.854Z,english_583.wav,0,peel,480,27,5,5,français,f,2,0.2,73.6796048,1.33727714
5cfd119645e1a20001883ee6,30,0,2024-02-27T10:58:40.854Z,english_583.wav,0,peel,480,27,5,5,français,f,3,0.3,-1.04664171,0.97646566
5cfd119645e1a20001883ee6,30,0,2024-02-27T10:58:40.854Z,english_583.wav,0,peel,480,27,5,5,français,f,4,0.32341667,-55.46924107,1.06585671
5cfd119645e1a20001883ee6,31,0,2024-02-27T10:58:40.854Z,english_319.wav,0,peel,642,27,5,5,français,f,0,0.0,-84.37928886,1.17141126
5cfd119645e1a20001883ee6,31,0,2024-02-27T10:58:40.854Z,english_319.wav,0,peel,642,27,5,5,français,f,1,0.1,-52.76931383,1.13741792
5cfd119645e1a20001883ee6,31,0,2024-02-27T10:58:40.854Z,english_319.wav,0,peel,642,27,5,5,français,f,2,0.2,56.06390533,0.91618882
5cfd119645e1a20001883ee6,31,0,2024-02-27T10:58:40.854Z,english_319.wav,0,peel,642,27,5,5,français,f,3,0.3,-69.46438111,0.7080153
5cfd119645e1a20001883ee6,31,0,2024-02-27T10:58:40.854Z,english_319.wav,0,peel,642,27,5,5,français,f,4,0.32341667,91.86152445,0.5910213
5cfd119645e1a20001883ee6,32,0,2024-02-27T10:58:40.854Z,english_760.wav,0,peel,495,27,5,5,français,f,0,0.0,24.3902693,0.67210823
5cfd119645e1a20001883ee6,32,0,2024-02-27T10:58:40.854Z,english_760.wav,0,peel,495,27,5,5,français,f,1,0.1,-0.0247174936,1.89588113
5cfd119645e1a20001883ee6,32,0,2024-02-27T10:58:40.854Z,english_760.wav,0,peel,495,27,5,5,français,f,2,0.2,82.8662613,0.23432987
5cfd119645e1a20001883ee6,32,0,2024-02-27T10:58:40.854Z,english_760.wav,0,peel,495,27,5,5,français,f,3,0.3,-7.97314524,1.20797246
5cfd119645e1a20001883ee6,32,0,2024-02-27T10:58:40.854Z,english_760.wav,0,peel,495,27,5,5,français,f,4,0.323416667,-6.32438983,1.72866971
5cfd119645e1a20001883ee6,33,0,2024-02-27T10:58:40.854Z,english_293.wav,0,peel,523,27,5,5,français,f,0,0.0,-22.15906653,1.76366583
5cfd119645e1a20001883ee6,33,0,2024-02-27T10:58:40.854Z,english_293.wav,0,peel,523,27,5,5,français,f,1,0.1,-88.62057809,0.55660069
5cfd119645e1a20001883ee6,33,0,2024-02-27T10:58:40.854Z,english_293.wav,0,peel,523,27,5,5,français,f,2,0.2,-18.47979893,1.17282558
5cfd119645e1a20001883ee6,33,0,2024-02-27T10:58:40.854Z,english_293.wav,0,peel,523,27,5,5,français,f,3,0.3,-74.2852497,0.49477424
5cfd119645e1a20001883ee6,33,0,2024-02-27T10:58:40.854Z,english_293.wav,0,peel,523,27,5,5,français,f,4,0.32341667,59.45323022,0.66659794
5cfd119645e1a20001883ee6,34,0,2024-02-27T10:58:40.854Z,english_694.wav,0,pill,745,27,5,5,français,f,0,0.0,-79.88370205,0.99496101
5cfd119645e1a20001883ee6,34,0,2024-02-27T10:58:40.854Z,english_694.wav,0,pill,745,27,5,5,français,f,1,0.1,-58.02841319,0.06406007
5cfd119645e1a20001883ee6,34,0,2024-02-27T10:58:40.854Z,english_694.wav,0,pill,745,27,5,5,français,f,2,0.2,-50.54988317,0.5055253
5cfd119645e1a20001883ee6,34,0,2024-02-27T10:58:40.854Z,english_694.wav,0,pill,745,27,5,5,français,f,3,0.3,-20.79864769,0.19498426
5cfd119645e1a20001883ee6,34,0,2024-02-27T10:58:40.854Z,english_694.wav,0,pill,745,27,5,5,français,f,4,0.32341667,-73.64916114,0.36410653
5cfd119645e1a20001883ee6,35,0,2024-02-27T10:58:40.854Z,english_548.wav,0,peel,510,27,5,5,français,f,0,0.0,19.39315344,0.41811488
5cfd119645e1a20001883ee6,35,0,2024-02-27T10:58:40.854Z,english_548.wav,0,peel,510,27,5,5,français,f,1,0.1,82.09582914,1.70384437
5cfd119645e1a20001883ee6,35,0,2024-02-27T10:58:40.854Z,english_548.wav,0,peel,510,27,5,5,français,f,2,0.2,-65.55781301,1.82142436
5cfd119645e1a20001883ee6,35,0,2024-02-27T10:58:40.854Z,english_548.wav,0,peel,510,27,5,5,français,f,3,0.3,-5.02691035,1.13784798
5cfd119645e1a20001883ee6,35,0,2024-02-27T10:58:40.854Z,english_548.wav,0,peel,510,27,5,5,français,f,4,0.32341667,62.63141303,1.73168063
5cfd119645e1a20001883ee6,36,0,2024-02-27T10:58:40.854Z,english_660.wav,0,pill,661,27,5,5,français,f,0,0.0,-18.17224728,0.25133372
5cfd119645e1a20001883ee6,36,0,2024-02-27T10:58:40.854Z,english_660.wav,0,pill,661,27,5,5,français,f,1,0.1,-51.94390165,0.1756709
5cfd119645e1a20001883ee6,36,0,2024-02-27T10:58:40.854Z,english_660.wav,0,pill,661,27,5,5,français,f,2,0.2,-79.57293034,0.660284
5cfd119645e1a20001883ee6,36,0,2024-02-27T10:58:40.854Z,english_660.wav,0,pill,661,27,5,5,français,f,3,0.3,67.99606973,1.08301436
5cfd119645e1a20001883ee6,36,0,2024-02-27T10:58:40.854Z,english_660.wav,0,pill,661,27,5,5,français,f,4,0.32341667,-2.00416122,0.81155284
5cfd119645e1a20001883ee6,37,0,2024-02-27T10:58:40.854Z,english_884.wav,0,peel,413,27,5,5,français,f,0,0.0,77.1498115,1.83268558
5cfd119645e1a20001883ee6,37,0,2024-02-27T10:58:40.854Z,english_884.wav,0,peel,413,27,5,5,français,f,1,0.1,10.32602389,0.76817862
5cfd119645e1a20001883ee6,37,0,2024-02-27T10:58:40.854Z,english_884.wav,0,peel,413,27,5,5,français,f,2,0.2,4.15464736,1.59331573
5cfd119645e1a20001883ee6,37,0,2024-02-27T10:58:40.854Z,english_884.wav,0,peel,413,27,5,5,français,f,3,0.3,21.19252889,0.58913169
5cfd119645e1a20001883ee6,37,0,2024-02-27T10:58:40.854Z,english_884.wav,0,peel,413,27,5,5,français,f,4,0.32341667,-7.11336122,0.81393531
5cfd119645e1a20001883ee6,38,0,2024-02-27T10:58:40.854Z,english_676.wav,0,peel,311,27,5,5,français,f,0,0.0,3.93099148,1.7716209
5cfd119645e1a20001883ee6,38,0,2024-02-27T10:58:40.854Z,english_676.wav,0,peel,311,27,5,5,français,f,1,0.1,73.76311644,1.97281878
5cfd119645e1a20001883ee6,38,0,2024-02-27T10:58:40.854Z,english_676.wav,0,peel,311,27,5,5,français,f,2,0.2,-26.92634129,1.42487848
5cfd119645e1a20001883ee6,38,0,2024-02-27T10:58:40.854Z,english_676.wav,0,peel,311,27,5,5,français,f,3,0.3,51.70874443,1.45099775
5cfd119645e1a20001883ee6,38,0,2024-02-27T10:58:40.854Z,english_676.wav,0,peel,311,27,5,5,français,f,4,0.32341667,-48.7675791,1.84822532
5cfd119645e1a20001883ee6,39,0,2024-02-27T10:58:40.854Z,english_982.wav,0,peel,850,27,5,5,français,f,0,0.0,12.44046596,0.81508625
5cfd119645e1a20001883ee6,39,0,2024-02-27T10:58:40.854Z,english_982.wav,0,peel,850,27,5,5,français,f,1,0.1,-60.41666302,0.92712357
5cfd119645e1a20001883ee6,39,0,2024-02-27T10:58:40.854Z,english_982.wav,0,peel,850,27,5,5,français,f,2,0.2,-35.31499742,0.77678916
5cfd119645e1a20001883ee6,39,0,2024-02-27T10:58:40.854Z,english_982.wav,0,peel,850,27,5,5,français,f,3,0.3,-10.96739076,1.0294352
5cfd119645e1a20001883ee6,39,0,2024-02-27T10:58:40.854Z,english_982.wav,0,peel,850,27,5,5,français,f,4,0.32341667,44.50624474,1.1322674
5cfd119645e1a20001883ee6,40,0,2024-02-27T10:58:40.854Z,english_115.wav,0,peel,346,27,5,5,français,f,0,0.0,-6.4126324,0.37361158
5cfd119645e1a20001883ee6,40,0,2024-02-27T10:58:40.854Z,english_115.wav,0,peel,346,27,5,5,français,f,1,0.1,-78.70213007,1.5865766
5cfd119645e1a20001883ee6,40,0,2024-02-27T10:58:40.854Z,english_115.wav,0,peel,346,27,5,5,français,f,2,0.2,-0.36204046,1.00360432
5cfd119645e1a20001883ee6,40,0,2024-02-27T10:58:40.854Z,english_115.wav,0,peel,346,27,5,5,français,f,3,0.3,-47.97210547,1.3933449
5cfd119645e1a20001883ee6,40,0,2024-02-27T10:58:40.854Z,english_115.wav,0,peel,346,27,5,5,français,f,4,0.32341667,3.06964689,1.1205092
5cfd119645e1a20001883ee6,41,0,2024-02-27T10:58:40.854Z,english_17.wav,0,peel,591,27,5,5,français,f,0,0.0,54.20763778,0.24306789
5cfd119645e1a20001883ee6,41,0,2024-02-27T10:58:40.854Z,english_17.wav,0,peel,591,27,5,5,français,f,1,0.1,56.90002318,0.93194053
5cfd119645e1a20001883ee6,41,0,2024-02-27T10:58:40.854Z,english_17.wav,0,peel,591,27,5,5,français,f,2,0.2,53.34795505,0.70954885
5cfd119645e1a20001883ee6,41,0,2024-02-27T10:58:40.854Z,english_17.wav,0,peel,591,27,5,5,français,f,3,0.3,-49.04179277,1.57385934
5cfd119645e1a20001883ee6,41,0,2024-02-27T10:58:40.854Z,english_17.wav,0,peel,591,27,5,5,français,f,4,0.32341667,-46.12718147,1.28258365
5cfd119645e1a20001883ee6,42,0,2024-02-27T10:58:40.854Z,english_786.wav,0,peel,1147,27,5,5,français,f,0,0.0,50.77560123,0.9907589
5cfd119645e1a20001883ee6,42,0,2024-02-27T10:58:40.854Z,english_786.wav,0,peel,1147,27,5,5,français,f,1,0.1,-87.08435808,0.48193409
5cfd119645e1a20001883ee6,42,0,2024-02-27T10:58:40.854Z,english_786.wav,0,peel,1147,27,5,5,français,f,2,0.2,-36.07136163,1.01949061
5cfd119645e1a20001883ee6,42,0,2024-02-27T10:58:40.854Z,english_786.wav,0,peel,1147,27,5,5,français,f,3,0.3,98.77618087,1.06334926
5cfd119645e1a20001883ee6,42,0,2024-02-27T10:58:40.854Z,english_786.wav,0,peel,1147,27,5,5,français,f,4,0.32341667,86.70070823,0.94164836
5cfd119645e1a20001883ee6,43,0,2024-02-27T10:58:40.854Z,english_804.wav,0,peel,317,27,5,5,français,f,0,0.0,11.23319328,0.16159815
5cfd119645e1a20001883ee6,43,0,2024-02-27T10:58:40.854Z,english_804.wav,0,peel,317,27,5,5,français,f,1,0.1,-75.15189859,1.76023076
5cfd119645e1a20001883ee6,43,0,2024-02-27T10:58:40.854Z,english_804.wav,0,peel,317,27,5,5,français,f,2,0.2,5.39397939,0.7355024
5cfd119645e1a20001883ee6,43,0,2024-02-27T10:58:40.854Z,english_804.wav,0,peel,317,27,5,5,français,f,3,0.3,42.92141331,1.74636497
5cfd119645e1a20001883ee6,43,0,2024-02-27T10:58:40.854Z,english_804.wav,0,peel,317,27,5,5,français,f,4,0.32341667,-79.84726866,1.05562007
5cfd119645e1a20001883ee6,44,0,2024-02-27T10:58:40.854Z,english_203.wav,0,peel,372,27,5,5,français,f,0,0.0,-22.28277813,1.31475846
5cfd119645e1a20001883ee6,44,0,2024-02-27T10:58:40.854Z,english_203.wav,0,peel,372,27,5,5,français,f,1,0.1,13.21695477,1.08922412
5cfd119645e1a20001883ee6,44,0,2024-02-27T10:58:40.854Z,english_203.wav,0,peel,372,27,5,5,français,f,2,0.2,63.23651974,0.55450355
5cfd119645e1a20001883ee6,44,0,2024-02-27T10:58:40.854Z,english_203.wav,0,peel,372,27,5,5,français,f,3,0.3,-20.14830746,1.72034007
5cfd119645e1a20001883ee6,44,0,2024-02-27T10:58:40.854Z,english_203.wav,0,peel,372,27,5,5,français,f,4,0.32341667,-78.55276631,0.92481053
5cfd119645e1a20001883ee6,45,0,2024-02-27T10:58:40.854Z,english_971.wav,0,pill,1189,27,5,5,français,f,0,0.0,27.0641734,0.01013217
5cfd119645e1a20001883ee6,45,0,2024-02-27T10:58:40.854Z,english_971.wav,0,pill,1189,27,5,5,français,f,1,0.1,-43.13434162,0.95424486
5cfd119645e1a20001883ee6,45,0,2024-02-27T10:58:40.854Z,english_971.wav,0,pill,1189,27,5,5,français,f,2,0.2,83.45364082,1.16332163
5cfd119645e1a20001883ee6,45,0,2024-02-27T10:58:40.854Z,english_971.wav,0,pill,1189,27,5,5,français,f,3,0.3,46.6736971,0.56494555
5cfd119645e1a20001883ee6,45,0,2024-02-27T10:58:40.854Z,english_971.wav,0,pill,1189,27,5,5,français,f,4,0.32341667,-28.9166607,0.73596031
5cfd119645e1a20001883ee6,46,0,2024-02-27T10:58:40.854Z,english_821.wav,0,peel,345,27,5,5,français,f,0,0.0,-4.04234253,1.62928948
5cfd119645e1a20001883ee6,46,0,2024-02-27T10:58:40.854Z,english_821.wav,0,peel,345,27,5,5,français,f,1,0.1,50.39518932,0.78033958
5cfd119645e1a20001883ee6,46,0,2024-02-27T10:58:40.854Z,english_821.wav,0,peel,345,27,5,5,français,f,2,0.2,58.18996785,1.56476115
5cfd119645e1a20001883ee6,46,0,2024-02-27T10:58:40.854Z,english_821.wav,0,peel,345,27,5,5,français,f,3,0.3,-22.07293427,0.56557752
5cfd119645e1a20001883ee6,46,0,2024-02-27T10:58:40.854Z,english_821.wav,0,peel,345,27,5,5,français,f,4,0.32341667,56.43229939,0.93389964
5cfd119645e1a20001883ee6,47,0,2024-02-27T10:58:40.854Z,english_486.wav,0,peel,666,27,5,5,français,f,0,0.0,31.41997184,1.22599644
5cfd119645e1a20001883ee6,47,0,2024-02-27T10:58:40.854Z,english_486.wav,0,peel,666,27,5,5,français,f,1,0.1,58.03480486,1.4547445
5cfd119645e1a20001883ee6,47,0,2024-02-27T10:58:40.854Z,english_486.wav,0,peel,666,27,5,5,français,f,2,0.2,-62.84801238,0.27967606
5cfd119645e1a20001883ee6,47,0,2024-02-27T10:58:40.854Z,english_486.wav,0,peel,666,27,5,5,français,f,3,0.3,10.62451678,0.02065399
5cfd119645e1a20001883ee6,47,0,2024-02-27T10:58:40.854Z,english_486.wav,0,peel,666,27,5,5,français,f,4,0.32341667,10.31835057,0.3128479
5cfd119645e1a20001883ee6,48,0,2024-02-27T10:58:40.854Z,english_47.wav,0,peel,460,27,5,5,français,f,0,0.0,70.62381491,1.36620222
5cfd119645e1a20001883ee6,48,0,2024-02-27T10:58:40.854Z,english_47.wav,0,peel,460,27,5,5,français,f,1,0.1,-43.60565268,0.47559644
5cfd119645e1a20001883ee6,48,0,2024-02-27T10:58:40.854Z,english_47.wav,0,peel,460,27,5,5,français,f,2,0.2,29.54670776,0.92078875
5cfd119645e1a20001883ee6,48,0,2024-02-27T10:58:40.854Z,english_47.wav,0,peel,460,27,5,5,français,f,3,0.3,95.208653,0.83015506
5cfd119645e1a20001883ee6,48,0,2024-02-27T10:58:40.854Z,english_47.wav,0,peel,460,27,5,5,français,f,4,0.32341667,-87.83630424,1.40747595
5cfd119645e1a20001883ee6,49,0,2024-02-27T10:58:40.854Z,english_28.wav,0,pill,9022,27,5,5,français,f,0,0.0,46.68805065,0.37315412
5cfd119645e1a20001883ee6,49,0,2024-02-27T10:58:40.854Z,english_28.wav,0,pill,9022,27,5,5,français,f,1,0.1,-19.91180265,0.08560602
5cfd119645e1a20001883ee6,49,0,2024-02-27T10:58:40.854Z,english_28.wav,0,pill,9022,27,5,5,français,f,2,0.2,30.74929008,0.67724734
5cfd119645e1a20001883ee6,49,0,2024-02-27T10:58:40.854Z,english_28.wav,0,pill,9022,27,5,5,français,f,3,0.3,14.01537548,0.53332652
5cfd119645e1a20001883ee6,49,0,2024-02-27T10:58:40.854Z,english_28.wav,0,pill,9022,27,5,5,français,f,4,0.32341667,-32.95915121,1.33480721
5cfd119645e1a20001883ee6,50,1,2024-02-27T10:58:40.854Z,english_978.wav,0,peel,897,27,5,5,français,f,0,0.0,-73.1961296,0.69168228
5cfd119645e1a20001883ee6,50,1,2024-02-27T10:58:40.854Z,english_978.wav,0,peel,897,27,5,5,français,f,1,0.1,-56.98452675,1.28516196
5cfd119645e1a20001883ee6,50,1,2024-02-27T10:58:40.854Z,english_978.wav,0,peel,897,27,5,5,français,f,2,0.2,1.81288897,1.00851945
5cfd119645e1a20001883ee6,50,1,2024-02-27T10:58:40.854Z,english_978.wav,0,peel,897,27,5,5,français,f,3,0.3,-17.93803526,0.05981722
5cfd119645e1a20001883ee6,50,1,2024-02-27T10:58:40.854Z,english_978.wav,0,peel,897,27,5,5,français,f,4,0.32341667,-33.17886565,1.89275203
5cfd119645e1a20001883ee6,51,1,2024-02-27T10:58:40.854Z,english_939.wav,0,peel,586,27,5,5,français,f,0,0.0,-23.2558256,0.1774722
5cfd119645e1a20001883ee6,51,1,2024-02-27T10:58:40.854Z,english_939.wav,0,peel,586,27,5,5,français,f,1,0.1,-16.62065377,0.56271239
5cfd119645e1a20001883ee6,51,1,2024-02-27T10:58:40.854Z,english_939.wav,0,peel,586,27,5,5,français,f,2,0.2,-49.54734698,1.42782479
5cfd119645e1a20001883ee6,51,1,2024-02-27T10:58:40.854Z,english_939.wav,0,peel,586,27,5,5,français,f,3,0.3,22.82101289,0.76516147
5cfd119645e1a20001883ee6,51,1,2024-02-27T10:58:40.854Z,english_939.wav,0,peel,586,27,5,5,français,f,4,0.32341667,28.63490654,1.70219777
5cfd119645e1a20001883ee6,52,1,2024-02-27T10:58:40.854Z,english_30.wav,0,peel,302,27,5,5,français,f,0,0.0,-18.5398728,0.31748681
5cfd119645e1a20001883ee6,52,1,2024-02-27T10:58:40.854Z,english_30.wav,0,peel,302,27,5,5,français,f,1,0.1,-67.34991207,1.82477139
5cfd119645e1a20001883ee6,52,1,2024-02-27T10:58:40.854Z,english_30.wav,0,peel,302,27,5,5,français,f,2,0.2,65.54879707,1.59992979
5cfd119645e1a20001883ee6,52,1,2024-02-27T10:58:40.854Z,english_30.wav,0,peel,302,27,5,5,français,f,3,0.3,30.88088319,0.89523729
5cfd119645e1a20001883ee6,52,1,2024-02-27T10:58:40.854Z,english_30.wav,0,peel,302,27,5,5,français,f,4,0.32341667,50.60550813,1.02052202
5cfd119645e1a20001883ee6,53,1,2024-02-27T10:58:40.854Z,english_357.wav,0,peel,1043,27,5,5,français,f,0,0.0,76.35734026,1.14590216
5cfd119645e1a20001883ee6,53,1,2024-02-27T10:58:40.854Z,english_357.wav,0,peel,1043,27,5,5,français,f,1,0.1,-86.84267031,0.53472093
5cfd119645e1a20001883ee6,53,1,2024-02-27T10:58:40.854Z,english_357.wav,0,peel,1043,27,5,5,français,f,2,0.2,-64.6676431,0.54723503
5cfd119645e1a20001883ee6,53,1,2024-02-27T10:58:40.854Z,english_357.wav,0,peel,1043,27,5,5,français,f,3,0.3,-69.9472318,1.29334783
5cfd119645e1a20001883ee6,53,1,2024-02-27T10:58:40.854Z,english_357.wav,0,peel,1043,27,5,5,français,f,4,0.32341667,87.84988665,1.74725804
5cfd119645e1a20001883ee6,54,1,2024-02-27T10:58:40.854Z,english_97.wav,0,peel,362,27,5,5,français,f,0,0.0,57.21139396,1.63402743
5cfd119645e1a20001883ee6,54,1,2024-02-27T10:58:40.854Z,english_97.wav,0,peel,362,27,5,5,français,f,1,0.1,-7.40408397,0.54734888
5cfd119645e1a20001883ee6,54,1,2024-02-27T10:58:40.854Z,english_97.wav,0,peel,362,27,5,5,français,f,2,0.2,77.7995227,1.5228594
5cfd119645e1a20001883ee6,54,1,2024-02-27T10:58:40.854Z,english_97.wav,0,peel,362,27,5,5,français,f,3,0.3,-51.1747528,1.13050105
5cfd119645e1a20001883ee6,54,1,2024-02-27T10:58:40.854Z,english_97.wav,0,peel,362,27,5,5,français,f,4,0.32341667,77.11982253,0.82586999
5cfd119645e1a20001883ee6,55,1,2024-02-27T10:58:40.854Z,english_266.wav,0,peel,281,27,5,5,français,f,0,0.0,16.70772117,0.81064175
5cfd119645e1a20001883ee6,55,1,2024-02-27T10:58:40.854Z,english_266.wav,0,peel,281,27,5,5,français,f,1,0.1,-61.82971906,1.48442032
5cfd119645e1a20001883ee6,55,1,2024-02-27T10:58:40.854Z,english_266.wav,0,peel,281,27,5,5,français,f,2,0.2,-31.41060896,1.39445033
5cfd119645e1a20001883ee6,55,1,2024-02-27T10:58:40.854Z,english_266.wav,0,peel,281,27,5,5,français,f,3,0.3,-8.94045194,1.01594082
5cfd119645e1a20001883ee6,55,1,2024-02-27T10:58:40.854Z,english_266.wav,0,peel,281,27,5,5,français,f,4,0.32341667,-27.43066022,0.75934284
5cfd119645e1a20001883ee6,56,1,2024-02-27T10:58:40.854Z,english_977.wav,0,peel,263,27,5,5,français,f,0,0.0,63.46196139,0.87194913
5cfd119645e1a20001883ee6,56,1,2024-02-27T10:58:40.854Z,english_977.wav,0,peel,263,27,5,5,français,f,1,0.1,-23.64022125,1.67919547
5cfd119645e1a20001883ee6,56,1,2024-02-27T10:58:40.854Z,english_977.wav,0,peel,263,27,5,5,français,f,2,0.2,31.65242203,0.97011806
5cfd119645e1a20001883ee6,56,1,2024-02-27T10:58:40.854Z,english_977.wav,0,peel,263,27,5,5,français,f,3,0.3,16.19881364,1.40431802
5cfd119645e1a20001883ee6,56,1,2024-02-27T10:58:40.854Z,english_977.wav,0,peel,263,27,5,5,français,f,4,0.32341667,-33.08554183,1.02563167
5cfd119645e1a20001883ee6,57,1,2024-02-27T10:58:40.854Z,english_797.wav,0,peel,571,27,5,5,français,f,0,0.0,-10.77604935,1.75152448
5cfd119645e1a20001883ee6,57,1,2024-02-27T10:58:40.854Z,english_797.wav,0,peel,571,27,5,5,français,f,1,0.1,76.52998448,0.25625033
5cfd119645e1a20001883ee6,57,1,2024-02-27T10:58:40.854Z,english_797.wav,0,peel,571,27,5,5,français,f,2,0.2,-52.30950648,1.63910521
5cfd119645e1a20001883ee6,57,1,2024-02-27T10:58:40.854Z,english_797.wav,0,peel,571,27,5,5,français,f,3,0.3,-19.27189704,1.44412191
5cfd119645e1a20001883ee6,57,1,2024-02-27T10:58:40.854Z,english_797.wav,0,peel,571,27,5,5,français,f,4,0.32341667,-68.52312916,1.41513857
5cfd119645e1a20001883ee6,58,1,2024-02-27T10:58:40.854Z,english_650.wav,0,peel,296,27,5,5,français,f,0,0.0,-14.34164867,1.10695192
5cfd119645e1a20001883ee6,58,1,2024-02-27T10:58:40.854Z,english_650.wav,0,peel,296,27,5,5,français,f,1,0.1,-59.47569919,1.2442548
5cfd119645e1a20001883ee6,58,1,2024-02-27T10:58:40.854Z,english_650.wav,0,peel,296,27,5,5,français,f,2,0.2,-47.0995584,0.31281267
5cfd119645e1a20001883ee6,58,1,2024-02-27T10:58:40.854Z,english_650.wav,0,peel,296,27,5,5,français,f,3,0.3,-55.25841156,1.9869399
5cfd119645e1a20001883ee6,58,1,2024-02-27T10:58:40.854Z,english_650.wav,0,peel,296,27,5,5,français,f,4,0.32341667,83.92345375,1.10607629
5cfd119645e1a20001883ee6,59,1,2024-02-27T10:58:40.854Z,english_625.wav,0,pill,974,27,5,5,français,f,0,0.0,25.70847239,1.1960971
5cfd119645e1a20001883ee6,59,1,2024-02-27T10:58:40.854Z,english_625.wav,0,pill,974,27,5,5,français,f,1,0.1,-37.82303983,0.02795501
5cfd119645e1a20001883ee6,59,1,2024-02-27T10:58:40.854Z,english_625.wav,0,pill,974,27,5,5,français,f,2,0.2,38.52328891,1.10198652
5cfd119645e1a20001883ee6,59,1,2024-02-27T10:58:40.854Z,english_625.wav,0,pill,974,27,5,5,français,f,3,0.3,-23.93667478,0.08852642
5cfd119645e1a20001883ee6,59,1,2024-02-27T10:58:40.854Z,english_625.wav,0,pill,974,27,5,5,français,f,4,0.32341667,-53.98326942,1.59813041
5cfd119645e1a20001883ee6,60,1,2024-02-27T10:58:40.854Z,english_936.wav,0,peel,404,27,5,5,français,f,0,0.0,48.39129511,0.54114143
5cfd119645e1a20001883ee6,60,1,2024-02-27T10:58:40.854Z,english_936.wav,0,peel,404,27,5,5,français,f,1,0.1,-60.21618585,1.68728974
5cfd119645e1a20001883ee6,60,1,2024-02-27T10:58:40.854Z,english_936.wav,0,peel,404,27,5,5,français,f,2,0.2,21.92845445,1.39155326
5cfd119645e1a20001883ee6,60,1,2024-02-27T10:58:40.854Z,english_936.wav,0,peel,404,27,5,5,français,f,3,0.3,72.85258749,0.90488419
5cfd119645e1a20001883ee6,60,1,2024-02-27T10:58:40.854Z,english_936.wav,0,peel,404,27,5,5,français,f,4,0.32341667,60.11152814,1.20326098
5cfd119645e1a20001883ee6,61,1,2024-02-27T10:58:40.854Z,english_998.wav,0,pill,1143,27,5,5,français,f,0,0.0,-57.03196796,0.0179282
5cfd119645e1a20001883ee6,61,1,2024-02-27T10:58:40.854Z,english_998.wav,0,pill,1143,27,5,5,français,f,1,0.1,-12.93623633,1.72217412
5cfd119645e1a20001883ee6,61,1,2024-02-27T10:58:40.854Z,english_998.wav,0,pill,1143,27,5,5,français,f,2,0.2,-24.63186366,0.91011795
5cfd119645e1a20001883ee6,61,1,2024-02-27T10:58:40.854Z,english_998.wav,0,pill,1143,27,5,5,français,f,3,0.3,-10.49750637,1.24282972
5cfd119645e1a20001883ee6,61,1,2024-02-27T10:58:40.854Z,english_998.wav,0,pill,1143,27,5,5,français,f,4,0.32341667,22.76793653,0.40520665
5cfd119645e1a20001883ee6,62,1,2024-02-27T10:58:40.854Z,english_615.wav,0,peel,261,27,5,5,français,f,0,0.0,76.05955912,1.68553334
5cfd119645e1a20001883ee6,62,1,2024-02-27T10:58:40.854Z,english_615.wav,0,peel,261,27,5,5,français,f,1,0.1,54.62950786,1.5058876
5cfd119645e1a20001883ee6,62,1,2024-02-27T10:58:40.854Z,english_615.wav,0,peel,261,27,5,5,français,f,2,0.2,-31.02204933,1.66676809
5cfd119645e1a20001883ee6,62,1,2024-02-27T10:58:40.854Z,english_615.wav,0,peel,261,27,5,5,français,f,3,0.3,-3.27946314,1.09840801
5cfd119645e1a20001883ee6,62,1,2024-02-27T10:58:40.854Z,english_615.wav,0,peel,261,27,5,5,français,f,4,0.32341667,51.350795,0.25314986
5cfd119645e1a20001883ee6,63,1,2024-02-27T10:58:40.854Z,english_138.wav,0,peel,1203,27,5,5,français,f,0,0.0,-79.80620147,0.37063564
5cfd119645e1a20001883ee6,63,1,2024-02-27T10:58:40.854Z,english_138.wav,0,peel,1203,27,5,5,français,f,1,0.1,-15.42889109,0.81801141
5cfd119645e1a20001883ee6,63,1,2024-02-27T10:58:40.854Z,english_138.wav,0,peel,1203,27,5,5,français,f,2,0.2,-88.31677226,0.0634538
5cfd119645e1a20001883ee6,63,1,2024-02-27T10:58:40.854Z,english_138.wav,0,peel,1203,27,5,5,français,f,3,0.3,26.6486106,1.85131452
5cfd119645e1a20001883ee6,63,1,2024-02-27T10:58:40.854Z,english_138.wav,0,peel,1203,27,5,5,français,f,4,0.32341667,-42.18894711,1.66059024
5cfd119645e1a20001883ee6,64,1,2024-02-27T10:58:40.854Z,english_172.wav,0,pill,894,27,5,5,français,f,0,0.0,8.59493981,0.93080222
5cfd119645e1a20001883ee6,64,1,2024-02-27T10:58:40.854Z,english_172.wav,0,pill,894,27,5,5,français,f,1,0.1,-56.34346079,0.53387901
5cfd119645e1a20001883ee6,64,1,2024-02-27T10:58:40.854Z,english_172.wav,0,pill,894,27,5,5,français,f,2,0.2,-95.76423912,0.34406097
5cfd119645e1a20001883ee6,64,1,2024-02-27T10:58:40.854Z,english_172.wav,0,pill,894,27,5,5,français,f,3,0.3,11.69646411,0.74935371
5cfd119645e1a20001883ee6,64,1,2024-02-27T10:58:40.854Z,english_172.wav,0,pill,894,27,5,5,français,f,4,0.32341667,-55.10661496,0.42041327
5cfd119645e1a20001883ee6,65,1,2024-02-27T10:58:40.854Z,english_851.wav,0,peel,593,27,5,5,français,f,0,0.0,-83.90491711,1.65488062
5cfd119645e1a20001883ee6,65,1,2024-02-27T10:58:40.854Z,english_851.wav,0,peel,593,27,5,5,français,f,1,0.1,92.94065497,0.14315595
5cfd119645e1a20001883ee6,65,1,2024-02-27T10:58:40.854Z,english_851.wav,0,peel,593,27,5,5,français,f,2,0.2,-63.47542883,0.84481863
5cfd119645e1a20001883ee6,65,1,2024-02-27T10:58:40.854Z,english_851.wav,0,peel,593,27,5,5,français,f,3,0.3,13.34025436,1.9580918
5cfd119645e1a20001883ee6,65,1,2024-02-27T10:58:40.854Z,english_851.wav,0,peel,593,27,5,5,français,f,4,0.32341667,32.96474042,0.23608581
5cfd119645e1a20001883ee6,66,1,2024-02-27T10:58:40.854Z,english_451.wav,0,peel,429,27,5,5,français,f,0,0.0,-87.31297583,0.44823779
5cfd119645e1a20001883ee6,66,1,2024-02-27T10:58:40.854Z,english_451.wav,0,peel,429,27,5,5,français,f,1,0.1,-44.51362963,0.44678563
5cfd119645e1a20001883ee6,66,1,2024-02-27T10:58:40.854Z,english_451.wav,0,peel,429,27,5,5,français,f,2,0.2,-15.52945473,1.69444841
5cfd119645e1a20001883ee6,66,1,2024-02-27T10:58:40.854Z,english_451.wav,0,peel,429,27,5,5,français,f,3,0.3,11.70886435,0.18586344
5cfd119645e1a20001883ee6,66,1,2024-02-27T10:58:40.854Z,english_451.wav,0,peel,429,27,5,5,français,f,4,0.32341667,82.84342256,0.9677256
5cfd119645e1a20001883ee6,67,1,2024-02-27T10:58:40.854Z,english_970.wav,0,peel,334,27,5,5,français,f,0,0.0,37.22911191,0.60712849
5cfd119645e1a20001883ee6,67,1,2024-02-27T10:58:40.854Z,english_970.wav,0,peel,334,27,5,5,français,f,1,0.1,36.57191813,1.26781741
5cfd119645e1a20001883ee6,67,1,2024-02-27T10:58:40.854Z,english_970.wav,0,peel,334,27,5,5,français,f,2,0.2,20.2344678,1.29373459
5cfd119645e1a20001883ee6,67,1,2024-02-27T10:58:40.854Z,english_970.wav,0,peel,334,27,5,5,français,f,3,0.3,-86.31030026,0.18112256
5cfd119645e1a20001883ee6,67,1,2024-02-27T10:58:40.854Z,english_970.wav,0,peel,334,27,5,5,français,f,4,0.32341667,-83.96880691,1.07780169
5cfd119645e1a20001883ee6,68,1,2024-02-27T10:58:40.854Z,english_910.wav,0,peel,416,27,5,5,français,f,0,0.0,-5.78748479,0.61840584
5cfd119645e1a20001883ee6,68,1,2024-02-27T10:58:40.854Z,english_910.wav,0,peel,416,27,5,5,français,f,1,0.1,25.040103,1.20431928
5cfd119645e1a20001883ee6,68,1,2024-02-27T10:58:40.854Z,english_910.wav,0,peel,416,27,5,5,français,f,2,0.2,-40.66398147,1.66594732
5cfd119645e1a20001883ee6,68,1,2024-02-27T10:58:40.854Z,english_910.wav,0,peel,416,27,5,5,français,f,3,0.3,-99.21011725,0.99007018
5cfd119645e1a20001883ee6,68,1,2024-02-27T10:58:40.854Z,english_910.wav,0,peel,416,27,5,5,français,f,4,0.32341667,30.82754841,0.23705338
5cfd119645e1a20001883ee6,69,1,2024-02-27T10:58:40.854Z,english_743.wav,0,peel,465,27,5,5,français,f,0,0.0,-28.24983145,1.42102626
5cfd119645e1a20001883ee6,69,1,2024-02-27T10:58:40.854Z,english_743.wav,0,peel,465,27,5,5,français,f,1,0.1,71.30498545,0.84283155
5cfd119645e1a20001883ee6,69,1,2024-02-27T10:58:40.854Z,english_743.wav,0,peel,465,27,5,5,français,f,2,0.2,-89.00652632,0.82757129
5cfd119645e1a20001883ee6,69,1,2024-02-27T10:58:40.854Z,english_743.wav,0,peel,465,27,5,5,français,f,3,0.3,3.43441779,1.38808557
5cfd119645e1a20001883ee6,69,1,2024-02-27T10:58:40.854Z,english_743.wav,0,peel,465,27,5,5,français,f,4,0.32341667,-16.71659348,0.28501565
5cfd119645e1a20001883ee6,70,1,2024-02-27T10:58:40.854Z,english_307.wav,0,peel,430,27,5,5,français,f,0,0.0,-38.93106299,1.91951228
5cfd119645e1a20001883ee6,70,1,2024-02-27T10:58:40.854Z,english_307.wav,0,peel,430,27,5,5,français,f,1,0.1,-30.40144858,0.50419792
5cfd119645e1a20001883ee6,70,1,2024-02-27T10:58:40.854Z,english_307.wav,0,peel,430,27,5,5,français,f,2,0.2,2.19081651,0.76602689
5cfd119645e1a20001883ee6,70,1,2024-02-27T10:58:40.854Z,english_307.wav,0,peel,430,27,5,5,français,f,3,0.3,30.82741361,0.59904457
5cfd119645e1a20001883ee6,70,1,2024-02-27T10:58:40.854Z,english_307.wav,0,peel,430,27,5,5,français,f,4,0.32341667,46.9007513,1.94941235
5cfd119645e1a20001883ee6,71,1,2024-02-27T10:58:40.854Z,english_18.wav,0,peel,368,27,5,5,français,f,0,0.0,-61.9567004,0.45038722
5cfd119645e1a20001883ee6,71,1,2024-02-27T10:58:40.854Z,english_18.wav,0,peel,368,27,5,5,français,f,1,0.1,39.2027204,1.56185221
5cfd119645e1a20001883ee6,71,1,2024-02-27T10:58:40.854Z,english_18.wav,0,peel,368,27,5,5,français,f,2,0.2,-0.0626834214,0.80652275
5cfd119645e1a20001883ee6,71,1,2024-02-27T10:58:40.854Z,english_18.wav,0,peel,368,27,5,5,français,f,3,0.3,-72.2820301,0.39505163
5cfd119645e1a20001883ee6,71,1,2024-02-27T10:58:40.854Z,english_18.wav,0,peel,368,27,5,5,français,f,4,0.323416667,-52.9459242,0.50402069
5cfd119645e1a20001883ee6,72,1,2024-02-27T10:58:40.854Z,english_310.wav,0,peel,352,27,5,5,français,f,0,0.0,82.1385274,0.14341218
5cfd119645e1a20001883ee6,72,1,2024-02-27T10:58:40.854Z,english_310.wav,0,peel,352,27,5,5,français,f,1,0.1,-33.74608058,1.80934389
5cfd119645e1a20001883ee6,72,1,2024-02-27T10:58:40.854Z,english_310.wav,0,peel,352,27,5,5,français,f,2,0.2,62.12487376,1.28785402
5cfd119645e1a20001883ee6,72,1,2024-02-27T10:58:40.854Z,english_310.wav,0,peel,352,27,5,5,français,f,3,0.3,96.31437548,1.13060378
5cfd119645e1a20001883ee6,72,1,2024-02-27T10:58:40.854Z,english_310.wav,0,peel,352,27,5,5,français,f,4,0.32341667,-23.64802517,1.05137249
5cfd119645e1a20001883ee6,73,1,2024-02-27T10:58:40.854Z,english_973.wav,0,pill,600,27,5,5,français,f,0,0.0,67.86183821,1.19015671
5cfd119645e1a20001883ee6,73,1,2024-02-27T10:58:40.854Z,english_973.wav,0,pill,600,27,5,5,français,f,1,0.1,19.68291271,0.58574514
5cfd119645e1a20001883ee6,73,1,2024-02-27T10:58:40.854Z,english_973.wav,0,pill,600,27,5,5,français,f,2,0.2,97.35795082,0.11672587
5cfd119645e1a20001883ee6,73,1,2024-02-27T10:58:40.854Z,english_973.wav,0,pill,600,27,5,5,français,f,3,0.3,-17.83494635,0.43523095
5cfd119645e1a20001883ee6,73,1,2024-02-27T10:58:40.854Z,english_973.wav,0,pill,600,27,5,5,français,f,4,0.32341667,-53.451809,1.74630461
5cfd119645e1a20001883ee6,74,1,2024-02-27T10:58:40.854Z,english_281.wav,0,pill,726,27,5,5,français,f,0,0.0,-55.42099824,1.64310908
5cfd119645e1a20001883ee6,74,1,2024-02-27T10:58:40.854Z,english_281.wav,0,pill,726,27,5,5,français,f,1,0.1,30.44020676,0.76997124
5cfd119645e1a20001883ee6,74,1,2024-02-27T10:58:40.854Z,english_281.wav,0,pill,726,27,5,5,français,f,2,0.2,53.34739709,0.1940809
5cfd119645e1a20001883ee6,74,1,2024-02-27T10:58:40.854Z,english_281.wav,0,pill,726,27,5,5,français,f,3,0.3,-32.26512488,0.25794937
5cfd119645e1a20001883ee6,74,1,2024-02-27T10:58:40.854Z,english_281.wav,0,pill,726,27,5,5,français,f,4,0.32341667,-59.86883114,1.27043487
5cfd119645e1a20001883ee6,75,1,2024-02-27T10:58:40.854Z,english_134.wav,0,peel,338,27,5,5,français,f,0,0.0,70.72156413,1.84700732
5cfd119645e1a20001883ee6,75,1,2024-02-27T10:58:40.854Z,english_134.wav,0,peel,338,27,5,5,français,f,1,0.1,-64.20531103,1.20878884
5cfd119645e1a20001883ee6,75,1,2024-02-27T10:58:40.854Z,english_134.wav,0,peel,338,27,5,5,français,f,2,0.2,35.7891913,0.51924654
5cfd119645e1a20001883ee6,75,1,2024-02-27T10:58:40.854Z,english_134.wav,0,peel,338,27,5,5,français,f,3,0.3,-77.33475241,1.95615398
5cfd119645e1a20001883ee6,75,1,2024-02-27T10:58:40.854Z,english_134.wav,0,peel,338,27,5,5,français,f,4,0.32341667,85.6978336,1.72102519
5cfd119645e1a20001883ee6,76,1,2024-02-27T10:58:40.854Z,english_681.wav,0,peel,300,27,5,5,français,f,0,0.0,65.45313908,1.43173201
5cfd119645e1a20001883ee6,76,1,2024-02-27T10:58:40.854Z,english_681.wav,0,peel,300,27,5,5,français,f,1,0.1,23.22224239,1.64604346
5cfd119645e1a20001883ee6,76,1,2024-02-27T10:58:40.854Z,english_681.wav,0,peel,300,27,5,5,français,f,2,0.2,44.35096717,0.82186037
5cfd119645e1a20001883ee6,76,1,2024-02-27T10:58:40.854Z,english_681.wav,0,peel,300,27,5,5,français,f,3,0.3,67.45757963,0.26689352
5cfd119645e1a20001883ee6,76,1,2024-02-27T10:58:40.854Z,english_681.wav,0,peel,300,27,5,5,français,f,4,0.32341667,55.5822091,1.64490636
5cfd119645e1a20001883ee6,77,1,2024-02-27T10:58:40.854Z,english_784.wav,0,peel,399,27,5,5,français,f,0,0.0,8.33598236,1.26617784
5cfd119645e1a20001883ee6,77,1,2024-02-27T10:58:40.854Z,english_784.wav,0,peel,399,27,5,5,français,f,1,0.1,-95.44591543,0.3784594
5cfd119645e1a20001883ee6,77,1,2024-02-27T10:58:40.854Z,english_784.wav,0,peel,399,27,5,5,français,f,2,0.2,-36.57026964,1.54775832
5cfd119645e1a20001883ee6,77,1,2024-02-27T10:58:40.854Z,english_784.wav,0,peel,399,27,5,5,français,f,3,0.3,21.49915707,0.94378056
5cfd119645e1a20001883ee6,77,1,2024-02-27T10:58:40.854Z,english_784.wav,0,peel,399,27,5,5,français,f,4,0.32341667,14.63720491,0.98781772
5cfd119645e1a20001883ee6,78,1,2024-02-27T10:58:40.854Z,english_404.wav,0,peel,225,27,5,5,français,f,0,0.0,32.93077195,0.80618862
5cfd119645e1a20001883ee6,78,1,2024-02-27T10:58:40.854Z,english_404.wav,0,peel,225,27,5,5,français,f,1,0.1,51.79107477,1.03327995
5cfd119645e1a20001883ee6,78,1,2024-02-27T10:58:40.854Z,english_404.wav,0,peel,225,27,5,5,français,f,2,0.2,-61.91466198,1.39590152
5cfd119645e1a20001883ee6,78,1,2024-02-27T10:58:40.854Z,english_404.wav,0,peel,225,27,5,5,français,f,3,0.3,33.45957754,1.8615638
5cfd119645e1a20001883ee6,78,1,2024-02-27T10:58:40.854Z,english_404.wav,0,peel,225,27,5,5,français,f,4,0.32341667,-82.23793256,0.80137687
5cfd119645e1a20001883ee6,79,1,2024-02-27T10:58:40.854Z,english_88.wav,0,peel,318,27,5,5,français,f,0,0.0,26.55889683,1.3027014
5cfd119645e1a20001883ee6,79,1,2024-02-27T10:58:40.854Z,english_88.wav,0,peel,318,27,5,5,français,f,1,0.1,31.00356365,0.67122251
5cfd119645e1a20001883ee6,79,1,2024-02-27T10:58:40.854Z,english_88.wav,0,peel,318,27,5,5,français,f,2,0.2,-60.56468942,0.59704477
5cfd119645e1a20001883ee6,79,1,2024-02-27T10:58:40.854Z,english_88.wav,0,peel,318,27,5,5,français,f,3,0.3,-56.53017227,1.68194373
5cfd119645e1a20001883ee6,79,1,2024-02-27T10:58:40.854Z,english_88.wav,0,peel,318,27,5,5,français,f,4,0.32341667,-78.90279024,0.42277005
5cfd119645e1a20001883ee6,80,1,2024-02-27T10:58:40.854Z,english_346.wav,0,peel,307,27,5,5,français,f,0,0.0,29.51078372,1.24489428
5cfd119645e1a20001883ee6,80,1,2024-02-27T10:58:40.854Z,english_346.wav,0,peel,307,27,5,5,français,f,1,0.1,86.25753287,1.77356048
5cfd119645e1a20001883ee6,80,1,2024-02-27T10:58:40.854Z,english_346.wav,0,peel,307,27,5,5,français,f,2,0.2,95.6553577,1.30862901
5cfd119645e1a20001883ee6,80,1,2024-02-27T10:58:40.854Z,english_346.wav,0,peel,307,27,5,5,français,f,3,0.3,-65.97707071,0.68318311
5cfd119645e1a20001883ee6,80,1,2024-02-27T10:58:40.854Z,english_346.wav,0,peel,307,27,5,5,français,f,4,0.32341667,49.79896228,1.63073528
5cfd119645e1a20001883ee6,81,1,2024-02-27T10:58:40.854Z,english_766.wav,0,peel,187,27,5,5,français,f,0,0.0,-86.57417509,1.21737292
5cfd119645e1a20001883ee6,81,1,2024-02-27T10:58:40.854Z,english_766.wav,0,peel,187,27,5,5,français,f,1,0.1,-67.75686223,1.61484435
5cfd119645e1a20001883ee6,81,1,2024-02-27T10:58:40.854Z,english_766.wav,0,peel,187,27,5,5,français,f,2,0.2,74.21258041,1.47872362
5cfd119645e1a20001883ee6,81,1,2024-02-27T10:58:40.854Z,english_766.wav,0,peel,187,27,5,5,français,f,3,0.3,65.20164426,1.81064247
5cfd119645e1a20001883ee6,81,1,2024-02-27T10:58:40.854Z,english_766.wav,0,peel,187,27,5,5,français,f,4,0.32341667,-26.41371036,1.37776493
5cfd119645e1a20001883ee6,82,1,2024-02-27T10:58:40.854Z,english_811.wav,0,peel,363,27,5,5,français,f,0,0.0,-51.03425556,1.55055496
5cfd119645e1a20001883ee6,82,1,2024-02-27T10:58:40.854Z,english_811.wav,0,peel,363,27,5,5,français,f,1,0.1,22.81695275,1.74830484
5cfd119645e1a20001883ee6,82,1,2024-02-27T10:58:40.854Z,english_811.wav,0,peel,363,27,5,5,français,f,2,0.2,73.06623682,1.24661488
5cfd119645e1a20001883ee6,82,1,2024-02-27T10:58:40.854Z,english_811.wav,0,peel,363,27,5,5,français,f,3,0.3,-9.17693151,0.09792889
5cfd119645e1a20001883ee6,82,1,2024-02-27T10:58:40.854Z,english_811.wav,0,peel,363,27,5,5,français,f,4,0.32341667,79.97760745,0.03735929
5cfd119645e1a20001883ee6,83,1,2024-02-27T10:58:40.854Z,english_606.wav,0,peel,549,27,5,5,français,f,0,0.0,-54.19201916,1.71730642
5cfd119645e1a20001883ee6,83,1,2024-02-27T10:58:40.854Z,english_606.wav,0,peel,549,27,5,5,français,f,1,0.1,-9.49104439,0.42216081
5cfd119645e1a20001883ee6,83,1,2024-02-27T10:58:40.854Z,english_606.wav,0,peel,549,27,5,5,français,f,2,0.2,1.17868262,1.31506394
5cfd119645e1a20001883ee6,83,1,2024-02-27T10:58:40.854Z,english_606.wav,0,peel,549,27,5,5,français,f,3,0.3,-95.39718692,0.06922913
5cfd119645e1a20001883ee6,83,1,2024-02-27T10:58:40.854Z,english_606.wav,0,peel,549,27,5,5,français,f,4,0.32341667,-48.659775,0.08316227
5cfd119645e1a20001883ee6,84,1,2024-02-27T10:58:40.854Z,english_301.wav,0,peel,398,27,5,5,français,f,0,0.0,-78.18927369,1.31935747
5cfd119645e1a20001883ee6,84,1,2024-02-27T10:58:40.854Z,english_301.wav,0,peel,398,27,5,5,français,f,1,0.1,-3.52439177,1.41636911
5cfd119645e1a20001883ee6,84,1,2024-02-27T10:58:40.854Z,english_301.wav,0,peel,398,27,5,5,français,f,2,0.2,-23.22473782,1.38842862
5cfd119645e1a20001883ee6,84,1,2024-02-27T10:58:40.854Z,english_301.wav,0,peel,398,27,5,5,français,f,3,0.3,-11.7220967,1.25169603
5cfd119645e1a20001883ee6,84,1,2024-02-27T10:58:40.854Z,english_301.wav,0,peel,398,27,5,5,français,f,4,0.32341667,-5.78047748,1.38740104
5cfd119645e1a20001883ee6,85,1,2024-02-27T10:58:40.854Z,english_204.wav,0,peel,257,27,5,5,français,f,0,0.0,67.46317025,1.58701212
5cfd119645e1a20001883ee6,85,1,2024-02-27T10:58:40.854Z,english_204.wav,0,peel,257,27,5,5,français,f,1,0.1,38.91463365,1.82178317
5cfd119645e1a20001883ee6,85,1,2024-02-27T10:58:40.854Z,english_204.wav,0,peel,257,27,5,5,français,f,2,0.2,-85.28377865,1.60361911
5cfd119645e1a20001883ee6,85,1,2024-02-27T10:58:40.854Z,english_204.wav,0,peel,257,27,5,5,français,f,3,0.3,55.65505401,0.21823774
5cfd119645e1a20001883ee6,85,1,2024-02-27T10:58:40.854Z,english_204.wav,0,peel,257,27,5,5,français,f,4,0.32341667,56.32983288,0.04661671
5cfd119645e1a20001883ee6,86,1,2024-02-27T10:58:40.854Z,english_461.wav,0,pill,414,27,5,5,français,f,0,0.0,-99.86661298,0.04975834
5cfd119645e1a20001883ee6,86,1,2024-02-27T10:58:40.854Z,english_461.wav,0,pill,414,27,5,5,français,f,1,0.1,65.11959058,1.27856071
5cfd119645e1a20001883ee6,86,1,2024-02-27T10:58:40.854Z,english_461.wav,0,pill,414,27,5,5,français,f,2,0.2,-96.19635976,1.53618081
5cfd119645e1a20001883ee6,86,1,2024-02-27T10:58:40.854Z,english_461.wav,0,pill,414,27,5,5,français,f,3,0.3,56.69155656,1.97602464
5cfd119645e1a20001883ee6,86,1,2024-02-27T10:58:40.854Z,english_461.wav,0,pill,414,27,5,5,français,f,4,0.32341667,-82.13106063,1.41647384
5cfd119645e1a20001883ee6,87,1,2024-02-27T10:58:40.854Z,english_528.wav,0,pill,658,27,5,5,français,f,0,0.0,34.31610554,1.55529168
5cfd119645e1a20001883ee6,87,1,2024-02-27T10:58:40.854Z,english_528.wav,0,pill,658,27,5,5,français,f,1,0.1,28.08911917,0.29936297
5cfd119645e1a20001883ee6,87,1,2024-02-27T10:58:40.854Z,english_528.wav,0,pill,658,27,5,5,français,f,2,0.2,-86.77613696,0.95155831
5cfd119645e1a20001883ee6,87,1,2024-02-27T10:58:40.854Z,english_528.wav,0,pill,658,27,5,5,français,f,3,0.3,-45.45420678,1.46511459
5cfd119645e1a20001883ee6,87,1,2024-02-27T10:58:40.854Z,english_528.wav,0,pill,658,27,5,5,français,f,4,0.32341667,-58.86275596,0.63923396
5cfd119645e1a20001883ee6,88,1,2024-02-27T10:58:40.854Z,english_769.wav,0,pill,546,27,5,5,français,f,0,0.0,-12.68288087,1.59358978
5cfd119645e1a20001883ee6,88,1,2024-02-27T10:58:40.854Z,english_769.wav,0,pill,546,27,5,5,français,f,1,0.1,13.58895245,0.16681031
5cfd119645e1a20001883ee6,88,1,2024-02-27T10:58:40.854Z,english_769.wav,0,pill,546,27,5,5,français,f,2,0.2,-5.57429841,0.74292099
5cfd119645e1a20001883ee6,88,1,2024-02-27T10:58:40.854Z,english_769.wav,0,pill,546,27,5,5,français,f,3,0.3,-26.44516544,0.17250104
5cfd119645e1a20001883ee6,88,1,2024-02-27T10:58:40.854Z,english_769.wav,0,pill,546,27,5,5,français,f,4,0.32341667,85.93285426,0.16730253
5cfd119645e1a20001883ee6,89,1,2024-02-27T10:58:40.854Z,english_164.wav,0,pill,610,27,5,5,français,f,0,0.0,-18.99376005,1.91320144
5cfd119645e1a20001883ee6,89,1,2024-02-27T10:58:40.854Z,english_164.wav,0,pill,610,27,5,5,français,f,1,0.1,-38.65269109,0.23857652
5cfd119645e1a20001883ee6,89,1,2024-02-27T10:58:40.854Z,english_164.wav,0,pill,610,27,5,5,français,f,2,0.2,64.75288033,1.41883879
5cfd119645e1a20001883ee6,89,1,2024-02-27T10:58:40.854Z,english_164.wav,0,pill,610,27,5,5,français,f,3,0.3,-33.8407164,1.34667564
5cfd119645e1a20001883ee6,89,1,2024-02-27T10:58:40.854Z,english_164.wav,0,pill,610,27,5,5,français,f,4,0.32341667,27.96502681,0.04602263
5cfd119645e1a20001883ee6,90,1,2024-02-27T10:58:40.854Z,english_152.wav,0,peel,292,27,5,5,français,f,0,0.0,-21.97873044,1.75752799
5cfd119645e1a20001883ee6,90,1,2024-02-27T10:58:40.854Z,english_152.wav,0,peel,292,27,5,5,français,f,1,0.1,85.66675034,1.21467008
5cfd119645e1a20001883ee6,90,1,2024-02-27T10:58:40.854Z,english_152.wav,0,peel,292,27,5,5,français,f,2,0.2,-66.57447909,0.82299352
5cfd119645e1a20001883ee6,90,1,2024-02-27T10:58:40.854Z,english_152.wav,0,peel,292,27,5,5,français,f,3,0.3,-33.8772441,0.48869868
5cfd119645e1a20001883ee6,90,1,2024-02-27T10:58:40.854Z,english_152.wav,0,peel,292,27,5,5,français,f,4,0.32341667,-46.50239179,0.31705885
5cfd119645e1a20001883ee6,91,1,2024-02-27T10:58:40.854Z,english_492.wav,0,peel,344,27,5,5,français,f,0,0.0,-66.2832746,0.52930651
5cfd119645e1a20001883ee6,91,1,2024-02-27T10:58:40.854Z,english_492.wav,0,peel,344,27,5,5,français,f,1,0.1,-19.36008054,1.11739795
5cfd119645e1a20001883ee6,91,1,2024-02-27T10:58:40.854Z,english_492.wav,0,peel,344,27,5,5,français,f,2,0.2,95.25769545,1.86018292
5cfd119645e1a20001883ee6,91,1,2024-02-27T10:58:40.854Z,english_492.wav,0,peel,344,27,5,5,français,f,3,0.3,-42.69351484,0.07313262
5cfd119645e1a20001883ee6,91,1,2024-02-27T10:58:40.854Z,english_492.wav,0,peel,344,27,5,5,français,f,4,0.32341667,48.13359561,0.30480454
5cfd119645e1a20001883ee6,92,1,2024-02-27T10:58:40.854Z,english_381.wav,0,peel,320,27,5,5,français,f,0,0.0,-64.83599525,0.77808766
5cfd119645e1a20001883ee6,92,1,2024-02-27T10:58:40.854Z,english_381.wav,0,peel,320,27,5,5,français,f,1,0.1,97.61236857,1.62635576
5cfd119645e1a20001883ee6,92,1,2024-02-27T10:58:40.854Z,english_381.wav,0,peel,320,27,5,5,français,f,2,0.2,-60.27157178,0.65298664
5cfd119645e1a20001883ee6,92,1,2024-02-27T10:58:40.854Z,english_381.wav,0,peel,320,27,5,5,français,f,3,0.3,84.45732791,0.46881793
5cfd119645e1a20001883ee6,92,1,2024-02-27T10:58:40.854Z,english_381.wav,0,peel,320,27,5,5,français,f,4,0.32341667,-87.53832291,1.22836965
5cfd119645e1a20001883ee6,93,1,2024-02-27T10:58:40.854Z,english_85.wav,0,peel,194,27,5,5,français,f,0,0.0,69.91092253,1.07696769
5cfd119645e1a20001883ee6,93,1,2024-02-27T10:58:40.854Z,english_85.wav,0,peel,194,27,5,5,français,f,1,0.1,90.04885235,1.65675227
5cfd119645e1a20001883ee6,93,1,2024-02-27T10:58:40.854Z,english_85.wav,0,peel,194,27,5,5,français,f,2,0.2,-54.471964,1.18566865
5cfd119645e1a20001883ee6,93,1,2024-02-27T10:58:40.854Z,english_85.wav,0,peel,194,27,5,5,français,f,3,0.3,-32.42862041,0.43131811
5cfd119645e1a20001883ee6,93,1,2024-02-27T10:58:40.854Z,english_85.wav,0,peel,194,27,5,5,français,f,4,0.32341667,-26.25094384,1.88641509
5cfd119645e1a20001883ee6,94,1,2024-02-27T10:58:40.854Z,english_921.wav,0,peel,304,27,5,5,français,f,0,0.0,60.93482672,0.06624465
5cfd119645e1a20001883ee6,94,1,2024-02-27T10:58:40.854Z,english_921.wav,0,peel,304,27,5,5,français,f,1,0.1,-71.63665921,1.88925143
5cfd119645e1a20001883ee6,94,1,2024-02-27T10:58:40.854Z,english_921.wav,0,peel,304,27,5,5,français,f,2,0.2,-30.77028929,0.40013084
5cfd119645e1a20001883ee6,94,1,2024-02-27T10:58:40.854Z,english_921.wav,0,peel,304,27,5,5,français,f,3,0.3,-44.68164597,1.26601564
5cfd119645e1a20001883ee6,94,1,2024-02-27T10:58:40.854Z,english_921.wav,0,peel,304,27,5,5,français,f,4,0.32341667,34.59415858,1.98956357
5cfd119645e1a20001883ee6,95,1,2024-02-27T10:58:40.854Z,english_747.wav,0,peel,415,27,5,5,français,f,0,0.0,-77.73977436,1.00478752
5cfd119645e1a20001883ee6,95,1,2024-02-27T10:58:40.854Z,english_747.wav,0,peel,415,27,5,5,français,f,1,0.1,-18.96284798,0.15717617
5cfd119645e1a20001883ee6,95,1,2024-02-27T10:58:40.854Z,english_747.wav,0,peel,415,27,5,5,français,f,2,0.2,-36.55549612,1.90654565
5cfd119645e1a20001883ee6,95,1,2024-02-27T10:58:40.854Z,english_747.wav,0,peel,415,27,5,5,français,f,3,0.3,89.20291952,0.7651101
5cfd119645e1a20001883ee6,95,1,2024-02-27T10:58:40.854Z,english_747.wav,0,peel,415,27,5,5,français,f,4,0.32341667,-97.78574386,0.92755825
5cfd119645e1a20001883ee6,96,1,2024-02-27T10:58:40.854Z,english_7.wav,0,pill,656,27,5,5,français,f,0,0.0,-21.06405819,1.08184232
5cfd119645e1a20001883ee6,96,1,2024-02-27T10:58:40.854Z,english_7.wav,0,pill,656,27,5,5,français,f,1,0.1,52.71042782,0.36719269
5cfd119645e1a20001883ee6,96,1,2024-02-27T10:58:40.854Z,english_7.wav,0,pill,656,27,5,5,français,f,2,0.2,-75.60464889,0.43185312
5cfd119645e1a20001883ee6,96,1,2024-02-27T10:58:40.854Z,english_7.wav,0,pill,656,27,5,5,français,f,3,0.3,-40.56941306,0.01474265
5cfd119645e1a20001883ee6,96,1,2024-02-27T10:58:40.854Z,english_7.wav,0,pill,656,27,5,5,français,f,4,0.32341667,63.70656894,0.90880476
5cfd119645e1a20001883ee6,97,1,2024-02-27T10:58:40.854Z,english_829.wav,0,peel,529,27,5,5,français,f,0,0.0,60.30417439,0.94286345
5cfd119645e1a20001883ee6,97,1,2024-02-27T10:58:40.854Z,english_829.wav,0,peel,529,27,5,5,français,f,1,0.1,-26.87459656,0.76756767
5cfd119645e1a20001883ee6,97,1,2024-02-27T10:58:40.854Z,english_829.wav,0,peel,529,27,5,5,français,f,2,0.2,59.05286014,1.50609211
5cfd119645e1a20001883ee6,97,1,2024-02-27T10:58:40.854Z,english_829.wav,0,peel,529,27,5,5,français,f,3,0.3,-38.64739237,0.33518122
5cfd119645e1a20001883ee6,97,1,2024-02-27T10:58:40.854Z,english_829.wav,0,peel,529,27,5,5,français,f,4,0.32341667,68.61732932,1.40687349
5cfd119645e1a20001883ee6,98,1,2024-02-27T10:58:40.854Z,english_674.wav,0,peel,250,27,5,5,français,f,0,0.0,-38.60253285,0.25488683
5cfd119645e1a20001883ee6,98,1,2024-02-27T10:58:40.854Z,english_674.wav,0,peel,250,27,5,5,français,f,1,0.1,46.14948962,1.80679583
5cfd119645e1a20001883ee6,98,1,2024-02-27T10:58:40.854Z,english_674.wav,0,peel,250,27,5,5,français,f,2,0.2,-49.76414787,1.59420413
5cfd119645e1a20001883ee6,98,1,2024-02-27T10:58:40.854Z,english_674.wav,0,peel,250,27,5,5,français,f,3,0.3,-66.16492387,1.25714797
5cfd119645e1a20001883ee6,98,1,2024-02-27T10:58:40.854Z,english_674.wav,0,peel,250,27,5,5,français,f,4,0.32341667,28.37583826,1.20557216
5cfd119645e1a20001883ee6,99,1,2024-02-27T10:58:40.854Z,english_822.wav,0,peel,271,27,5,5,français,f,0,0.0,22.19463519,1.34957498
5cfd119645e1a20001883ee6,99,1,2024-02-27T10:58:40.854Z,english_822.wav,0,peel,271,27,5,5,français,f,1,0.1,46.02970585,1.18534363
5cfd119645e1a20001883ee6,99,1,2024-02-27T10:58:40.854Z,english_822.wav,0,peel,271,27,5,5,français,f,2,0.2,44.31281831,0.88966115
5cfd119645e1a20001883ee6,99,1,2024-02-27T10:58:40.854Z,english_822.wav,0,peel,271,27,5,5,français,f,3,0.3,27.24156044,1.22476657
5cfd119645e1a20001883ee6,99,1,2024-02-27T10:58:40.854Z,english_822.wav,0,peel,271,27,5,5,français,f,4,0.32341667,41.58842879,0.51847317
5cfd119645e1a20001883ee6,100,2,2024-02-27T10:58:40.854Z,english_240.wav,0,peel,693,27,5,5,français,f,0,0.0,-96.55121617,1.04823872
5cfd119645e1a20001883ee6,100,2,2024-02-27T10:58:40.854Z,english_240.wav,0,peel,693,27,5,5,français,f,1,0.1,73.99435309,1.11556714
5cfd119645e1a20001883ee6,100,2,2024-02-27T10:58:40.854Z,english_240.wav,0,peel,693,27,5,5,français,f,2,0.2,-27.17256968,0.68795106
5cfd119645e1a20001883ee6,100,2,2024-02-27T10:58:40.854Z,english_240.wav,0,peel,693,27,5,5,français,f,3,0.3,-2.05185553,1.30325309
5cfd119645e1a20001883ee6,100,2,2024-02-27T10:58:40.854Z,english_240.wav,0,peel,693,27,5,5,français,f,4,0.32341667,80.37406519,0.86977317
5cfd119645e1a20001883ee6,101,2,2024-02-27T10:58:40.854Z,english_848.wav,0,peel,274,27,5,5,français,f,0,0.0,43.30233352,0.12582596
5cfd119645e1a20001883ee6,101,2,2024-02-27T10:58:40.854Z,english_848.wav,0,peel,274,27,5,5,français,f,1,0.1,-77.77691247,1.72621372
5cfd119645e1a20001883ee6,101,2,2024-02-27T10:58:40.854Z,english_848.wav,0,peel,274,27,5,5,français,f,2,0.2,-68.99020863,1.753656
5cfd119645e1a20001883ee6,101,2,2024-02-27T10:58:40.854Z,english_848.wav,0,peel,274,27,5,5,français,f,3,0.3,-43.68641023,1.37442753
5cfd119645e1a20001883ee6,101,2,2024-02-27T10:58:40.854Z,english_848.wav,0,peel,274,27,5,5,français,f,4,0.32341667,-14.19502025,1.04930351
5cfd119645e1a20001883ee6,102,2,2024-02-27T10:58:40.854Z,english_354.wav,0,pill,1050,27,5,5,français,f,0,0.0,-63.97501145,0.52067601
5cfd119645e1a20001883ee6,102,2,2024-02-27T10:58:40.854Z,english_354.wav,0,pill,1050,27,5,5,français,f,1,0.1,-43.11314734,0.59903392
5cfd119645e1a20001883ee6,102,2,2024-02-27T10:58:40.854Z,english_354.wav,0,pill,1050,27,5,5,français,f,2,0.2,10.53928595,0.9992363
5cfd119645e1a20001883ee6,102,2,2024-02-27T10:58:40.854Z,english_354.wav,0,pill,1050,27,5,5,français,f,3,0.3,-23.15258088,1.16142831
5cfd119645e1a20001883ee6,102,2,2024-02-27T10:58:40.854Z,english_354.wav,0,pill,1050,27,5,5,français,f,4,0.32341667,3.22925066,0.37639432
5cfd119645e1a20001883ee6,103,2,2024-02-27T10:58:40.854Z,english_722.wav,0,pill,795,27,5,5,français,f,0,0.0,56.33358757,0.09194264
5cfd119645e1a20001883ee6,103,2,2024-02-27T10:58:40.854Z,english_722.wav,0,pill,795,27,5,5,français,f,1,0.1,-63.11389498,1.89550133
5cfd119645e1a20001883ee6,103,2,2024-02-27T10:58:40.854Z,english_722.wav,0,pill,795,27,5,5,français,f,2,0.2,65.64746862,0.18403216
5cfd119645e1a20001883ee6,103,2,2024-02-27T10:58:40.854Z,english_722.wav,0,pill,795,27,5,5,français,f,3,0.3,-93.10605514,1.23223326
5cfd119645e1a20001883ee6,103,2,2024-02-27T10:58:40.854Z,english_722.wav,0,pill,795,27,5,5,français,f,4,0.32341667,-45.92743551,0.28331892
5cfd119645e1a20001883ee6,104,2,2024-02-27T10:58:40.854Z,english_405.wav,0,pill,879,27,5,5,français,f,0,0.0,-94.88566807,1.97726842
5cfd119645e1a20001883ee6,104,2,2024-02-27T10:58:40.854Z,english_405.wav,0,pill,879,27,5,5,français,f,1,0.1,45.39575719,1.2658567
5cfd119645e1a20001883ee6,104,2,2024-02-27T10:58:40.854Z,english_405.wav,0,pill,879,27,5,5,français,f,2,0.2,-94.78509898,0.10443365
5cfd119645e1a20001883ee6,104,2,2024-02-27T10:58:40.854Z,english_405.wav,0,pill,879,27,5,5,français,f,3,0.3,54.14618135,0.24635614
5cfd119645e1a20001883ee6,104,2,2024-02-27T10:58:40.854Z,english_405.wav,0,pill,879,27,5,5,français,f,4,0.32341667,-20.18916124,0.76836832
5cfd119645e1a20001883ee6,105,2,2024-02-27T10:58:40.854Z,english_756.wav,0,peel,392,27,5,5,français,f,0,0.0,-75.60908863,1.29894989
5cfd119645e1a20001883ee6,105,2,2024-02-27T10:58:40.854Z,english_756.wav,0,peel,392,27,5,5,français,f,1,0.1,-4.30259752,0.61363685
5cfd119645e1a20001883ee6,105,2,2024-02-27T10:58:40.854Z,english_756.wav,0,peel,392,27,5,5,français,f,2,0.2,20.94377522,1.41793961
5cfd119645e1a20001883ee6,105,2,2024-02-27T10:58:40.854Z,english_756.wav,0,peel,392,27,5,5,français,f,3,0.3,10.45062111,1.73528762
5cfd119645e1a20001883ee6,105,2,2024-02-27T10:58:40.854Z,english_756.wav,0,peel,392,27,5,5,français,f,4,0.32341667,86.50209298,0.4791473
5cfd119645e1a20001883ee6,106,2,2024-02-27T10:58:40.854Z,english_147.wav,0,peel,815,27,5,5,français,f,0,0.0,-14.37625717,1.08714974
5cfd119645e1a20001883ee6,106,2,2024-02-27T10:58:40.854Z,english_147.wav,0,peel,815,27,5,5,français,f,1,0.1,-48.99147792,1.05600262
5cfd119645e1a20001883ee6,106,2,2024-02-27T10:58:40.854Z,english_147.wav,0,peel,815,27,5,5,français,f,2,0.2,-76.025031,0.62193731
5cfd119645e1a20001883ee6,106,2,2024-02-27T10:58:40.854Z,english_147.wav,0,peel,815,27,5,5,français,f,3,0.3,-4.271985,1.23272935
5cfd119645e1a20001883ee6,106,2,2024-02-27T10:58:40.854Z,english_147.wav,0,peel,815,27,5,5,français,f,4,0.32341667,90.36670579,0.90867663
5cfd119645e1a20001883ee6,107,2,2024-02-27T10:58:40.854Z,english_870.wav,0,peel,267,27,5,5,français,f,0,0.0,-85.66751388,1.70746054
5cfd119645e1a20001883ee6,107,2,2024-02-27T10:58:40.854Z,english_870.wav,0,peel,267,27,5,5,français,f,1,0.1,30.55194498,0.68953906
5cfd119645e1a20001883ee6,107,2,2024-02-27T10:58:40.854Z,english_870.wav,0,peel,267,27,5,5,français,f,2,0.2,-98.28008273,1.62274852
5cfd119645e1a20001883ee6,107,2,2024-02-27T10:58:40.854Z,english_870.wav,0,peel,267,27,5,5,français,f,3,0.3,-58.1418371,0.74531017
5cfd119645e1a20001883ee6,107,2,2024-02-27T10:58:40.854Z,english_870.wav,0,peel,267,27,5,5,français,f,4,0.32341667,81.20200135,1.06596266
5cfd119645e1a20001883ee6,108,2,2024-02-27T10:58:40.854Z,english_212.wav,0,peel,245,27,5,5,français,f,0,0.0,-8.03708838,0.69940518
5cfd119645e1a20001883ee6,108,2,2024-02-27T10:58:40.854Z,english_212.wav,0,peel,245,27,5,5,français,f,1,0.1,72.60121642,1.0039509
5cfd119645e1a20001883ee6,108,2,2024-02-27T10:58:40.854Z,english_212.wav,0,peel,245,27,5,5,français,f,2,0.2,-98.76374397,1.17731185
5cfd119645e1a20001883ee6,108,2,2024-02-27T10:58:40.854Z,english_212.wav,0,peel,245,27,5,5,français,f,3,0.3,31.47742107,0.88066499
5cfd119645e1a20001883ee6,108,2,2024-02-27T10:58:40.854Z,english_212.wav,0,peel,245,27,5,5,français,f,4,0.32341667,53.59344022,0.33624016
5cfd119645e1a20001883ee6,109,2,2024-02-27T10:58:40.854Z,english_549.wav,0,peel,273,27,5,5,français,f,0,0.0,80.71270499,0.69011393
5cfd119645e1a20001883ee6,109,2,2024-02-27T10:58:40.854Z,english_549.wav,0,peel,273,27,5,5,français,f,1,0.1,-71.31396277,1.1141308
5cfd119645e1a20001883ee6,109,2,2024-02-27T10:58:40.854Z,english_549.wav,0,peel,273,27,5,5,français,f,2,0.2,48.34518996,0.72072674
5cfd119645e1a20001883ee6,109,2,2024-02-27T10:58:40.854Z,english_549.wav,0,peel,273,27,5,5,français,f,3,0.3,-66.07502609,0.60045359
5cfd119645e1a20001883ee6,109,2,2024-02-27T10:58:40.854Z,english_549.wav,0,peel,273,27,5,5,français,f,4,0.32341667,-52.28087662,0.77200176
5cfd119645e1a20001883ee6,110,2,2024-02-27T10:58:40.854Z,english_651.wav,0,peel,340,27,5,5,français,f,0,0.0,94.66063372,0.16277223
5cfd119645e1a20001883ee6,110,2,2024-02-27T10:58:40.854Z,english_651.wav,0,peel,340,27,5,5,français,f,1,0.1,53.93234837,1.71236475
5cfd119645e1a20001883ee6,110,2,2024-02-27T10:58:40.854Z,english_651.wav,0,peel,340,27,5,5,français,f,2,0.2,-71.35755131,0.37376336
5cfd119645e1a20001883ee6,110,2,2024-02-27T10:58:40.854Z,english_651.wav,0,peel,340,27,5,5,français,f,3,0.3,50.84025958,0.80998932
5cfd119645e1a20001883ee6,110,2,2024-02-27T10:58:40.854Z,english_651.wav,0,peel,340,27,5,5,français,f,4,0.32341667,-24.67252949,0.23835763
5cfd119645e1a20001883ee6,111,2,2024-02-27T10:58:40.854Z,english_646.wav,0,peel,202,27,5,5,français,f,0,0.0,65.65927644,1.85038449
5cfd119645e1a20001883ee6,111,2,2024-02-27T10:58:40.854Z,english_646.wav,0,peel,202,27,5,5,français,f,1,0.1,-31.23211399,1.10748568
5cfd119645e1a20001883ee6,111,2,2024-02-27T10:58:40.854Z,english_646.wav,0,peel,202,27,5,5,français,f,2,0.2,62.59110385,1.14052106
5cfd119645e1a20001883ee6,111,2,2024-02-27T10:58:40.854Z,english_646.wav,0,peel,202,27,5,5,français,f,3,0.3,-86.43369357,1.38971404
5cfd119645e1a20001883ee6,111,2,2024-02-27T10:58:40.854Z,english_646.wav,0,peel,202,27,5,5,français,f,4,0.32341667,41.84315348,0.49971738
5cfd119645e1a20001883ee6,112,2,2024-02-27T10:58:40.854Z,english_712.wav,0,pill,629,27,5,5,français,f,0,0.0,-69.83835125,1.15670948
5cfd119645e1a20001883ee6,112,2,2024-02-27T10:58:40.854Z,english_712.wav,0,pill,629,27,5,5,français,f,1,0.1,-89.98535393,0.40201287
5cfd119645e1a20001883ee6,112,2,2024-02-27T10:58:40.854Z,english_712.wav,0,pill,629,27,5,5,français,f,2,0.2,47.33040466,0.06412681
5cfd119645e1a20001883ee6,112,2,2024-02-27T10:58:40.854Z,english_712.wav,0,pill,629,27,5,5,français,f,3,0.3,-32.03166139,1.50973484
5cfd119645e1a20001883ee6,112,2,2024-02-27T10:58:40.854Z,english_712.wav,0,pill,629,27,5,5,français,f,4,0.32341667,-5.29851616,1.18377017
5cfd119645e1a20001883ee6,113,2,2024-02-27T10:58:40.854Z,english_288.wav,0,peel,67,27,5,5,français,f,0,0.0,35.15100251,1.01330681
5cfd119645e1a20001883ee6,113,2,2024-02-27T10:58:40.854Z,english_288.wav,0,peel,67,27,5,5,français,f,1,0.1,49.55485069,0.90213232
5cfd119645e1a20001883ee6,113,2,2024-02-27T10:58:40.854Z,english_288.wav,0,peel,67,27,5,5,français,f,2,0.2,28.604189,1.8181607
5cfd119645e1a20001883ee6,113,2,2024-02-27T10:58:40.854Z,english_288.wav,0,peel,67,27,5,5,français,f,3,0.3,38.59633835,1.82579698
5cfd119645e1a20001883ee6,113,2,2024-02-27T10:58:40.854Z,english_288.wav,0,peel,67,27,5,5,français,f,4,0.32341667,-98.9026904,0.14571105
5cfd119645e1a20001883ee6,114,2,2024-02-27T10:58:40.854Z,english_558.wav,0,peel,265,27,5,5,français,f,0,0.0,-73.38624366,1.58797859
5cfd119645e1a20001883ee6,114,2,2024-02-27T10:58:40.854Z,english_558.wav,0,peel,265,27,5,5,français,f,1,0.1,-42.42633216,1.10525313
5cfd119645e1a20001883ee6,114,2,2024-02-27T10:58:40.854Z,english_558.wav,0,peel,265,27,5,5,français,f,2,0.2,15.99713578,0.42598769
5cfd119645e1a20001883ee6,114,2,2024-02-27T10:58:40.854Z,english_558.wav,0,peel,265,27,5,5,français,f,3,0.3,-33.12568725,0.25629603
5cfd119645e1a20001883ee6,114,2,2024-02-27T10:58:40.854Z,english_558.wav,0,peel,265,27,5,5,français,f,4,0.32341667,44.00446366,1.81995896
5cfd119645e1a20001883ee6,115,2,2024-02-27T10:58:40.854Z,english_256.wav,0,peel,246,27,5,5,français,f,0,0.0,22.60769813,1.84037168
5cfd119645e1a20001883ee6,115,2,2024-02-27T10:58:40.854Z,english_256.wav,0,peel,246,27,5,5,français,f,1,0.1,-95.01444593,0.47687766
5cfd119645e1a20001883ee6,115,2,2024-02-27T10:58:40.854Z,english_256.wav,0,peel,246,27,5,5,français,f,2,0.2,-19.91310746,0.85339151
5cfd119645e1a20001883ee6,115,2,2024-02-27T10:58:40.854Z,english_256.wav,0,peel,246,27,5,5,français,f,3,0.3,-6.39209363,0.75097161
5cfd119645e1a20001883ee6,115,2,2024-02-27T10:58:40.854Z,english_256.wav,0,peel,246,27,5,5,français,f,4,0.32341667,24.02209282,1.98695073
5cfd119645e1a20001883ee6,116,2,2024-02-27T10:58:40.854Z,english_416.wav,0,peel,394,27,5,5,français,f,0,0.0,26.92040942,0.66708871
5cfd119645e1a20001883ee6,116,2,2024-02-27T10:58:40.854Z,english_416.wav,0,peel,394,27,5,5,français,f,1,0.1,32.98463782,0.46140785
5cfd119645e1a20001883ee6,116,2,2024-02-27T10:58:40.854Z,english_416.wav,0,peel,394,27,5,5,français,f,2,0.2,94.30298269,0.4311344
5cfd119645e1a20001883ee6,116,2,2024-02-27T10:58:40.854Z,english_416.wav,0,peel,394,27,5,5,français,f,3,0.3,71.4008894,0.4522554
5cfd119645e1a20001883ee6,116,2,2024-02-27T10:58:40.854Z,english_416.wav,0,peel,394,27,5,5,français,f,4,0.32341667,-13.61584313,0.23817019
5cfd119645e1a20001883ee6,117,2,2024-02-27T10:58:40.854Z,english_524.wav,0,pill,1035,27,5,5,français,f,0,0.0,-67.97449296,0.75247726
5cfd119645e1a20001883ee6,117,2,2024-02-27T10:58:40.854Z,english_524.wav,0,pill,1035,27,5,5,français,f,1,0.1,11.07328714,0.25589602
5cfd119645e1a20001883ee6,117,2,2024-02-27T10:58:40.854Z,english_524.wav,0,pill,1035,27,5,5,français,f,2,0.2,-43.89657964,0.70559599
5cfd119645e1a20001883ee6,117,2,2024-02-27T10:58:40.854Z,english_524.wav,0,pill,1035,27,5,5,français,f,3,0.3,-41.15015074,0.70218971
5cfd119645e1a20001883ee6,117,2,2024-02-27T10:58:40.854Z,english_524.wav,0,pill,1035,27,5,5,français,f,4,0.32341667,-33.76804681,0.11352048
5cfd119645e1a20001883ee6,118,2,2024-02-27T10:58:40.854Z,english_175.wav,0,pill,668,27,5,5,français,f,0,0.0,-88.83902874,0.00773228
5cfd119645e1a20001883ee6,118,2,2024-02-27T10:58:40.854Z,english_175.wav,0,pill,668,27,5,5,français,f,1,0.1,8.60564456,1.6431495
5cfd119645e1a20001883ee6,118,2,2024-02-27T10:58:40.854Z,english_175.wav,0,pill,668,27,5,5,français,f,2,0.2,7.189218,0.24882977
5cfd119645e1a20001883ee6,118,2,2024-02-27T10:58:40.854Z,english_175.wav,0,pill,668,27,5,5,français,f,3,0.3,-2.31675389,1.20663028
5cfd119645e1a20001883ee6,118,2,2024-02-27T10:58:40.854Z,english_175.wav,0,pill,668,27,5,5,français,f,4,0.32341667,-21.56803319,0.57172188
5cfd119645e1a20001883ee6,119,2,2024-02-27T10:58:40.854Z,english_40.wav,0,pill,699,27,5,5,français,f,0,0.0,20.98315678,0.33544846
5cfd119645e1a20001883ee6,119,2,2024-02-27T10:58:40.854Z,english_40.wav,0,pill,699,27,5,5,français,f,1,0.1,80.64974175,0.81764939
5cfd119645e1a20001883ee6,119,2,2024-02-27T10:58:40.854Z,english_40.wav,0,pill,699,27,5,5,français,f,2,0.2,5.38930518,0.17548883
5cfd119645e1a20001883ee6,119,2,2024-02-27T10:58:40.854Z,english_40.wav,0,pill,699,27,5,5,français,f,3,0.3,18.83593916,0.83674413
5cfd119645e1a20001883ee6,119,2,2024-02-27T10:58:40.854Z,english_40.wav,0,pill,699,27,5,5,français,f,4,0.32341667,-14.62145671,0.80890384
5cfd119645e1a20001883ee6,120,2,2024-02-27T10:58:40.854Z,english_222.wav,0,peel,223,27,5,5,français,f,0,0.0,-5.8882644,0.97478352
5cfd119645e1a20001883ee6,120,2,2024-02-27T10:58:40.854Z,english_222.wav,0,peel,223,27,5,5,français,f,1,0.1,-15.4334302,1.79573252
5cfd119645e1a20001883ee6,120,2,2024-02-27T10:58:40.854Z,english_222.wav,0,peel,223,27,5,5,français,f,2,0.2,-39.50203868,1.71948726
5cfd119645e1a20001883ee6,120,2,2024-02-27T10:58:40.854Z,english_222.wav,0,peel,223,27,5,5,français,f,3,0.3,67.79027175,0.41699719
5cfd119645e1a20001883ee6,120,2,2024-02-27T10:58:40.854Z,english_222.wav,0,peel,223,27,5,5,français,f,4,0.32341667,-43.17344259,0.26315099
5cfd119645e1a20001883ee6,121,2,2024-02-27T10:58:40.854Z,english_533.wav,0,peel,136,27,5,5,français,f,0,0.0,-10.36570298,0.10013008
5cfd119645e1a20001883ee6,121,2,2024-02-27T10:58:40.854Z,english_533.wav,0,peel,136,27,5,5,français,f,1,0.1,-67.04420928,1.73583104
5cfd119645e1a20001883ee6,121,2,2024-02-27T10:58:40.854Z,english_533.wav,0,peel,136,27,5,5,français,f,2,0.2,-31.24691396,1.00550506
5cfd119645e1a20001883ee6,121,2,2024-02-27T10:58:40.854Z,english_533.wav,0,peel,136,27,5,5,français,f,3,0.3,-22.73912087,1.21009828
5cfd119645e1a20001883ee6,121,2,2024-02-27T10:58:40.854Z,english_533.wav,0,peel,136,27,5,5,français,f,4,0.32341667,-4.63915005,1.69946188
5cfd119645e1a20001883ee6,122,2,2024-02-27T10:58:40.854Z,english_956.wav,0,peel,537,27,5,5,français,f,0,0.0,-98.71257913,1.5828524
5cfd119645e1a20001883ee6,122,2,2024-02-27T10:58:40.854Z,english_956.wav,0,peel,537,27,5,5,français,f,1,0.1,-36.05702295,0.66985857
5cfd119645e1a20001883ee6,122,2,2024-02-27T10:58:40.854Z,english_956.wav,0,peel,537,27,5,5,français,f,2,0.2,-31.95582623,0.13798036
5cfd119645e1a20001883ee6,122,2,2024-02-27T10:58:40.854Z,english_956.wav,0,peel,537,27,5,5,français,f,3,0.3,-81.31295359,0.22663358
5cfd119645e1a20001883ee6,122,2,2024-02-27T10:58:40.854Z,english_956.wav,0,peel,537,27,5,5,français,f,4,0.32341667,45.09425789,0.54862974
5cfd119645e1a20001883ee6,123,2,2024-02-27T10:58:40.854Z,english_983.wav,0,peel,234,27,5,5,français,f,0,0.0,32.38711768,0.79408654
5cfd119645e1a20001883ee6,123,2,2024-02-27T10:58:40.854Z,english_983.wav,0,peel,234,27,5,5,français,f,1,0.1,-65.51600844,1.57845546
5cfd119645e1a20001883ee6,123,2,2024-02-27T10:58:40.854Z,english_983.wav,0,peel,234,27,5,5,français,f,2,0.2,12.03576385,1.23356187
5cfd119645e1a20001883ee6,123,2,2024-02-27T10:58:40.854Z,english_983.wav,0,peel,234,27,5,5,français,f,3,0.3,-64.14785636,0.65581831
5cfd119645e1a20001883ee6,123,2,2024-02-27T10:58:40.854Z,english_983.wav,0,peel,234,27,5,5,français,f,4,0.32341667,-72.48499617,0.27936162
5cfd119645e1a20001883ee6,124,2,2024-02-27T10:58:40.854Z,english_620.wav,0,peel,515,27,5,5,français,f,0,0.0,-92.9203055,0.43561856
5cfd119645e1a20001883ee6,124,2,2024-02-27T10:58:40.854Z,english_620.wav,0,peel,515,27,5,5,français,f,1,0.1,26.7086056,0.24535421
5cfd119645e1a20001883ee6,124,2,2024-02-27T10:58:40.854Z,english_620.wav,0,peel,515,27,5,5,français,f,2,0.2,89.1883135,1.34102831
5cfd119645e1a20001883ee6,124,2,2024-02-27T10:58:40.854Z,english_620.wav,0,peel,515,27,5,5,français,f,3,0.3,-0.0557738795,1.80103954
5cfd119645e1a20001883ee6,124,2,2024-02-27T10:58:40.854Z,english_620.wav,0,peel,515,27,5,5,français,f,4,0.323416667,2.9787243,0.21248525
5cfd119645e1a20001883ee6,125,2,2024-02-27T10:58:40.854Z,english_214.wav,0,peel,233,27,5,5,français,f,0,0.0,58.82847816,1.81864401
5cfd119645e1a20001883ee6,125,2,2024-02-27T10:58:40.854Z,english_214.wav,0,peel,233,27,5,5,français,f,1,0.1,87.26801489,0.97241975
5cfd119645e1a20001883ee6,125,2,2024-02-27T10:58:40.854Z,english_214.wav,0,peel,233,27,5,5,français,f,2,0.2,-28.10234025,1.91423566
5cfd119645e1a20001883ee6,125,2,2024-02-27T10:58:40.854Z,english_214.wav,0,peel,233,27,5,5,français,f,3,0.3,-36.12188516,1.71940232
5cfd119645e1a20001883ee6,125,2,2024-02-27T10:58:40.854Z,english_214.wav,0,peel,233,27,5,5,français,f,4,0.32341667,-45.93983978,0.68694042
5cfd119645e1a20001883ee6,126,2,2024-02-27T10:58:40.854Z,english_725.wav,0,pill,669,27,5,5,français,f,0,0.0,26.80600371,0.25466557
5cfd119645e1a20001883ee6,126,2,2024-02-27T10:58:40.854Z,english_725.wav,0,pill,669,27,5,5,français,f,1,0.1,82.24352357,0.77088778
5cfd119645e1a20001883ee6,126,2,2024-02-27T10:58:40.854Z,english_725.wav,0,pill,669,27,5,5,français,f,2,0.2,-3.79901328,0.70697722
5cfd119645e1a20001883ee6,126,2,2024-02-27T10:58:40.854Z,english_725.wav,0,pill,669,27,5,5,français,f,3,0.3,68.54562933,1.24247197
5cfd119645e1a20001883ee6,126,2,2024-02-27T10:58:40.854Z,english_725.wav,0,pill,669,27,5,5,français,f,4,0.32341667,-39.79698803,1.34526742
5cfd119645e1a20001883ee6,127,2,2024-02-27T10:58:40.854Z,english_398.wav,0,peel,540,27,5,5,français,f,0,0.0,-72.24204172,0.50855809
5cfd119645e1a20001883ee6,127,2,2024-02-27T10:58:40.854Z,english_398.wav,0,peel,540,27,5,5,français,f,1,0.1,29.80242672,0.68040596
5cfd119645e1a20001883ee6,127,2,2024-02-27T10:58:40.854Z,english_398.wav,0,peel,540,27,5,5,français,f,2,0.2,-29.26741326,1.59063958
5cfd119645e1a20001883ee6,127,2,2024-02-27T10:58:40.854Z,english_398.wav,0,peel,540,27,5,5,français,f,3,0.3,30.68380911,1.71035635
5cfd119645e1a20001883ee6,127,2,2024-02-27T10:58:40.854Z,english_398.wav,0,peel,540,27,5,5,français,f,4,0.32341667,-23.61694816,1.737831
5cfd119645e1a20001883ee6,128,2,2024-02-27T10:58:40.854Z,english_394.wav,0,peel,451,27,5,5,français,f,0,0.0,73.08757955,1.29313131
5cfd119645e1a20001883ee6,128,2,2024-02-27T10:58:40.854Z,english_394.wav,0,peel,451,27,5,5,français,f,1,0.1,5.60908311,0.62691873
5cfd119645e1a20001883ee6,128,2,2024-02-27T10:58:40.854Z,english_394.wav,0,peel,451,27,5,5,français,f,2,0.2,76.56705043,1.4938005
5cfd119645e1a20001883ee6,128,2,2024-02-27T10:58:40.854Z,english_394.wav,0,peel,451,27,5,5,français,f,3,0.3,18.85166324,1.2266925
5cfd119645e1a20001883ee6,128,2,2024-02-27T10:58:40.854Z,english_394.wav,0,peel,451,27,5,5,français,f,4,0.32341667,8.45052692,0.67844158
5cfd119645e1a20001883ee6,129,2,2024-02-27T10:58:40.854Z,english_86.wav,0,peel,278,27,5,5,français,f,0,0.0,-48.59393833,1.45450552
5cfd119645e1a20001883ee6,129,2,2024-02-27T10:58:40.854Z,english_86.wav,0,peel,278,27,5,5,français,f,1,0.1,77.37095157,1.8635573
5cfd119645e1a20001883ee6,129,2,2024-02-27T10:58:40.854Z,english_86.wav,0,peel,278,27,5,5,français,f,2,0.2,44.19816726,1.174515
5cfd119645e1a20001883ee6,129,2,2024-02-27T10:58:40.854Z,english_86.wav,0,peel,278,27,5,5,français,f,3,0.3,-99.780271,1.46785746
5cfd119645e1a20001883ee6,129,2,2024-02-27T10:58:40.854Z,english_86.wav,0,peel,278,27,5,5,français,f,4,0.32341667,38.96545556,0.99607158
5cfd119645e1a20001883ee6,130,2,2024-02-27T10:58:40.854Z,english_273.wav,0,peel,601,27,5,5,français,f,0,0.0,-44.98289573,1.94838534
5cfd119645e1a20001883ee6,130,2,2024-02-27T10:58:40.854Z,english_273.wav,0,peel,601,27,5,5,français,f,1,0.1,24.32546199,0.68888608
5cfd119645e1a20001883ee6,130,2,2024-02-27T10:58:40.854Z,english_273.wav,0,peel,601,27,5,5,français,f,2,0.2,61.84573583,1.95265796
5cfd119645e1a20001883ee6,130,2,2024-02-27T10:58:40.854Z,english_273.wav,0,peel,601,27,5,5,français,f,3,0.3,-1.88803465,1.62060328
5cfd119645e1a20001883ee6,130,2,2024-02-27T10:58:40.854Z,english_273.wav,0,peel,601,27,5,5,français,f,4,0.32341667,57.02125087,0.94638053
5cfd119645e1a20001883ee6,131,2,2024-02-27T10:58:40.854Z,english_239.wav,0,peel,493,27,5,5,français,f,0,0.0,87.44943986,1.42022081
5cfd119645e1a20001883ee6,131,2,2024-02-27T10:58:40.854Z,english_239.wav,0,peel,493,27,5,5,français,f,1,0.1,50.09814929,0.64261102
5cfd119645e1a20001883ee6,131,2,2024-02-27T10:58:40.854Z,english_239.wav,0,peel,493,27,5,5,français,f,2,0.2,-20.91132269,0.17156284
5cfd119645e1a20001883ee6,131,2,2024-02-27T10:58:40.854Z,english_239.wav,0,peel,493,27,5,5,français,f,3,0.3,1.56869958,1.89365974
5cfd119645e1a20001883ee6,131,2,2024-02-27T10:58:40.854Z,english_239.wav,0,peel,493,27,5,5,français,f,4,0.32341667,15.23790706,1.86939691
5cfd119645e1a20001883ee6,132,2,2024-02-27T10:58:40.854Z,english_32.wav,0,peel,335,27,5,5,français,f,0,0.0,89.50349963,1.73304916
5cfd119645e1a20001883ee6,132,2,2024-02-27T10:58:40.854Z,english_32.wav,0,peel,335,27,5,5,français,f,1,0.1,51.51128255,0.02192789
5cfd119645e1a20001883ee6,132,2,2024-02-27T10:58:40.854Z,english_32.wav,0,peel,335,27,5,5,français,f,2,0.2,-58.32910347,1.71493142
5cfd119645e1a20001883ee6,132,2,2024-02-27T10:58:40.854Z,english_32.wav,0,peel,335,27,5,5,français,f,3,0.3,15.96172744,1.28451373
5cfd119645e1a20001883ee6,132,2,2024-02-27T10:58:40.854Z,english_32.wav,0,peel,335,27,5,5,français,f,4,0.32341667,84.40449403,1.22971166
5cfd119645e1a20001883ee6,133,2,2024-02-27T10:58:40.854Z,english_567.wav,0,pill,650,27,5,5,français,f,0,0.0,26.28994663,0.43358591
5cfd119645e1a20001883ee6,133,2,2024-02-27T10:58:40.854Z,english_567.wav,0,pill,650,27,5,5,français,f,1,0.1,-84.76959918,0.96759171
5cfd119645e1a20001883ee6,133,2,2024-02-27T10:58:40.854Z,english_567.wav,0,pill,650,27,5,5,français,f,2,0.2,-17.21635209,0.27115372
5cfd119645e1a20001883ee6,133,2,2024-02-27T10:58:40.854Z,english_567.wav,0,pill,650,27,5,5,français,f,3,0.3,-93.28005251,1.2000135
5cfd119645e1a20001883ee6,133,2,2024-02-27T10:58:40.854Z,english_567.wav,0,pill,650,27,5,5,français,f,4,0.32341667,55.01605665,1.11881456
5cfd119645e1a20001883ee6,134,2,2024-02-27T10:58:40.854Z,english_447.wav,0,pill,715,27,5,5,français,f,0,0.0,38.77193801,0.52212734
5cfd119645e1a20001883ee6,134,2,2024-02-27T10:58:40.854Z,english_447.wav,0,pill,715,27,5,5,français,f,1,0.1,-3.53992528,0.58948567
5cfd119645e1a20001883ee6,134,2,2024-02-27T10:58:40.854Z,english_447.wav,0,pill,715,27,5,5,français,f,2,0.2,54.1888363,0.60662966
5cfd119645e1a20001883ee6,134,2,2024-02-27T10:58:40.854Z,english_447.wav,0,pill,715,27,5,5,français,f,3,0.3,-95.90180003,0.73195254
5cfd119645e1a20001883ee6,134,2,2024-02-27T10:58:40.854Z,english_447.wav,0,pill,715,27,5,5,français,f,4,0.32341667,48.32118178,0.21856551
5cfd119645e1a20001883ee6,135,2,2024-02-27T10:58:40.854Z,english_668.wav,0,pill,702,27,5,5,français,f,0,0.0,48.8265236,0.43768829
5cfd119645e1a20001883ee6,135,2,2024-02-27T10:58:40.854Z,english_668.wav,0,pill,702,27,5,5,français,f,1,0.1,97.68090991,0.31983773
5cfd119645e1a20001883ee6,135,2,2024-02-27T10:58:40.854Z,english_668.wav,0,pill,702,27,5,5,français,f,2,0.2,47.50182685,1.24438546
5cfd119645e1a20001883ee6,135,2,2024-02-27T10:58:40.854Z,english_668.wav,0,pill,702,27,5,5,français,f,3,0.3,81.7432518,0.49120307
5cfd119645e1a20001883ee6,135,2,2024-02-27T10:58:40.854Z,english_668.wav,0,pill,702,27,5,5,français,f,4,0.32341667,28.08178094,0.60639718
5cfd119645e1a20001883ee6,136,2,2024-02-27T10:58:40.854Z,english_324.wav,0,peel,471,27,5,5,français,f,0,0.0,49.07155908,0.10864525
5cfd119645e1a20001883ee6,136,2,2024-02-27T10:58:40.854Z,english_324.wav,0,peel,471,27,5,5,français,f,1,0.1,-58.77252084,1.61132735
5cfd119645e1a20001883ee6,136,2,2024-02-27T10:58:40.854Z,english_324.wav,0,peel,471,27,5,5,français,f,2,0.2,-55.40155542,0.60180616
5cfd119645e1a20001883ee6,136,2,2024-02-27T10:58:40.854Z,english_324.wav,0,peel,471,27,5,5,français,f,3,0.3,19.02224292,0.93555132
5cfd119645e1a20001883ee6,136,2,2024-02-27T10:58:40.854Z,english_324.wav,0,peel,471,27,5,5,français,f,4,0.32341667,21.20382854,0.34417591
5cfd119645e1a20001883ee6,137,2,2024-02-27T10:58:40.854Z,english_66.wav,0,pill,867,27,5,5,français,f,0,0.0,16.07147303,1.75051971
5cfd119645e1a20001883ee6,137,2,2024-02-27T10:58:40.854Z,english_66.wav,0,pill,867,27,5,5,français,f,1,0.1,50.76577123,0.02971233
5cfd119645e1a20001883ee6,137,2,2024-02-27T10:58:40.854Z,english_66.wav,0,pill,867,27,5,5,français,f,2,0.2,-29.1595681,0.63583886
5cfd119645e1a20001883ee6,137,2,2024-02-27T10:58:40.854Z,english_66.wav,0,pill,867,27,5,5,français,f,3,0.3,-80.89120138,1.46734397
5cfd119645e1a20001883ee6,137,2,2024-02-27T10:58:40.854Z,english_66.wav,0,pill,867,27,5,5,français,f,4,0.32341667,-8.46229461,1.61280944
5cfd119645e1a20001883ee6,138,2,2024-02-27T10:58:40.854Z,english_699.wav,0,peel,402,27,5,5,français,f,0,0.0,-21.84844695,0.55007596
5cfd119645e1a20001883ee6,138,2,2024-02-27T10:58:40.854Z,english_699.wav,0,peel,402,27,5,5,français,f,1,0.1,-20.61050251,0.98595355
5cfd119645e1a20001883ee6,138,2,2024-02-27T10:58:40.854Z,english_699.wav,0,peel,402,27,5,5,français,f,2,0.2,-7.57046677,1.16771202
5cfd119645e1a20001883ee6,138,2,2024-02-27T10:58:40.854Z,english_699.wav,0,peel,402,27,5,5,français,f,3,0.3,-90.18255135,0.60930532
5cfd119645e1a20001883ee6,138,2,2024-02-27T10:58:40.854Z,english_699.wav,0,peel,402,27,5,5,français,f,4,0.32341667,-39.12532958,1.39260434
5cfd119645e1a20001883ee6,139,2,2024-02-27T10:58:40.854Z,english_112.wav,0,peel,687,27,5,5,français,f,0,0.0,-98.7507832,1.62855774
5cfd119645e1a20001883ee6,139,2,2024-02-27T10:58:40.854Z,english_112.wav,0,peel,687,27,5,5,français,f,1,0.1,-92.72198769,1.23374737
5cfd119645e1a20001883ee6,139,2,2024-02-27T10:58:40.854Z,english_112.wav,0,peel,687,27,5,5,français,f,2,0.2,15.54821062,0.76022921
5cfd119645e1a20001883ee6,139,2,2024-02-27T10:58:40.854Z,english_112.wav,0,peel,687,27,5,5,français,f,3,0.3,-40.54151432,0.49860071
5cfd119645e1a20001883ee6,139,2,2024-02-27T10:58:40.854Z,english_112.wav,0,peel,687,27,5,5,français,f,4,0.32341667,-42.89167932,0.23801633
5cfd119645e1a20001883ee6,140,2,2024-02-27T10:58:40.854Z,english_218.wav,0,peel,343,27,5,5,français,f,0,0.0,87.3373499,1.94084006
5cfd119645e1a20001883ee6,140,2,2024-02-27T10:58:40.854Z,english_218.wav,0,peel,343,27,5,5,français,f,1,0.1,-14.87903436,0.13305972
5cfd119645e1a20001883ee6,140,2,2024-02-27T10:58:40.854Z,english_218.wav,0,peel,343,27,5,5,français,f,2,0.2,-31.97943339,1.11441312
5cfd119645e1a20001883ee6,140,2,2024-02-27T10:58:40.854Z,english_218.wav,0,peel,343,27,5,5,français,f,3,0.3,-60.49311609,1.83933377
5cfd119645e1a20001883ee6,140,2,2024-02-27T10:58:40.854Z,english_218.wav,0,peel,343,27,5,5,français,f,4,0.32341667,-63.68242647,1.41053301
5cfd119645e1a20001883ee6,141,2,2024-02-27T10:58:40.854Z,english_459.wav,0,pill,606,27,5,5,français,f,0,0.0,30.23503988,1.42205963
5cfd119645e1a20001883ee6,141,2,2024-02-27T10:58:40.854Z,english_459.wav,0,pill,606,27,5,5,français,f,1,0.1,-58.09525271,0.13069666
5cfd119645e1a20001883ee6,141,2,2024-02-27T10:58:40.854Z,english_459.wav,0,pill,606,27,5,5,français,f,2,0.2,22.03715272,0.55220733
5cfd119645e1a20001883ee6,141,2,2024-02-27T10:58:40.854Z,english_459.wav,0,pill,606,27,5,5,français,f,3,0.3,-33.09468511,0.48840502
5cfd119645e1a20001883ee6,141,2,2024-02-27T10:58:40.854Z,english_459.wav,0,pill,606,27,5,5,français,f,4,0.32341667,-9.46836848,1.08918734
5cfd119645e1a20001883ee6,142,2,2024-02-27T10:58:40.854Z,english_483.wav,0,pill,687,27,5,5,français,f,0,0.0,-5.76716701,0.46419013
5cfd119645e1a20001883ee6,142,2,2024-02-27T10:58:40.854Z,english_483.wav,0,pill,687,27,5,5,français,f,1,0.1,70.49761143,1.51640771
5cfd119645e1a20001883ee6,142,2,2024-02-27T10:58:40.854Z,english_483.wav,0,pill,687,27,5,5,français,f,2,0.2,-45.60331281,0.16811565
5cfd119645e1a20001883ee6,142,2,2024-02-27T10:58:40.854Z,english_483.wav,0,pill,687,27,5,5,français,f,3,0.3,83.6717315,0.53401791
5cfd119645e1a20001883ee6,142,2,2024-02-27T10:58:40.854Z,english_483.wav,0,pill,687,27,5,5,français,f,4,0.32341667,-49.24362833,1.0404632
5cfd119645e1a20001883ee6,143,2,2024-02-27T10:58:40.854Z,english_258.wav,0,peel,358,27,5,5,français,f,0,0.0,-7.1133109,1.89026761
5cfd119645e1a20001883ee6,143,2,2024-02-27T10:58:40.854Z,english_258.wav,0,peel,358,27,5,5,français,f,1,0.1,44.58564752,1.79361992
5cfd119645e1a20001883ee6,143,2,2024-02-27T10:58:40.854Z,english_258.wav,0,peel,358,27,5,5,français,f,2,0.2,45.36800295,0.43687845
5cfd119645e1a20001883ee6,143,2,2024-02-27T10:58:40.854Z,english_258.wav,0,peel,358,27,5,5,français,f,3,0.3,25.81301737,0.04688612
5cfd119645e1a20001883ee6,143,2,2024-02-27T10:58:40.854Z,english_258.wav,0,peel,358,27,5,5,français,f,4,0.32341667,-77.97513924,0.52567924
5cfd119645e1a20001883ee6,144,2,2024-02-27T10:58:40.854Z,english_140.wav,0,peel,553,27,5,5,français,f,0,0.0,-63.97366245,1.49783115
5cfd119645e1a20001883ee6,144,2,2024-02-27T10:58:40.854Z,english_140.wav,0,peel,553,27,5,5,français,f,1,0.1,-84.90656008,1.37250299
5cfd119645e1a20001883ee6,144,2,2024-02-27T10:58:40.854Z,english_140.wav,0,peel,553,27,5,5,français,f,2,0.2,93.42782744,0.10650492
5cfd119645e1a20001883ee6,144,2,2024-02-27T10:58:40.854Z,english_140.wav,0,peel,553,27,5,5,français,f,3,0.3,11.57634117,0.84315206
5cfd119645e1a20001883ee6,144,2,2024-02-27T10:58:40.854Z,english_140.wav,0,peel,553,27,5,5,français,f,4,0.32341667,80.35905055,1.26233419
5cfd119645e1a20001883ee6,145,2,2024-02-27T10:58:40.854Z,english_437.wav,0,pill,659,27,5,5,français,f,0,0.0,61.91803223,0.36516876
5cfd119645e1a20001883ee6,145,2,2024-02-27T10:58:40.854Z,english_437.wav,0,pill,659,27,5,5,français,f,1,0.1,0.99543568,0.43500315
5cfd119645e1a20001883ee6,145,2,2024-02-27T10:58:40.854Z,english_437.wav,0,pill,659,27,5,5,français,f,2,0.2,-50.96874522,1.25398366
5cfd119645e1a20001883ee6,145,2,2024-02-27T10:58:40.854Z,english_437.wav,0,pill,659,27,5,5,français,f,3,0.3,-47.73319396,0.60570222
5cfd119645e1a20001883ee6,145,2,2024-02-27T10:58:40.854Z,english_437.wav,0,pill,659,27,5,5,français,f,4,0.32341667,15.35939938,0.97208355
5cfd119645e1a20001883ee6,146,2,2024-02-27T10:58:40.854Z,english_975.wav,0,peel,483,27,5,5,français,f,0,0.0,30.76275893,1.75032315
5cfd119645e1a20001883ee6,146,2,2024-02-27T10:58:40.854Z,english_975.wav,0,peel,483,27,5,5,français,f,1,0.1,-18.30184736,1.1766706
5cfd119645e1a20001883ee6,146,2,2024-02-27T10:58:40.854Z,english_975.wav,0,peel,483,27,5,5,français,f,2,0.2,88.92209311,0.11148121
5cfd119645e1a20001883ee6,146,2,2024-02-27T10:58:40.854Z,english_975.wav,0,peel,483,27,5,5,français,f,3,0.3,-15.78836893,1.00992181
5cfd119645e1a20001883ee6,146,2,2024-02-27T10:58:40.854Z,english_975.wav,0,peel,483,27,5,5,français,f,4,0.32341667,81.69873146,1.08252971
5cfd119645e1a20001883ee6,147,2,2024-02-27T10:58:40.854Z,english_110.wav,0,peel,290,27,5,5,français,f,0,0.0,87.43016285,1.84693198
5cfd119645e1a20001883ee6,147,2,2024-02-27T10:58:40.854Z,english_110.wav,0,peel,290,27,5,5,français,f,1,0.1,-22.53798338,0.72868036
5cfd119645e1a20001883ee6,147,2,2024-02-27T10:58:40.854Z,english_110.wav,0,peel,290,27,5,5,français,f,2,0.2,60.38266123,1.6889543
5cfd119645e1a20001883ee6,147,2,2024-02-27T10:58:40.854Z,english_110.wav,0,peel,290,27,5,5,français,f,3,0.3,50.75224473,0.97311446
5cfd119645e1a20001883ee6,147,2,2024-02-27T10:58:40.854Z,english_110.wav,0,peel,290,27,5,5,français,f,4,0.32341667,87.78495288,0.46157718
5cfd119645e1a20001883ee6,148,2,2024-02-27T10:58:40.854Z,english_403.wav,0,pill,770,27,5,5,français,f,0,0.0,-92.65414009,1.93574734
5cfd119645e1a20001883ee6,148,2,2024-02-27T10:58:40.854Z,english_403.wav,0,pill,770,27,5,5,français,f,1,0.1,75.99659731,0.36447309
5cfd119645e1a20001883ee6,148,2,2024-02-27T10:58:40.854Z,english_403.wav,0,pill,770,27,5,5,français,f,2,0.2,-27.37801557,1.02888701
5cfd119645e1a20001883ee6,148,2,2024-02-27T10:58:40.854Z,english_403.wav,0,pill,770,27,5,5,français,f,3,0.3,-80.04540334,0.02385722
5cfd119645e1a20001883ee6,148,2,2024-02-27T10:58:40.854Z,english_403.wav,0,pill,770,27,5,5,français,f,4,0.32341667,30.50648557,1.40553938
5cfd119645e1a20001883ee6,149,2,2024-02-27T10:58:40.854Z,english_909.wav,0,peel,528,27,5,5,français,f,0,0.0,-19.4205152,0.17681169
5cfd119645e1a20001883ee6,149,2,2024-02-27T10:58:40.854Z,english_909.wav,0,peel,528,27,5,5,français,f,1,0.1,-31.830868,1.02014656
5cfd119645e1a20001883ee6,149,2,2024-02-27T10:58:40.854Z,english_909.wav,0,peel,528,27,5,5,français,f,2,0.2,71.05598051,1.59945112
5cfd119645e1a20001883ee6,149,2,2024-02-27T10:58:40.854Z,english_909.wav,0,peel,528,27,5,5,français,f,3,0.3,-13.09259164,1.33685121
5cfd119645e1a20001883ee6,149,2,2024-02-27T10:58:40.854Z,english_909.wav,0,peel,528,27,5,5,français,f,4,0.32341667,-99.47743822,0.41114962
5cfd119645e1a20001883ee6,150,3,2024-02-27T10:58:40.854Z,english_538.wav,0,peel,522,27,5,5,français,f,0,0.0,2.36208538,1.54356298
5cfd119645e1a20001883ee6,150,3,2024-02-27T10:58:40.854Z,english_538.wav,0,peel,522,27,5,5,français,f,1,0.1,77.85923423,0.47597082
5cfd119645e1a20001883ee6,150,3,2024-02-27T10:58:40.854Z,english_538.wav,0,peel,522,27,5,5,français,f,2,0.2,-89.1271409,1.27977799
5cfd119645e1a20001883ee6,150,3,2024-02-27T10:58:40.854Z,english_538.wav,0,peel,522,27,5,5,français,f,3,0.3,-18.79772534,1.05516459
5cfd119645e1a20001883ee6,150,3,2024-02-27T10:58:40.854Z,english_538.wav,0,peel,522,27,5,5,français,f,4,0.32341667,87.62276495,1.20284762
5cfd119645e1a20001883ee6,151,3,2024-02-27T10:58:40.854Z,english_751.wav,0,peel,412,27,5,5,français,f,0,0.0,45.03630887,0.43450625
5cfd119645e1a20001883ee6,151,3,2024-02-27T10:58:40.854Z,english_751.wav,0,peel,412,27,5,5,français,f,1,0.1,46.59103402,1.30072592
5cfd119645e1a20001883ee6,151,3,2024-02-27T10:58:40.854Z,english_751.wav,0,peel,412,27,5,5,français,f,2,0.2,-30.90440374,1.20093797
5cfd119645e1a20001883ee6,151,3,2024-02-27T10:58:40.854Z,english_751.wav,0,peel,412,27,5,5,français,f,3,0.3,-61.26470289,0.81911259
5cfd119645e1a20001883ee6,151,3,2024-02-27T10:58:40.854Z,english_751.wav,0,peel,412,27,5,5,français,f,4,0.32341667,34.91384756,0.19140491
5cfd119645e1a20001883ee6,152,3,2024-02-27T10:58:40.854Z,english_844.wav,0,peel,379,27,5,5,français,f,0,0.0,-84.59865618,1.95225136
5cfd119645e1a20001883ee6,152,3,2024-02-27T10:58:40.854Z,english_844.wav,0,peel,379,27,5,5,français,f,1,0.1,2.74576488,1.66072701
5cfd119645e1a20001883ee6,152,3,2024-02-27T10:58:40.854Z,english_844.wav,0,peel,379,27,5,5,français,f,2,0.2,-31.14414819,0.05165652
