subj,trial,block,date,stim,stim_order,response,rt,age,english,french,language,sex,param_index,segment,pitch,stretch
6151f078d738db7865f9a6bb,0,0,2024-02-27T12:01:10.673Z,english_353.wav,0,pill,4421,21,5,5,français,f,0,0.0,51.44050484,0.16518243
6151f078d738db7865f9a6bb,0,0,2024-02-27T12:01:10.673Z,english_353.wav,0,pill,4421,21,5,5,français,f,1,0.1,-8.32491594,1.32533476
6151f078d738db7865f9a6bb,0,0,2024-02-27T12:01:10.673Z,english_353.wav,0,pill,4421,21,5,5,français,f,2,0.2,-53.32966552,0.41923861
6151f078d738db7865f9a6bb,0,0,2024-02-27T12:01:10.673Z,english_353.wav,0,pill,4421,21,5,5,français,f,3,0.3,68.29246543,1.87374553
6151f078d738db7865f9a6bb,0,0,2024-02-27T12:01:10.673Z,english_353.wav,0,pill,4421,21,5,5,français,f,4,0.32341667,-32.22441747,1.13071195
6151f078d738db7865f9a6bb,1,0,2024-02-27T12:01:10.673Z,english_270.wav,0,peel,1940,21,5,5,français,f,0,0.0,-54.89328754,1.02368747
6151f078d738db7865f9a6bb,1,0,2024-02-27T12:01:10.673Z,english_270.wav,0,peel,1940,21,5,5,français,f,1,0.1,-41.12345733,1.74263534
6151f078d738db7865f9a6bb,1,0,2024-02-27T12:01:10.673Z,english_270.wav,0,peel,1940,21,5,5,français,f,2,0.2,79.03328036,0.45342006
6151f078d738db7865f9a6bb,1,0,2024-02-27T12:01:10.673Z,english_270.wav,0,peel,1940,21,5,5,français,f,3,0.3,-87.71335894,1.29911503
6151f078d738db7865f9a6bb,1,0,2024-02-27T12:01:10.673Z,english_270.wav,0,peel,1940,21,5,5,français,f,4,0.32341667,-48.20373708,0.95859349
6151f078d738db7865f9a6bb,2,0,2024-02-27T12:01:10.673Z,english_369.wav,0,peel,1137,21,5,5,français,f,0,0.0,-12.14177447,1.64093778
6151f078d738db7865f9a6bb,2,0,2024-02-27T12:01:10.673Z,english_369.wav,0,peel,1137,21,5,5,français,f,1,0.1,76.29699147,1.47479283
6151f078d738db7865f9a6bb,2,0,2024-02-27T12:01:10.673Z,english_369.wav,0,peel,1137,21,5,5,français,f,2,0.2,-85.49552365,1.31757561
6151f078d738db7865f9a6bb,2,0,2024-02-27T12:01:10.673Z,english_369.wav,0,peel,1137,21,5,5,français,f,3,0.3,-68.94608988,1.92077404
6151f078d738db7865f9a6bb,2,0,2024-02-27T12:01:10.673Z,english_369.wav,0,peel,1137,21,5,5,français,f,4,0.32341667,40.32615784,1.4628922
6151f078d738db7865f9a6bb,3,0,2024-02-27T12:01:10.673Z,english_389.wav,0,peel,652,21,5,5,français,f,0,0.0,36.16487693,1.25286497
6151f078d738db7865f9a6bb,3,0,2024-02-27T12:01:10.673Z,english_389.wav,0,peel,652,21,5,5,français,f,1,0.1,-97.36259769,1.31396789
6151f078d738db7865f9a6bb,3,0,2024-02-27T12:01:10.673Z,english_389.wav,0,peel,652,21,5,5,français,f,2,0.2,24.50411951,1.84060757
6151f078d738db7865f9a6bb,3,0,2024-02-27T12:01:10.673Z,english_389.wav,0,peel,652,21,5,5,français,f,3,0.3,43.1395046,0.64046023
6151f078d738db7865f9a6bb,3,0,2024-02-27T12:01:10.673Z,english_389.wav,0,peel,652,21,5,5,français,f,4,0.32341667,85.14605982,1.47992762
6151f078d738db7865f9a6bb,4,0,2024-02-27T12:01:10.673Z,english_937.wav,0,peel,414,21,5,5,français,f,0,0.0,76.77394395,1.55370699
6151f078d738db7865f9a6bb,4,0,2024-02-27T12:01:10.673Z,english_937.wav,0,peel,414,21,5,5,français,f,1,0.1,49.33576264,1.82028848
6151f078d738db7865f9a6bb,4,0,2024-02-27T12:01:10.673Z,english_937.wav,0,peel,414,21,5,5,français,f,2,0.2,-87.39935237,1.42487505
6151f078d738db7865f9a6bb,4,0,2024-02-27T12:01:10.673Z,english_937.wav,0,peel,414,21,5,5,français,f,3,0.3,11.02170053,0.87896062
6151f078d738db7865f9a6bb,4,0,2024-02-27T12:01:10.673Z,english_937.wav,0,peel,414,21,5,5,français,f,4,0.32341667,91.99381322,0.96516852
6151f078d738db7865f9a6bb,5,0,2024-02-27T12:01:10.673Z,english_884.wav,0,peel,3356,21,5,5,français,f,0,0.0,77.1498115,1.83268558
6151f078d738db7865f9a6bb,5,0,2024-02-27T12:01:10.673Z,english_884.wav,0,peel,3356,21,5,5,français,f,1,0.1,10.32602389,0.76817862
6151f078d738db7865f9a6bb,5,0,2024-02-27T12:01:10.673Z,english_884.wav,0,peel,3356,21,5,5,français,f,2,0.2,4.15464736,1.59331573
6151f078d738db7865f9a6bb,5,0,2024-02-27T12:01:10.673Z,english_884.wav,0,peel,3356,21,5,5,français,f,3,0.3,21.19252889,0.58913169
6151f078d738db7865f9a6bb,5,0,2024-02-27T12:01:10.673Z,english_884.wav,0,peel,3356,21,5,5,français,f,4,0.32341667,-7.11336122,0.81393531
6151f078d738db7865f9a6bb,6,0,2024-02-27T12:01:10.673Z,english_783.wav,0,pill,1121,21,5,5,français,f,0,0.0,23.05268069,1.49549247
6151f078d738db7865f9a6bb,6,0,2024-02-27T12:01:10.673Z,english_783.wav,0,pill,1121,21,5,5,français,f,1,0.1,9.36005369,0.13797177
6151f078d738db7865f9a6bb,6,0,2024-02-27T12:01:10.673Z,english_783.wav,0,pill,1121,21,5,5,français,f,2,0.2,62.81522218,1.80236654
6151f078d738db7865f9a6bb,6,0,2024-02-27T12:01:10.673Z,english_783.wav,0,pill,1121,21,5,5,français,f,3,0.3,67.71456376,0.33800471
6151f078d738db7865f9a6bb,6,0,2024-02-27T12:01:10.673Z,english_783.wav,0,pill,1121,21,5,5,français,f,4,0.32341667,77.96788237,1.97708045
6151f078d738db7865f9a6bb,7,0,2024-02-27T12:01:10.673Z,english_719.wav,0,pill,623,21,5,5,français,f,0,0.0,-32.14306232,1.4431753
6151f078d738db7865f9a6bb,7,0,2024-02-27T12:01:10.673Z,english_719.wav,0,pill,623,21,5,5,français,f,1,0.1,-81.40439332,0.46175707
6151f078d738db7865f9a6bb,7,0,2024-02-27T12:01:10.673Z,english_719.wav,0,pill,623,21,5,5,français,f,2,0.2,-20.1172293,1.86886769
6151f078d738db7865f9a6bb,7,0,2024-02-27T12:01:10.673Z,english_719.wav,0,pill,623,21,5,5,français,f,3,0.3,67.63048238,0.67969247
6151f078d738db7865f9a6bb,7,0,2024-02-27T12:01:10.673Z,english_719.wav,0,pill,623,21,5,5,français,f,4,0.32341667,50.83305788,1.68151983
6151f078d738db7865f9a6bb,8,0,2024-02-27T12:01:10.673Z,english_129.wav,0,peel,784,21,5,5,français,f,0,0.0,80.17800931,1.16690044
6151f078d738db7865f9a6bb,8,0,2024-02-27T12:01:10.673Z,english_129.wav,0,peel,784,21,5,5,français,f,1,0.1,6.7929614,1.89220933
6151f078d738db7865f9a6bb,8,0,2024-02-27T12:01:10.673Z,english_129.wav,0,peel,784,21,5,5,français,f,2,0.2,51.03188375,1.40122633
6151f078d738db7865f9a6bb,8,0,2024-02-27T12:01:10.673Z,english_129.wav,0,peel,784,21,5,5,français,f,3,0.3,-14.28174581,0.72131347
6151f078d738db7865f9a6bb,8,0,2024-02-27T12:01:10.673Z,english_129.wav,0,peel,784,21,5,5,français,f,4,0.32341667,32.60771632,1.30692003
6151f078d738db7865f9a6bb,9,0,2024-02-27T12:01:10.673Z,english_190.wav,0,pill,683,21,5,5,français,f,0,0.0,81.66607819,0.126715216
6151f078d738db7865f9a6bb,9,0,2024-02-27T12:01:10.673Z,english_190.wav,0,pill,683,21,5,5,français,f,1,0.1,-14.16938067,0.000178349903
6151f078d738db7865f9a6bb,9,0,2024-02-27T12:01:10.673Z,english_190.wav,0,pill,683,21,5,5,français,f,2,0.2,15.7443745,1.35192229
6151f078d738db7865f9a6bb,9,0,2024-02-27T12:01:10.673Z,english_190.wav,0,pill,683,21,5,5,français,f,3,0.3,85.77694093,1.08905811
6151f078d738db7865f9a6bb,9,0,2024-02-27T12:01:10.673Z,english_190.wav,0,pill,683,21,5,5,français,f,4,0.32341667,33.21115004,1.75580408
6151f078d738db7865f9a6bb,10,0,2024-02-27T12:01:10.673Z,english_560.wav,0,peel,1099,21,5,5,français,f,0,0.0,6.26341837,1.61909233
6151f078d738db7865f9a6bb,10,0,2024-02-27T12:01:10.673Z,english_560.wav,0,peel,1099,21,5,5,français,f,1,0.1,-94.10474965,0.93851614
6151f078d738db7865f9a6bb,10,0,2024-02-27T12:01:10.673Z,english_560.wav,0,peel,1099,21,5,5,français,f,2,0.2,-43.88069215,1.37910144
6151f078d738db7865f9a6bb,10,0,2024-02-27T12:01:10.673Z,english_560.wav,0,peel,1099,21,5,5,français,f,3,0.3,-26.3559156,1.10578935
6151f078d738db7865f9a6bb,10,0,2024-02-27T12:01:10.673Z,english_560.wav,0,peel,1099,21,5,5,français,f,4,0.32341667,-91.38105747,0.02070647
6151f078d738db7865f9a6bb,11,0,2024-02-27T12:01:10.673Z,english_50.wav,0,peel,565,21,5,5,français,f,0,0.0,-72.72872807,1.68140442
6151f078d738db7865f9a6bb,11,0,2024-02-27T12:01:10.673Z,english_50.wav,0,peel,565,21,5,5,français,f,1,0.1,-88.33626222,1.82728433
6151f078d738db7865f9a6bb,11,0,2024-02-27T12:01:10.673Z,english_50.wav,0,peel,565,21,5,5,français,f,2,0.2,-2.18882928,0.80476824
6151f078d738db7865f9a6bb,11,0,2024-02-27T12:01:10.673Z,english_50.wav,0,peel,565,21,5,5,français,f,3,0.3,60.61456424,0.21215651
6151f078d738db7865f9a6bb,11,0,2024-02-27T12:01:10.673Z,english_50.wav,0,peel,565,21,5,5,français,f,4,0.32341667,95.28335061,1.87644163
6151f078d738db7865f9a6bb,12,0,2024-02-27T12:01:10.673Z,english_714.wav,0,peel,402,21,5,5,français,f,0,0.0,6.62463448,0.98205871
6151f078d738db7865f9a6bb,12,0,2024-02-27T12:01:10.673Z,english_714.wav,0,peel,402,21,5,5,français,f,1,0.1,-7.37775178,1.90018259
6151f078d738db7865f9a6bb,12,0,2024-02-27T12:01:10.673Z,english_714.wav,0,peel,402,21,5,5,français,f,2,0.2,-58.74003357,1.33033281
6151f078d738db7865f9a6bb,12,0,2024-02-27T12:01:10.673Z,english_714.wav,0,peel,402,21,5,5,français,f,3,0.3,-38.84014254,0.20009115
6151f078d738db7865f9a6bb,12,0,2024-02-27T12:01:10.673Z,english_714.wav,0,peel,402,21,5,5,français,f,4,0.32341667,-23.67047323,0.44650169
6151f078d738db7865f9a6bb,13,0,2024-02-27T12:01:10.673Z,english_363.wav,0,pill,1334,21,5,5,français,f,0,0.0,-8.62246293,0.22304778
6151f078d738db7865f9a6bb,13,0,2024-02-27T12:01:10.673Z,english_363.wav,0,pill,1334,21,5,5,français,f,1,0.1,-37.95317313,0.51009023
6151f078d738db7865f9a6bb,13,0,2024-02-27T12:01:10.673Z,english_363.wav,0,pill,1334,21,5,5,français,f,2,0.2,-98.56362786,1.67320701
6151f078d738db7865f9a6bb,13,0,2024-02-27T12:01:10.673Z,english_363.wav,0,pill,1334,21,5,5,français,f,3,0.3,79.4101663,0.32318158
6151f078d738db7865f9a6bb,13,0,2024-02-27T12:01:10.673Z,english_363.wav,0,pill,1334,21,5,5,français,f,4,0.32341667,-19.01593507,1.23606141
6151f078d738db7865f9a6bb,14,0,2024-02-27T12:01:10.673Z,english_218.wav,0,peel,1329,21,5,5,français,f,0,0.0,87.3373499,1.94084006
6151f078d738db7865f9a6bb,14,0,2024-02-27T12:01:10.673Z,english_218.wav,0,peel,1329,21,5,5,français,f,1,0.1,-14.87903436,0.13305972
6151f078d738db7865f9a6bb,14,0,2024-02-27T12:01:10.673Z,english_218.wav,0,peel,1329,21,5,5,français,f,2,0.2,-31.97943339,1.11441312
6151f078d738db7865f9a6bb,14,0,2024-02-27T12:01:10.673Z,english_218.wav,0,peel,1329,21,5,5,français,f,3,0.3,-60.49311609,1.83933377
6151f078d738db7865f9a6bb,14,0,2024-02-27T12:01:10.673Z,english_218.wav,0,peel,1329,21,5,5,français,f,4,0.32341667,-63.68242647,1.41053301
6151f078d738db7865f9a6bb,15,0,2024-02-27T12:01:10.673Z,english_587.wav,0,peel,508,21,5,5,français,f,0,0.0,-33.32102811,0.7972352
6151f078d738db7865f9a6bb,15,0,2024-02-27T12:01:10.673Z,english_587.wav,0,peel,508,21,5,5,français,f,1,0.1,46.1287001,1.97425238
6151f078d738db7865f9a6bb,15,0,2024-02-27T12:01:10.673Z,english_587.wav,0,peel,508,21,5,5,français,f,2,0.2,-62.23894368,0.99609006
6151f078d738db7865f9a6bb,15,0,2024-02-27T12:01:10.673Z,english_587.wav,0,peel,508,21,5,5,français,f,3,0.3,36.67711132,1.18577707
6151f078d738db7865f9a6bb,15,0,2024-02-27T12:01:10.673Z,english_587.wav,0,peel,508,21,5,5,français,f,4,0.32341667,-11.53320103,1.64089558
6151f078d738db7865f9a6bb,16,0,2024-02-27T12:01:10.673Z,english_466.wav,0,peel,407,21,5,5,français,f,0,0.0,59.64739432,1.91119383
6151f078d738db7865f9a6bb,16,0,2024-02-27T12:01:10.673Z,english_466.wav,0,peel,407,21,5,5,français,f,1,0.1,-20.63646321,1.29572765
6151f078d738db7865f9a6bb,16,0,2024-02-27T12:01:10.673Z,english_466.wav,0,peel,407,21,5,5,français,f,2,0.2,62.86141463,0.99944191
6151f078d738db7865f9a6bb,16,0,2024-02-27T12:01:10.673Z,english_466.wav,0,peel,407,21,5,5,français,f,3,0.3,-65.74461877,1.01221774
6151f078d738db7865f9a6bb,16,0,2024-02-27T12:01:10.673Z,english_466.wav,0,peel,407,21,5,5,français,f,4,0.32341667,44.70090984,0.89697717
6151f078d738db7865f9a6bb,17,0,2024-02-27T12:01:10.673Z,english_822.wav,0,peel,2208,21,5,5,français,f,0,0.0,22.19463519,1.34957498
6151f078d738db7865f9a6bb,17,0,2024-02-27T12:01:10.673Z,english_822.wav,0,peel,2208,21,5,5,français,f,1,0.1,46.02970585,1.18534363
6151f078d738db7865f9a6bb,17,0,2024-02-27T12:01:10.673Z,english_822.wav,0,peel,2208,21,5,5,français,f,2,0.2,44.31281831,0.88966115
6151f078d738db7865f9a6bb,17,0,2024-02-27T12:01:10.673Z,english_822.wav,0,peel,2208,21,5,5,français,f,3,0.3,27.24156044,1.22476657
6151f078d738db7865f9a6bb,17,0,2024-02-27T12:01:10.673Z,english_822.wav,0,peel,2208,21,5,5,français,f,4,0.32341667,41.58842879,0.51847317
6151f078d738db7865f9a6bb,18,0,2024-02-27T12:01:10.673Z,english_335.wav,0,pill,544,21,5,5,français,f,0,0.0,2.73277154,0.73564724
6151f078d738db7865f9a6bb,18,0,2024-02-27T12:01:10.673Z,english_335.wav,0,pill,544,21,5,5,français,f,1,0.1,-7.1950175,0.15546095
6151f078d738db7865f9a6bb,18,0,2024-02-27T12:01:10.673Z,english_335.wav,0,pill,544,21,5,5,français,f,2,0.2,60.45920583,0.90435367
6151f078d738db7865f9a6bb,18,0,2024-02-27T12:01:10.673Z,english_335.wav,0,pill,544,21,5,5,français,f,3,0.3,-26.91989021,0.56661996
6151f078d738db7865f9a6bb,18,0,2024-02-27T12:01:10.673Z,english_335.wav,0,pill,544,21,5,5,français,f,4,0.32341667,-2.30142169,1.21763394
6151f078d738db7865f9a6bb,19,0,2024-02-27T12:01:10.673Z,english_718.wav,0,pill,712,21,5,5,français,f,0,0.0,-62.54470118,0.40124114
6151f078d738db7865f9a6bb,19,0,2024-02-27T12:01:10.673Z,english_718.wav,0,pill,712,21,5,5,français,f,1,0.1,-40.70811043,0.49945062
6151f078d738db7865f9a6bb,19,0,2024-02-27T12:01:10.673Z,english_718.wav,0,pill,712,21,5,5,français,f,2,0.2,-11.25435391,1.54880463
6151f078d738db7865f9a6bb,19,0,2024-02-27T12:01:10.673Z,english_718.wav,0,pill,712,21,5,5,français,f,3,0.3,-68.52161814,0.39118497
6151f078d738db7865f9a6bb,19,0,2024-02-27T12:01:10.673Z,english_718.wav,0,pill,712,21,5,5,français,f,4,0.32341667,-77.89834334,0.07447668
6151f078d738db7865f9a6bb,20,0,2024-02-27T12:01:10.673Z,english_38.wav,0,peel,818,21,5,5,français,f,0,0.0,-2.78484508,0.45448836
6151f078d738db7865f9a6bb,20,0,2024-02-27T12:01:10.673Z,english_38.wav,0,peel,818,21,5,5,français,f,1,0.1,-57.68912839,0.86252605
6151f078d738db7865f9a6bb,20,0,2024-02-27T12:01:10.673Z,english_38.wav,0,peel,818,21,5,5,français,f,2,0.2,-17.27242754,1.61904865
6151f078d738db7865f9a6bb,20,0,2024-02-27T12:01:10.673Z,english_38.wav,0,peel,818,21,5,5,français,f,3,0.3,-2.64514482,1.39130822
6151f078d738db7865f9a6bb,20,0,2024-02-27T12:01:10.673Z,english_38.wav,0,peel,818,21,5,5,français,f,4,0.32341667,55.14373267,1.59066599
6151f078d738db7865f9a6bb,21,0,2024-02-27T12:01:10.673Z,english_219.wav,0,peel,431,21,5,5,français,f,0,0.0,38.40040381,1.09142553
6151f078d738db7865f9a6bb,21,0,2024-02-27T12:01:10.673Z,english_219.wav,0,peel,431,21,5,5,français,f,1,0.1,-26.23926727,0.5740428
6151f078d738db7865f9a6bb,21,0,2024-02-27T12:01:10.673Z,english_219.wav,0,peel,431,21,5,5,français,f,2,0.2,-57.67558578,1.19056911
6151f078d738db7865f9a6bb,21,0,2024-02-27T12:01:10.673Z,english_219.wav,0,peel,431,21,5,5,français,f,3,0.3,50.56926795,1.87089358
6151f078d738db7865f9a6bb,21,0,2024-02-27T12:01:10.673Z,english_219.wav,0,peel,431,21,5,5,français,f,4,0.32341667,64.39220397,1.06933149
6151f078d738db7865f9a6bb,22,0,2024-02-27T12:01:10.673Z,english_896.wav,0,pill,608,21,5,5,français,f,0,0.0,-76.63716622,1.08893336
6151f078d738db7865f9a6bb,22,0,2024-02-27T12:01:10.673Z,english_896.wav,0,pill,608,21,5,5,français,f,1,0.1,-73.11298951,0.41748987
6151f078d738db7865f9a6bb,22,0,2024-02-27T12:01:10.673Z,english_896.wav,0,pill,608,21,5,5,français,f,2,0.2,48.53347054,0.32012442
6151f078d738db7865f9a6bb,22,0,2024-02-27T12:01:10.673Z,english_896.wav,0,pill,608,21,5,5,français,f,3,0.3,-4.46661278,0.63387312
6151f078d738db7865f9a6bb,22,0,2024-02-27T12:01:10.673Z,english_896.wav,0,pill,608,21,5,5,français,f,4,0.32341667,-44.69533701,1.27766005
6151f078d738db7865f9a6bb,23,0,2024-02-27T12:01:10.673Z,english_975.wav,0,pill,1314,21,5,5,français,f,0,0.0,30.76275893,1.75032315
6151f078d738db7865f9a6bb,23,0,2024-02-27T12:01:10.673Z,english_975.wav,0,pill,1314,21,5,5,français,f,1,0.1,-18.30184736,1.1766706
6151f078d738db7865f9a6bb,23,0,2024-02-27T12:01:10.673Z,english_975.wav,0,pill,1314,21,5,5,français,f,2,0.2,88.92209311,0.11148121
6151f078d738db7865f9a6bb,23,0,2024-02-27T12:01:10.673Z,english_975.wav,0,pill,1314,21,5,5,français,f,3,0.3,-15.78836893,1.00992181
6151f078d738db7865f9a6bb,23,0,2024-02-27T12:01:10.673Z,english_975.wav,0,pill,1314,21,5,5,français,f,4,0.32341667,81.69873146,1.08252971
6151f078d738db7865f9a6bb,24,0,2024-02-27T12:01:10.673Z,english_356.wav,0,peel,389,21,5,5,français,f,0,0.0,87.74309864,0.22820547
6151f078d738db7865f9a6bb,24,0,2024-02-27T12:01:10.673Z,english_356.wav,0,peel,389,21,5,5,français,f,1,0.1,-4.48264388,1.49009691
6151f078d738db7865f9a6bb,24,0,2024-02-27T12:01:10.673Z,english_356.wav,0,peel,389,21,5,5,français,f,2,0.2,90.19031952,1.39023362
6151f078d738db7865f9a6bb,24,0,2024-02-27T12:01:10.673Z,english_356.wav,0,peel,389,21,5,5,français,f,3,0.3,-69.40540064,1.78473098
6151f078d738db7865f9a6bb,24,0,2024-02-27T12:01:10.673Z,english_356.wav,0,peel,389,21,5,5,français,f,4,0.32341667,65.10278108,0.80628385
6151f078d738db7865f9a6bb,25,0,2024-02-27T12:01:10.673Z,english_702.wav,0,peel,453,21,5,5,français,f,0,0.0,-19.6614881,1.13820402
6151f078d738db7865f9a6bb,25,0,2024-02-27T12:01:10.673Z,english_702.wav,0,peel,453,21,5,5,français,f,1,0.1,-92.60133235,1.47755069
6151f078d738db7865f9a6bb,25,0,2024-02-27T12:01:10.673Z,english_702.wav,0,peel,453,21,5,5,français,f,2,0.2,-18.01071493,1.33705675
6151f078d738db7865f9a6bb,25,0,2024-02-27T12:01:10.673Z,english_702.wav,0,peel,453,21,5,5,français,f,3,0.3,91.54675011,0.59768286
6151f078d738db7865f9a6bb,25,0,2024-02-27T12:01:10.673Z,english_702.wav,0,peel,453,21,5,5,français,f,4,0.32341667,23.09112348,0.82103567
6151f078d738db7865f9a6bb,26,0,2024-02-27T12:01:10.673Z,english_81.wav,0,peel,1144,21,5,5,français,f,0,0.0,-8.99652005,1.6890162
6151f078d738db7865f9a6bb,26,0,2024-02-27T12:01:10.673Z,english_81.wav,0,peel,1144,21,5,5,français,f,1,0.1,37.2959996,1.86826101
6151f078d738db7865f9a6bb,26,0,2024-02-27T12:01:10.673Z,english_81.wav,0,peel,1144,21,5,5,français,f,2,0.2,56.49217416,0.68929954
6151f078d738db7865f9a6bb,26,0,2024-02-27T12:01:10.673Z,english_81.wav,0,peel,1144,21,5,5,français,f,3,0.3,99.31521879,0.22383451
6151f078d738db7865f9a6bb,26,0,2024-02-27T12:01:10.673Z,english_81.wav,0,peel,1144,21,5,5,français,f,4,0.32341667,-25.36881215,0.930773
6151f078d738db7865f9a6bb,27,0,2024-02-27T12:01:10.673Z,english_746.wav,0,peel,1314,21,5,5,français,f,0,0.0,-1.32395796,1.72273729
6151f078d738db7865f9a6bb,27,0,2024-02-27T12:01:10.673Z,english_746.wav,0,peel,1314,21,5,5,français,f,1,0.1,-67.07117971,1.22961235
6151f078d738db7865f9a6bb,27,0,2024-02-27T12:01:10.673Z,english_746.wav,0,peel,1314,21,5,5,français,f,2,0.2,75.09604974,1.29107068
6151f078d738db7865f9a6bb,27,0,2024-02-27T12:01:10.673Z,english_746.wav,0,peel,1314,21,5,5,français,f,3,0.3,-48.59278454,1.34694816
6151f078d738db7865f9a6bb,27,0,2024-02-27T12:01:10.673Z,english_746.wav,0,peel,1314,21,5,5,français,f,4,0.32341667,-6.52080997,0.94274536
6151f078d738db7865f9a6bb,28,0,2024-02-27T12:01:10.673Z,english_917.wav,0,pill,640,21,5,5,français,f,0,0.0,-2.28432431,0.51220006
6151f078d738db7865f9a6bb,28,0,2024-02-27T12:01:10.673Z,english_917.wav,0,pill,640,21,5,5,français,f,1,0.1,-50.4941454,0.3783057
6151f078d738db7865f9a6bb,28,0,2024-02-27T12:01:10.673Z,english_917.wav,0,pill,640,21,5,5,français,f,2,0.2,86.41176613,0.52629226
6151f078d738db7865f9a6bb,28,0,2024-02-27T12:01:10.673Z,english_917.wav,0,pill,640,21,5,5,français,f,3,0.3,-50.97734163,0.68389314
6151f078d738db7865f9a6bb,28,0,2024-02-27T12:01:10.673Z,english_917.wav,0,pill,640,21,5,5,français,f,4,0.32341667,97.13453513,1.73708117
6151f078d738db7865f9a6bb,29,0,2024-02-27T12:01:10.673Z,english_801.wav,0,pill,525,21,5,5,français,f,0,0.0,66.50571345,0.19311528
6151f078d738db7865f9a6bb,29,0,2024-02-27T12:01:10.673Z,english_801.wav,0,pill,525,21,5,5,français,f,1,0.1,-53.03260979,0.48683601
6151f078d738db7865f9a6bb,29,0,2024-02-27T12:01:10.673Z,english_801.wav,0,pill,525,21,5,5,français,f,2,0.2,-3.89459646,1.16293258
6151f078d738db7865f9a6bb,29,0,2024-02-27T12:01:10.673Z,english_801.wav,0,pill,525,21,5,5,français,f,3,0.3,8.32951864,1.55734707
6151f078d738db7865f9a6bb,29,0,2024-02-27T12:01:10.673Z,english_801.wav,0,pill,525,21,5,5,français,f,4,0.32341667,-87.46806733,0.63471681
6151f078d738db7865f9a6bb,30,0,2024-02-27T12:01:10.673Z,english_996.wav,0,pill,539,21,5,5,français,f,0,0.0,-71.70531914,1.36459419
6151f078d738db7865f9a6bb,30,0,2024-02-27T12:01:10.673Z,english_996.wav,0,pill,539,21,5,5,français,f,1,0.1,-47.61419544,0.5051745
6151f078d738db7865f9a6bb,30,0,2024-02-27T12:01:10.673Z,english_996.wav,0,pill,539,21,5,5,français,f,2,0.2,48.0330823,1.09957376
6151f078d738db7865f9a6bb,30,0,2024-02-27T12:01:10.673Z,english_996.wav,0,pill,539,21,5,5,français,f,3,0.3,34.27821317,0.27950682
6151f078d738db7865f9a6bb,30,0,2024-02-27T12:01:10.673Z,english_996.wav,0,pill,539,21,5,5,français,f,4,0.32341667,-72.4662587,0.22836241
6151f078d738db7865f9a6bb,31,0,2024-02-27T12:01:10.673Z,english_543.wav,0,pill,286,21,5,5,français,f,0,0.0,13.74009622,0.63900578
6151f078d738db7865f9a6bb,31,0,2024-02-27T12:01:10.673Z,english_543.wav,0,pill,286,21,5,5,français,f,1,0.1,51.80972721,1.6206981
6151f078d738db7865f9a6bb,31,0,2024-02-27T12:01:10.673Z,english_543.wav,0,pill,286,21,5,5,français,f,2,0.2,86.3964352,0.03304675
6151f078d738db7865f9a6bb,31,0,2024-02-27T12:01:10.673Z,english_543.wav,0,pill,286,21,5,5,français,f,3,0.3,-66.39783761,1.7049324
6151f078d738db7865f9a6bb,31,0,2024-02-27T12:01:10.673Z,english_543.wav,0,pill,286,21,5,5,français,f,4,0.32341667,31.11863834,1.46507556
6151f078d738db7865f9a6bb,32,0,2024-02-27T12:01:10.673Z,english_312.wav,0,peel,1482,21,5,5,français,f,0,0.0,44.01610098,1.36033213
6151f078d738db7865f9a6bb,32,0,2024-02-27T12:01:10.673Z,english_312.wav,0,peel,1482,21,5,5,français,f,1,0.1,-34.76139374,0.08557756
6151f078d738db7865f9a6bb,32,0,2024-02-27T12:01:10.673Z,english_312.wav,0,peel,1482,21,5,5,français,f,2,0.2,-43.47986862,1.06509633
6151f078d738db7865f9a6bb,32,0,2024-02-27T12:01:10.673Z,english_312.wav,0,peel,1482,21,5,5,français,f,3,0.3,-9.79517271,0.67257935
6151f078d738db7865f9a6bb,32,0,2024-02-27T12:01:10.673Z,english_312.wav,0,peel,1482,21,5,5,français,f,4,0.32341667,85.48914895,0.12614926
6151f078d738db7865f9a6bb,33,0,2024-02-27T12:01:10.673Z,english_703.wav,0,peel,257,21,5,5,français,f,0,0.0,21.25560127,1.22587136
6151f078d738db7865f9a6bb,33,0,2024-02-27T12:01:10.673Z,english_703.wav,0,peel,257,21,5,5,français,f,1,0.1,-5.61566417,1.28752652
6151f078d738db7865f9a6bb,33,0,2024-02-27T12:01:10.673Z,english_703.wav,0,peel,257,21,5,5,français,f,2,0.2,-88.15973778,1.61643937
6151f078d738db7865f9a6bb,33,0,2024-02-27T12:01:10.673Z,english_703.wav,0,peel,257,21,5,5,français,f,3,0.3,39.86499493,1.32560109
6151f078d738db7865f9a6bb,33,0,2024-02-27T12:01:10.673Z,english_703.wav,0,peel,257,21,5,5,français,f,4,0.32341667,64.67338156,0.74206522
6151f078d738db7865f9a6bb,34,0,2024-02-27T12:01:10.673Z,english_688.wav,0,pill,670,21,5,5,français,f,0,0.0,-45.64286614,1.06356906
6151f078d738db7865f9a6bb,34,0,2024-02-27T12:01:10.673Z,english_688.wav,0,pill,670,21,5,5,français,f,1,0.1,39.73956276,0.85197809
6151f078d738db7865f9a6bb,34,0,2024-02-27T12:01:10.673Z,english_688.wav,0,pill,670,21,5,5,français,f,2,0.2,40.53719602,0.68718846
6151f078d738db7865f9a6bb,34,0,2024-02-27T12:01:10.673Z,english_688.wav,0,pill,670,21,5,5,français,f,3,0.3,-71.29470492,1.67995478
6151f078d738db7865f9a6bb,34,0,2024-02-27T12:01:10.673Z,english_688.wav,0,pill,670,21,5,5,français,f,4,0.32341667,73.7490074,1.45979079
6151f078d738db7865f9a6bb,35,0,2024-02-27T12:01:10.673Z,english_243.wav,0,pill,520,21,5,5,français,f,0,0.0,-74.41503345,0.65151457
6151f078d738db7865f9a6bb,35,0,2024-02-27T12:01:10.673Z,english_243.wav,0,pill,520,21,5,5,français,f,1,0.1,-16.65530333,0.20623253
6151f078d738db7865f9a6bb,35,0,2024-02-27T12:01:10.673Z,english_243.wav,0,pill,520,21,5,5,français,f,2,0.2,-1.41224798,0.87153721
6151f078d738db7865f9a6bb,35,0,2024-02-27T12:01:10.673Z,english_243.wav,0,pill,520,21,5,5,français,f,3,0.3,37.30419975,0.28583671
6151f078d738db7865f9a6bb,35,0,2024-02-27T12:01:10.673Z,english_243.wav,0,pill,520,21,5,5,français,f,4,0.32341667,-3.40378668,1.90700275
6151f078d738db7865f9a6bb,36,0,2024-02-27T12:01:10.673Z,english_181.wav,0,pill,403,21,5,5,français,f,0,0.0,-20.89133039,0.39550568
6151f078d738db7865f9a6bb,36,0,2024-02-27T12:01:10.673Z,english_181.wav,0,pill,403,21,5,5,français,f,1,0.1,-68.36112581,0.87114476
6151f078d738db7865f9a6bb,36,0,2024-02-27T12:01:10.673Z,english_181.wav,0,pill,403,21,5,5,français,f,2,0.2,-21.7912093,0.0214418
6151f078d738db7865f9a6bb,36,0,2024-02-27T12:01:10.673Z,english_181.wav,0,pill,403,21,5,5,français,f,3,0.3,7.62752627,1.98777716
6151f078d738db7865f9a6bb,36,0,2024-02-27T12:01:10.673Z,english_181.wav,0,pill,403,21,5,5,français,f,4,0.32341667,53.94324841,0.40706026
6151f078d738db7865f9a6bb,37,0,2024-02-27T12:01:10.673Z,english_153.wav,0,peel,619,21,5,5,français,f,0,0.0,1.34878197,1.20280718
6151f078d738db7865f9a6bb,37,0,2024-02-27T12:01:10.673Z,english_153.wav,0,peel,619,21,5,5,français,f,1,0.1,-86.14475674,1.60924223
6151f078d738db7865f9a6bb,37,0,2024-02-27T12:01:10.673Z,english_153.wav,0,peel,619,21,5,5,français,f,2,0.2,3.24582423,0.94422247
6151f078d738db7865f9a6bb,37,0,2024-02-27T12:01:10.673Z,english_153.wav,0,peel,619,21,5,5,français,f,3,0.3,-6.94068795,0.98008297
6151f078d738db7865f9a6bb,37,0,2024-02-27T12:01:10.673Z,english_153.wav,0,peel,619,21,5,5,français,f,4,0.32341667,-76.91560753,0.34988026
6151f078d738db7865f9a6bb,38,0,2024-02-27T12:01:10.673Z,english_966.wav,0,pill,672,21,5,5,français,f,0,0.0,23.00954068,1.02848684
6151f078d738db7865f9a6bb,38,0,2024-02-27T12:01:10.673Z,english_966.wav,0,pill,672,21,5,5,français,f,1,0.1,-2.7733657,1.22612364
6151f078d738db7865f9a6bb,38,0,2024-02-27T12:01:10.673Z,english_966.wav,0,pill,672,21,5,5,français,f,2,0.2,-6.00176123,0.03461529
6151f078d738db7865f9a6bb,38,0,2024-02-27T12:01:10.673Z,english_966.wav,0,pill,672,21,5,5,français,f,3,0.3,-64.80320904,0.22357585
6151f078d738db7865f9a6bb,38,0,2024-02-27T12:01:10.673Z,english_966.wav,0,pill,672,21,5,5,français,f,4,0.32341667,94.15296916,0.55383001
6151f078d738db7865f9a6bb,39,0,2024-02-27T12:01:10.673Z,english_191.wav,0,pill,800,21,5,5,français,f,0,0.0,5.22709543,0.24693927
6151f078d738db7865f9a6bb,39,0,2024-02-27T12:01:10.673Z,english_191.wav,0,pill,800,21,5,5,français,f,1,0.1,-51.29785688,1.61528443
6151f078d738db7865f9a6bb,39,0,2024-02-27T12:01:10.673Z,english_191.wav,0,pill,800,21,5,5,français,f,2,0.2,14.39503603,0.10158113
6151f078d738db7865f9a6bb,39,0,2024-02-27T12:01:10.673Z,english_191.wav,0,pill,800,21,5,5,français,f,3,0.3,60.50312404,1.02883866
6151f078d738db7865f9a6bb,39,0,2024-02-27T12:01:10.673Z,english_191.wav,0,pill,800,21,5,5,français,f,4,0.32341667,68.15927452,0.69870432
6151f078d738db7865f9a6bb,40,0,2024-02-27T12:01:10.673Z,english_276.wav,0,peel,347,21,5,5,français,f,0,0.0,-87.25523595,1.1918401
6151f078d738db7865f9a6bb,40,0,2024-02-27T12:01:10.673Z,english_276.wav,0,peel,347,21,5,5,français,f,1,0.1,16.91650801,0.89399115
6151f078d738db7865f9a6bb,40,0,2024-02-27T12:01:10.673Z,english_276.wav,0,peel,347,21,5,5,français,f,2,0.2,-40.09372932,0.89701806
6151f078d738db7865f9a6bb,40,0,2024-02-27T12:01:10.673Z,english_276.wav,0,peel,347,21,5,5,français,f,3,0.3,3.19229046,1.98333504
6151f078d738db7865f9a6bb,40,0,2024-02-27T12:01:10.673Z,english_276.wav,0,peel,347,21,5,5,français,f,4,0.32341667,18.84785296,1.85350493
6151f078d738db7865f9a6bb,41,0,2024-02-27T12:01:10.673Z,english_941.wav,0,peel,760,21,5,5,français,f,0,0.0,88.25484185,1.5236155
6151f078d738db7865f9a6bb,41,0,2024-02-27T12:01:10.673Z,english_941.wav,0,peel,760,21,5,5,français,f,1,0.1,29.23312353,0.93469446
6151f078d738db7865f9a6bb,41,0,2024-02-27T12:01:10.673Z,english_941.wav,0,peel,760,21,5,5,français,f,2,0.2,-73.60888885,0.44203051
6151f078d738db7865f9a6bb,41,0,2024-02-27T12:01:10.673Z,english_941.wav,0,peel,760,21,5,5,français,f,3,0.3,-38.35663254,1.28625712
6151f078d738db7865f9a6bb,41,0,2024-02-27T12:01:10.673Z,english_941.wav,0,peel,760,21,5,5,français,f,4,0.32341667,-37.21470774,1.264942
6151f078d738db7865f9a6bb,42,0,2024-02-27T12:01:10.673Z,english_766.wav,0,peel,315,21,5,5,français,f,0,0.0,-86.57417509,1.21737292
6151f078d738db7865f9a6bb,42,0,2024-02-27T12:01:10.673Z,english_766.wav,0,peel,315,21,5,5,français,f,1,0.1,-67.75686223,1.61484435
6151f078d738db7865f9a6bb,42,0,2024-02-27T12:01:10.673Z,english_766.wav,0,peel,315,21,5,5,français,f,2,0.2,74.21258041,1.47872362
6151f078d738db7865f9a6bb,42,0,2024-02-27T12:01:10.673Z,english_766.wav,0,peel,315,21,5,5,français,f,3,0.3,65.20164426,1.81064247
6151f078d738db7865f9a6bb,42,0,2024-02-27T12:01:10.673Z,english_766.wav,0,peel,315,21,5,5,français,f,4,0.32341667,-26.41371036,1.37776493
6151f078d738db7865f9a6bb,43,0,2024-02-27T12:01:10.673Z,english_154.wav,0,peel,295,21,5,5,français,f,0,0.0,69.79630433,0.95543174
6151f078d738db7865f9a6bb,43,0,2024-02-27T12:01:10.673Z,english_154.wav,0,peel,295,21,5,5,français,f,1,0.1,-67.81892388,1.87835363
6151f078d738db7865f9a6bb,43,0,2024-02-27T12:01:10.673Z,english_154.wav,0,peel,295,21,5,5,français,f,2,0.2,14.97335347,1.19287874
6151f078d738db7865f9a6bb,43,0,2024-02-27T12:01:10.673Z,english_154.wav,0,peel,295,21,5,5,français,f,3,0.3,8.47433965,1.12321966
6151f078d738db7865f9a6bb,43,0,2024-02-27T12:01:10.673Z,english_154.wav,0,peel,295,21,5,5,français,f,4,0.32341667,32.47098569,0.66995817
6151f078d738db7865f9a6bb,44,0,2024-02-27T12:01:10.673Z,english_721.wav,0,peel,300,21,5,5,français,f,0,0.0,-1.67193172,0.23966059
6151f078d738db7865f9a6bb,44,0,2024-02-27T12:01:10.673Z,english_721.wav,0,peel,300,21,5,5,français,f,1,0.1,23.81304459,1.61361986
6151f078d738db7865f9a6bb,44,0,2024-02-27T12:01:10.673Z,english_721.wav,0,peel,300,21,5,5,français,f,2,0.2,94.27532923,0.58045828
6151f078d738db7865f9a6bb,44,0,2024-02-27T12:01:10.673Z,english_721.wav,0,peel,300,21,5,5,français,f,3,0.3,10.08520391,1.63757532
6151f078d738db7865f9a6bb,44,0,2024-02-27T12:01:10.673Z,english_721.wav,0,peel,300,21,5,5,français,f,4,0.32341667,-26.68837018,1.4581473
6151f078d738db7865f9a6bb,45,0,2024-02-27T12:01:10.673Z,english_93.wav,0,pill,1041,21,5,5,français,f,0,0.0,-63.58558414,0.84265136
6151f078d738db7865f9a6bb,45,0,2024-02-27T12:01:10.673Z,english_93.wav,0,pill,1041,21,5,5,français,f,1,0.1,47.93190562,0.45441634
6151f078d738db7865f9a6bb,45,0,2024-02-27T12:01:10.673Z,english_93.wav,0,pill,1041,21,5,5,français,f,2,0.2,74.1463043,1.33476805
6151f078d738db7865f9a6bb,45,0,2024-02-27T12:01:10.673Z,english_93.wav,0,pill,1041,21,5,5,français,f,3,0.3,46.42515129,0.61821532
6151f078d738db7865f9a6bb,45,0,2024-02-27T12:01:10.673Z,english_93.wav,0,pill,1041,21,5,5,français,f,4,0.32341667,-19.17332826,1.94889868
6151f078d738db7865f9a6bb,46,0,2024-02-27T12:01:10.673Z,english_557.wav,0,peel,467,21,5,5,français,f,0,0.0,43.94308994,0.38165316
6151f078d738db7865f9a6bb,46,0,2024-02-27T12:01:10.673Z,english_557.wav,0,peel,467,21,5,5,français,f,1,0.1,84.77773598,1.19567933
6151f078d738db7865f9a6bb,46,0,2024-02-27T12:01:10.673Z,english_557.wav,0,peel,467,21,5,5,français,f,2,0.2,-14.75143777,1.35103773
6151f078d738db7865f9a6bb,46,0,2024-02-27T12:01:10.673Z,english_557.wav,0,peel,467,21,5,5,français,f,3,0.3,-37.76141322,1.69174007
6151f078d738db7865f9a6bb,46,0,2024-02-27T12:01:10.673Z,english_557.wav,0,peel,467,21,5,5,français,f,4,0.32341667,-5.99076179,0.4334092
6151f078d738db7865f9a6bb,47,0,2024-02-27T12:01:10.673Z,english_200.wav,0,peel,1566,21,5,5,français,f,0,0.0,48.98677304,1.07797747
6151f078d738db7865f9a6bb,47,0,2024-02-27T12:01:10.673Z,english_200.wav,0,peel,1566,21,5,5,français,f,1,0.1,13.54292536,1.23698451
6151f078d738db7865f9a6bb,47,0,2024-02-27T12:01:10.673Z,english_200.wav,0,peel,1566,21,5,5,français,f,2,0.2,15.98335964,0.85343662
6151f078d738db7865f9a6bb,47,0,2024-02-27T12:01:10.673Z,english_200.wav,0,peel,1566,21,5,5,français,f,3,0.3,-46.7743147,1.38707984
6151f078d738db7865f9a6bb,47,0,2024-02-27T12:01:10.673Z,english_200.wav,0,peel,1566,21,5,5,français,f,4,0.32341667,-12.18386714,0.65409939
6151f078d738db7865f9a6bb,48,0,2024-02-27T12:01:10.673Z,english_690.wav,0,peel,388,21,5,5,français,f,0,0.0,33.047654,1.58265684
6151f078d738db7865f9a6bb,48,0,2024-02-27T12:01:10.673Z,english_690.wav,0,peel,388,21,5,5,français,f,1,0.1,0.0212167444,0.6931717
6151f078d738db7865f9a6bb,48,0,2024-02-27T12:01:10.673Z,english_690.wav,0,peel,388,21,5,5,français,f,2,0.2,21.343237,1.47002515
6151f078d738db7865f9a6bb,48,0,2024-02-27T12:01:10.673Z,english_690.wav,0,peel,388,21,5,5,français,f,3,0.3,35.4710796,1.9856235
6151f078d738db7865f9a6bb,48,0,2024-02-27T12:01:10.673Z,english_690.wav,0,peel,388,21,5,5,français,f,4,0.323416667,79.4400816,1.00479917
6151f078d738db7865f9a6bb,49,0,2024-02-27T12:01:10.673Z,english_290.wav,0,peel,242,21,5,5,français,f,0,0.0,73.71968657,0.30552726
6151f078d738db7865f9a6bb,49,0,2024-02-27T12:01:10.673Z,english_290.wav,0,peel,242,21,5,5,français,f,1,0.1,-59.85317413,1.31636279
6151f078d738db7865f9a6bb,49,0,2024-02-27T12:01:10.673Z,english_290.wav,0,peel,242,21,5,5,français,f,2,0.2,71.1426587,0.54925413
6151f078d738db7865f9a6bb,49,0,2024-02-27T12:01:10.673Z,english_290.wav,0,peel,242,21,5,5,français,f,3,0.3,-18.50007061,1.26204455
6151f078d738db7865f9a6bb,49,0,2024-02-27T12:01:10.673Z,english_290.wav,0,peel,242,21,5,5,français,f,4,0.32341667,-65.91143137,0.60528556
6151f078d738db7865f9a6bb,50,1,2024-02-27T12:01:10.673Z,english_158.wav,0,pill,4716,21,5,5,français,f,0,0.0,33.09785739,1.71128449
6151f078d738db7865f9a6bb,50,1,2024-02-27T12:01:10.673Z,english_158.wav,0,pill,4716,21,5,5,français,f,1,0.1,-85.08083727,1.56145129
6151f078d738db7865f9a6bb,50,1,2024-02-27T12:01:10.673Z,english_158.wav,0,pill,4716,21,5,5,français,f,2,0.2,97.70701203,0.69707892
6151f078d738db7865f9a6bb,50,1,2024-02-27T12:01:10.673Z,english_158.wav,0,pill,4716,21,5,5,français,f,3,0.3,2.54261044,1.19647348
6151f078d738db7865f9a6bb,50,1,2024-02-27T12:01:10.673Z,english_158.wav,0,pill,4716,21,5,5,français,f,4,0.32341667,-59.73934841,1.17782448
6151f078d738db7865f9a6bb,51,1,2024-02-27T12:01:10.673Z,english_932.wav,0,pill,773,21,5,5,français,f,0,0.0,-3.8848098,1.00949787
6151f078d738db7865f9a6bb,51,1,2024-02-27T12:01:10.673Z,english_932.wav,0,pill,773,21,5,5,français,f,1,0.1,-32.48916274,1.44703087
6151f078d738db7865f9a6bb,51,1,2024-02-27T12:01:10.673Z,english_932.wav,0,pill,773,21,5,5,français,f,2,0.2,81.26251807,0.10808594
6151f078d738db7865f9a6bb,51,1,2024-02-27T12:01:10.673Z,english_932.wav,0,pill,773,21,5,5,français,f,3,0.3,-18.23478105,0.03465182
6151f078d738db7865f9a6bb,51,1,2024-02-27T12:01:10.673Z,english_932.wav,0,pill,773,21,5,5,français,f,4,0.32341667,7.90132089,0.79845554
6151f078d738db7865f9a6bb,52,1,2024-02-27T12:01:10.673Z,english_696.wav,0,pill,942,21,5,5,français,f,0,0.0,-48.45243871,0.15817179
6151f078d738db7865f9a6bb,52,1,2024-02-27T12:01:10.673Z,english_696.wav,0,pill,942,21,5,5,français,f,1,0.1,82.41340646,0.69939178
6151f078d738db7865f9a6bb,52,1,2024-02-27T12:01:10.673Z,english_696.wav,0,pill,942,21,5,5,français,f,2,0.2,-7.53339347,1.28466279
6151f078d738db7865f9a6bb,52,1,2024-02-27T12:01:10.673Z,english_696.wav,0,pill,942,21,5,5,français,f,3,0.3,-30.87957178,1.90686052
6151f078d738db7865f9a6bb,52,1,2024-02-27T12:01:10.673Z,english_696.wav,0,pill,942,21,5,5,français,f,4,0.32341667,75.39947922,0.63235415
6151f078d738db7865f9a6bb,53,1,2024-02-27T12:01:10.673Z,english_49.wav,0,peel,1118,21,5,5,français,f,0,0.0,-6.08822071,0.36436507
6151f078d738db7865f9a6bb,53,1,2024-02-27T12:01:10.673Z,english_49.wav,0,peel,1118,21,5,5,français,f,1,0.1,-56.0367764,1.66948988
6151f078d738db7865f9a6bb,53,1,2024-02-27T12:01:10.673Z,english_49.wav,0,peel,1118,21,5,5,français,f,2,0.2,-51.95657584,1.20554654
6151f078d738db7865f9a6bb,53,1,2024-02-27T12:01:10.673Z,english_49.wav,0,peel,1118,21,5,5,français,f,3,0.3,-59.93208112,0.31084089
6151f078d738db7865f9a6bb,53,1,2024-02-27T12:01:10.673Z,english_49.wav,0,peel,1118,21,5,5,français,f,4,0.32341667,-7.85847813,0.44223059
6151f078d738db7865f9a6bb,54,1,2024-02-27T12:01:10.673Z,english_965.wav,0,peel,796,21,5,5,français,f,0,0.0,-19.49526798,1.71910172
6151f078d738db7865f9a6bb,54,1,2024-02-27T12:01:10.673Z,english_965.wav,0,peel,796,21,5,5,français,f,1,0.1,-33.46093545,1.16323176
6151f078d738db7865f9a6bb,54,1,2024-02-27T12:01:10.673Z,english_965.wav,0,peel,796,21,5,5,français,f,2,0.2,95.24809114,0.56514201
6151f078d738db7865f9a6bb,54,1,2024-02-27T12:01:10.673Z,english_965.wav,0,peel,796,21,5,5,français,f,3,0.3,26.23968625,1.82539978
6151f078d738db7865f9a6bb,54,1,2024-02-27T12:01:10.673Z,english_965.wav,0,peel,796,21,5,5,français,f,4,0.32341667,15.70217089,1.7659451
6151f078d738db7865f9a6bb,55,1,2024-02-27T12:01:10.673Z,english_678.wav,0,peel,1029,21,5,5,français,f,0,0.0,87.86222938,1.6760541
6151f078d738db7865f9a6bb,55,1,2024-02-27T12:01:10.673Z,english_678.wav,0,peel,1029,21,5,5,français,f,1,0.1,-47.14792626,0.22369522
6151f078d738db7865f9a6bb,55,1,2024-02-27T12:01:10.673Z,english_678.wav,0,peel,1029,21,5,5,français,f,2,0.2,-6.84659798,1.1260271
6151f078d738db7865f9a6bb,55,1,2024-02-27T12:01:10.673Z,english_678.wav,0,peel,1029,21,5,5,français,f,3,0.3,87.67045201,1.53941447
6151f078d738db7865f9a6bb,55,1,2024-02-27T12:01:10.673Z,english_678.wav,0,peel,1029,21,5,5,français,f,4,0.32341667,-51.71213936,1.37136581
6151f078d738db7865f9a6bb,56,1,2024-02-27T12:01:10.673Z,english_737.wav,0,pill,1083,21,5,5,français,f,0,0.0,21.35751723,1.17499048
6151f078d738db7865f9a6bb,56,1,2024-02-27T12:01:10.673Z,english_737.wav,0,pill,1083,21,5,5,français,f,1,0.1,61.52152077,1.09581395
6151f078d738db7865f9a6bb,56,1,2024-02-27T12:01:10.673Z,english_737.wav,0,pill,1083,21,5,5,français,f,2,0.2,-29.75610596,0.62940412
6151f078d738db7865f9a6bb,56,1,2024-02-27T12:01:10.673Z,english_737.wav,0,pill,1083,21,5,5,français,f,3,0.3,-39.80249708,0.11793022
6151f078d738db7865f9a6bb,56,1,2024-02-27T12:01:10.673Z,english_737.wav,0,pill,1083,21,5,5,français,f,4,0.32341667,-14.64937497,0.62377861
6151f078d738db7865f9a6bb,57,1,2024-02-27T12:01:10.673Z,english_836.wav,0,pill,479,21,5,5,français,f,0,0.0,34.85846782,1.04017402
6151f078d738db7865f9a6bb,57,1,2024-02-27T12:01:10.673Z,english_836.wav,0,pill,479,21,5,5,français,f,1,0.1,41.54458908,0.35535359
6151f078d738db7865f9a6bb,57,1,2024-02-27T12:01:10.673Z,english_836.wav,0,pill,479,21,5,5,français,f,2,0.2,23.27363575,0.10471693
6151f078d738db7865f9a6bb,57,1,2024-02-27T12:01:10.673Z,english_836.wav,0,pill,479,21,5,5,français,f,3,0.3,86.83996211,0.55523491
6151f078d738db7865f9a6bb,57,1,2024-02-27T12:01:10.673Z,english_836.wav,0,pill,479,21,5,5,français,f,4,0.32341667,-32.25656931,0.70311776
6151f078d738db7865f9a6bb,58,1,2024-02-27T12:01:10.673Z,english_964.wav,0,pill,799,21,5,5,français,f,0,0.0,11.04708611,0.74384055
6151f078d738db7865f9a6bb,58,1,2024-02-27T12:01:10.673Z,english_964.wav,0,pill,799,21,5,5,français,f,1,0.1,-10.67848967,0.46038505
6151f078d738db7865f9a6bb,58,1,2024-02-27T12:01:10.673Z,english_964.wav,0,pill,799,21,5,5,français,f,2,0.2,64.95328634,0.80934661
6151f078d738db7865f9a6bb,58,1,2024-02-27T12:01:10.673Z,english_964.wav,0,pill,799,21,5,5,français,f,3,0.3,-78.10341524,1.94282647
6151f078d738db7865f9a6bb,58,1,2024-02-27T12:01:10.673Z,english_964.wav,0,pill,799,21,5,5,français,f,4,0.32341667,-48.61651995,1.99482071
6151f078d738db7865f9a6bb,59,1,2024-02-27T12:01:10.673Z,english_453.wav,0,peel,542,21,5,5,français,f,0,0.0,-60.23429987,1.87756573
6151f078d738db7865f9a6bb,59,1,2024-02-27T12:01:10.673Z,english_453.wav,0,peel,542,21,5,5,français,f,1,0.1,80.38725697,0.94070469
6151f078d738db7865f9a6bb,59,1,2024-02-27T12:01:10.673Z,english_453.wav,0,peel,542,21,5,5,français,f,2,0.2,66.16689695,1.71191258
6151f078d738db7865f9a6bb,59,1,2024-02-27T12:01:10.673Z,english_453.wav,0,peel,542,21,5,5,français,f,3,0.3,-59.46214637,0.56012011
6151f078d738db7865f9a6bb,59,1,2024-02-27T12:01:10.673Z,english_453.wav,0,peel,542,21,5,5,français,f,4,0.32341667,-39.76201882,0.35119419
6151f078d738db7865f9a6bb,60,1,2024-02-27T12:01:10.673Z,english_294.wav,0,peel,419,21,5,5,français,f,0,0.0,-92.15775888,0.74816787
6151f078d738db7865f9a6bb,60,1,2024-02-27T12:01:10.673Z,english_294.wav,0,peel,419,21,5,5,français,f,1,0.1,71.96645866,1.71916745
6151f078d738db7865f9a6bb,60,1,2024-02-27T12:01:10.673Z,english_294.wav,0,peel,419,21,5,5,français,f,2,0.2,-25.46852775,1.7524902
6151f078d738db7865f9a6bb,60,1,2024-02-27T12:01:10.673Z,english_294.wav,0,peel,419,21,5,5,français,f,3,0.3,17.21488016,0.9780509
6151f078d738db7865f9a6bb,60,1,2024-02-27T12:01:10.673Z,english_294.wav,0,peel,419,21,5,5,français,f,4,0.32341667,-10.41176069,1.21177262
6151f078d738db7865f9a6bb,61,1,2024-02-27T12:01:10.673Z,english_295.wav,0,pill,1727,21,5,5,français,f,0,0.0,-76.51454746,1.12273409
6151f078d738db7865f9a6bb,61,1,2024-02-27T12:01:10.673Z,english_295.wav,0,pill,1727,21,5,5,français,f,1,0.1,-96.9380047,0.2018376
6151f078d738db7865f9a6bb,61,1,2024-02-27T12:01:10.673Z,english_295.wav,0,pill,1727,21,5,5,français,f,2,0.2,-72.79782389,1.81703153
6151f078d738db7865f9a6bb,61,1,2024-02-27T12:01:10.673Z,english_295.wav,0,pill,1727,21,5,5,français,f,3,0.3,-31.86888898,0.31799467
6151f078d738db7865f9a6bb,61,1,2024-02-27T12:01:10.673Z,english_295.wav,0,pill,1727,21,5,5,français,f,4,0.32341667,-51.47839766,0.71777059
6151f078d738db7865f9a6bb,62,1,2024-02-27T12:01:10.673Z,english_956.wav,0,pill,491,21,5,5,français,f,0,0.0,-98.71257913,1.5828524
6151f078d738db7865f9a6bb,62,1,2024-02-27T12:01:10.673Z,english_956.wav,0,pill,491,21,5,5,français,f,1,0.1,-36.05702295,0.66985857
6151f078d738db7865f9a6bb,62,1,2024-02-27T12:01:10.673Z,english_956.wav,0,pill,491,21,5,5,français,f,2,0.2,-31.95582623,0.13798036
6151f078d738db7865f9a6bb,62,1,2024-02-27T12:01:10.673Z,english_956.wav,0,pill,491,21,5,5,français,f,3,0.3,-81.31295359,0.22663358
6151f078d738db7865f9a6bb,62,1,2024-02-27T12:01:10.673Z,english_956.wav,0,pill,491,21,5,5,français,f,4,0.32341667,45.09425789,0.54862974
6151f078d738db7865f9a6bb,63,1,2024-02-27T12:01:10.673Z,english_440.wav,0,pill,619,21,5,5,français,f,0,0.0,44.70308901,1.51497438
6151f078d738db7865f9a6bb,63,1,2024-02-27T12:01:10.673Z,english_440.wav,0,pill,619,21,5,5,français,f,1,0.1,-88.0257567,1.05972447
6151f078d738db7865f9a6bb,63,1,2024-02-27T12:01:10.673Z,english_440.wav,0,pill,619,21,5,5,français,f,2,0.2,1.19893433,0.590820378
6151f078d738db7865f9a6bb,63,1,2024-02-27T12:01:10.673Z,english_440.wav,0,pill,619,21,5,5,français,f,3,0.3,19.45485395,0.680586803
6151f078d738db7865f9a6bb,63,1,2024-02-27T12:01:10.673Z,english_440.wav,0,pill,619,21,5,5,français,f,4,0.32341667,13.00088222,0.000618341324
6151f078d738db7865f9a6bb,64,1,2024-02-27T12:01:10.673Z,english_603.wav,0,peel,863,21,5,5,français,f,0,0.0,-14.17444723,1.28295305
6151f078d738db7865f9a6bb,64,1,2024-02-27T12:01:10.673Z,english_603.wav,0,peel,863,21,5,5,français,f,1,0.1,-4.64921339,0.35920956
6151f078d738db7865f9a6bb,64,1,2024-02-27T12:01:10.673Z,english_603.wav,0,peel,863,21,5,5,français,f,2,0.2,-23.32469505,0.60281559
6151f078d738db7865f9a6bb,64,1,2024-02-27T12:01:10.673Z,english_603.wav,0,peel,863,21,5,5,français,f,3,0.3,-59.01260874,0.58107079
6151f078d738db7865f9a6bb,64,1,2024-02-27T12:01:10.673Z,english_603.wav,0,peel,863,21,5,5,français,f,4,0.32341667,88.53711532,1.19087365
6151f078d738db7865f9a6bb,65,1,2024-02-27T12:01:10.673Z,english_488.wav,0,peel,266,21,5,5,français,f,0,0.0,7.19120882,0.55609806
6151f078d738db7865f9a6bb,65,1,2024-02-27T12:01:10.673Z,english_488.wav,0,peel,266,21,5,5,français,f,1,0.1,11.64873536,1.36121935
6151f078d738db7865f9a6bb,65,1,2024-02-27T12:01:10.673Z,english_488.wav,0,peel,266,21,5,5,français,f,2,0.2,59.26032861,0.93872915
6151f078d738db7865f9a6bb,65,1,2024-02-27T12:01:10.673Z,english_488.wav,0,peel,266,21,5,5,français,f,3,0.3,-31.0631162,1.52041262
6151f078d738db7865f9a6bb,65,1,2024-02-27T12:01:10.673Z,english_488.wav,0,peel,266,21,5,5,français,f,4,0.32341667,23.8619583,1.83140972
6151f078d738db7865f9a6bb,66,1,2024-02-27T12:01:10.673Z,english_192.wav,0,peel,369,21,5,5,français,f,0,0.0,78.04280759,0.73118961
6151f078d738db7865f9a6bb,66,1,2024-02-27T12:01:10.673Z,english_192.wav,0,peel,369,21,5,5,français,f,1,0.1,-85.52188616,0.7164391
6151f078d738db7865f9a6bb,66,1,2024-02-27T12:01:10.673Z,english_192.wav,0,peel,369,21,5,5,français,f,2,0.2,-14.2601202,1.68273927
6151f078d738db7865f9a6bb,66,1,2024-02-27T12:01:10.673Z,english_192.wav,0,peel,369,21,5,5,français,f,3,0.3,29.76504865,0.51501418
6151f078d738db7865f9a6bb,66,1,2024-02-27T12:01:10.673Z,english_192.wav,0,peel,369,21,5,5,français,f,4,0.32341667,82.81048791,1.16986294
6151f078d738db7865f9a6bb,67,1,2024-02-27T12:01:10.673Z,english_976.wav,0,peel,299,21,5,5,français,f,0,0.0,-92.49082032,0.30893725
6151f078d738db7865f9a6bb,67,1,2024-02-27T12:01:10.673Z,english_976.wav,0,peel,299,21,5,5,français,f,1,0.1,92.01562452,1.54393752
6151f078d738db7865f9a6bb,67,1,2024-02-27T12:01:10.673Z,english_976.wav,0,peel,299,21,5,5,français,f,2,0.2,-80.55764576,1.31466429
6151f078d738db7865f9a6bb,67,1,2024-02-27T12:01:10.673Z,english_976.wav,0,peel,299,21,5,5,français,f,3,0.3,-70.09009567,1.88171095
6151f078d738db7865f9a6bb,67,1,2024-02-27T12:01:10.673Z,english_976.wav,0,peel,299,21,5,5,français,f,4,0.32341667,-7.5394989,1.71314556
6151f078d738db7865f9a6bb,68,1,2024-02-27T12:01:10.673Z,english_676.wav,0,peel,421,21,5,5,français,f,0,0.0,3.93099148,1.7716209
6151f078d738db7865f9a6bb,68,1,2024-02-27T12:01:10.673Z,english_676.wav,0,peel,421,21,5,5,français,f,1,0.1,73.76311644,1.97281878
6151f078d738db7865f9a6bb,68,1,2024-02-27T12:01:10.673Z,english_676.wav,0,peel,421,21,5,5,français,f,2,0.2,-26.92634129,1.42487848
6151f078d738db7865f9a6bb,68,1,2024-02-27T12:01:10.673Z,english_676.wav,0,peel,421,21,5,5,français,f,3,0.3,51.70874443,1.45099775
6151f078d738db7865f9a6bb,68,1,2024-02-27T12:01:10.673Z,english_676.wav,0,peel,421,21,5,5,français,f,4,0.32341667,-48.7675791,1.84822532
6151f078d738db7865f9a6bb,69,1,2024-02-27T12:01:10.673Z,english_555.wav,0,peel,362,21,5,5,français,f,0,0.0,69.49762262,1.08530069
6151f078d738db7865f9a6bb,69,1,2024-02-27T12:01:10.673Z,english_555.wav,0,peel,362,21,5,5,français,f,1,0.1,42.72159746,0.99979939
6151f078d738db7865f9a6bb,69,1,2024-02-27T12:01:10.673Z,english_555.wav,0,peel,362,21,5,5,français,f,2,0.2,96.74773092,1.75882447
6151f078d738db7865f9a6bb,69,1,2024-02-27T12:01:10.673Z,english_555.wav,0,peel,362,21,5,5,français,f,3,0.3,-27.92411753,1.36775981
6151f078d738db7865f9a6bb,69,1,2024-02-27T12:01:10.673Z,english_555.wav,0,peel,362,21,5,5,français,f,4,0.32341667,33.93273626,0.90104071
6151f078d738db7865f9a6bb,70,1,2024-02-27T12:01:10.673Z,english_583.wav,0,peel,511,21,5,5,français,f,0,0.0,-35.26485382,0.11557093
6151f078d738db7865f9a6bb,70,1,2024-02-27T12:01:10.673Z,english_583.wav,0,peel,511,21,5,5,français,f,1,0.1,-69.50197994,0.9917357
6151f078d738db7865f9a6bb,70,1,2024-02-27T12:01:10.673Z,english_583.wav,0,peel,511,21,5,5,français,f,2,0.2,73.6796048,1.33727714
6151f078d738db7865f9a6bb,70,1,2024-02-27T12:01:10.673Z,english_583.wav,0,peel,511,21,5,5,français,f,3,0.3,-1.04664171,0.97646566
6151f078d738db7865f9a6bb,70,1,2024-02-27T12:01:10.673Z,english_583.wav,0,peel,511,21,5,5,français,f,4,0.32341667,-55.46924107,1.06585671
6151f078d738db7865f9a6bb,71,1,2024-02-27T12:01:10.673Z,english_41.wav,0,pill,401,21,5,5,français,f,0,0.0,42.21237724,0.98996482
6151f078d738db7865f9a6bb,71,1,2024-02-27T12:01:10.673Z,english_41.wav,0,pill,401,21,5,5,français,f,1,0.1,33.8271633,0.77076848
6151f078d738db7865f9a6bb,71,1,2024-02-27T12:01:10.673Z,english_41.wav,0,pill,401,21,5,5,français,f,2,0.2,20.96644351,0.37402384
6151f078d738db7865f9a6bb,71,1,2024-02-27T12:01:10.673Z,english_41.wav,0,pill,401,21,5,5,français,f,3,0.3,-53.61985723,1.98545705
6151f078d738db7865f9a6bb,71,1,2024-02-27T12:01:10.673Z,english_41.wav,0,pill,401,21,5,5,français,f,4,0.32341667,-55.68725705,1.53352273
6151f078d738db7865f9a6bb,72,1,2024-02-27T12:01:10.673Z,english_758.wav,0,peel,273,21,5,5,français,f,0,0.0,-56.29380511,1.72966744
6151f078d738db7865f9a6bb,72,1,2024-02-27T12:01:10.673Z,english_758.wav,0,peel,273,21,5,5,français,f,1,0.1,1.29517397,1.20455484
6151f078d738db7865f9a6bb,72,1,2024-02-27T12:01:10.673Z,english_758.wav,0,peel,273,21,5,5,français,f,2,0.2,49.77366466,0.98441853
6151f078d738db7865f9a6bb,72,1,2024-02-27T12:01:10.673Z,english_758.wav,0,peel,273,21,5,5,français,f,3,0.3,51.49077837,0.78323536
6151f078d738db7865f9a6bb,72,1,2024-02-27T12:01:10.673Z,english_758.wav,0,peel,273,21,5,5,français,f,4,0.32341667,80.19813303,1.88107652
6151f078d738db7865f9a6bb,73,1,2024-02-27T12:01:10.673Z,english_743.wav,0,pill,1114,21,5,5,français,f,0,0.0,-28.24983145,1.42102626
6151f078d738db7865f9a6bb,73,1,2024-02-27T12:01:10.673Z,english_743.wav,0,pill,1114,21,5,5,français,f,1,0.1,71.30498545,0.84283155
6151f078d738db7865f9a6bb,73,1,2024-02-27T12:01:10.673Z,english_743.wav,0,pill,1114,21,5,5,français,f,2,0.2,-89.00652632,0.82757129
6151f078d738db7865f9a6bb,73,1,2024-02-27T12:01:10.673Z,english_743.wav,0,pill,1114,21,5,5,français,f,3,0.3,3.43441779,1.38808557
6151f078d738db7865f9a6bb,73,1,2024-02-27T12:01:10.673Z,english_743.wav,0,pill,1114,21,5,5,français,f,4,0.32341667,-16.71659348,0.28501565
6151f078d738db7865f9a6bb,74,1,2024-02-27T12:01:10.673Z,english_799.wav,0,peel,434,21,5,5,français,f,0,0.0,-48.4958847,1.9233431
6151f078d738db7865f9a6bb,74,1,2024-02-27T12:01:10.673Z,english_799.wav,0,peel,434,21,5,5,français,f,1,0.1,-9.52866418,1.11542891
6151f078d738db7865f9a6bb,74,1,2024-02-27T12:01:10.673Z,english_799.wav,0,peel,434,21,5,5,français,f,2,0.2,1.94176449,0.95865462
6151f078d738db7865f9a6bb,74,1,2024-02-27T12:01:10.673Z,english_799.wav,0,peel,434,21,5,5,français,f,3,0.3,5.71676827,0.6616034
6151f078d738db7865f9a6bb,74,1,2024-02-27T12:01:10.673Z,english_799.wav,0,peel,434,21,5,5,français,f,4,0.32341667,30.27282792,1.91183458
6151f078d738db7865f9a6bb,75,1,2024-02-27T12:01:10.673Z,english_313.wav,0,pill,823,21,5,5,français,f,0,0.0,63.86599335,0.35841412
6151f078d738db7865f9a6bb,75,1,2024-02-27T12:01:10.673Z,english_313.wav,0,pill,823,21,5,5,français,f,1,0.1,-55.89800258,0.35021793
6151f078d738db7865f9a6bb,75,1,2024-02-27T12:01:10.673Z,english_313.wav,0,pill,823,21,5,5,français,f,2,0.2,90.86254046,1.77750413
6151f078d738db7865f9a6bb,75,1,2024-02-27T12:01:10.673Z,english_313.wav,0,pill,823,21,5,5,français,f,3,0.3,0.53087649,1.87396687
6151f078d738db7865f9a6bb,75,1,2024-02-27T12:01:10.673Z,english_313.wav,0,pill,823,21,5,5,français,f,4,0.32341667,-69.87913817,1.16176786
6151f078d738db7865f9a6bb,76,1,2024-02-27T12:01:10.673Z,english_875.wav,0,pill,1317,21,5,5,français,f,0,0.0,-72.29566874,0.47412948
6151f078d738db7865f9a6bb,76,1,2024-02-27T12:01:10.673Z,english_875.wav,0,pill,1317,21,5,5,français,f,1,0.1,40.49821439,0.97105678
6151f078d738db7865f9a6bb,76,1,2024-02-27T12:01:10.673Z,english_875.wav,0,pill,1317,21,5,5,français,f,2,0.2,61.66936014,1.31175081
6151f078d738db7865f9a6bb,76,1,2024-02-27T12:01:10.673Z,english_875.wav,0,pill,1317,21,5,5,français,f,3,0.3,36.92950197,0.55015514
6151f078d738db7865f9a6bb,76,1,2024-02-27T12:01:10.673Z,english_875.wav,0,pill,1317,21,5,5,français,f,4,0.32341667,61.03530789,1.23529794
6151f078d738db7865f9a6bb,77,1,2024-02-27T12:01:10.673Z,english_906.wav,0,peel,389,21,5,5,français,f,0,0.0,-40.48589107,1.22436898
6151f078d738db7865f9a6bb,77,1,2024-02-27T12:01:10.673Z,english_906.wav,0,peel,389,21,5,5,français,f,1,0.1,47.48995475,1.54823641
6151f078d738db7865f9a6bb,77,1,2024-02-27T12:01:10.673Z,english_906.wav,0,peel,389,21,5,5,français,f,2,0.2,-46.73743802,1.02590908
6151f078d738db7865f9a6bb,77,1,2024-02-27T12:01:10.673Z,english_906.wav,0,peel,389,21,5,5,français,f,3,0.3,-97.96557374,1.74877791
6151f078d738db7865f9a6bb,77,1,2024-02-27T12:01:10.673Z,english_906.wav,0,peel,389,21,5,5,français,f,4,0.32341667,18.48293991,0.76585735
6151f078d738db7865f9a6bb,78,1,2024-02-27T12:01:10.673Z,english_70.wav,0,peel,554,21,5,5,français,f,0,0.0,-53.09237622,1.21678364
6151f078d738db7865f9a6bb,78,1,2024-02-27T12:01:10.673Z,english_70.wav,0,peel,554,21,5,5,français,f,1,0.1,85.97526897,0.94111324
6151f078d738db7865f9a6bb,78,1,2024-02-27T12:01:10.673Z,english_70.wav,0,peel,554,21,5,5,français,f,2,0.2,25.5645184,1.03926055
6151f078d738db7865f9a6bb,78,1,2024-02-27T12:01:10.673Z,english_70.wav,0,peel,554,21,5,5,français,f,3,0.3,1.25172137,0.29519406
6151f078d738db7865f9a6bb,78,1,2024-02-27T12:01:10.673Z,english_70.wav,0,peel,554,21,5,5,français,f,4,0.32341667,93.59431896,0.80175783
6151f078d738db7865f9a6bb,79,1,2024-02-27T12:01:10.673Z,english_281.wav,0,pill,508,21,5,5,français,f,0,0.0,-55.42099824,1.64310908
6151f078d738db7865f9a6bb,79,1,2024-02-27T12:01:10.673Z,english_281.wav,0,pill,508,21,5,5,français,f,1,0.1,30.44020676,0.76997124
6151f078d738db7865f9a6bb,79,1,2024-02-27T12:01:10.673Z,english_281.wav,0,pill,508,21,5,5,français,f,2,0.2,53.34739709,0.1940809
6151f078d738db7865f9a6bb,79,1,2024-02-27T12:01:10.673Z,english_281.wav,0,pill,508,21,5,5,français,f,3,0.3,-32.26512488,0.25794937
6151f078d738db7865f9a6bb,79,1,2024-02-27T12:01:10.673Z,english_281.wav,0,pill,508,21,5,5,français,f,4,0.32341667,-59.86883114,1.27043487
6151f078d738db7865f9a6bb,80,1,2024-02-27T12:01:10.673Z,english_752.wav,0,peel,254,21,5,5,français,f,0,0.0,-89.50526135,1.26833375
6151f078d738db7865f9a6bb,80,1,2024-02-27T12:01:10.673Z,english_752.wav,0,peel,254,21,5,5,français,f,1,0.1,16.42916277,1.25445964
6151f078d738db7865f9a6bb,80,1,2024-02-27T12:01:10.673Z,english_752.wav,0,peel,254,21,5,5,français,f,2,0.2,-62.11724863,1.84048801
6151f078d738db7865f9a6bb,80,1,2024-02-27T12:01:10.673Z,english_752.wav,0,peel,254,21,5,5,français,f,3,0.3,-22.7839786,0.96813738
6151f078d738db7865f9a6bb,80,1,2024-02-27T12:01:10.673Z,english_752.wav,0,peel,254,21,5,5,français,f,4,0.32341667,21.77934146,1.95604557
6151f078d738db7865f9a6bb,81,1,2024-02-27T12:01:10.673Z,english_258.wav,0,pill,736,21,5,5,français,f,0,0.0,-7.1133109,1.89026761
6151f078d738db7865f9a6bb,81,1,2024-02-27T12:01:10.673Z,english_258.wav,0,pill,736,21,5,5,français,f,1,0.1,44.58564752,1.79361992
6151f078d738db7865f9a6bb,81,1,2024-02-27T12:01:10.673Z,english_258.wav,0,pill,736,21,5,5,français,f,2,0.2,45.36800295,0.43687845
6151f078d738db7865f9a6bb,81,1,2024-02-27T12:01:10.673Z,english_258.wav,0,pill,736,21,5,5,français,f,3,0.3,25.81301737,0.04688612
6151f078d738db7865f9a6bb,81,1,2024-02-27T12:01:10.673Z,english_258.wav,0,pill,736,21,5,5,français,f,4,0.32341667,-77.97513924,0.52567924
6151f078d738db7865f9a6bb,82,1,2024-02-27T12:01:10.673Z,english_358.wav,0,peel,983,21,5,5,français,f,0,0.0,-24.40280242,0.64702298
6151f078d738db7865f9a6bb,82,1,2024-02-27T12:01:10.673Z,english_358.wav,0,peel,983,21,5,5,français,f,1,0.1,62.18566088,0.86836285
6151f078d738db7865f9a6bb,82,1,2024-02-27T12:01:10.673Z,english_358.wav,0,peel,983,21,5,5,français,f,2,0.2,5.26675109,1.05826104
6151f078d738db7865f9a6bb,82,1,2024-02-27T12:01:10.673Z,english_358.wav,0,peel,983,21,5,5,français,f,3,0.3,-31.91571391,1.98011631
6151f078d738db7865f9a6bb,82,1,2024-02-27T12:01:10.673Z,english_358.wav,0,peel,983,21,5,5,français,f,4,0.32341667,27.35112364,0.35058307
6151f078d738db7865f9a6bb,83,1,2024-02-27T12:01:10.673Z,english_601.wav,0,peel,916,21,5,5,français,f,0,0.0,54.32401431,0.08668951
6151f078d738db7865f9a6bb,83,1,2024-02-27T12:01:10.673Z,english_601.wav,0,peel,916,21,5,5,français,f,1,0.1,-6.72935942,1.16468766
6151f078d738db7865f9a6bb,83,1,2024-02-27T12:01:10.673Z,english_601.wav,0,peel,916,21,5,5,français,f,2,0.2,39.12079493,1.8612572
6151f078d738db7865f9a6bb,83,1,2024-02-27T12:01:10.673Z,english_601.wav,0,peel,916,21,5,5,français,f,3,0.3,39.92141387,0.92171433
6151f078d738db7865f9a6bb,83,1,2024-02-27T12:01:10.673Z,english_601.wav,0,peel,916,21,5,5,français,f,4,0.32341667,-27.14681087,0.50419734
6151f078d738db7865f9a6bb,84,1,2024-02-27T12:01:10.673Z,english_589.wav,0,peel,560,21,5,5,français,f,0,0.0,58.55453646,1.98928345
6151f078d738db7865f9a6bb,84,1,2024-02-27T12:01:10.673Z,english_589.wav,0,peel,560,21,5,5,français,f,1,0.1,30.45164265,1.49107718
6151f078d738db7865f9a6bb,84,1,2024-02-27T12:01:10.673Z,english_589.wav,0,peel,560,21,5,5,français,f,2,0.2,-45.43400091,0.52639062
6151f078d738db7865f9a6bb,84,1,2024-02-27T12:01:10.673Z,english_589.wav,0,peel,560,21,5,5,français,f,3,0.3,84.99084473,0.34590986
6151f078d738db7865f9a6bb,84,1,2024-02-27T12:01:10.673Z,english_589.wav,0,peel,560,21,5,5,français,f,4,0.32341667,65.45411119,0.67022481
6151f078d738db7865f9a6bb,85,1,2024-02-27T12:01:10.673Z,english_350.wav,0,pill,688,21,5,5,français,f,0,0.0,97.64268741,0.61487918
6151f078d738db7865f9a6bb,85,1,2024-02-27T12:01:10.673Z,english_350.wav,0,pill,688,21,5,5,français,f,1,0.1,23.96704837,0.40988424
6151f078d738db7865f9a6bb,85,1,2024-02-27T12:01:10.673Z,english_350.wav,0,pill,688,21,5,5,français,f,2,0.2,50.30792237,0.86872158
6151f078d738db7865f9a6bb,85,1,2024-02-27T12:01:10.673Z,english_350.wav,0,pill,688,21,5,5,français,f,3,0.3,71.77937185,1.01783109
6151f078d738db7865f9a6bb,85,1,2024-02-27T12:01:10.673Z,english_350.wav,0,pill,688,21,5,5,français,f,4,0.32341667,-64.81416361,0.68761283
6151f078d738db7865f9a6bb,86,1,2024-02-27T12:01:10.673Z,english_306.wav,0,peel,328,21,5,5,français,f,0,0.0,-78.46406697,1.96625377
6151f078d738db7865f9a6bb,86,1,2024-02-27T12:01:10.673Z,english_306.wav,0,peel,328,21,5,5,français,f,1,0.1,-60.64765069,1.9128761
6151f078d738db7865f9a6bb,86,1,2024-02-27T12:01:10.673Z,english_306.wav,0,peel,328,21,5,5,français,f,2,0.2,41.654101,0.92284414
6151f078d738db7865f9a6bb,86,1,2024-02-27T12:01:10.673Z,english_306.wav,0,peel,328,21,5,5,français,f,3,0.3,58.45609749,1.12546267
6151f078d738db7865f9a6bb,86,1,2024-02-27T12:01:10.673Z,english_306.wav,0,peel,328,21,5,5,français,f,4,0.32341667,-89.32145871,0.77622038
6151f078d738db7865f9a6bb,87,1,2024-02-27T12:01:10.673Z,english_133.wav,0,pill,625,21,5,5,français,f,0,0.0,12.35833749,0.72635311
6151f078d738db7865f9a6bb,87,1,2024-02-27T12:01:10.673Z,english_133.wav,0,pill,625,21,5,5,français,f,1,0.1,40.12315016,1.38782059
6151f078d738db7865f9a6bb,87,1,2024-02-27T12:01:10.673Z,english_133.wav,0,pill,625,21,5,5,français,f,2,0.2,21.09458129,0.15947395
6151f078d738db7865f9a6bb,87,1,2024-02-27T12:01:10.673Z,english_133.wav,0,pill,625,21,5,5,français,f,3,0.3,-98.82286682,0.28433836
6151f078d738db7865f9a6bb,87,1,2024-02-27T12:01:10.673Z,english_133.wav,0,pill,625,21,5,5,français,f,4,0.32341667,-85.44748976,1.2581514
6151f078d738db7865f9a6bb,88,1,2024-02-27T12:01:10.673Z,english_203.wav,0,pill,485,21,5,5,français,f,0,0.0,-22.28277813,1.31475846
6151f078d738db7865f9a6bb,88,1,2024-02-27T12:01:10.673Z,english_203.wav,0,pill,485,21,5,5,français,f,1,0.1,13.21695477,1.08922412
6151f078d738db7865f9a6bb,88,1,2024-02-27T12:01:10.673Z,english_203.wav,0,pill,485,21,5,5,français,f,2,0.2,63.23651974,0.55450355
6151f078d738db7865f9a6bb,88,1,2024-02-27T12:01:10.673Z,english_203.wav,0,pill,485,21,5,5,français,f,3,0.3,-20.14830746,1.72034007
6151f078d738db7865f9a6bb,88,1,2024-02-27T12:01:10.673Z,english_203.wav,0,pill,485,21,5,5,français,f,4,0.32341667,-78.55276631,0.92481053
6151f078d738db7865f9a6bb,89,1,2024-02-27T12:01:10.673Z,english_460.wav,0,pill,472,21,5,5,français,f,0,0.0,-93.21492338,1.97422145
6151f078d738db7865f9a6bb,89,1,2024-02-27T12:01:10.673Z,english_460.wav,0,pill,472,21,5,5,français,f,1,0.1,-65.59669931,0.48313428
6151f078d738db7865f9a6bb,89,1,2024-02-27T12:01:10.673Z,english_460.wav,0,pill,472,21,5,5,français,f,2,0.2,76.47030005,0.91916034
6151f078d738db7865f9a6bb,89,1,2024-02-27T12:01:10.673Z,english_460.wav,0,pill,472,21,5,5,français,f,3,0.3,-24.62267943,0.34121923
6151f078d738db7865f9a6bb,89,1,2024-02-27T12:01:10.673Z,english_460.wav,0,pill,472,21,5,5,français,f,4,0.32341667,17.6428759,0.75894887
6151f078d738db7865f9a6bb,90,1,2024-02-27T12:01:10.673Z,english_124.wav,0,peel,276,21,5,5,français,f,0,0.0,-16.92140416,1.25482105
6151f078d738db7865f9a6bb,90,1,2024-02-27T12:01:10.673Z,english_124.wav,0,peel,276,21,5,5,français,f,1,0.1,97.41289205,1.97830042
6151f078d738db7865f9a6bb,90,1,2024-02-27T12:01:10.673Z,english_124.wav,0,peel,276,21,5,5,français,f,2,0.2,-78.49167412,1.09846955
6151f078d738db7865f9a6bb,90,1,2024-02-27T12:01:10.673Z,english_124.wav,0,peel,276,21,5,5,français,f,3,0.3,-3.48618202,0.36540564
6151f078d738db7865f9a6bb,90,1,2024-02-27T12:01:10.673Z,english_124.wav,0,peel,276,21,5,5,français,f,4,0.32341667,5.32047068,0.96325389
6151f078d738db7865f9a6bb,91,1,2024-02-27T12:01:10.673Z,english_167.wav,0,pill,454,21,5,5,français,f,0,0.0,57.26975159,0.44729063
6151f078d738db7865f9a6bb,91,1,2024-02-27T12:01:10.673Z,english_167.wav,0,pill,454,21,5,5,français,f,1,0.1,54.31010869,1.623568
6151f078d738db7865f9a6bb,91,1,2024-02-27T12:01:10.673Z,english_167.wav,0,pill,454,21,5,5,français,f,2,0.2,99.57020207,0.28743218
6151f078d738db7865f9a6bb,91,1,2024-02-27T12:01:10.673Z,english_167.wav,0,pill,454,21,5,5,français,f,3,0.3,27.92735821,0.71837494
6151f078d738db7865f9a6bb,91,1,2024-02-27T12:01:10.673Z,english_167.wav,0,pill,454,21,5,5,français,f,4,0.32341667,73.13424206,1.35815305
6151f078d738db7865f9a6bb,92,1,2024-02-27T12:01:10.673Z,english_723.wav,0,pill,731,21,5,5,français,f,0,0.0,-85.17156731,1.02541656
6151f078d738db7865f9a6bb,92,1,2024-02-27T12:01:10.673Z,english_723.wav,0,pill,731,21,5,5,français,f,1,0.1,92.93654667,0.92088513
6151f078d738db7865f9a6bb,92,1,2024-02-27T12:01:10.673Z,english_723.wav,0,pill,731,21,5,5,français,f,2,0.2,-28.89042756,0.78256854
6151f078d738db7865f9a6bb,92,1,2024-02-27T12:01:10.673Z,english_723.wav,0,pill,731,21,5,5,français,f,3,0.3,36.79914563,1.22887413
6151f078d738db7865f9a6bb,92,1,2024-02-27T12:01:10.673Z,english_723.wav,0,pill,731,21,5,5,français,f,4,0.32341667,6.86426773,1.77193963
6151f078d738db7865f9a6bb,93,1,2024-02-27T12:01:10.673Z,english_493.wav,0,peel,447,21,5,5,français,f,0,0.0,42.62366846,0.72879325
6151f078d738db7865f9a6bb,93,1,2024-02-27T12:01:10.673Z,english_493.wav,0,peel,447,21,5,5,français,f,1,0.1,-24.95330968,1.87742997
6151f078d738db7865f9a6bb,93,1,2024-02-27T12:01:10.673Z,english_493.wav,0,peel,447,21,5,5,français,f,2,0.2,82.3526737,1.69463318
6151f078d738db7865f9a6bb,93,1,2024-02-27T12:01:10.673Z,english_493.wav,0,peel,447,21,5,5,français,f,3,0.3,53.78370402,0.82529142
6151f078d738db7865f9a6bb,93,1,2024-02-27T12:01:10.673Z,english_493.wav,0,peel,447,21,5,5,français,f,4,0.32341667,-52.5410085,0.10126548
6151f078d738db7865f9a6bb,94,1,2024-02-27T12:01:10.673Z,english_148.wav,0,pill,650,21,5,5,français,f,0,0.0,-15.87588743,0.13468567
6151f078d738db7865f9a6bb,94,1,2024-02-27T12:01:10.673Z,english_148.wav,0,pill,650,21,5,5,français,f,1,0.1,66.05332506,1.11017862
6151f078d738db7865f9a6bb,94,1,2024-02-27T12:01:10.673Z,english_148.wav,0,pill,650,21,5,5,français,f,2,0.2,50.59551539,0.42983488
6151f078d738db7865f9a6bb,94,1,2024-02-27T12:01:10.673Z,english_148.wav,0,pill,650,21,5,5,français,f,3,0.3,-59.45276716,0.2729575
6151f078d738db7865f9a6bb,94,1,2024-02-27T12:01:10.673Z,english_148.wav,0,pill,650,21,5,5,français,f,4,0.32341667,58.4155276,0.65396017
6151f078d738db7865f9a6bb,95,1,2024-02-27T12:01:10.673Z,english_808.wav,0,pill,539,21,5,5,français,f,0,0.0,23.02589628,1.07384277
6151f078d738db7865f9a6bb,95,1,2024-02-27T12:01:10.673Z,english_808.wav,0,pill,539,21,5,5,français,f,1,0.1,10.58817829,1.3919179
6151f078d738db7865f9a6bb,95,1,2024-02-27T12:01:10.673Z,english_808.wav,0,pill,539,21,5,5,français,f,2,0.2,36.77134597,0.54960524
6151f078d738db7865f9a6bb,95,1,2024-02-27T12:01:10.673Z,english_808.wav,0,pill,539,21,5,5,français,f,3,0.3,-30.31603221,1.95871365
6151f078d738db7865f9a6bb,95,1,2024-02-27T12:01:10.673Z,english_808.wav,0,pill,539,21,5,5,français,f,4,0.32341667,9.74764343,0.79150541
6151f078d738db7865f9a6bb,96,1,2024-02-27T12:01:10.673Z,english_810.wav,0,pill,287,21,5,5,français,f,0,0.0,44.6757801,0.77700382
6151f078d738db7865f9a6bb,96,1,2024-02-27T12:01:10.673Z,english_810.wav,0,pill,287,21,5,5,français,f,1,0.1,-98.4252216,1.25917073
6151f078d738db7865f9a6bb,96,1,2024-02-27T12:01:10.673Z,english_810.wav,0,pill,287,21,5,5,français,f,2,0.2,55.4106213,0.78203472
6151f078d738db7865f9a6bb,96,1,2024-02-27T12:01:10.673Z,english_810.wav,0,pill,287,21,5,5,français,f,3,0.3,-18.4676839,1.13021068
6151f078d738db7865f9a6bb,96,1,2024-02-27T12:01:10.673Z,english_810.wav,0,pill,287,21,5,5,français,f,4,0.323416667,0.0259169543,0.14578676
6151f078d738db7865f9a6bb,97,1,2024-02-27T12:01:10.673Z,english_818.wav,0,pill,352,21,5,5,français,f,0,0.0,88.49542613,1.4873036
6151f078d738db7865f9a6bb,97,1,2024-02-27T12:01:10.673Z,english_818.wav,0,pill,352,21,5,5,français,f,1,0.1,-7.37005163,1.25102077
6151f078d738db7865f9a6bb,97,1,2024-02-27T12:01:10.673Z,english_818.wav,0,pill,352,21,5,5,français,f,2,0.2,-1.58613611,0.80764036
6151f078d738db7865f9a6bb,97,1,2024-02-27T12:01:10.673Z,english_818.wav,0,pill,352,21,5,5,français,f,3,0.3,-69.41222379,0.80656775
6151f078d738db7865f9a6bb,97,1,2024-02-27T12:01:10.673Z,english_818.wav,0,pill,352,21,5,5,français,f,4,0.32341667,14.01707612,1.41859799
6151f078d738db7865f9a6bb,98,1,2024-02-27T12:01:10.673Z,english_409.wav,0,pill,366,21,5,5,français,f,0,0.0,-24.04105399,0.29560797
6151f078d738db7865f9a6bb,98,1,2024-02-27T12:01:10.673Z,english_409.wav,0,pill,366,21,5,5,français,f,1,0.1,-26.67389605,1.53762848
6151f078d738db7865f9a6bb,98,1,2024-02-27T12:01:10.673Z,english_409.wav,0,pill,366,21,5,5,français,f,2,0.2,23.9966363,0.34602898
6151f078d738db7865f9a6bb,98,1,2024-02-27T12:01:10.673Z,english_409.wav,0,pill,366,21,5,5,français,f,3,0.3,16.61705293,1.21824435
6151f078d738db7865f9a6bb,98,1,2024-02-27T12:01:10.673Z,english_409.wav,0,pill,366,21,5,5,français,f,4,0.32341667,73.09980407,1.55330233
6151f078d738db7865f9a6bb,99,1,2024-02-27T12:01:10.673Z,english_828.wav,0,peel,1233,21,5,5,français,f,0,0.0,51.6479082,0.4417702
6151f078d738db7865f9a6bb,99,1,2024-02-27T12:01:10.673Z,english_828.wav,0,peel,1233,21,5,5,français,f,1,0.1,37.62818293,1.22957458
6151f078d738db7865f9a6bb,99,1,2024-02-27T12:01:10.673Z,english_828.wav,0,peel,1233,21,5,5,français,f,2,0.2,55.79615955,0.69909727
6151f078d738db7865f9a6bb,99,1,2024-02-27T12:01:10.673Z,english_828.wav,0,peel,1233,21,5,5,français,f,3,0.3,31.91979646,1.572544
6151f078d738db7865f9a6bb,99,1,2024-02-27T12:01:10.673Z,english_828.wav,0,peel,1233,21,5,5,français,f,4,0.32341667,-22.21091203,0.87669833
6151f078d738db7865f9a6bb,100,2,2024-02-27T12:01:10.673Z,english_526.wav,0,pill,1051,21,5,5,français,f,0,0.0,-32.34532461,0.924261
6151f078d738db7865f9a6bb,100,2,2024-02-27T12:01:10.673Z,english_526.wav,0,pill,1051,21,5,5,français,f,1,0.1,-46.6208459,0.25414499
6151f078d738db7865f9a6bb,100,2,2024-02-27T12:01:10.673Z,english_526.wav,0,pill,1051,21,5,5,français,f,2,0.2,-42.84927068,1.01925886
6151f078d738db7865f9a6bb,100,2,2024-02-27T12:01:10.673Z,english_526.wav,0,pill,1051,21,5,5,français,f,3,0.3,3.47643827,0.65966822
6151f078d738db7865f9a6bb,100,2,2024-02-27T12:01:10.673Z,english_526.wav,0,pill,1051,21,5,5,français,f,4,0.32341667,52.79087598,1.50872035
6151f078d738db7865f9a6bb,101,2,2024-02-27T12:01:10.673Z,english_45.wav,0,peel,316,21,5,5,français,f,0,0.0,72.55677234,0.302627
6151f078d738db7865f9a6bb,101,2,2024-02-27T12:01:10.673Z,english_45.wav,0,peel,316,21,5,5,français,f,1,0.1,34.43244276,1.957389
6151f078d738db7865f9a6bb,101,2,2024-02-27T12:01:10.673Z,english_45.wav,0,peel,316,21,5,5,français,f,2,0.2,12.66368291,1.1456601
6151f078d738db7865f9a6bb,101,2,2024-02-27T12:01:10.673Z,english_45.wav,0,peel,316,21,5,5,français,f,3,0.3,47.17471186,1.77472104
6151f078d738db7865f9a6bb,101,2,2024-02-27T12:01:10.673Z,english_45.wav,0,peel,316,21,5,5,français,f,4,0.32341667,-48.2883803,1.7760992
6151f078d738db7865f9a6bb,102,2,2024-02-27T12:01:10.673Z,english_381.wav,0,pill,821,21,5,5,français,f,0,0.0,-64.83599525,0.77808766
6151f078d738db7865f9a6bb,102,2,2024-02-27T12:01:10.673Z,english_381.wav,0,pill,821,21,5,5,français,f,1,0.1,97.61236857,1.62635576
6151f078d738db7865f9a6bb,102,2,2024-02-27T12:01:10.673Z,english_381.wav,0,pill,821,21,5,5,français,f,2,0.2,-60.27157178,0.65298664
6151f078d738db7865f9a6bb,102,2,2024-02-27T12:01:10.673Z,english_381.wav,0,pill,821,21,5,5,français,f,3,0.3,84.45732791,0.46881793
6151f078d738db7865f9a6bb,102,2,2024-02-27T12:01:10.673Z,english_381.wav,0,pill,821,21,5,5,français,f,4,0.32341667,-87.53832291,1.22836965
6151f078d738db7865f9a6bb,103,2,2024-02-27T12:01:10.673Z,english_188.wav,0,peel,1592,21,5,5,français,f,0,0.0,-13.13088252,0.29227292
6151f078d738db7865f9a6bb,103,2,2024-02-27T12:01:10.673Z,english_188.wav,0,peel,1592,21,5,5,français,f,1,0.1,51.13663316,1.25360943
6151f078d738db7865f9a6bb,103,2,2024-02-27T12:01:10.673Z,english_188.wav,0,peel,1592,21,5,5,français,f,2,0.2,-80.18048506,1.7916357
6151f078d738db7865f9a6bb,103,2,2024-02-27T12:01:10.673Z,english_188.wav,0,peel,1592,21,5,5,français,f,3,0.3,-47.89773773,0.58346705
6151f078d738db7865f9a6bb,103,2,2024-02-27T12:01:10.673Z,english_188.wav,0,peel,1592,21,5,5,français,f,4,0.32341667,-7.0568118,1.77612328
6151f078d738db7865f9a6bb,104,2,2024-02-27T12:01:10.673Z,english_34.wav,0,peel,692,21,5,5,français,f,0,0.0,-48.07924103,1.44836266
6151f078d738db7865f9a6bb,104,2,2024-02-27T12:01:10.673Z,english_34.wav,0,peel,692,21,5,5,français,f,1,0.1,-64.84739183,1.89580324
6151f078d738db7865f9a6bb,104,2,2024-02-27T12:01:10.673Z,english_34.wav,0,peel,692,21,5,5,français,f,2,0.2,-20.81716265,0.64308549
6151f078d738db7865f9a6bb,104,2,2024-02-27T12:01:10.673Z,english_34.wav,0,peel,692,21,5,5,français,f,3,0.3,91.13652067,0.0848332
6151f078d738db7865f9a6bb,104,2,2024-02-27T12:01:10.673Z,english_34.wav,0,peel,692,21,5,5,français,f,4,0.32341667,-54.46543937,0.8036564
6151f078d738db7865f9a6bb,105,2,2024-02-27T12:01:10.673Z,english_160.wav,0,peel,783,21,5,5,français,f,0,0.0,2.54964477,0.54357393
6151f078d738db7865f9a6bb,105,2,2024-02-27T12:01:10.673Z,english_160.wav,0,peel,783,21,5,5,français,f,1,0.1,26.84692557,1.29343216
6151f078d738db7865f9a6bb,105,2,2024-02-27T12:01:10.673Z,english_160.wav,0,peel,783,21,5,5,français,f,2,0.2,72.58457191,0.42070854
6151f078d738db7865f9a6bb,105,2,2024-02-27T12:01:10.673Z,english_160.wav,0,peel,783,21,5,5,français,f,3,0.3,-6.94481249,1.04489529
6151f078d738db7865f9a6bb,105,2,2024-02-27T12:01:10.673Z,english_160.wav,0,peel,783,21,5,5,français,f,4,0.32341667,35.80656171,0.26802137
6151f078d738db7865f9a6bb,106,2,2024-02-27T12:01:10.673Z,english_89.wav,0,pill,653,21,5,5,français,f,0,0.0,-42.28936571,1.68633095
6151f078d738db7865f9a6bb,106,2,2024-02-27T12:01:10.673Z,english_89.wav,0,pill,653,21,5,5,français,f,1,0.1,12.96738115,0.49078122
6151f078d738db7865f9a6bb,106,2,2024-02-27T12:01:10.673Z,english_89.wav,0,pill,653,21,5,5,français,f,2,0.2,-0.92476461,0.75584791
6151f078d738db7865f9a6bb,106,2,2024-02-27T12:01:10.673Z,english_89.wav,0,pill,653,21,5,5,français,f,3,0.3,54.46155283,1.37155139
6151f078d738db7865f9a6bb,106,2,2024-02-27T12:01:10.673Z,english_89.wav,0,pill,653,21,5,5,français,f,4,0.32341667,-5.27724964,0.6613642
6151f078d738db7865f9a6bb,107,2,2024-02-27T12:01:10.673Z,english_681.wav,0,peel,602,21,5,5,français,f,0,0.0,65.45313908,1.43173201
6151f078d738db7865f9a6bb,107,2,2024-02-27T12:01:10.673Z,english_681.wav,0,peel,602,21,5,5,français,f,1,0.1,23.22224239,1.64604346
6151f078d738db7865f9a6bb,107,2,2024-02-27T12:01:10.673Z,english_681.wav,0,peel,602,21,5,5,français,f,2,0.2,44.35096717,0.82186037
6151f078d738db7865f9a6bb,107,2,2024-02-27T12:01:10.673Z,english_681.wav,0,peel,602,21,5,5,français,f,3,0.3,67.45757963,0.26689352
6151f078d738db7865f9a6bb,107,2,2024-02-27T12:01:10.673Z,english_681.wav,0,peel,602,21,5,5,français,f,4,0.32341667,55.5822091,1.64490636
6151f078d738db7865f9a6bb,108,2,2024-02-27T12:01:10.673Z,english_215.wav,0,peel,788,21,5,5,français,f,0,0.0,-93.71362427,1.31176069
6151f078d738db7865f9a6bb,108,2,2024-02-27T12:01:10.673Z,english_215.wav,0,peel,788,21,5,5,français,f,1,0.1,20.4696733,1.25536714
6151f078d738db7865f9a6bb,108,2,2024-02-27T12:01:10.673Z,english_215.wav,0,peel,788,21,5,5,français,f,2,0.2,-66.57352715,1.5696385
6151f078d738db7865f9a6bb,108,2,2024-02-27T12:01:10.673Z,english_215.wav,0,peel,788,21,5,5,français,f,3,0.3,-0.6079782,0.03144419
6151f078d738db7865f9a6bb,108,2,2024-02-27T12:01:10.673Z,english_215.wav,0,peel,788,21,5,5,français,f,4,0.32341667,-5.73921948,0.79048669
6151f078d738db7865f9a6bb,109,2,2024-02-27T12:01:10.673Z,english_244.wav,0,peel,261,21,5,5,français,f,0,0.0,-70.20374383,1.65134166
6151f078d738db7865f9a6bb,109,2,2024-02-27T12:01:10.673Z,english_244.wav,0,peel,261,21,5,5,français,f,1,0.1,67.84882107,1.23738837
6151f078d738db7865f9a6bb,109,2,2024-02-27T12:01:10.673Z,english_244.wav,0,peel,261,21,5,5,français,f,2,0.2,0.61676271,0.90147553
6151f078d738db7865f9a6bb,109,2,2024-02-27T12:01:10.673Z,english_244.wav,0,peel,261,21,5,5,français,f,3,0.3,-96.58934439,1.79293216
6151f078d738db7865f9a6bb,109,2,2024-02-27T12:01:10.673Z,english_244.wav,0,peel,261,21,5,5,français,f,4,0.32341667,-77.46985837,1.15013727
6151f078d738db7865f9a6bb,110,2,2024-02-27T12:01:10.673Z,english_317.wav,0,peel,437,21,5,5,français,f,0,0.0,-26.75650792,1.75672771
6151f078d738db7865f9a6bb,110,2,2024-02-27T12:01:10.673Z,english_317.wav,0,peel,437,21,5,5,français,f,1,0.1,9.07297032,1.82949168
6151f078d738db7865f9a6bb,110,2,2024-02-27T12:01:10.673Z,english_317.wav,0,peel,437,21,5,5,français,f,2,0.2,17.58512652,1.6954519
6151f078d738db7865f9a6bb,110,2,2024-02-27T12:01:10.673Z,english_317.wav,0,peel,437,21,5,5,français,f,3,0.3,29.57201507,0.7122411
6151f078d738db7865f9a6bb,110,2,2024-02-27T12:01:10.673Z,english_317.wav,0,peel,437,21,5,5,français,f,4,0.32341667,56.4667582,1.26753728
6151f078d738db7865f9a6bb,111,2,2024-02-27T12:01:10.673Z,english_859.wav,0,pill,573,21,5,5,français,f,0,0.0,71.31858369,0.11764496
6151f078d738db7865f9a6bb,111,2,2024-02-27T12:01:10.673Z,english_859.wav,0,pill,573,21,5,5,français,f,1,0.1,-33.60875554,0.29827778
6151f078d738db7865f9a6bb,111,2,2024-02-27T12:01:10.673Z,english_859.wav,0,pill,573,21,5,5,français,f,2,0.2,-64.15502461,0.43254339
6151f078d738db7865f9a6bb,111,2,2024-02-27T12:01:10.673Z,english_859.wav,0,pill,573,21,5,5,français,f,3,0.3,-36.22537369,0.12368506
6151f078d738db7865f9a6bb,111,2,2024-02-27T12:01:10.673Z,english_859.wav,0,pill,573,21,5,5,français,f,4,0.32341667,-23.59955866,0.97858169
6151f078d738db7865f9a6bb,112,2,2024-02-27T12:01:10.673Z,english_174.wav,0,pill,412,21,5,5,français,f,0,0.0,-14.93169449,0.27768215
6151f078d738db7865f9a6bb,112,2,2024-02-27T12:01:10.673Z,english_174.wav,0,pill,412,21,5,5,français,f,1,0.1,-60.50222611,0.13809097
6151f078d738db7865f9a6bb,112,2,2024-02-27T12:01:10.673Z,english_174.wav,0,pill,412,21,5,5,français,f,2,0.2,-88.67347191,0.18584848
6151f078d738db7865f9a6bb,112,2,2024-02-27T12:01:10.673Z,english_174.wav,0,pill,412,21,5,5,français,f,3,0.3,-20.58504224,1.46718454
6151f078d738db7865f9a6bb,112,2,2024-02-27T12:01:10.673Z,english_174.wav,0,pill,412,21,5,5,français,f,4,0.32341667,-52.28073567,0.17567705
6151f078d738db7865f9a6bb,113,2,2024-02-27T12:01:10.673Z,english_674.wav,0,peel,397,21,5,5,français,f,0,0.0,-38.60253285,0.25488683
6151f078d738db7865f9a6bb,113,2,2024-02-27T12:01:10.673Z,english_674.wav,0,peel,397,21,5,5,français,f,1,0.1,46.14948962,1.80679583
6151f078d738db7865f9a6bb,113,2,2024-02-27T12:01:10.673Z,english_674.wav,0,peel,397,21,5,5,français,f,2,0.2,-49.76414787,1.59420413
6151f078d738db7865f9a6bb,113,2,2024-02-27T12:01:10.673Z,english_674.wav,0,peel,397,21,5,5,français,f,3,0.3,-66.16492387,1.25714797
6151f078d738db7865f9a6bb,113,2,2024-02-27T12:01:10.673Z,english_674.wav,0,peel,397,21,5,5,français,f,4,0.32341667,28.37583826,1.20557216
6151f078d738db7865f9a6bb,114,2,2024-02-27T12:01:10.673Z,english_847.wav,0,peel,264,21,5,5,français,f,0,0.0,76.45550118,0.38890762
6151f078d738db7865f9a6bb,114,2,2024-02-27T12:01:10.673Z,english_847.wav,0,peel,264,21,5,5,français,f,1,0.1,-18.38123868,1.01718805
6151f078d738db7865f9a6bb,114,2,2024-02-27T12:01:10.673Z,english_847.wav,0,peel,264,21,5,5,français,f,2,0.2,18.403778,1.24872656
6151f078d738db7865f9a6bb,114,2,2024-02-27T12:01:10.673Z,english_847.wav,0,peel,264,21,5,5,français,f,3,0.3,57.196546,0.81951257
6151f078d738db7865f9a6bb,114,2,2024-02-27T12:01:10.673Z,english_847.wav,0,peel,264,21,5,5,français,f,4,0.32341667,32.99763753,0.74194876
6151f078d738db7865f9a6bb,115,2,2024-02-27T12:01:10.673Z,english_803.wav,0,peel,666,21,5,5,français,f,0,0.0,8.73756077,1.22190991
6151f078d738db7865f9a6bb,115,2,2024-02-27T12:01:10.673Z,english_803.wav,0,peel,666,21,5,5,français,f,1,0.1,-41.53503623,1.08276728
6151f078d738db7865f9a6bb,115,2,2024-02-27T12:01:10.673Z,english_803.wav,0,peel,666,21,5,5,français,f,2,0.2,-84.76471985,1.59545905
6151f078d738db7865f9a6bb,115,2,2024-02-27T12:01:10.673Z,english_803.wav,0,peel,666,21,5,5,français,f,3,0.3,-27.96408635,1.3875394
6151f078d738db7865f9a6bb,115,2,2024-02-27T12:01:10.673Z,english_803.wav,0,peel,666,21,5,5,français,f,4,0.32341667,72.02290108,0.92287786
6151f078d738db7865f9a6bb,116,2,2024-02-27T12:01:10.673Z,english_532.wav,0,peel,1176,21,5,5,français,f,0,0.0,-19.59321792,1.69826346
6151f078d738db7865f9a6bb,116,2,2024-02-27T12:01:10.673Z,english_532.wav,0,peel,1176,21,5,5,français,f,1,0.1,84.44945775,1.19849103
6151f078d738db7865f9a6bb,116,2,2024-02-27T12:01:10.673Z,english_532.wav,0,peel,1176,21,5,5,français,f,2,0.2,-5.6477907,0.05164805
6151f078d738db7865f9a6bb,116,2,2024-02-27T12:01:10.673Z,english_532.wav,0,peel,1176,21,5,5,français,f,3,0.3,-66.11375502,0.74129516
6151f078d738db7865f9a6bb,116,2,2024-02-27T12:01:10.673Z,english_532.wav,0,peel,1176,21,5,5,français,f,4,0.32341667,-46.16722618,0.11393119
6151f078d738db7865f9a6bb,117,2,2024-02-27T12:01:10.673Z,english_722.wav,0,pill,829,21,5,5,français,f,0,0.0,56.33358757,0.09194264
6151f078d738db7865f9a6bb,117,2,2024-02-27T12:01:10.673Z,english_722.wav,0,pill,829,21,5,5,français,f,1,0.1,-63.11389498,1.89550133
6151f078d738db7865f9a6bb,117,2,2024-02-27T12:01:10.673Z,english_722.wav,0,pill,829,21,5,5,français,f,2,0.2,65.64746862,0.18403216
6151f078d738db7865f9a6bb,117,2,2024-02-27T12:01:10.673Z,english_722.wav,0,pill,829,21,5,5,français,f,3,0.3,-93.10605514,1.23223326
6151f078d738db7865f9a6bb,117,2,2024-02-27T12:01:10.673Z,english_722.wav,0,pill,829,21,5,5,français,f,4,0.32341667,-45.92743551,0.28331892
6151f078d738db7865f9a6bb,118,2,2024-02-27T12:01:10.673Z,english_779.wav,0,pill,1155,21,5,5,français,f,0,0.0,-66.48303018,1.22216448
6151f078d738db7865f9a6bb,118,2,2024-02-27T12:01:10.673Z,english_779.wav,0,pill,1155,21,5,5,français,f,1,0.1,55.33592885,1.30288261
6151f078d738db7865f9a6bb,118,2,2024-02-27T12:01:10.673Z,english_779.wav,0,pill,1155,21,5,5,français,f,2,0.2,67.38671669,0.25409759
6151f078d738db7865f9a6bb,118,2,2024-02-27T12:01:10.673Z,english_779.wav,0,pill,1155,21,5,5,français,f,3,0.3,65.49052189,1.76174581
6151f078d738db7865f9a6bb,118,2,2024-02-27T12:01:10.673Z,english_779.wav,0,pill,1155,21,5,5,français,f,4,0.32341667,-12.12955258,0.12280057
6151f078d738db7865f9a6bb,119,2,2024-02-27T12:01:10.673Z,english_388.wav,0,pill,390,21,5,5,français,f,0,0.0,17.9760939,0.95494184
6151f078d738db7865f9a6bb,119,2,2024-02-27T12:01:10.673Z,english_388.wav,0,pill,390,21,5,5,français,f,1,0.1,-43.00340989,0.10281418
6151f078d738db7865f9a6bb,119,2,2024-02-27T12:01:10.673Z,english_388.wav,0,pill,390,21,5,5,français,f,2,0.2,-30.55059063,1.52164503
6151f078d738db7865f9a6bb,119,2,2024-02-27T12:01:10.673Z,english_388.wav,0,pill,390,21,5,5,français,f,3,0.3,-92.55876504,1.24827519
6151f078d738db7865f9a6bb,119,2,2024-02-27T12:01:10.673Z,english_388.wav,0,pill,390,21,5,5,français,f,4,0.32341667,-64.21175873,0.08180338
6151f078d738db7865f9a6bb,120,2,2024-02-27T12:01:10.673Z,english_391.wav,0,pill,486,21,5,5,français,f,0,0.0,67.64906061,0.41951577
6151f078d738db7865f9a6bb,120,2,2024-02-27T12:01:10.673Z,english_391.wav,0,pill,486,21,5,5,français,f,1,0.1,79.28195584,0.03526883
6151f078d738db7865f9a6bb,120,2,2024-02-27T12:01:10.673Z,english_391.wav,0,pill,486,21,5,5,français,f,2,0.2,62.27299227,0.81828659
6151f078d738db7865f9a6bb,120,2,2024-02-27T12:01:10.673Z,english_391.wav,0,pill,486,21,5,5,français,f,3,0.3,-11.10764883,1.2900604
6151f078d738db7865f9a6bb,120,2,2024-02-27T12:01:10.673Z,english_391.wav,0,pill,486,21,5,5,français,f,4,0.32341667,57.41338752,1.95373865
6151f078d738db7865f9a6bb,121,2,2024-02-27T12:01:10.673Z,english_684.wav,0,peel,323,21,5,5,français,f,0,0.0,0.36394418,1.65924935
6151f078d738db7865f9a6bb,121,2,2024-02-27T12:01:10.673Z,english_684.wav,0,peel,323,21,5,5,français,f,1,0.1,28.47964645,1.32149406
6151f078d738db7865f9a6bb,121,2,2024-02-27T12:01:10.673Z,english_684.wav,0,peel,323,21,5,5,français,f,2,0.2,60.47995017,0.32417562
6151f078d738db7865f9a6bb,121,2,2024-02-27T12:01:10.673Z,english_684.wav,0,peel,323,21,5,5,français,f,3,0.3,-33.43266819,1.42108385
6151f078d738db7865f9a6bb,121,2,2024-02-27T12:01:10.673Z,english_684.wav,0,peel,323,21,5,5,français,f,4,0.32341667,-31.86672206,1.29243289
6151f078d738db7865f9a6bb,122,2,2024-02-27T12:01:10.673Z,english_237.wav,0,pill,499,21,5,5,français,f,0,0.0,-40.35335157,0.42178982
6151f078d738db7865f9a6bb,122,2,2024-02-27T12:01:10.673Z,english_237.wav,0,pill,499,21,5,5,français,f,1,0.1,42.86374565,0.6060796
6151f078d738db7865f9a6bb,122,2,2024-02-27T12:01:10.673Z,english_237.wav,0,pill,499,21,5,5,français,f,2,0.2,7.79480372,0.58312984
6151f078d738db7865f9a6bb,122,2,2024-02-27T12:01:10.673Z,english_237.wav,0,pill,499,21,5,5,français,f,3,0.3,-48.50613844,1.50499267
6151f078d738db7865f9a6bb,122,2,2024-02-27T12:01:10.673Z,english_237.wav,0,pill,499,21,5,5,français,f,4,0.32341667,17.78174719,1.72211243
6151f078d738db7865f9a6bb,123,2,2024-02-27T12:01:10.673Z,english_456.wav,0,pill,688,21,5,5,français,f,0,0.0,43.57092671,0.12750432
6151f078d738db7865f9a6bb,123,2,2024-02-27T12:01:10.673Z,english_456.wav,0,pill,688,21,5,5,français,f,1,0.1,59.73787768,0.97340157
6151f078d738db7865f9a6bb,123,2,2024-02-27T12:01:10.673Z,english_456.wav,0,pill,688,21,5,5,français,f,2,0.2,82.18665257,0.43547726
6151f078d738db7865f9a6bb,123,2,2024-02-27T12:01:10.673Z,english_456.wav,0,pill,688,21,5,5,français,f,3,0.3,84.09992258,1.17970357
6151f078d738db7865f9a6bb,123,2,2024-02-27T12:01:10.673Z,english_456.wav,0,pill,688,21,5,5,français,f,4,0.32341667,14.68455092,0.64309566
6151f078d738db7865f9a6bb,124,2,2024-02-27T12:01:10.673Z,english_40.wav,0,pill,473,21,5,5,français,f,0,0.0,20.98315678,0.33544846
6151f078d738db7865f9a6bb,124,2,2024-02-27T12:01:10.673Z,english_40.wav,0,pill,473,21,5,5,français,f,1,0.1,80.64974175,0.81764939
6151f078d738db7865f9a6bb,124,2,2024-02-27T12:01:10.673Z,english_40.wav,0,pill,473,21,5,5,français,f,2,0.2,5.38930518,0.17548883
6151f078d738db7865f9a6bb,124,2,2024-02-27T12:01:10.673Z,english_40.wav,0,pill,473,21,5,5,français,f,3,0.3,18.83593916,0.83674413
6151f078d738db7865f9a6bb,124,2,2024-02-27T12:01:10.673Z,english_40.wav,0,pill,473,21,5,5,français,f,4,0.32341667,-14.62145671,0.80890384
6151f078d738db7865f9a6bb,125,2,2024-02-27T12:01:10.673Z,english_4.wav,0,peel,1612,21,5,5,français,f,0,0.0,97.57442054,1.3122383
6151f078d738db7865f9a6bb,125,2,2024-02-27T12:01:10.673Z,english_4.wav,0,peel,1612,21,5,5,français,f,1,0.1,57.41970729,1.27661748
6151f078d738db7865f9a6bb,125,2,2024-02-27T12:01:10.673Z,english_4.wav,0,peel,1612,21,5,5,français,f,2,0.2,32.67065062,1.16138222
6151f078d738db7865f9a6bb,125,2,2024-02-27T12:01:10.673Z,english_4.wav,0,peel,1612,21,5,5,français,f,3,0.3,34.06011343,0.34510216
6151f078d738db7865f9a6bb,125,2,2024-02-27T12:01:10.673Z,english_4.wav,0,peel,1612,21,5,5,français,f,4,0.32341667,83.59797788,1.84938224
6151f078d738db7865f9a6bb,126,2,2024-02-27T12:01:10.673Z,english_217.wav,0,pill,423,21,5,5,français,f,0,0.0,-87.44045162,1.20965721
6151f078d738db7865f9a6bb,126,2,2024-02-27T12:01:10.673Z,english_217.wav,0,pill,423,21,5,5,français,f,1,0.1,26.67222095,0.05295089
6151f078d738db7865f9a6bb,126,2,2024-02-27T12:01:10.673Z,english_217.wav,0,pill,423,21,5,5,français,f,2,0.2,97.90977363,1.23557872
6151f078d738db7865f9a6bb,126,2,2024-02-27T12:01:10.673Z,english_217.wav,0,pill,423,21,5,5,français,f,3,0.3,4.49718441,1.80752812
6151f078d738db7865f9a6bb,126,2,2024-02-27T12:01:10.673Z,english_217.wav,0,pill,423,21,5,5,français,f,4,0.32341667,13.31384309,1.57586313
6151f078d738db7865f9a6bb,127,2,2024-02-27T12:01:10.673Z,english_877.wav,0,pill,330,21,5,5,français,f,0,0.0,49.36401037,1.25510861
6151f078d738db7865f9a6bb,127,2,2024-02-27T12:01:10.673Z,english_877.wav,0,pill,330,21,5,5,français,f,1,0.1,15.17280231,0.84700305
6151f078d738db7865f9a6bb,127,2,2024-02-27T12:01:10.673Z,english_877.wav,0,pill,330,21,5,5,français,f,2,0.2,22.36436744,0.32703774
6151f078d738db7865f9a6bb,127,2,2024-02-27T12:01:10.673Z,english_877.wav,0,pill,330,21,5,5,français,f,3,0.3,-25.51979868,1.72637958
6151f078d738db7865f9a6bb,127,2,2024-02-27T12:01:10.673Z,english_877.wav,0,pill,330,21,5,5,français,f,4,0.32341667,-55.72443313,0.52117686
6151f078d738db7865f9a6bb,128,2,2024-02-27T12:01:10.673Z,english_767.wav,0,pill,1540,21,5,5,français,f,0,0.0,29.63321135,0.17563718
6151f078d738db7865f9a6bb,128,2,2024-02-27T12:01:10.673Z,english_767.wav,0,pill,1540,21,5,5,français,f,1,0.1,-31.63783795,0.61981002
6151f078d738db7865f9a6bb,128,2,2024-02-27T12:01:10.673Z,english_767.wav,0,pill,1540,21,5,5,français,f,2,0.2,56.53254366,1.38773128
6151f078d738db7865f9a6bb,128,2,2024-02-27T12:01:10.673Z,english_767.wav,0,pill,1540,21,5,5,français,f,3,0.3,52.69149806,1.37795514
6151f078d738db7865f9a6bb,128,2,2024-02-27T12:01:10.673Z,english_767.wav,0,pill,1540,21,5,5,français,f,4,0.32341667,-0.8536295,1.97315338
6151f078d738db7865f9a6bb,129,2,2024-02-27T12:01:10.673Z,english_349.wav,0,peel,273,21,5,5,français,f,0,0.0,-10.00495534,0.36915768
6151f078d738db7865f9a6bb,129,2,2024-02-27T12:01:10.673Z,english_349.wav,0,peel,273,21,5,5,français,f,1,0.1,54.31199814,0.83111041
6151f078d738db7865f9a6bb,129,2,2024-02-27T12:01:10.673Z,english_349.wav,0,peel,273,21,5,5,français,f,2,0.2,48.17968705,1.70147194
6151f078d738db7865f9a6bb,129,2,2024-02-27T12:01:10.673Z,english_349.wav,0,peel,273,21,5,5,français,f,3,0.3,8.48926652,1.08588898
6151f078d738db7865f9a6bb,129,2,2024-02-27T12:01:10.673Z,english_349.wav,0,peel,273,21,5,5,français,f,4,0.32341667,42.05620052,0.02584958
6151f078d738db7865f9a6bb,130,2,2024-02-27T12:01:10.673Z,english_595.wav,0,peel,236,21,5,5,français,f,0,0.0,-39.84727911,1.6526444
6151f078d738db7865f9a6bb,130,2,2024-02-27T12:01:10.673Z,english_595.wav,0,peel,236,21,5,5,français,f,1,0.1,-68.85607622,1.11711065
6151f078d738db7865f9a6bb,130,2,2024-02-27T12:01:10.673Z,english_595.wav,0,peel,236,21,5,5,français,f,2,0.2,23.68364187,1.96516016
6151f078d738db7865f9a6bb,130,2,2024-02-27T12:01:10.673Z,english_595.wav,0,peel,236,21,5,5,français,f,3,0.3,-80.51887658,0.34053421
6151f078d738db7865f9a6bb,130,2,2024-02-27T12:01:10.673Z,english_595.wav,0,peel,236,21,5,5,français,f,4,0.32341667,-94.66311932,1.22603371
6151f078d738db7865f9a6bb,131,2,2024-02-27T12:01:10.673Z,english_511.wav,0,peel,924,21,5,5,français,f,0,0.0,-54.05076571,1.68448531
6151f078d738db7865f9a6bb,131,2,2024-02-27T12:01:10.673Z,english_511.wav,0,peel,924,21,5,5,français,f,1,0.1,58.21305336,0.64957271
6151f078d738db7865f9a6bb,131,2,2024-02-27T12:01:10.673Z,english_511.wav,0,peel,924,21,5,5,français,f,2,0.2,93.28984864,1.47534814
6151f078d738db7865f9a6bb,131,2,2024-02-27T12:01:10.673Z,english_511.wav,0,peel,924,21,5,5,français,f,3,0.3,-93.08437199,1.38615571
6151f078d738db7865f9a6bb,131,2,2024-02-27T12:01:10.673Z,english_511.wav,0,peel,924,21,5,5,français,f,4,0.32341667,48.49476441,0.71972648
6151f078d738db7865f9a6bb,132,2,2024-02-27T12:01:10.673Z,english_300.wav,0,peel,309,21,5,5,français,f,0,0.0,-57.32903368,1.31106943
6151f078d738db7865f9a6bb,132,2,2024-02-27T12:01:10.673Z,english_300.wav,0,peel,309,21,5,5,français,f,1,0.1,-14.80176218,1.36432179
6151f078d738db7865f9a6bb,132,2,2024-02-27T12:01:10.673Z,english_300.wav,0,peel,309,21,5,5,français,f,2,0.2,17.32090115,1.9756976
6151f078d738db7865f9a6bb,132,2,2024-02-27T12:01:10.673Z,english_300.wav,0,peel,309,21,5,5,français,f,3,0.3,9.38584248,1.38621255
6151f078d738db7865f9a6bb,132,2,2024-02-27T12:01:10.673Z,english_300.wav,0,peel,309,21,5,5,français,f,4,0.32341667,-54.58865419,1.60203422
6151f078d738db7865f9a6bb,133,2,2024-02-27T12:01:10.673Z,english_271.wav,0,peel,252,21,5,5,français,f,0,0.0,24.41564841,0.25667552
6151f078d738db7865f9a6bb,133,2,2024-02-27T12:01:10.673Z,english_271.wav,0,peel,252,21,5,5,français,f,1,0.1,-64.42577909,1.20221217
6151f078d738db7865f9a6bb,133,2,2024-02-27T12:01:10.673Z,english_271.wav,0,peel,252,21,5,5,français,f,2,0.2,32.27025317,0.24658485
6151f078d738db7865f9a6bb,133,2,2024-02-27T12:01:10.673Z,english_271.wav,0,peel,252,21,5,5,français,f,3,0.3,58.71212772,1.57844265
6151f078d738db7865f9a6bb,133,2,2024-02-27T12:01:10.673Z,english_271.wav,0,peel,252,21,5,5,français,f,4,0.32341667,46.7300547,1.00400066
6151f078d738db7865f9a6bb,134,2,2024-02-27T12:01:10.673Z,english_123.wav,0,peel,328,21,5,5,français,f,0,0.0,67.91608163,1.13046919
6151f078d738db7865f9a6bb,134,2,2024-02-27T12:01:10.673Z,english_123.wav,0,peel,328,21,5,5,français,f,1,0.1,-92.32097988,1.99597614
6151f078d738db7865f9a6bb,134,2,2024-02-27T12:01:10.673Z,english_123.wav,0,peel,328,21,5,5,français,f,2,0.2,57.07371841,1.53523853
6151f078d738db7865f9a6bb,134,2,2024-02-27T12:01:10.673Z,english_123.wav,0,peel,328,21,5,5,français,f,3,0.3,19.28317816,0.24385811
6151f078d738db7865f9a6bb,134,2,2024-02-27T12:01:10.673Z,english_123.wav,0,peel,328,21,5,5,français,f,4,0.32341667,15.30546887,0.39158976
6151f078d738db7865f9a6bb,135,2,2024-02-27T12:01:10.673Z,english_907.wav,0,peel,520,21,5,5,français,f,0,0.0,13.97638225,0.68575839
6151f078d738db7865f9a6bb,135,2,2024-02-27T12:01:10.673Z,english_907.wav,0,peel,520,21,5,5,français,f,1,0.1,36.81481791,1.58611259
6151f078d738db7865f9a6bb,135,2,2024-02-27T12:01:10.673Z,english_907.wav,0,peel,520,21,5,5,français,f,2,0.2,1.21651202,1.59547025
6151f078d738db7865f9a6bb,135,2,2024-02-27T12:01:10.673Z,english_907.wav,0,peel,520,21,5,5,français,f,3,0.3,35.47405672,0.75888392
6151f078d738db7865f9a6bb,135,2,2024-02-27T12:01:10.673Z,english_907.wav,0,peel,520,21,5,5,français,f,4,0.32341667,-27.93760057,0.06937964
6151f078d738db7865f9a6bb,136,2,2024-02-27T12:01:10.673Z,english_111.wav,0,pill,546,21,5,5,français,f,0,0.0,43.12539807,1.84745579
6151f078d738db7865f9a6bb,136,2,2024-02-27T12:01:10.673Z,english_111.wav,0,pill,546,21,5,5,français,f,1,0.1,63.99665526,0.92577031
6151f078d738db7865f9a6bb,136,2,2024-02-27T12:01:10.673Z,english_111.wav,0,pill,546,21,5,5,français,f,2,0.2,86.04570556,0.31264784
6151f078d738db7865f9a6bb,136,2,2024-02-27T12:01:10.673Z,english_111.wav,0,pill,546,21,5,5,français,f,3,0.3,-25.76798659,0.89352032
6151f078d738db7865f9a6bb,136,2,2024-02-27T12:01:10.673Z,english_111.wav,0,pill,546,21,5,5,français,f,4,0.32341667,-36.14422463,0.32138535
6151f078d738db7865f9a6bb,137,2,2024-02-27T12:01:10.673Z,english_446.wav,0,pill,422,21,5,5,français,f,0,0.0,-50.90487531,0.84721497
6151f078d738db7865f9a6bb,137,2,2024-02-27T12:01:10.673Z,english_446.wav,0,pill,422,21,5,5,français,f,1,0.1,77.9515464,0.90863808
6151f078d738db7865f9a6bb,137,2,2024-02-27T12:01:10.673Z,english_446.wav,0,pill,422,21,5,5,français,f,2,0.2,12.96913102,0.45582271
6151f078d738db7865f9a6bb,137,2,2024-02-27T12:01:10.673Z,english_446.wav,0,pill,422,21,5,5,français,f,3,0.3,31.20275809,0.65529325
6151f078d738db7865f9a6bb,137,2,2024-02-27T12:01:10.673Z,english_446.wav,0,pill,422,21,5,5,français,f,4,0.32341667,-30.39700356,0.08422993
6151f078d738db7865f9a6bb,138,2,2024-02-27T12:01:10.673Z,english_878.wav,0,pill,1602,21,5,5,français,f,0,0.0,84.19501339,0.22676298
6151f078d738db7865f9a6bb,138,2,2024-02-27T12:01:10.673Z,english_878.wav,0,pill,1602,21,5,5,français,f,1,0.1,76.71234668,0.28568495
6151f078d738db7865f9a6bb,138,2,2024-02-27T12:01:10.673Z,english_878.wav,0,pill,1602,21,5,5,français,f,2,0.2,-74.61835319,0.74220819
6151f078d738db7865f9a6bb,138,2,2024-02-27T12:01:10.673Z,english_878.wav,0,pill,1602,21,5,5,français,f,3,0.3,83.79758366,1.72755148
6151f078d738db7865f9a6bb,138,2,2024-02-27T12:01:10.673Z,english_878.wav,0,pill,1602,21,5,5,français,f,4,0.32341667,-29.32243698,1.88938616
6151f078d738db7865f9a6bb,139,2,2024-02-27T12:01:10.673Z,english_534.wav,0,pill,442,21,5,5,français,f,0,0.0,-42.4271338,1.1267565
6151f078d738db7865f9a6bb,139,2,2024-02-27T12:01:10.673Z,english_534.wav,0,pill,442,21,5,5,français,f,1,0.1,-80.6424644,0.6842577
6151f078d738db7865f9a6bb,139,2,2024-02-27T12:01:10.673Z,english_534.wav,0,pill,442,21,5,5,français,f,2,0.2,59.29592388,0.01459656
6151f078d738db7865f9a6bb,139,2,2024-02-27T12:01:10.673Z,english_534.wav,0,pill,442,21,5,5,français,f,3,0.3,75.02007223,1.03701198
6151f078d738db7865f9a6bb,139,2,2024-02-27T12:01:10.673Z,english_534.wav,0,pill,442,21,5,5,français,f,4,0.32341667,-57.55026449,1.25840342
6151f078d738db7865f9a6bb,140,2,2024-02-27T12:01:10.673Z,english_159.wav,0,peel,2320,21,5,5,français,f,0,0.0,-83.7072706,0.09138871
6151f078d738db7865f9a6bb,140,2,2024-02-27T12:01:10.673Z,english_159.wav,0,peel,2320,21,5,5,français,f,1,0.1,-62.69238784,0.63335487
6151f078d738db7865f9a6bb,140,2,2024-02-27T12:01:10.673Z,english_159.wav,0,peel,2320,21,5,5,français,f,2,0.2,22.09248507,1.23550763
6151f078d738db7865f9a6bb,140,2,2024-02-27T12:01:10.673Z,english_159.wav,0,peel,2320,21,5,5,français,f,3,0.3,-80.94681782,1.83356136
6151f078d738db7865f9a6bb,140,2,2024-02-27T12:01:10.673Z,english_159.wav,0,peel,2320,21,5,5,français,f,4,0.32341667,-55.76861956,0.76796393
6151f078d738db7865f9a6bb,141,2,2024-02-27T12:01:10.673Z,english_717.wav,0,peel,401,21,5,5,français,f,0,0.0,11.70361719,1.43236824
6151f078d738db7865f9a6bb,141,2,2024-02-27T12:01:10.673Z,english_717.wav,0,peel,401,21,5,5,français,f,1,0.1,-43.41962,0.38419888
6151f078d738db7865f9a6bb,141,2,2024-02-27T12:01:10.673Z,english_717.wav,0,peel,401,21,5,5,français,f,2,0.2,-38.6653904,1.88953633
6151f078d738db7865f9a6bb,141,2,2024-02-27T12:01:10.673Z,english_717.wav,0,peel,401,21,5,5,français,f,3,0.3,-38.11833374,1.28007762
6151f078d738db7865f9a6bb,141,2,2024-02-27T12:01:10.673Z,english_717.wav,0,peel,401,21,5,5,français,f,4,0.32341667,93.29743671,0.67082429
6151f078d738db7865f9a6bb,142,2,2024-02-27T12:01:10.673Z,english_509.wav,0,peel,432,21,5,5,français,f,0,0.0,58.37136146,0.93627824
6151f078d738db7865f9a6bb,142,2,2024-02-27T12:01:10.673Z,english_509.wav,0,peel,432,21,5,5,français,f,1,0.1,-30.59588084,1.268957
6151f078d738db7865f9a6bb,142,2,2024-02-27T12:01:10.673Z,english_509.wav,0,peel,432,21,5,5,français,f,2,0.2,-42.62400689,0.87018438
6151f078d738db7865f9a6bb,142,2,2024-02-27T12:01:10.673Z,english_509.wav,0,peel,432,21,5,5,français,f,3,0.3,58.46483968,1.67134466
6151f078d738db7865f9a6bb,142,2,2024-02-27T12:01:10.673Z,english_509.wav,0,peel,432,21,5,5,français,f,4,0.32341667,44.09610342,1.96584472
6151f078d738db7865f9a6bb,143,2,2024-02-27T12:01:10.673Z,english_983.wav,0,peel,603,21,5,5,français,f,0,0.0,32.38711768,0.79408654
6151f078d738db7865f9a6bb,143,2,2024-02-27T12:01:10.673Z,english_983.wav,0,peel,603,21,5,5,français,f,1,0.1,-65.51600844,1.57845546
6151f078d738db7865f9a6bb,143,2,2024-02-27T12:01:10.673Z,english_983.wav,0,peel,603,21,5,5,français,f,2,0.2,12.03576385,1.23356187
6151f078d738db7865f9a6bb,143,2,2024-02-27T12:01:10.673Z,english_983.wav,0,peel,603,21,5,5,français,f,3,0.3,-64.14785636,0.65581831
6151f078d738db7865f9a6bb,143,2,2024-02-27T12:01:10.673Z,english_983.wav,0,peel,603,21,5,5,français,f,4,0.32341667,-72.48499617,0.27936162
6151f078d738db7865f9a6bb,144,2,2024-02-27T12:01:10.673Z,english_51.wav,0,pill,351,21,5,5,français,f,0,0.0,88.48054236,0.21487201
6151f078d738db7865f9a6bb,144,2,2024-02-27T12:01:10.673Z,english_51.wav,0,pill,351,21,5,5,français,f,1,0.1,-53.5534646,0.90061677
6151f078d738db7865f9a6bb,144,2,2024-02-27T12:01:10.673Z,english_51.wav,0,pill,351,21,5,5,français,f,2,0.2,-33.31344908,0.24834744
6151f078d738db7865f9a6bb,144,2,2024-02-27T12:01:10.673Z,english_51.wav,0,pill,351,21,5,5,français,f,3,0.3,87.0533187,1.31052611
6151f078d738db7865f9a6bb,144,2,2024-02-27T12:01:10.673Z,english_51.wav,0,pill,351,21,5,5,français,f,4,0.32341667,-16.55219825,0.58644625
6151f078d738db7865f9a6bb,145,2,2024-02-27T12:01:10.673Z,english_393.wav,0,pill,445,21,5,5,français,f,0,0.0,3.63201436,1.68653621
6151f078d738db7865f9a6bb,145,2,2024-02-27T12:01:10.673Z,english_393.wav,0,pill,445,21,5,5,français,f,1,0.1,64.52667935,0.22518435
6151f078d738db7865f9a6bb,145,2,2024-02-27T12:01:10.673Z,english_393.wav,0,pill,445,21,5,5,français,f,2,0.2,-51.23523019,0.07728703
6151f078d738db7865f9a6bb,145,2,2024-02-27T12:01:10.673Z,english_393.wav,0,pill,445,21,5,5,français,f,3,0.3,-89.75219839,0.70962284
6151f078d738db7865f9a6bb,145,2,2024-02-27T12:01:10.673Z,english_393.wav,0,pill,445,21,5,5,français,f,4,0.32341667,-66.06218428,0.7432397
6151f078d738db7865f9a6bb,146,2,2024-02-27T12:01:10.673Z,english_66.wav,0,pill,366,21,5,5,français,f,0,0.0,16.07147303,1.75051971
6151f078d738db7865f9a6bb,146,2,2024-02-27T12:01:10.673Z,english_66.wav,0,pill,366,21,5,5,français,f,1,0.1,50.76577123,0.02971233
6151f078d738db7865f9a6bb,146,2,2024-02-27T12:01:10.673Z,english_66.wav,0,pill,366,21,5,5,français,f,2,0.2,-29.1595681,0.63583886
6151f078d738db7865f9a6bb,146,2,2024-02-27T12:01:10.673Z,english_66.wav,0,pill,366,21,5,5,français,f,3,0.3,-80.89120138,1.46734397
6151f078d738db7865f9a6bb,146,2,2024-02-27T12:01:10.673Z,english_66.wav,0,pill,366,21,5,5,français,f,4,0.32341667,-8.46229461,1.61280944
6151f078d738db7865f9a6bb,147,2,2024-02-27T12:01:10.673Z,english_874.wav,0,peel,1085,21,5,5,français,f,0,0.0,32.94582558,0.77720789
6151f078d738db7865f9a6bb,147,2,2024-02-27T12:01:10.673Z,english_874.wav,0,peel,1085,21,5,5,français,f,1,0.1,73.76521909,1.44852608
6151f078d738db7865f9a6bb,147,2,2024-02-27T12:01:10.673Z,english_874.wav,0,peel,1085,21,5,5,français,f,2,0.2,-83.94992572,1.18086928
6151f078d738db7865f9a6bb,147,2,2024-02-27T12:01:10.673Z,english_874.wav,0,peel,1085,21,5,5,français,f,3,0.3,-61.86791133,0.75042975
6151f078d738db7865f9a6bb,147,2,2024-02-27T12:01:10.673Z,english_874.wav,0,peel,1085,21,5,5,français,f,4,0.32341667,-94.71312943,1.11461748
6151f078d738db7865f9a6bb,148,2,2024-02-27T12:01:10.673Z,english_413.wav,0,peel,1069,21,5,5,français,f,0,0.0,-9.66675054,1.82887045
6151f078d738db7865f9a6bb,148,2,2024-02-27T12:01:10.673Z,english_413.wav,0,peel,1069,21,5,5,français,f,1,0.1,15.27504309,0.80668743
6151f078d738db7865f9a6bb,148,2,2024-02-27T12:01:10.673Z,english_413.wav,0,peel,1069,21,5,5,français,f,2,0.2,-94.93171401,0.90586838
6151f078d738db7865f9a6bb,148,2,2024-02-27T12:01:10.673Z,english_413.wav,0,peel,1069,21,5,5,français,f,3,0.3,-42.87800999,1.3937681
6151f078d738db7865f9a6bb,148,2,2024-02-27T12:01:10.673Z,english_413.wav,0,peel,1069,21,5,5,français,f,4,0.32341667,-63.39385234,0.34165264
6151f078d738db7865f9a6bb,149,2,2024-02-27T12:01:10.673Z,english_338.wav,0,peel,722,21,5,5,français,f,0,0.0,-22.40965878,1.93572195
6151f078d738db7865f9a6bb,149,2,2024-02-27T12:01:10.673Z,english_338.wav,0,peel,722,21,5,5,français,f,1,0.1,-10.16153496,1.78994992
6151f078d738db7865f9a6bb,149,2,2024-02-27T12:01:10.673Z,english_338.wav,0,peel,722,21,5,5,français,f,2,0.2,-50.2449588,1.38134059
6151f078d738db7865f9a6bb,149,2,2024-02-27T12:01:10.673Z,english_338.wav,0,peel,722,21,5,5,français,f,3,0.3,14.05674122,1.78462007
6151f078d738db7865f9a6bb,149,2,2024-02-27T12:01:10.673Z,english_338.wav,0,peel,722,21,5,5,français,f,4,0.32341667,-78.35339858,1.2607094
6151f078d738db7865f9a6bb,150,3,2024-02-27T12:01:10.673Z,english_931.wav,0,peel,768,21,5,5,français,f,0,0.0,-78.99767873,0.72988395
6151f078d738db7865f9a6bb,150,3,2024-02-27T12:01:10.673Z,english_931.wav,0,peel,768,21,5,5,français,f,1,0.1,-34.67093685,1.40858855
6151f078d738db7865f9a6bb,150,3,2024-02-27T12:01:10.673Z,english_931.wav,0,peel,768,21,5,5,français,f,2,0.2,2.25144273,1.82787629
6151f078d738db7865f9a6bb,150,3,2024-02-27T12:01:10.673Z,english_931.wav,0,peel,768,21,5,5,français,f,3,0.3,-93.87287365,1.51045502
6151f078d738db7865f9a6bb,150,3,2024-02-27T12:01:10.673Z,english_931.wav,0,peel,768,21,5,5,français,f,4,0.32341667,57.8562517,1.42241625
6151f078d738db7865f9a6bb,151,3,2024-02-27T12:01:10.673Z,english_863.wav,0,peel,674,21,5,5,français,f,0,0.0,52.03013683,1.83111202
6151f078d738db7865f9a6bb,151,3,2024-02-27T12:01:10.673Z,english_863.wav,0,peel,674,21,5,5,français,f,1,0.1,21.53783975,0.9779226
6151f078d738db7865f9a6bb,151,3,2024-02-27T12:01:10.673Z,english_863.wav,0,peel,674,21,5,5,français,f,2,0.2,-42.8061331,1.19089157
6151f078d738db7865f9a6bb,151,3,2024-02-27T12:01:10.673Z,english_863.wav,0,peel,674,21,5,5,français,f,3,0.3,-9.69253087,0.269847
6151f078d738db7865f9a6bb,151,3,2024-02-27T12:01:10.673Z,english_863.wav,0,peel,674,21,5,5,français,f,4,0.32341667,56.44290307,0.87913369
6151f078d738db7865f9a6bb,152,3,2024-02-27T12:01:10.673Z,english_467.wav,0,peel,327,21,5,5,français,f,0,0.0,-0.54983343,1.824027
6151f078d738db7865f9a6bb,152,3,2024-02-27T12:01:10.673Z,english_467.wav,0,peel,327,21,5,5,français,f,1,0.1,-84.54516502,1.06295632
