subj,trial,block,date,stim,stim_order,response,rt,age,english,french,language,sex,param_index,segment,pitch,stretch
5ede918b4280d611f9a38200,0,0,2024-02-27T11:00:22.543Z,english_139.wav,0,peel,2498,32,4,5,français,f,0,0.0,55.35526281,1.40478417
5ede918b4280d611f9a38200,0,0,2024-02-27T11:00:22.543Z,english_139.wav,0,peel,2498,32,4,5,français,f,1,0.1,-66.48550036,1.12007301
5ede918b4280d611f9a38200,0,0,2024-02-27T11:00:22.543Z,english_139.wav,0,peel,2498,32,4,5,français,f,2,0.2,21.45340352,1.58559909
5ede918b4280d611f9a38200,0,0,2024-02-27T11:00:22.543Z,english_139.wav,0,peel,2498,32,4,5,français,f,3,0.3,-32.80413748,1.13081383
5ede918b4280d611f9a38200,0,0,2024-02-27T11:00:22.543Z,english_139.wav,0,peel,2498,32,4,5,français,f,4,0.32341667,-77.32206638,0.38560717
5ede918b4280d611f9a38200,1,0,2024-02-27T11:00:22.543Z,english_191.wav,0,pill,569,32,4,5,français,f,0,0.0,5.22709543,0.24693927
5ede918b4280d611f9a38200,1,0,2024-02-27T11:00:22.543Z,english_191.wav,0,pill,569,32,4,5,français,f,1,0.1,-51.29785688,1.61528443
5ede918b4280d611f9a38200,1,0,2024-02-27T11:00:22.543Z,english_191.wav,0,pill,569,32,4,5,français,f,2,0.2,14.39503603,0.10158113
5ede918b4280d611f9a38200,1,0,2024-02-27T11:00:22.543Z,english_191.wav,0,pill,569,32,4,5,français,f,3,0.3,60.50312404,1.02883866
5ede918b4280d611f9a38200,1,0,2024-02-27T11:00:22.543Z,english_191.wav,0,pill,569,32,4,5,français,f,4,0.32341667,68.15927452,0.69870432
5ede918b4280d611f9a38200,2,0,2024-02-27T11:00:22.543Z,english_74.wav,0,peel,647,32,4,5,français,f,0,0.0,86.29588785,1.196208
5ede918b4280d611f9a38200,2,0,2024-02-27T11:00:22.543Z,english_74.wav,0,peel,647,32,4,5,français,f,1,0.1,-14.52381687,1.63208143
5ede918b4280d611f9a38200,2,0,2024-02-27T11:00:22.543Z,english_74.wav,0,peel,647,32,4,5,français,f,2,0.2,77.94321906,0.46125368
5ede918b4280d611f9a38200,2,0,2024-02-27T11:00:22.543Z,english_74.wav,0,peel,647,32,4,5,français,f,3,0.3,-32.33104188,1.38278461
5ede918b4280d611f9a38200,2,0,2024-02-27T11:00:22.543Z,english_74.wav,0,peel,647,32,4,5,français,f,4,0.32341667,9.46602754,0.83147108
5ede918b4280d611f9a38200,3,0,2024-02-27T11:00:22.543Z,english_865.wav,0,pill,525,32,4,5,français,f,0,0.0,57.45647421,1.64387024
5ede918b4280d611f9a38200,3,0,2024-02-27T11:00:22.543Z,english_865.wav,0,pill,525,32,4,5,français,f,1,0.1,-62.30549211,0.05749027
5ede918b4280d611f9a38200,3,0,2024-02-27T11:00:22.543Z,english_865.wav,0,pill,525,32,4,5,français,f,2,0.2,-35.85649312,0.09554773
5ede918b4280d611f9a38200,3,0,2024-02-27T11:00:22.543Z,english_865.wav,0,pill,525,32,4,5,français,f,3,0.3,55.00701181,1.62598434
5ede918b4280d611f9a38200,3,0,2024-02-27T11:00:22.543Z,english_865.wav,0,pill,525,32,4,5,français,f,4,0.32341667,-39.97662747,0.71232625
5ede918b4280d611f9a38200,4,0,2024-02-27T11:00:22.543Z,english_75.wav,0,peel,544,32,4,5,français,f,0,0.0,-9.18091647,0.92930856
5ede918b4280d611f9a38200,4,0,2024-02-27T11:00:22.543Z,english_75.wav,0,peel,544,32,4,5,français,f,1,0.1,-62.02164907,1.94000482
5ede918b4280d611f9a38200,4,0,2024-02-27T11:00:22.543Z,english_75.wav,0,peel,544,32,4,5,français,f,2,0.2,-12.90623207,1.2183621
5ede918b4280d611f9a38200,4,0,2024-02-27T11:00:22.543Z,english_75.wav,0,peel,544,32,4,5,français,f,3,0.3,15.17089036,0.47349695
5ede918b4280d611f9a38200,4,0,2024-02-27T11:00:22.543Z,english_75.wav,0,peel,544,32,4,5,français,f,4,0.32341667,10.89352922,1.02561006
5ede918b4280d611f9a38200,5,0,2024-02-27T11:00:22.543Z,english_407.wav,0,peel,407,32,4,5,français,f,0,0.0,-13.68776922,0.77658743
5ede918b4280d611f9a38200,5,0,2024-02-27T11:00:22.543Z,english_407.wav,0,peel,407,32,4,5,français,f,1,0.1,-57.11899702,1.53398674
5ede918b4280d611f9a38200,5,0,2024-02-27T11:00:22.543Z,english_407.wav,0,peel,407,32,4,5,français,f,2,0.2,62.94325807,0.70379875
5ede918b4280d611f9a38200,5,0,2024-02-27T11:00:22.543Z,english_407.wav,0,peel,407,32,4,5,français,f,3,0.3,-27.77030003,0.72470084
5ede918b4280d611f9a38200,5,0,2024-02-27T11:00:22.543Z,english_407.wav,0,peel,407,32,4,5,français,f,4,0.32341667,-61.90605897,0.771678
5ede918b4280d611f9a38200,6,0,2024-02-27T11:00:22.543Z,english_845.wav,0,peel,262,32,4,5,français,f,0,0.0,-39.21264236,0.82761504
5ede918b4280d611f9a38200,6,0,2024-02-27T11:00:22.543Z,english_845.wav,0,peel,262,32,4,5,français,f,1,0.1,99.78041888,0.53375751
5ede918b4280d611f9a38200,6,0,2024-02-27T11:00:22.543Z,english_845.wav,0,peel,262,32,4,5,français,f,2,0.2,-59.29104422,1.24236426
5ede918b4280d611f9a38200,6,0,2024-02-27T11:00:22.543Z,english_845.wav,0,peel,262,32,4,5,français,f,3,0.3,57.0409613,1.27736464
5ede918b4280d611f9a38200,6,0,2024-02-27T11:00:22.543Z,english_845.wav,0,peel,262,32,4,5,français,f,4,0.32341667,-93.6361214,0.79024728
5ede918b4280d611f9a38200,7,0,2024-02-27T11:00:22.543Z,english_79.wav,0,pill,449,32,4,5,français,f,0,0.0,-69.52518262,0.23164561
5ede918b4280d611f9a38200,7,0,2024-02-27T11:00:22.543Z,english_79.wav,0,pill,449,32,4,5,français,f,1,0.1,56.533406,1.01948637
5ede918b4280d611f9a38200,7,0,2024-02-27T11:00:22.543Z,english_79.wav,0,pill,449,32,4,5,français,f,2,0.2,25.92051761,0.17653141
5ede918b4280d611f9a38200,7,0,2024-02-27T11:00:22.543Z,english_79.wav,0,pill,449,32,4,5,français,f,3,0.3,81.58880491,0.14868702
5ede918b4280d611f9a38200,7,0,2024-02-27T11:00:22.543Z,english_79.wav,0,pill,449,32,4,5,français,f,4,0.32341667,-19.75719301,0.33345335
5ede918b4280d611f9a38200,8,0,2024-02-27T11:00:22.543Z,english_44.wav,0,pill,358,32,4,5,français,f,0,0.0,-68.86201344,1.38154723
5ede918b4280d611f9a38200,8,0,2024-02-27T11:00:22.543Z,english_44.wav,0,pill,358,32,4,5,français,f,1,0.1,36.61833882,0.11193842
5ede918b4280d611f9a38200,8,0,2024-02-27T11:00:22.543Z,english_44.wav,0,pill,358,32,4,5,français,f,2,0.2,-60.65796264,0.83798569
5ede918b4280d611f9a38200,8,0,2024-02-27T11:00:22.543Z,english_44.wav,0,pill,358,32,4,5,français,f,3,0.3,-99.582901,0.3073865
5ede918b4280d611f9a38200,8,0,2024-02-27T11:00:22.543Z,english_44.wav,0,pill,358,32,4,5,français,f,4,0.32341667,68.59920212,1.10922951
5ede918b4280d611f9a38200,9,0,2024-02-27T11:00:22.543Z,english_338.wav,0,peel,131,32,4,5,français,f,0,0.0,-22.40965878,1.93572195
5ede918b4280d611f9a38200,9,0,2024-02-27T11:00:22.543Z,english_338.wav,0,peel,131,32,4,5,français,f,1,0.1,-10.16153496,1.78994992
5ede918b4280d611f9a38200,9,0,2024-02-27T11:00:22.543Z,english_338.wav,0,peel,131,32,4,5,français,f,2,0.2,-50.2449588,1.38134059
5ede918b4280d611f9a38200,9,0,2024-02-27T11:00:22.543Z,english_338.wav,0,peel,131,32,4,5,français,f,3,0.3,14.05674122,1.78462007
5ede918b4280d611f9a38200,9,0,2024-02-27T11:00:22.543Z,english_338.wav,0,peel,131,32,4,5,français,f,4,0.32341667,-78.35339858,1.2607094
5ede918b4280d611f9a38200,10,0,2024-02-27T11:00:22.543Z,english_725.wav,0,pill,493,32,4,5,français,f,0,0.0,26.80600371,0.25466557
5ede918b4280d611f9a38200,10,0,2024-02-27T11:00:22.543Z,english_725.wav,0,pill,493,32,4,5,français,f,1,0.1,82.24352357,0.77088778
5ede918b4280d611f9a38200,10,0,2024-02-27T11:00:22.543Z,english_725.wav,0,pill,493,32,4,5,français,f,2,0.2,-3.79901328,0.70697722
5ede918b4280d611f9a38200,10,0,2024-02-27T11:00:22.543Z,english_725.wav,0,pill,493,32,4,5,français,f,3,0.3,68.54562933,1.24247197
5ede918b4280d611f9a38200,10,0,2024-02-27T11:00:22.543Z,english_725.wav,0,pill,493,32,4,5,français,f,4,0.32341667,-39.79698803,1.34526742
5ede918b4280d611f9a38200,11,0,2024-02-27T11:00:22.543Z,english_273.wav,0,peel,408,32,4,5,français,f,0,0.0,-44.98289573,1.94838534
5ede918b4280d611f9a38200,11,0,2024-02-27T11:00:22.543Z,english_273.wav,0,peel,408,32,4,5,français,f,1,0.1,24.32546199,0.68888608
5ede918b4280d611f9a38200,11,0,2024-02-27T11:00:22.543Z,english_273.wav,0,peel,408,32,4,5,français,f,2,0.2,61.84573583,1.95265796
5ede918b4280d611f9a38200,11,0,2024-02-27T11:00:22.543Z,english_273.wav,0,peel,408,32,4,5,français,f,3,0.3,-1.88803465,1.62060328
5ede918b4280d611f9a38200,11,0,2024-02-27T11:00:22.543Z,english_273.wav,0,peel,408,32,4,5,français,f,4,0.32341667,57.02125087,0.94638053
5ede918b4280d611f9a38200,12,0,2024-02-27T11:00:22.543Z,english_289.wav,0,pill,535,32,4,5,français,f,0,0.0,-55.97739865,0.95213243
5ede918b4280d611f9a38200,12,0,2024-02-27T11:00:22.543Z,english_289.wav,0,pill,535,32,4,5,français,f,1,0.1,-97.9801122,0.81858491
5ede918b4280d611f9a38200,12,0,2024-02-27T11:00:22.543Z,english_289.wav,0,pill,535,32,4,5,français,f,2,0.2,44.28679287,1.16094748
5ede918b4280d611f9a38200,12,0,2024-02-27T11:00:22.543Z,english_289.wav,0,pill,535,32,4,5,français,f,3,0.3,-74.0895039,0.92969459
5ede918b4280d611f9a38200,12,0,2024-02-27T11:00:22.543Z,english_289.wav,0,pill,535,32,4,5,français,f,4,0.32341667,-44.25845537,0.41504245
5ede918b4280d611f9a38200,13,0,2024-02-27T11:00:22.543Z,english_202.wav,0,peel,241,32,4,5,français,f,0,0.0,-30.7410802,1.48506999
5ede918b4280d611f9a38200,13,0,2024-02-27T11:00:22.543Z,english_202.wav,0,peel,241,32,4,5,français,f,1,0.1,-19.68361402,1.61937363
5ede918b4280d611f9a38200,13,0,2024-02-27T11:00:22.543Z,english_202.wav,0,peel,241,32,4,5,français,f,2,0.2,-9.93463647,0.73964021
5ede918b4280d611f9a38200,13,0,2024-02-27T11:00:22.543Z,english_202.wav,0,peel,241,32,4,5,français,f,3,0.3,-7.1971022,1.93955383
5ede918b4280d611f9a38200,13,0,2024-02-27T11:00:22.543Z,english_202.wav,0,peel,241,32,4,5,français,f,4,0.32341667,-23.97797133,1.43199581
5ede918b4280d611f9a38200,14,0,2024-02-27T11:00:22.543Z,english_648.wav,0,peel,612,32,4,5,français,f,0,0.0,-36.17742204,0.57576188
5ede918b4280d611f9a38200,14,0,2024-02-27T11:00:22.543Z,english_648.wav,0,peel,612,32,4,5,français,f,1,0.1,30.10697278,1.1310908
5ede918b4280d611f9a38200,14,0,2024-02-27T11:00:22.543Z,english_648.wav,0,peel,612,32,4,5,français,f,2,0.2,-67.31320052,1.67112441
5ede918b4280d611f9a38200,14,0,2024-02-27T11:00:22.543Z,english_648.wav,0,peel,612,32,4,5,français,f,3,0.3,-10.94597212,0.39641968
5ede918b4280d611f9a38200,14,0,2024-02-27T11:00:22.543Z,english_648.wav,0,peel,612,32,4,5,français,f,4,0.32341667,72.59648235,1.93789316
5ede918b4280d611f9a38200,15,0,2024-02-27T11:00:22.543Z,english_981.wav,0,peel,240,32,4,5,français,f,0,0.0,-19.49446297,1.96452006
5ede918b4280d611f9a38200,15,0,2024-02-27T11:00:22.543Z,english_981.wav,0,peel,240,32,4,5,français,f,1,0.1,-69.0386812,1.2006287
5ede918b4280d611f9a38200,15,0,2024-02-27T11:00:22.543Z,english_981.wav,0,peel,240,32,4,5,français,f,2,0.2,-25.77088537,0.98600753
5ede918b4280d611f9a38200,15,0,2024-02-27T11:00:22.543Z,english_981.wav,0,peel,240,32,4,5,français,f,3,0.3,65.67633712,0.21362544
5ede918b4280d611f9a38200,15,0,2024-02-27T11:00:22.543Z,english_981.wav,0,peel,240,32,4,5,français,f,4,0.32341667,-6.1640169,0.33780549
5ede918b4280d611f9a38200,16,0,2024-02-27T11:00:22.543Z,english_834.wav,0,pill,375,32,4,5,français,f,0,0.0,-64.94927172,0.98752234
5ede918b4280d611f9a38200,16,0,2024-02-27T11:00:22.543Z,english_834.wav,0,pill,375,32,4,5,français,f,1,0.1,49.61052881,1.31122352
5ede918b4280d611f9a38200,16,0,2024-02-27T11:00:22.543Z,english_834.wav,0,pill,375,32,4,5,français,f,2,0.2,-25.04715585,0.09065599
5ede918b4280d611f9a38200,16,0,2024-02-27T11:00:22.543Z,english_834.wav,0,pill,375,32,4,5,français,f,3,0.3,95.09819394,1.07854905
5ede918b4280d611f9a38200,16,0,2024-02-27T11:00:22.543Z,english_834.wav,0,pill,375,32,4,5,français,f,4,0.32341667,84.16953653,1.76453498
5ede918b4280d611f9a38200,17,0,2024-02-27T11:00:22.543Z,english_410.wav,0,pill,388,32,4,5,français,f,0,0.0,-74.64506245,0.42358098
5ede918b4280d611f9a38200,17,0,2024-02-27T11:00:22.543Z,english_410.wav,0,pill,388,32,4,5,français,f,1,0.1,65.24401488,0.42526697
5ede918b4280d611f9a38200,17,0,2024-02-27T11:00:22.543Z,english_410.wav,0,pill,388,32,4,5,français,f,2,0.2,-65.86471953,1.12385183
5ede918b4280d611f9a38200,17,0,2024-02-27T11:00:22.543Z,english_410.wav,0,pill,388,32,4,5,français,f,3,0.3,98.79489106,0.33588109
5ede918b4280d611f9a38200,17,0,2024-02-27T11:00:22.543Z,english_410.wav,0,pill,388,32,4,5,français,f,4,0.32341667,14.95451541,1.7246864
5ede918b4280d611f9a38200,18,0,2024-02-27T11:00:22.543Z,english_499.wav,0,peel,282,32,4,5,français,f,0,0.0,-62.75547094,0.4212983
5ede918b4280d611f9a38200,18,0,2024-02-27T11:00:22.543Z,english_499.wav,0,peel,282,32,4,5,français,f,1,0.1,28.73361796,1.54082224
5ede918b4280d611f9a38200,18,0,2024-02-27T11:00:22.543Z,english_499.wav,0,peel,282,32,4,5,français,f,2,0.2,-71.86053711,1.07919976
5ede918b4280d611f9a38200,18,0,2024-02-27T11:00:22.543Z,english_499.wav,0,peel,282,32,4,5,français,f,3,0.3,-44.40399931,1.20425095
5ede918b4280d611f9a38200,18,0,2024-02-27T11:00:22.543Z,english_499.wav,0,peel,282,32,4,5,français,f,4,0.32341667,-2.72335033,0.4618338
5ede918b4280d611f9a38200,19,0,2024-02-27T11:00:22.543Z,english_337.wav,0,pill,600,32,4,5,français,f,0,0.0,17.21863108,0.02346696
5ede918b4280d611f9a38200,19,0,2024-02-27T11:00:22.543Z,english_337.wav,0,pill,600,32,4,5,français,f,1,0.1,-16.30098312,1.2349353
5ede918b4280d611f9a38200,19,0,2024-02-27T11:00:22.543Z,english_337.wav,0,pill,600,32,4,5,français,f,2,0.2,70.17733319,1.07823504
5ede918b4280d611f9a38200,19,0,2024-02-27T11:00:22.543Z,english_337.wav,0,pill,600,32,4,5,français,f,3,0.3,-7.16478631,1.83339424
5ede918b4280d611f9a38200,19,0,2024-02-27T11:00:22.543Z,english_337.wav,0,pill,600,32,4,5,français,f,4,0.32341667,-84.96176299,1.87583376
5ede918b4280d611f9a38200,20,0,2024-02-27T11:00:22.543Z,english_420.wav,0,peel,269,32,4,5,français,f,0,0.0,-56.31893026,0.25307214
5ede918b4280d611f9a38200,20,0,2024-02-27T11:00:22.543Z,english_420.wav,0,peel,269,32,4,5,français,f,1,0.1,66.6522923,1.93095887
5ede918b4280d611f9a38200,20,0,2024-02-27T11:00:22.543Z,english_420.wav,0,peel,269,32,4,5,français,f,2,0.2,2.15493058,0.49520396
5ede918b4280d611f9a38200,20,0,2024-02-27T11:00:22.543Z,english_420.wav,0,peel,269,32,4,5,français,f,3,0.3,-23.51601285,1.55970731
5ede918b4280d611f9a38200,20,0,2024-02-27T11:00:22.543Z,english_420.wav,0,peel,269,32,4,5,français,f,4,0.32341667,22.32226467,0.71957325
5ede918b4280d611f9a38200,21,0,2024-02-27T11:00:22.543Z,english_814.wav,0,pill,146,32,4,5,français,f,0,0.0,-63.32480856,1.93717082
5ede918b4280d611f9a38200,21,0,2024-02-27T11:00:22.543Z,english_814.wav,0,pill,146,32,4,5,français,f,1,0.1,34.42157774,0.66627456
5ede918b4280d611f9a38200,21,0,2024-02-27T11:00:22.543Z,english_814.wav,0,pill,146,32,4,5,français,f,2,0.2,-1.27362148,1.33718687
5ede918b4280d611f9a38200,21,0,2024-02-27T11:00:22.543Z,english_814.wav,0,pill,146,32,4,5,français,f,3,0.3,11.18388565,1.12749716
5ede918b4280d611f9a38200,21,0,2024-02-27T11:00:22.543Z,english_814.wav,0,pill,146,32,4,5,français,f,4,0.32341667,-9.56708644,0.66623879
5ede918b4280d611f9a38200,22,0,2024-02-27T11:00:22.543Z,english_235.wav,0,pill,405,32,4,5,français,f,0,0.0,-1.09951899,1.56432712
5ede918b4280d611f9a38200,22,0,2024-02-27T11:00:22.543Z,english_235.wav,0,pill,405,32,4,5,français,f,1,0.1,-96.83918407,0.18127978
5ede918b4280d611f9a38200,22,0,2024-02-27T11:00:22.543Z,english_235.wav,0,pill,405,32,4,5,français,f,2,0.2,96.22116446,1.26168206
5ede918b4280d611f9a38200,22,0,2024-02-27T11:00:22.543Z,english_235.wav,0,pill,405,32,4,5,français,f,3,0.3,48.9502898,1.98140435
5ede918b4280d611f9a38200,22,0,2024-02-27T11:00:22.543Z,english_235.wav,0,pill,405,32,4,5,français,f,4,0.32341667,38.18641725,0.52366779
5ede918b4280d611f9a38200,23,0,2024-02-27T11:00:22.543Z,english_757.wav,0,peel,177,32,4,5,français,f,0,0.0,-71.37581006,0.57944866
5ede918b4280d611f9a38200,23,0,2024-02-27T11:00:22.543Z,english_757.wav,0,peel,177,32,4,5,français,f,1,0.1,-34.89028362,1.76833087
5ede918b4280d611f9a38200,23,0,2024-02-27T11:00:22.543Z,english_757.wav,0,peel,177,32,4,5,français,f,2,0.2,97.72444176,0.43040584
5ede918b4280d611f9a38200,23,0,2024-02-27T11:00:22.543Z,english_757.wav,0,peel,177,32,4,5,français,f,3,0.3,8.64322444,1.84780211
5ede918b4280d611f9a38200,23,0,2024-02-27T11:00:22.543Z,english_757.wav,0,peel,177,32,4,5,français,f,4,0.32341667,-59.15215987,0.21714226
5ede918b4280d611f9a38200,24,0,2024-02-27T11:00:22.543Z,english_368.wav,0,pill,205,32,4,5,français,f,0,0.0,-25.00542805,1.03431482
5ede918b4280d611f9a38200,24,0,2024-02-27T11:00:22.543Z,english_368.wav,0,pill,205,32,4,5,français,f,1,0.1,-48.20991773,0.92366821
5ede918b4280d611f9a38200,24,0,2024-02-27T11:00:22.543Z,english_368.wav,0,pill,205,32,4,5,français,f,2,0.2,-51.83604218,0.34019883
5ede918b4280d611f9a38200,24,0,2024-02-27T11:00:22.543Z,english_368.wav,0,pill,205,32,4,5,français,f,3,0.3,14.57062672,1.21184807
5ede918b4280d611f9a38200,24,0,2024-02-27T11:00:22.543Z,english_368.wav,0,pill,205,32,4,5,français,f,4,0.32341667,-26.77020505,0.81530657
5ede918b4280d611f9a38200,25,0,2024-02-27T11:00:22.543Z,english_166.wav,0,pill,81,32,4,5,français,f,0,0.0,37.27670025,1.42766663
5ede918b4280d611f9a38200,25,0,2024-02-27T11:00:22.543Z,english_166.wav,0,pill,81,32,4,5,français,f,1,0.1,34.38847046,0.72731767
5ede918b4280d611f9a38200,25,0,2024-02-27T11:00:22.543Z,english_166.wav,0,pill,81,32,4,5,français,f,2,0.2,49.91842175,1.80608275
5ede918b4280d611f9a38200,25,0,2024-02-27T11:00:22.543Z,english_166.wav,0,pill,81,32,4,5,français,f,3,0.3,56.9541748,1.91598421
5ede918b4280d611f9a38200,25,0,2024-02-27T11:00:22.543Z,english_166.wav,0,pill,81,32,4,5,français,f,4,0.32341667,10.97290623,1.21084105
5ede918b4280d611f9a38200,26,0,2024-02-27T11:00:22.543Z,english_683.wav,0,pill,384,32,4,5,français,f,0,0.0,-73.37543508,1.70409633
5ede918b4280d611f9a38200,26,0,2024-02-27T11:00:22.543Z,english_683.wav,0,pill,384,32,4,5,français,f,1,0.1,66.4080647,1.25556383
5ede918b4280d611f9a38200,26,0,2024-02-27T11:00:22.543Z,english_683.wav,0,pill,384,32,4,5,français,f,2,0.2,46.46812351,0.87554738
5ede918b4280d611f9a38200,26,0,2024-02-27T11:00:22.543Z,english_683.wav,0,pill,384,32,4,5,français,f,3,0.3,71.67755016,1.32863005
5ede918b4280d611f9a38200,26,0,2024-02-27T11:00:22.543Z,english_683.wav,0,pill,384,32,4,5,français,f,4,0.32341667,2.86253031,0.20364682
5ede918b4280d611f9a38200,27,0,2024-02-27T11:00:22.543Z,english_843.wav,0,pill,665,32,4,5,français,f,0,0.0,-34.38568909,1.38988397
5ede918b4280d611f9a38200,27,0,2024-02-27T11:00:22.543Z,english_843.wav,0,pill,665,32,4,5,français,f,1,0.1,91.48235516,0.61638546
5ede918b4280d611f9a38200,27,0,2024-02-27T11:00:22.543Z,english_843.wav,0,pill,665,32,4,5,français,f,2,0.2,45.43581208,1.5800421
5ede918b4280d611f9a38200,27,0,2024-02-27T11:00:22.543Z,english_843.wav,0,pill,665,32,4,5,français,f,3,0.3,47.04005582,1.07327256
5ede918b4280d611f9a38200,27,0,2024-02-27T11:00:22.543Z,english_843.wav,0,pill,665,32,4,5,français,f,4,0.32341667,30.80916685,0.46994626
5ede918b4280d611f9a38200,28,0,2024-02-27T11:00:22.543Z,english_32.wav,0,pill,303,32,4,5,français,f,0,0.0,89.50349963,1.73304916
5ede918b4280d611f9a38200,28,0,2024-02-27T11:00:22.543Z,english_32.wav,0,pill,303,32,4,5,français,f,1,0.1,51.51128255,0.02192789
5ede918b4280d611f9a38200,28,0,2024-02-27T11:00:22.543Z,english_32.wav,0,pill,303,32,4,5,français,f,2,0.2,-58.32910347,1.71493142
5ede918b4280d611f9a38200,28,0,2024-02-27T11:00:22.543Z,english_32.wav,0,pill,303,32,4,5,français,f,3,0.3,15.96172744,1.28451373
5ede918b4280d611f9a38200,28,0,2024-02-27T11:00:22.543Z,english_32.wav,0,pill,303,32,4,5,français,f,4,0.32341667,84.40449403,1.22971166
5ede918b4280d611f9a38200,29,0,2024-02-27T11:00:22.543Z,english_158.wav,0,pill,400,32,4,5,français,f,0,0.0,33.09785739,1.71128449
5ede918b4280d611f9a38200,29,0,2024-02-27T11:00:22.543Z,english_158.wav,0,pill,400,32,4,5,français,f,1,0.1,-85.08083727,1.56145129
5ede918b4280d611f9a38200,29,0,2024-02-27T11:00:22.543Z,english_158.wav,0,pill,400,32,4,5,français,f,2,0.2,97.70701203,0.69707892
5ede918b4280d611f9a38200,29,0,2024-02-27T11:00:22.543Z,english_158.wav,0,pill,400,32,4,5,français,f,3,0.3,2.54261044,1.19647348
5ede918b4280d611f9a38200,29,0,2024-02-27T11:00:22.543Z,english_158.wav,0,pill,400,32,4,5,français,f,4,0.32341667,-59.73934841,1.17782448
5ede918b4280d611f9a38200,30,0,2024-02-27T11:00:22.543Z,english_612.wav,0,pill,532,32,4,5,français,f,0,0.0,-84.32217164,1.34068621
5ede918b4280d611f9a38200,30,0,2024-02-27T11:00:22.543Z,english_612.wav,0,pill,532,32,4,5,français,f,1,0.1,36.55311424,0.03443149
5ede918b4280d611f9a38200,30,0,2024-02-27T11:00:22.543Z,english_612.wav,0,pill,532,32,4,5,français,f,2,0.2,92.38334081,0.45903509
5ede918b4280d611f9a38200,30,0,2024-02-27T11:00:22.543Z,english_612.wav,0,pill,532,32,4,5,français,f,3,0.3,11.68953794,0.60209198
5ede918b4280d611f9a38200,30,0,2024-02-27T11:00:22.543Z,english_612.wav,0,pill,532,32,4,5,français,f,4,0.32341667,43.3279226,0.29533154
5ede918b4280d611f9a38200,31,0,2024-02-27T11:00:22.543Z,english_103.wav,0,peel,128,32,4,5,français,f,0,0.0,-79.54710498,0.84178061
5ede918b4280d611f9a38200,31,0,2024-02-27T11:00:22.543Z,english_103.wav,0,peel,128,32,4,5,français,f,1,0.1,-41.31314025,1.9706485
5ede918b4280d611f9a38200,31,0,2024-02-27T11:00:22.543Z,english_103.wav,0,peel,128,32,4,5,français,f,2,0.2,-48.58046961,1.55059924
5ede918b4280d611f9a38200,31,0,2024-02-27T11:00:22.543Z,english_103.wav,0,peel,128,32,4,5,français,f,3,0.3,50.88097047,1.14550684
5ede918b4280d611f9a38200,31,0,2024-02-27T11:00:22.543Z,english_103.wav,0,peel,128,32,4,5,français,f,4,0.32341667,21.22320476,1.67039139
5ede918b4280d611f9a38200,32,0,2024-02-27T11:00:22.543Z,english_942.wav,0,peel,490,32,4,5,français,f,0,0.0,96.26286183,1.14976657
5ede918b4280d611f9a38200,32,0,2024-02-27T11:00:22.543Z,english_942.wav,0,peel,490,32,4,5,français,f,1,0.1,-96.45992778,0.962364
5ede918b4280d611f9a38200,32,0,2024-02-27T11:00:22.543Z,english_942.wav,0,peel,490,32,4,5,français,f,2,0.2,50.93322043,0.99280793
5ede918b4280d611f9a38200,32,0,2024-02-27T11:00:22.543Z,english_942.wav,0,peel,490,32,4,5,français,f,3,0.3,14.6207779,1.92237923
5ede918b4280d611f9a38200,32,0,2024-02-27T11:00:22.543Z,english_942.wav,0,peel,490,32,4,5,français,f,4,0.32341667,7.19296333,1.02094568
5ede918b4280d611f9a38200,33,0,2024-02-27T11:00:22.543Z,english_327.wav,0,peel,690,32,4,5,français,f,0,0.0,-65.34261839,0.94624792
5ede918b4280d611f9a38200,33,0,2024-02-27T11:00:22.543Z,english_327.wav,0,peel,690,32,4,5,français,f,1,0.1,-88.88296173,0.88463276
5ede918b4280d611f9a38200,33,0,2024-02-27T11:00:22.543Z,english_327.wav,0,peel,690,32,4,5,français,f,2,0.2,-52.48624316,0.8064175
5ede918b4280d611f9a38200,33,0,2024-02-27T11:00:22.543Z,english_327.wav,0,peel,690,32,4,5,français,f,3,0.3,35.3894457,1.08656597
5ede918b4280d611f9a38200,33,0,2024-02-27T11:00:22.543Z,english_327.wav,0,peel,690,32,4,5,français,f,4,0.32341667,-31.26503482,0.95323019
5ede918b4280d611f9a38200,34,0,2024-02-27T11:00:22.543Z,english_238.wav,0,peel,593,32,4,5,français,f,0,0.0,87.78466979,1.0750983
5ede918b4280d611f9a38200,34,0,2024-02-27T11:00:22.543Z,english_238.wav,0,peel,593,32,4,5,français,f,1,0.1,65.39287108,0.03626896
5ede918b4280d611f9a38200,34,0,2024-02-27T11:00:22.543Z,english_238.wav,0,peel,593,32,4,5,français,f,2,0.2,-38.39100082,1.9832234
5ede918b4280d611f9a38200,34,0,2024-02-27T11:00:22.543Z,english_238.wav,0,peel,593,32,4,5,français,f,3,0.3,-20.01297649,0.17604691
5ede918b4280d611f9a38200,34,0,2024-02-27T11:00:22.543Z,english_238.wav,0,peel,593,32,4,5,français,f,4,0.32341667,78.31880556,1.61383808
5ede918b4280d611f9a38200,35,0,2024-02-27T11:00:22.543Z,english_910.wav,0,peel,284,32,4,5,français,f,0,0.0,-5.78748479,0.61840584
5ede918b4280d611f9a38200,35,0,2024-02-27T11:00:22.543Z,english_910.wav,0,peel,284,32,4,5,français,f,1,0.1,25.040103,1.20431928
5ede918b4280d611f9a38200,35,0,2024-02-27T11:00:22.543Z,english_910.wav,0,peel,284,32,4,5,français,f,2,0.2,-40.66398147,1.66594732
5ede918b4280d611f9a38200,35,0,2024-02-27T11:00:22.543Z,english_910.wav,0,peel,284,32,4,5,français,f,3,0.3,-99.21011725,0.99007018
5ede918b4280d611f9a38200,35,0,2024-02-27T11:00:22.543Z,english_910.wav,0,peel,284,32,4,5,français,f,4,0.32341667,30.82754841,0.23705338
5ede918b4280d611f9a38200,36,0,2024-02-27T11:00:22.543Z,english_779.wav,0,pill,617,32,4,5,français,f,0,0.0,-66.48303018,1.22216448
5ede918b4280d611f9a38200,36,0,2024-02-27T11:00:22.543Z,english_779.wav,0,pill,617,32,4,5,français,f,1,0.1,55.33592885,1.30288261
5ede918b4280d611f9a38200,36,0,2024-02-27T11:00:22.543Z,english_779.wav,0,pill,617,32,4,5,français,f,2,0.2,67.38671669,0.25409759
5ede918b4280d611f9a38200,36,0,2024-02-27T11:00:22.543Z,english_779.wav,0,pill,617,32,4,5,français,f,3,0.3,65.49052189,1.76174581
5ede918b4280d611f9a38200,36,0,2024-02-27T11:00:22.543Z,english_779.wav,0,pill,617,32,4,5,français,f,4,0.32341667,-12.12955258,0.12280057
5ede918b4280d611f9a38200,37,0,2024-02-27T11:00:22.543Z,english_374.wav,0,peel,424,32,4,5,français,f,0,0.0,-43.98521466,1.11607514
5ede918b4280d611f9a38200,37,0,2024-02-27T11:00:22.543Z,english_374.wav,0,peel,424,32,4,5,français,f,1,0.1,-24.87181663,0.38249505
5ede918b4280d611f9a38200,37,0,2024-02-27T11:00:22.543Z,english_374.wav,0,peel,424,32,4,5,français,f,2,0.2,-29.31566683,1.56774755
5ede918b4280d611f9a38200,37,0,2024-02-27T11:00:22.543Z,english_374.wav,0,peel,424,32,4,5,français,f,3,0.3,-43.36019392,1.33837662
5ede918b4280d611f9a38200,37,0,2024-02-27T11:00:22.543Z,english_374.wav,0,peel,424,32,4,5,français,f,4,0.32341667,-35.5175379,0.68793086
5ede918b4280d611f9a38200,38,0,2024-02-27T11:00:22.543Z,english_967.wav,0,pill,586,32,4,5,français,f,0,0.0,-33.19777689,0.76720641
5ede918b4280d611f9a38200,38,0,2024-02-27T11:00:22.543Z,english_967.wav,0,pill,586,32,4,5,français,f,1,0.1,83.84847924,1.4094361
5ede918b4280d611f9a38200,38,0,2024-02-27T11:00:22.543Z,english_967.wav,0,pill,586,32,4,5,français,f,2,0.2,81.27362124,0.74435637
5ede918b4280d611f9a38200,38,0,2024-02-27T11:00:22.543Z,english_967.wav,0,pill,586,32,4,5,français,f,3,0.3,22.78466805,0.29904584
5ede918b4280d611f9a38200,38,0,2024-02-27T11:00:22.543Z,english_967.wav,0,pill,586,32,4,5,français,f,4,0.32341667,16.56894366,0.47687807
5ede918b4280d611f9a38200,39,0,2024-02-27T11:00:22.543Z,english_223.wav,0,peel,676,32,4,5,français,f,0,0.0,-51.58222533,0.62889348
5ede918b4280d611f9a38200,39,0,2024-02-27T11:00:22.543Z,english_223.wav,0,peel,676,32,4,5,français,f,1,0.1,-36.02700064,1.73736573
5ede918b4280d611f9a38200,39,0,2024-02-27T11:00:22.543Z,english_223.wav,0,peel,676,32,4,5,français,f,2,0.2,-35.4915315,1.20130681
5ede918b4280d611f9a38200,39,0,2024-02-27T11:00:22.543Z,english_223.wav,0,peel,676,32,4,5,français,f,3,0.3,1.26892628,0.53176439
5ede918b4280d611f9a38200,39,0,2024-02-27T11:00:22.543Z,english_223.wav,0,peel,676,32,4,5,français,f,4,0.32341667,72.37143842,1.24562253
5ede918b4280d611f9a38200,40,0,2024-02-27T11:00:22.543Z,english_72.wav,0,pill,786,32,4,5,français,f,0,0.0,3.79788214,1.04175162
5ede918b4280d611f9a38200,40,0,2024-02-27T11:00:22.543Z,english_72.wav,0,pill,786,32,4,5,français,f,1,0.1,-35.73428138,0.91099175
5ede918b4280d611f9a38200,40,0,2024-02-27T11:00:22.543Z,english_72.wav,0,pill,786,32,4,5,français,f,2,0.2,-30.83181688,0.34322307
5ede918b4280d611f9a38200,40,0,2024-02-27T11:00:22.543Z,english_72.wav,0,pill,786,32,4,5,français,f,3,0.3,-68.4260973,1.39599539
5ede918b4280d611f9a38200,40,0,2024-02-27T11:00:22.543Z,english_72.wav,0,pill,786,32,4,5,français,f,4,0.32341667,-10.87667298,0.78322702
5ede918b4280d611f9a38200,41,0,2024-02-27T11:00:22.543Z,english_761.wav,0,peel,750,32,4,5,français,f,0,0.0,-7.84319468,0.39728316
5ede918b4280d611f9a38200,41,0,2024-02-27T11:00:22.543Z,english_761.wav,0,peel,750,32,4,5,français,f,1,0.1,77.10262164,0.76675063
5ede918b4280d611f9a38200,41,0,2024-02-27T11:00:22.543Z,english_761.wav,0,peel,750,32,4,5,français,f,2,0.2,23.07677451,1.40075404
5ede918b4280d611f9a38200,41,0,2024-02-27T11:00:22.543Z,english_761.wav,0,peel,750,32,4,5,français,f,3,0.3,-22.28856666,0.53792203
5ede918b4280d611f9a38200,41,0,2024-02-27T11:00:22.543Z,english_761.wav,0,peel,750,32,4,5,français,f,4,0.32341667,18.71779046,1.06229189
5ede918b4280d611f9a38200,42,0,2024-02-27T11:00:22.543Z,english_717.wav,0,peel,365,32,4,5,français,f,0,0.0,11.70361719,1.43236824
5ede918b4280d611f9a38200,42,0,2024-02-27T11:00:22.543Z,english_717.wav,0,peel,365,32,4,5,français,f,1,0.1,-43.41962,0.38419888
5ede918b4280d611f9a38200,42,0,2024-02-27T11:00:22.543Z,english_717.wav,0,peel,365,32,4,5,français,f,2,0.2,-38.6653904,1.88953633
5ede918b4280d611f9a38200,42,0,2024-02-27T11:00:22.543Z,english_717.wav,0,peel,365,32,4,5,français,f,3,0.3,-38.11833374,1.28007762
5ede918b4280d611f9a38200,42,0,2024-02-27T11:00:22.543Z,english_717.wav,0,peel,365,32,4,5,français,f,4,0.32341667,93.29743671,0.67082429
5ede918b4280d611f9a38200,43,0,2024-02-27T11:00:22.543Z,english_697.wav,0,pill,454,32,4,5,français,f,0,0.0,34.8877197,0.10761674
5ede918b4280d611f9a38200,43,0,2024-02-27T11:00:22.543Z,english_697.wav,0,pill,454,32,4,5,français,f,1,0.1,-0.0129750448,0.88035305
5ede918b4280d611f9a38200,43,0,2024-02-27T11:00:22.543Z,english_697.wav,0,pill,454,32,4,5,français,f,2,0.2,48.8877829,0.12183403
5ede918b4280d611f9a38200,43,0,2024-02-27T11:00:22.543Z,english_697.wav,0,pill,454,32,4,5,français,f,3,0.3,68.5745634,0.55306263
5ede918b4280d611f9a38200,43,0,2024-02-27T11:00:22.543Z,english_697.wav,0,pill,454,32,4,5,français,f,4,0.323416667,18.9536775,1.83833688
5ede918b4280d611f9a38200,44,0,2024-02-27T11:00:22.543Z,english_484.wav,0,peel,321,32,4,5,français,f,0,0.0,79.97188672,0.20745104
5ede918b4280d611f9a38200,44,0,2024-02-27T11:00:22.543Z,english_484.wav,0,peel,321,32,4,5,français,f,1,0.1,-84.58904822,1.46214797
5ede918b4280d611f9a38200,44,0,2024-02-27T11:00:22.543Z,english_484.wav,0,peel,321,32,4,5,français,f,2,0.2,70.2960477,0.40821612
5ede918b4280d611f9a38200,44,0,2024-02-27T11:00:22.543Z,english_484.wav,0,peel,321,32,4,5,français,f,3,0.3,-66.44520929,1.23203415
5ede918b4280d611f9a38200,44,0,2024-02-27T11:00:22.543Z,english_484.wav,0,peel,321,32,4,5,français,f,4,0.32341667,-78.91715359,1.26593617
5ede918b4280d611f9a38200,45,0,2024-02-27T11:00:22.543Z,english_88.wav,0,peel,317,32,4,5,français,f,0,0.0,26.55889683,1.3027014
5ede918b4280d611f9a38200,45,0,2024-02-27T11:00:22.543Z,english_88.wav,0,peel,317,32,4,5,français,f,1,0.1,31.00356365,0.67122251
5ede918b4280d611f9a38200,45,0,2024-02-27T11:00:22.543Z,english_88.wav,0,peel,317,32,4,5,français,f,2,0.2,-60.56468942,0.59704477
5ede918b4280d611f9a38200,45,0,2024-02-27T11:00:22.543Z,english_88.wav,0,peel,317,32,4,5,français,f,3,0.3,-56.53017227,1.68194373
5ede918b4280d611f9a38200,45,0,2024-02-27T11:00:22.543Z,english_88.wav,0,peel,317,32,4,5,français,f,4,0.32341667,-78.90279024,0.42277005
5ede918b4280d611f9a38200,46,0,2024-02-27T11:00:22.543Z,english_182.wav,0,peel,343,32,4,5,français,f,0,0.0,57.43769915,0.89919812
5ede918b4280d611f9a38200,46,0,2024-02-27T11:00:22.543Z,english_182.wav,0,peel,343,32,4,5,français,f,1,0.1,-87.06676545,1.25243937
5ede918b4280d611f9a38200,46,0,2024-02-27T11:00:22.543Z,english_182.wav,0,peel,343,32,4,5,français,f,2,0.2,-91.52107401,1.35021358
5ede918b4280d611f9a38200,46,0,2024-02-27T11:00:22.543Z,english_182.wav,0,peel,343,32,4,5,français,f,3,0.3,52.0843588,0.52787795
5ede918b4280d611f9a38200,46,0,2024-02-27T11:00:22.543Z,english_182.wav,0,peel,343,32,4,5,français,f,4,0.32341667,18.07264914,0.72620624
5ede918b4280d611f9a38200,47,0,2024-02-27T11:00:22.543Z,english_534.wav,0,peel,526,32,4,5,français,f,0,0.0,-42.4271338,1.1267565
5ede918b4280d611f9a38200,47,0,2024-02-27T11:00:22.543Z,english_534.wav,0,peel,526,32,4,5,français,f,1,0.1,-80.6424644,0.6842577
5ede918b4280d611f9a38200,47,0,2024-02-27T11:00:22.543Z,english_534.wav,0,peel,526,32,4,5,français,f,2,0.2,59.29592388,0.01459656
5ede918b4280d611f9a38200,47,0,2024-02-27T11:00:22.543Z,english_534.wav,0,peel,526,32,4,5,français,f,3,0.3,75.02007223,1.03701198
5ede918b4280d611f9a38200,47,0,2024-02-27T11:00:22.543Z,english_534.wav,0,peel,526,32,4,5,français,f,4,0.32341667,-57.55026449,1.25840342
5ede918b4280d611f9a38200,48,0,2024-02-27T11:00:22.543Z,english_594.wav,0,peel,220,32,4,5,français,f,0,0.0,-85.15725243,1.49995106
5ede918b4280d611f9a38200,48,0,2024-02-27T11:00:22.543Z,english_594.wav,0,peel,220,32,4,5,français,f,1,0.1,18.57908242,1.36683942
5ede918b4280d611f9a38200,48,0,2024-02-27T11:00:22.543Z,english_594.wav,0,peel,220,32,4,5,français,f,2,0.2,-52.1381203,1.31792707
5ede918b4280d611f9a38200,48,0,2024-02-27T11:00:22.543Z,english_594.wav,0,peel,220,32,4,5,français,f,3,0.3,77.56862162,0.76119001
5ede918b4280d611f9a38200,48,0,2024-02-27T11:00:22.543Z,english_594.wav,0,peel,220,32,4,5,français,f,4,0.32341667,89.7133381,1.77084997
5ede918b4280d611f9a38200,49,0,2024-02-27T11:00:22.543Z,english_707.wav,0,peel,446,32,4,5,français,f,0,0.0,-17.04120346,1.06535483
5ede918b4280d611f9a38200,49,0,2024-02-27T11:00:22.543Z,english_707.wav,0,peel,446,32,4,5,français,f,1,0.1,-57.44917128,0.89541794
5ede918b4280d611f9a38200,49,0,2024-02-27T11:00:22.543Z,english_707.wav,0,peel,446,32,4,5,français,f,2,0.2,90.75848643,1.64838001
5ede918b4280d611f9a38200,49,0,2024-02-27T11:00:22.543Z,english_707.wav,0,peel,446,32,4,5,français,f,3,0.3,96.79852424,0.75431717
5ede918b4280d611f9a38200,49,0,2024-02-27T11:00:22.543Z,english_707.wav,0,peel,446,32,4,5,français,f,4,0.32341667,27.01716591,0.48082071
5ede918b4280d611f9a38200,50,1,2024-02-27T11:00:22.543Z,english_755.wav,0,peel,323,32,4,5,français,f,0,0.0,-15.85533995,0.06987403
5ede918b4280d611f9a38200,50,1,2024-02-27T11:00:22.543Z,english_755.wav,0,peel,323,32,4,5,français,f,1,0.1,-97.95934782,0.83204773
5ede918b4280d611f9a38200,50,1,2024-02-27T11:00:22.543Z,english_755.wav,0,peel,323,32,4,5,français,f,2,0.2,-5.14559719,1.06816443
5ede918b4280d611f9a38200,50,1,2024-02-27T11:00:22.543Z,english_755.wav,0,peel,323,32,4,5,français,f,3,0.3,32.74087849,1.42856986
5ede918b4280d611f9a38200,50,1,2024-02-27T11:00:22.543Z,english_755.wav,0,peel,323,32,4,5,français,f,4,0.32341667,-56.93437429,0.58130438
5ede918b4280d611f9a38200,51,1,2024-02-27T11:00:22.543Z,english_424.wav,0,peel,758,32,4,5,français,f,0,0.0,-7.44814198,1.7438251
5ede918b4280d611f9a38200,51,1,2024-02-27T11:00:22.543Z,english_424.wav,0,peel,758,32,4,5,français,f,1,0.1,9.0703424,1.33993463
5ede918b4280d611f9a38200,51,1,2024-02-27T11:00:22.543Z,english_424.wav,0,peel,758,32,4,5,français,f,2,0.2,-65.6005214,0.96535207
5ede918b4280d611f9a38200,51,1,2024-02-27T11:00:22.543Z,english_424.wav,0,peel,758,32,4,5,français,f,3,0.3,79.88163057,0.39557207
5ede918b4280d611f9a38200,51,1,2024-02-27T11:00:22.543Z,english_424.wav,0,peel,758,32,4,5,français,f,4,0.32341667,48.78273262,0.47346175
5ede918b4280d611f9a38200,52,1,2024-02-27T11:00:22.543Z,english_253.wav,0,peel,106,32,4,5,français,f,0,0.0,12.9108365,0.20464585
5ede918b4280d611f9a38200,52,1,2024-02-27T11:00:22.543Z,english_253.wav,0,peel,106,32,4,5,français,f,1,0.1,-70.83420593,1.97412558
5ede918b4280d611f9a38200,52,1,2024-02-27T11:00:22.543Z,english_253.wav,0,peel,106,32,4,5,français,f,2,0.2,-6.13796162,1.12401504
5ede918b4280d611f9a38200,52,1,2024-02-27T11:00:22.543Z,english_253.wav,0,peel,106,32,4,5,français,f,3,0.3,38.03543053,1.75851492
5ede918b4280d611f9a38200,52,1,2024-02-27T11:00:22.543Z,english_253.wav,0,peel,106,32,4,5,français,f,4,0.32341667,-61.21147917,0.77953826
5ede918b4280d611f9a38200,53,1,2024-02-27T11:00:22.543Z,english_7.wav,0,pill,299,32,4,5,français,f,0,0.0,-21.06405819,1.08184232
5ede918b4280d611f9a38200,53,1,2024-02-27T11:00:22.543Z,english_7.wav,0,pill,299,32,4,5,français,f,1,0.1,52.71042782,0.36719269
5ede918b4280d611f9a38200,53,1,2024-02-27T11:00:22.543Z,english_7.wav,0,pill,299,32,4,5,français,f,2,0.2,-75.60464889,0.43185312
5ede918b4280d611f9a38200,53,1,2024-02-27T11:00:22.543Z,english_7.wav,0,pill,299,32,4,5,français,f,3,0.3,-40.56941306,0.01474265
5ede918b4280d611f9a38200,53,1,2024-02-27T11:00:22.543Z,english_7.wav,0,pill,299,32,4,5,français,f,4,0.32341667,63.70656894,0.90880476
5ede918b4280d611f9a38200,54,1,2024-02-27T11:00:22.543Z,english_118.wav,0,pill,380,32,4,5,français,f,0,0.0,-46.26080879,0.77156844
5ede918b4280d611f9a38200,54,1,2024-02-27T11:00:22.543Z,english_118.wav,0,pill,380,32,4,5,français,f,1,0.1,-14.63576669,0.55135676
5ede918b4280d611f9a38200,54,1,2024-02-27T11:00:22.543Z,english_118.wav,0,pill,380,32,4,5,français,f,2,0.2,85.04541628,0.92804695
5ede918b4280d611f9a38200,54,1,2024-02-27T11:00:22.543Z,english_118.wav,0,pill,380,32,4,5,français,f,3,0.3,-49.31762638,1.40435072
5ede918b4280d611f9a38200,54,1,2024-02-27T11:00:22.543Z,english_118.wav,0,pill,380,32,4,5,français,f,4,0.32341667,16.64479416,1.67291824
5ede918b4280d611f9a38200,55,1,2024-02-27T11:00:22.543Z,english_975.wav,0,pill,780,32,4,5,français,f,0,0.0,30.76275893,1.75032315
5ede918b4280d611f9a38200,55,1,2024-02-27T11:00:22.543Z,english_975.wav,0,pill,780,32,4,5,français,f,1,0.1,-18.30184736,1.1766706
5ede918b4280d611f9a38200,55,1,2024-02-27T11:00:22.543Z,english_975.wav,0,pill,780,32,4,5,français,f,2,0.2,88.92209311,0.11148121
5ede918b4280d611f9a38200,55,1,2024-02-27T11:00:22.543Z,english_975.wav,0,pill,780,32,4,5,français,f,3,0.3,-15.78836893,1.00992181
5ede918b4280d611f9a38200,55,1,2024-02-27T11:00:22.543Z,english_975.wav,0,pill,780,32,4,5,français,f,4,0.32341667,81.69873146,1.08252971
5ede918b4280d611f9a38200,56,1,2024-02-27T11:00:22.543Z,english_745.wav,0,peel,315,32,4,5,français,f,0,0.0,-57.64472866,1.88925258
5ede918b4280d611f9a38200,56,1,2024-02-27T11:00:22.543Z,english_745.wav,0,peel,315,32,4,5,français,f,1,0.1,-14.80975681,0.26333653
5ede918b4280d611f9a38200,56,1,2024-02-27T11:00:22.543Z,english_745.wav,0,peel,315,32,4,5,français,f,2,0.2,44.46939178,1.01945351
5ede918b4280d611f9a38200,56,1,2024-02-27T11:00:22.543Z,english_745.wav,0,peel,315,32,4,5,français,f,3,0.3,56.80280999,0.00901457
5ede918b4280d611f9a38200,56,1,2024-02-27T11:00:22.543Z,english_745.wav,0,peel,315,32,4,5,français,f,4,0.32341667,-16.53068296,0.38778228
5ede918b4280d611f9a38200,57,1,2024-02-27T11:00:22.543Z,english_332.wav,0,pill,476,32,4,5,français,f,0,0.0,-51.41680869,1.58782391
5ede918b4280d611f9a38200,57,1,2024-02-27T11:00:22.543Z,english_332.wav,0,pill,476,32,4,5,français,f,1,0.1,4.985172,0.72138411
5ede918b4280d611f9a38200,57,1,2024-02-27T11:00:22.543Z,english_332.wav,0,pill,476,32,4,5,français,f,2,0.2,88.20327684,1.12265768
5ede918b4280d611f9a38200,57,1,2024-02-27T11:00:22.543Z,english_332.wav,0,pill,476,32,4,5,français,f,3,0.3,-58.40734817,0.23569111
5ede918b4280d611f9a38200,57,1,2024-02-27T11:00:22.543Z,english_332.wav,0,pill,476,32,4,5,français,f,4,0.32341667,68.30800912,1.23583309
5ede918b4280d611f9a38200,58,1,2024-02-27T11:00:22.543Z,english_11.wav,0,pill,492,32,4,5,français,f,0,0.0,-20.45826732,1.19869378
5ede918b4280d611f9a38200,58,1,2024-02-27T11:00:22.543Z,english_11.wav,0,pill,492,32,4,5,français,f,1,0.1,-31.26113472,0.2059713
5ede918b4280d611f9a38200,58,1,2024-02-27T11:00:22.543Z,english_11.wav,0,pill,492,32,4,5,français,f,2,0.2,84.03210455,0.62296143
5ede918b4280d611f9a38200,58,1,2024-02-27T11:00:22.543Z,english_11.wav,0,pill,492,32,4,5,français,f,3,0.3,30.35463164,1.49781179
5ede918b4280d611f9a38200,58,1,2024-02-27T11:00:22.543Z,english_11.wav,0,pill,492,32,4,5,français,f,4,0.32341667,-63.36217442,0.18750748
5ede918b4280d611f9a38200,59,1,2024-02-27T11:00:22.543Z,english_110.wav,0,peel,330,32,4,5,français,f,0,0.0,87.43016285,1.84693198
5ede918b4280d611f9a38200,59,1,2024-02-27T11:00:22.543Z,english_110.wav,0,peel,330,32,4,5,français,f,1,0.1,-22.53798338,0.72868036
5ede918b4280d611f9a38200,59,1,2024-02-27T11:00:22.543Z,english_110.wav,0,peel,330,32,4,5,français,f,2,0.2,60.38266123,1.6889543
5ede918b4280d611f9a38200,59,1,2024-02-27T11:00:22.543Z,english_110.wav,0,peel,330,32,4,5,français,f,3,0.3,50.75224473,0.97311446
5ede918b4280d611f9a38200,59,1,2024-02-27T11:00:22.543Z,english_110.wav,0,peel,330,32,4,5,français,f,4,0.32341667,87.78495288,0.46157718
5ede918b4280d611f9a38200,60,1,2024-02-27T11:00:22.543Z,english_742.wav,0,pill,432,32,4,5,français,f,0,0.0,12.62363586,1.26368295
5ede918b4280d611f9a38200,60,1,2024-02-27T11:00:22.543Z,english_742.wav,0,pill,432,32,4,5,français,f,1,0.1,23.02085171,0.7448394
5ede918b4280d611f9a38200,60,1,2024-02-27T11:00:22.543Z,english_742.wav,0,pill,432,32,4,5,français,f,2,0.2,23.36423086,0.05261082
5ede918b4280d611f9a38200,60,1,2024-02-27T11:00:22.543Z,english_742.wav,0,pill,432,32,4,5,français,f,3,0.3,97.70614946,1.01748925
5ede918b4280d611f9a38200,60,1,2024-02-27T11:00:22.543Z,english_742.wav,0,pill,432,32,4,5,français,f,4,0.32341667,-25.72861775,0.88645775
5ede918b4280d611f9a38200,61,1,2024-02-27T11:00:22.543Z,english_679.wav,0,pill,339,32,4,5,français,f,0,0.0,37.61966445,0.05085037
5ede918b4280d611f9a38200,61,1,2024-02-27T11:00:22.543Z,english_679.wav,0,pill,339,32,4,5,français,f,1,0.1,51.99791738,0.83446012
5ede918b4280d611f9a38200,61,1,2024-02-27T11:00:22.543Z,english_679.wav,0,pill,339,32,4,5,français,f,2,0.2,47.28862711,0.17034906
5ede918b4280d611f9a38200,61,1,2024-02-27T11:00:22.543Z,english_679.wav,0,pill,339,32,4,5,français,f,3,0.3,96.96405016,1.15010704
5ede918b4280d611f9a38200,61,1,2024-02-27T11:00:22.543Z,english_679.wav,0,pill,339,32,4,5,français,f,4,0.32341667,17.22990972,1.32170415
5ede918b4280d611f9a38200,62,1,2024-02-27T11:00:22.543Z,english_491.wav,0,pill,454,32,4,5,français,f,0,0.0,-58.06424917,1.23740358
5ede918b4280d611f9a38200,62,1,2024-02-27T11:00:22.543Z,english_491.wav,0,pill,454,32,4,5,français,f,1,0.1,-10.73132445,0.97891215
5ede918b4280d611f9a38200,62,1,2024-02-27T11:00:22.543Z,english_491.wav,0,pill,454,32,4,5,français,f,2,0.2,17.9230478,0.17588849
5ede918b4280d611f9a38200,62,1,2024-02-27T11:00:22.543Z,english_491.wav,0,pill,454,32,4,5,français,f,3,0.3,-41.27614743,0.52166982
5ede918b4280d611f9a38200,62,1,2024-02-27T11:00:22.543Z,english_491.wav,0,pill,454,32,4,5,français,f,4,0.32341667,-30.17832464,1.65640468
5ede918b4280d611f9a38200,63,1,2024-02-27T11:00:22.543Z,english_826.wav,0,pill,553,32,4,5,français,f,0,0.0,24.96468068,1.6444456
5ede918b4280d611f9a38200,63,1,2024-02-27T11:00:22.543Z,english_826.wav,0,pill,553,32,4,5,français,f,1,0.1,1.37616969,0.97947611
5ede918b4280d611f9a38200,63,1,2024-02-27T11:00:22.543Z,english_826.wav,0,pill,553,32,4,5,français,f,2,0.2,-71.19975556,0.49097947
5ede918b4280d611f9a38200,63,1,2024-02-27T11:00:22.543Z,english_826.wav,0,pill,553,32,4,5,français,f,3,0.3,-48.49913399,0.98819908
5ede918b4280d611f9a38200,63,1,2024-02-27T11:00:22.543Z,english_826.wav,0,pill,553,32,4,5,français,f,4,0.32341667,40.69153462,1.05842158
5ede918b4280d611f9a38200,64,1,2024-02-27T11:00:22.543Z,english_718.wav,0,pill,336,32,4,5,français,f,0,0.0,-62.54470118,0.40124114
5ede918b4280d611f9a38200,64,1,2024-02-27T11:00:22.543Z,english_718.wav,0,pill,336,32,4,5,français,f,1,0.1,-40.70811043,0.49945062
5ede918b4280d611f9a38200,64,1,2024-02-27T11:00:22.543Z,english_718.wav,0,pill,336,32,4,5,français,f,2,0.2,-11.25435391,1.54880463
5ede918b4280d611f9a38200,64,1,2024-02-27T11:00:22.543Z,english_718.wav,0,pill,336,32,4,5,français,f,3,0.3,-68.52161814,0.39118497
5ede918b4280d611f9a38200,64,1,2024-02-27T11:00:22.543Z,english_718.wav,0,pill,336,32,4,5,français,f,4,0.32341667,-77.89834334,0.07447668
5ede918b4280d611f9a38200,65,1,2024-02-27T11:00:22.543Z,english_404.wav,0,peel,155,32,4,5,français,f,0,0.0,32.93077195,0.80618862
5ede918b4280d611f9a38200,65,1,2024-02-27T11:00:22.543Z,english_404.wav,0,peel,155,32,4,5,français,f,1,0.1,51.79107477,1.03327995
5ede918b4280d611f9a38200,65,1,2024-02-27T11:00:22.543Z,english_404.wav,0,peel,155,32,4,5,français,f,2,0.2,-61.91466198,1.39590152
5ede918b4280d611f9a38200,65,1,2024-02-27T11:00:22.543Z,english_404.wav,0,peel,155,32,4,5,français,f,3,0.3,33.45957754,1.8615638
5ede918b4280d611f9a38200,65,1,2024-02-27T11:00:22.543Z,english_404.wav,0,peel,155,32,4,5,français,f,4,0.32341667,-82.23793256,0.80137687
5ede918b4280d611f9a38200,66,1,2024-02-27T11:00:22.543Z,english_623.wav,0,pill,420,32,4,5,français,f,0,0.0,-23.54178515,1.91881792
5ede918b4280d611f9a38200,66,1,2024-02-27T11:00:22.543Z,english_623.wav,0,pill,420,32,4,5,français,f,1,0.1,-47.52772515,0.99675119
5ede918b4280d611f9a38200,66,1,2024-02-27T11:00:22.543Z,english_623.wav,0,pill,420,32,4,5,français,f,2,0.2,47.20668934,0.26332691
5ede918b4280d611f9a38200,66,1,2024-02-27T11:00:22.543Z,english_623.wav,0,pill,420,32,4,5,français,f,3,0.3,-98.32001938,1.33317057
5ede918b4280d611f9a38200,66,1,2024-02-27T11:00:22.543Z,english_623.wav,0,pill,420,32,4,5,français,f,4,0.32341667,-63.09014275,1.04211108
5ede918b4280d611f9a38200,67,1,2024-02-27T11:00:22.543Z,english_266.wav,0,pill,384,32,4,5,français,f,0,0.0,16.70772117,0.81064175
5ede918b4280d611f9a38200,67,1,2024-02-27T11:00:22.543Z,english_266.wav,0,pill,384,32,4,5,français,f,1,0.1,-61.82971906,1.48442032
5ede918b4280d611f9a38200,67,1,2024-02-27T11:00:22.543Z,english_266.wav,0,pill,384,32,4,5,français,f,2,0.2,-31.41060896,1.39445033
5ede918b4280d611f9a38200,67,1,2024-02-27T11:00:22.543Z,english_266.wav,0,pill,384,32,4,5,français,f,3,0.3,-8.94045194,1.01594082
5ede918b4280d611f9a38200,67,1,2024-02-27T11:00:22.543Z,english_266.wav,0,pill,384,32,4,5,français,f,4,0.32341667,-27.43066022,0.75934284
5ede918b4280d611f9a38200,68,1,2024-02-27T11:00:22.543Z,english_350.wav,0,pill,560,32,4,5,français,f,0,0.0,97.64268741,0.61487918
5ede918b4280d611f9a38200,68,1,2024-02-27T11:00:22.543Z,english_350.wav,0,pill,560,32,4,5,français,f,1,0.1,23.96704837,0.40988424
5ede918b4280d611f9a38200,68,1,2024-02-27T11:00:22.543Z,english_350.wav,0,pill,560,32,4,5,français,f,2,0.2,50.30792237,0.86872158
5ede918b4280d611f9a38200,68,1,2024-02-27T11:00:22.543Z,english_350.wav,0,pill,560,32,4,5,français,f,3,0.3,71.77937185,1.01783109
5ede918b4280d611f9a38200,68,1,2024-02-27T11:00:22.543Z,english_350.wav,0,pill,560,32,4,5,français,f,4,0.32341667,-64.81416361,0.68761283
5ede918b4280d611f9a38200,69,1,2024-02-27T11:00:22.543Z,english_119.wav,0,pill,376,32,4,5,français,f,0,0.0,-72.13623542,1.33116293
5ede918b4280d611f9a38200,69,1,2024-02-27T11:00:22.543Z,english_119.wav,0,pill,376,32,4,5,français,f,1,0.1,-47.93500709,0.14257244
5ede918b4280d611f9a38200,69,1,2024-02-27T11:00:22.543Z,english_119.wav,0,pill,376,32,4,5,français,f,2,0.2,91.39212861,1.10285667
5ede918b4280d611f9a38200,69,1,2024-02-27T11:00:22.543Z,english_119.wav,0,pill,376,32,4,5,français,f,3,0.3,-4.62561099,0.57572872
5ede918b4280d611f9a38200,69,1,2024-02-27T11:00:22.543Z,english_119.wav,0,pill,376,32,4,5,français,f,4,0.32341667,-33.86599352,1.36512269
5ede918b4280d611f9a38200,70,1,2024-02-27T11:00:22.543Z,english_164.wav,0,peel,375,32,4,5,français,f,0,0.0,-18.99376005,1.91320144
5ede918b4280d611f9a38200,70,1,2024-02-27T11:00:22.543Z,english_164.wav,0,peel,375,32,4,5,français,f,1,0.1,-38.65269109,0.23857652
5ede918b4280d611f9a38200,70,1,2024-02-27T11:00:22.543Z,english_164.wav,0,peel,375,32,4,5,français,f,2,0.2,64.75288033,1.41883879
5ede918b4280d611f9a38200,70,1,2024-02-27T11:00:22.543Z,english_164.wav,0,peel,375,32,4,5,français,f,3,0.3,-33.8407164,1.34667564
5ede918b4280d611f9a38200,70,1,2024-02-27T11:00:22.543Z,english_164.wav,0,peel,375,32,4,5,français,f,4,0.32341667,27.96502681,0.04602263
5ede918b4280d611f9a38200,71,1,2024-02-27T11:00:22.543Z,english_330.wav,0,peel,481,32,4,5,français,f,0,0.0,-66.0623823,1.84658225
5ede918b4280d611f9a38200,71,1,2024-02-27T11:00:22.543Z,english_330.wav,0,peel,481,32,4,5,français,f,1,0.1,-90.7862333,0.94726644
5ede918b4280d611f9a38200,71,1,2024-02-27T11:00:22.543Z,english_330.wav,0,peel,481,32,4,5,français,f,2,0.2,-0.00810713819,1.52006519
5ede918b4280d611f9a38200,71,1,2024-02-27T11:00:22.543Z,english_330.wav,0,peel,481,32,4,5,français,f,3,0.3,-61.2450651,1.63286843
5ede918b4280d611f9a38200,71,1,2024-02-27T11:00:22.543Z,english_330.wav,0,peel,481,32,4,5,français,f,4,0.323416667,-0.344586516,1.74173618
5ede918b4280d611f9a38200,72,1,2024-02-27T11:00:22.543Z,english_692.wav,0,pill,415,32,4,5,français,f,0,0.0,-29.13306787,0.55849531
5ede918b4280d611f9a38200,72,1,2024-02-27T11:00:22.543Z,english_692.wav,0,pill,415,32,4,5,français,f,1,0.1,-41.86406343,1.96517265
5ede918b4280d611f9a38200,72,1,2024-02-27T11:00:22.543Z,english_692.wav,0,pill,415,32,4,5,français,f,2,0.2,-94.94051661,0.19953253
5ede918b4280d611f9a38200,72,1,2024-02-27T11:00:22.543Z,english_692.wav,0,pill,415,32,4,5,français,f,3,0.3,78.40426091,1.89357941
5ede918b4280d611f9a38200,72,1,2024-02-27T11:00:22.543Z,english_692.wav,0,pill,415,32,4,5,français,f,4,0.32341667,-47.11562344,1.37874109
5ede918b4280d611f9a38200,73,1,2024-02-27T11:00:22.543Z,english_208.wav,0,pill,617,32,4,5,français,f,0,0.0,-16.36413188,1.19542909
5ede918b4280d611f9a38200,73,1,2024-02-27T11:00:22.543Z,english_208.wav,0,pill,617,32,4,5,français,f,1,0.1,25.67725806,0.42717457
5ede918b4280d611f9a38200,73,1,2024-02-27T11:00:22.543Z,english_208.wav,0,pill,617,32,4,5,français,f,2,0.2,15.43722313,1.01088833
5ede918b4280d611f9a38200,73,1,2024-02-27T11:00:22.543Z,english_208.wav,0,pill,617,32,4,5,français,f,3,0.3,-39.3158007,1.09044814
5ede918b4280d611f9a38200,73,1,2024-02-27T11:00:22.543Z,english_208.wav,0,pill,617,32,4,5,français,f,4,0.32341667,38.48956167,1.60091335
5ede918b4280d611f9a38200,74,1,2024-02-27T11:00:22.543Z,english_787.wav,0,pill,576,32,4,5,français,f,0,0.0,57.99353047,1.96251481
5ede918b4280d611f9a38200,74,1,2024-02-27T11:00:22.543Z,english_787.wav,0,pill,576,32,4,5,français,f,1,0.1,-40.79525362,0.94444479
5ede918b4280d611f9a38200,74,1,2024-02-27T11:00:22.543Z,english_787.wav,0,pill,576,32,4,5,français,f,2,0.2,23.78072576,0.924778
5ede918b4280d611f9a38200,74,1,2024-02-27T11:00:22.543Z,english_787.wav,0,pill,576,32,4,5,français,f,3,0.3,72.96982422,0.31383508
5ede918b4280d611f9a38200,74,1,2024-02-27T11:00:22.543Z,english_787.wav,0,pill,576,32,4,5,français,f,4,0.32341667,53.76957631,0.68947425
5ede918b4280d611f9a38200,75,1,2024-02-27T11:00:22.543Z,english_864.wav,0,peel,211,32,4,5,français,f,0,0.0,-41.66547405,0.15536101
5ede918b4280d611f9a38200,75,1,2024-02-27T11:00:22.543Z,english_864.wav,0,peel,211,32,4,5,français,f,1,0.1,47.36949562,1.78739046
5ede918b4280d611f9a38200,75,1,2024-02-27T11:00:22.543Z,english_864.wav,0,peel,211,32,4,5,français,f,2,0.2,87.97635609,1.48310956
5ede918b4280d611f9a38200,75,1,2024-02-27T11:00:22.543Z,english_864.wav,0,peel,211,32,4,5,français,f,3,0.3,-18.88921291,0.35838492
5ede918b4280d611f9a38200,75,1,2024-02-27T11:00:22.543Z,english_864.wav,0,peel,211,32,4,5,français,f,4,0.32341667,13.88839096,0.21709894
5ede918b4280d611f9a38200,76,1,2024-02-27T11:00:22.543Z,english_515.wav,0,pill,1329,32,4,5,français,f,0,0.0,-51.44071002,1.17100165
5ede918b4280d611f9a38200,76,1,2024-02-27T11:00:22.543Z,english_515.wav,0,pill,1329,32,4,5,français,f,1,0.1,-54.80209221,0.37535268
5ede918b4280d611f9a38200,76,1,2024-02-27T11:00:22.543Z,english_515.wav,0,pill,1329,32,4,5,français,f,2,0.2,64.47174239,1.31079719
5ede918b4280d611f9a38200,76,1,2024-02-27T11:00:22.543Z,english_515.wav,0,pill,1329,32,4,5,français,f,3,0.3,-10.56071982,1.40472496
5ede918b4280d611f9a38200,76,1,2024-02-27T11:00:22.543Z,english_515.wav,0,pill,1329,32,4,5,français,f,4,0.32341667,-39.86348554,0.6392892
5ede918b4280d611f9a38200,77,1,2024-02-27T11:00:22.543Z,english_370.wav,0,peel,154,32,4,5,français,f,0,0.0,-90.17078727,0.17796458
5ede918b4280d611f9a38200,77,1,2024-02-27T11:00:22.543Z,english_370.wav,0,peel,154,32,4,5,français,f,1,0.1,-71.99280791,1.08934715
5ede918b4280d611f9a38200,77,1,2024-02-27T11:00:22.543Z,english_370.wav,0,peel,154,32,4,5,français,f,2,0.2,-13.60727202,1.05914244
5ede918b4280d611f9a38200,77,1,2024-02-27T11:00:22.543Z,english_370.wav,0,peel,154,32,4,5,français,f,3,0.3,-0.93192742,1.87852505
5ede918b4280d611f9a38200,77,1,2024-02-27T11:00:22.543Z,english_370.wav,0,peel,154,32,4,5,français,f,4,0.32341667,33.27852394,1.24161401
5ede918b4280d611f9a38200,78,1,2024-02-27T11:00:22.543Z,english_569.wav,0,pill,364,32,4,5,français,f,0,0.0,-44.4695194,1.56768834
5ede918b4280d611f9a38200,78,1,2024-02-27T11:00:22.543Z,english_569.wav,0,pill,364,32,4,5,français,f,1,0.1,50.36705327,0.42032873
5ede918b4280d611f9a38200,78,1,2024-02-27T11:00:22.543Z,english_569.wav,0,pill,364,32,4,5,français,f,2,0.2,-76.17438636,0.31133764
5ede918b4280d611f9a38200,78,1,2024-02-27T11:00:22.543Z,english_569.wav,0,pill,364,32,4,5,français,f,3,0.3,55.47083669,0.91900801
5ede918b4280d611f9a38200,78,1,2024-02-27T11:00:22.543Z,english_569.wav,0,pill,364,32,4,5,français,f,4,0.32341667,-10.68913609,1.26529561
5ede918b4280d611f9a38200,79,1,2024-02-27T11:00:22.543Z,english_721.wav,0,peel,351,32,4,5,français,f,0,0.0,-1.67193172,0.23966059
5ede918b4280d611f9a38200,79,1,2024-02-27T11:00:22.543Z,english_721.wav,0,peel,351,32,4,5,français,f,1,0.1,23.81304459,1.61361986
5ede918b4280d611f9a38200,79,1,2024-02-27T11:00:22.543Z,english_721.wav,0,peel,351,32,4,5,français,f,2,0.2,94.27532923,0.58045828
5ede918b4280d611f9a38200,79,1,2024-02-27T11:00:22.543Z,english_721.wav,0,peel,351,32,4,5,français,f,3,0.3,10.08520391,1.63757532
5ede918b4280d611f9a38200,79,1,2024-02-27T11:00:22.543Z,english_721.wav,0,peel,351,32,4,5,français,f,4,0.32341667,-26.68837018,1.4581473
5ede918b4280d611f9a38200,80,1,2024-02-27T11:00:22.543Z,english_245.wav,0,peel,406,32,4,5,français,f,0,0.0,74.89239003,1.30710747
5ede918b4280d611f9a38200,80,1,2024-02-27T11:00:22.543Z,english_245.wav,0,peel,406,32,4,5,français,f,1,0.1,41.98679172,0.93119149
5ede918b4280d611f9a38200,80,1,2024-02-27T11:00:22.543Z,english_245.wav,0,peel,406,32,4,5,français,f,2,0.2,99.42105985,1.84379828
5ede918b4280d611f9a38200,80,1,2024-02-27T11:00:22.543Z,english_245.wav,0,peel,406,32,4,5,français,f,3,0.3,-75.11958538,1.72828743
5ede918b4280d611f9a38200,80,1,2024-02-27T11:00:22.543Z,english_245.wav,0,peel,406,32,4,5,français,f,4,0.32341667,-62.10664415,0.50124118
5ede918b4280d611f9a38200,81,1,2024-02-27T11:00:22.543Z,english_461.wav,0,peel,386,32,4,5,français,f,0,0.0,-99.86661298,0.04975834
5ede918b4280d611f9a38200,81,1,2024-02-27T11:00:22.543Z,english_461.wav,0,peel,386,32,4,5,français,f,1,0.1,65.11959058,1.27856071
5ede918b4280d611f9a38200,81,1,2024-02-27T11:00:22.543Z,english_461.wav,0,peel,386,32,4,5,français,f,2,0.2,-96.19635976,1.53618081
5ede918b4280d611f9a38200,81,1,2024-02-27T11:00:22.543Z,english_461.wav,0,peel,386,32,4,5,français,f,3,0.3,56.69155656,1.97602464
5ede918b4280d611f9a38200,81,1,2024-02-27T11:00:22.543Z,english_461.wav,0,peel,386,32,4,5,français,f,4,0.32341667,-82.13106063,1.41647384
5ede918b4280d611f9a38200,82,1,2024-02-27T11:00:22.543Z,english_822.wav,0,peel,874,32,4,5,français,f,0,0.0,22.19463519,1.34957498
5ede918b4280d611f9a38200,82,1,2024-02-27T11:00:22.543Z,english_822.wav,0,peel,874,32,4,5,français,f,1,0.1,46.02970585,1.18534363
5ede918b4280d611f9a38200,82,1,2024-02-27T11:00:22.543Z,english_822.wav,0,peel,874,32,4,5,français,f,2,0.2,44.31281831,0.88966115
5ede918b4280d611f9a38200,82,1,2024-02-27T11:00:22.543Z,english_822.wav,0,peel,874,32,4,5,français,f,3,0.3,27.24156044,1.22476657
5ede918b4280d611f9a38200,82,1,2024-02-27T11:00:22.543Z,english_822.wav,0,peel,874,32,4,5,français,f,4,0.32341667,41.58842879,0.51847317
5ede918b4280d611f9a38200,83,1,2024-02-27T11:00:22.543Z,english_585.wav,0,peel,947,32,4,5,français,f,0,0.0,-47.47167609,0.91486293
5ede918b4280d611f9a38200,83,1,2024-02-27T11:00:22.543Z,english_585.wav,0,peel,947,32,4,5,français,f,1,0.1,-85.73018253,0.8051019
5ede918b4280d611f9a38200,83,1,2024-02-27T11:00:22.543Z,english_585.wav,0,peel,947,32,4,5,français,f,2,0.2,4.69567907,1.25289508
5ede918b4280d611f9a38200,83,1,2024-02-27T11:00:22.543Z,english_585.wav,0,peel,947,32,4,5,français,f,3,0.3,51.83381109,0.83258124
5ede918b4280d611f9a38200,83,1,2024-02-27T11:00:22.543Z,english_585.wav,0,peel,947,32,4,5,français,f,4,0.32341667,14.12777642,1.43411439
5ede918b4280d611f9a38200,84,1,2024-02-27T11:00:22.543Z,english_321.wav,0,peel,140,32,4,5,français,f,0,0.0,2.07721816,1.69623759
5ede918b4280d611f9a38200,84,1,2024-02-27T11:00:22.543Z,english_321.wav,0,peel,140,32,4,5,français,f,1,0.1,59.48735819,1.35736687
5ede918b4280d611f9a38200,84,1,2024-02-27T11:00:22.543Z,english_321.wav,0,peel,140,32,4,5,français,f,2,0.2,64.78149714,1.92920457
5ede918b4280d611f9a38200,84,1,2024-02-27T11:00:22.543Z,english_321.wav,0,peel,140,32,4,5,français,f,3,0.3,65.58393414,0.66559077
5ede918b4280d611f9a38200,84,1,2024-02-27T11:00:22.543Z,english_321.wav,0,peel,140,32,4,5,français,f,4,0.32341667,14.66673939,1.66523208
5ede918b4280d611f9a38200,85,1,2024-02-27T11:00:22.543Z,english_808.wav,0,pill,494,32,4,5,français,f,0,0.0,23.02589628,1.07384277
5ede918b4280d611f9a38200,85,1,2024-02-27T11:00:22.543Z,english_808.wav,0,pill,494,32,4,5,français,f,1,0.1,10.58817829,1.3919179
5ede918b4280d611f9a38200,85,1,2024-02-27T11:00:22.543Z,english_808.wav,0,pill,494,32,4,5,français,f,2,0.2,36.77134597,0.54960524
5ede918b4280d611f9a38200,85,1,2024-02-27T11:00:22.543Z,english_808.wav,0,pill,494,32,4,5,français,f,3,0.3,-30.31603221,1.95871365
5ede918b4280d611f9a38200,85,1,2024-02-27T11:00:22.543Z,english_808.wav,0,pill,494,32,4,5,français,f,4,0.32341667,9.74764343,0.79150541
5ede918b4280d611f9a38200,86,1,2024-02-27T11:00:22.543Z,english_432.wav,0,peel,319,32,4,5,français,f,0,0.0,34.04923955,0.51661687
5ede918b4280d611f9a38200,86,1,2024-02-27T11:00:22.543Z,english_432.wav,0,peel,319,32,4,5,français,f,1,0.1,-20.16773507,0.2259012
5ede918b4280d611f9a38200,86,1,2024-02-27T11:00:22.543Z,english_432.wav,0,peel,319,32,4,5,français,f,2,0.2,58.06800811,1.98214485
5ede918b4280d611f9a38200,86,1,2024-02-27T11:00:22.543Z,english_432.wav,0,peel,319,32,4,5,français,f,3,0.3,46.82268278,1.23025235
5ede918b4280d611f9a38200,86,1,2024-02-27T11:00:22.543Z,english_432.wav,0,peel,319,32,4,5,français,f,4,0.32341667,16.04458546,1.72803009
5ede918b4280d611f9a38200,87,1,2024-02-27T11:00:22.543Z,english_175.wav,0,pill,560,32,4,5,français,f,0,0.0,-88.83902874,0.00773228
5ede918b4280d611f9a38200,87,1,2024-02-27T11:00:22.543Z,english_175.wav,0,pill,560,32,4,5,français,f,1,0.1,8.60564456,1.6431495
5ede918b4280d611f9a38200,87,1,2024-02-27T11:00:22.543Z,english_175.wav,0,pill,560,32,4,5,français,f,2,0.2,7.189218,0.24882977
5ede918b4280d611f9a38200,87,1,2024-02-27T11:00:22.543Z,english_175.wav,0,pill,560,32,4,5,français,f,3,0.3,-2.31675389,1.20663028
5ede918b4280d611f9a38200,87,1,2024-02-27T11:00:22.543Z,english_175.wav,0,pill,560,32,4,5,français,f,4,0.32341667,-21.56803319,0.57172188
5ede918b4280d611f9a38200,88,1,2024-02-27T11:00:22.543Z,english_488.wav,0,peel,236,32,4,5,français,f,0,0.0,7.19120882,0.55609806
5ede918b4280d611f9a38200,88,1,2024-02-27T11:00:22.543Z,english_488.wav,0,peel,236,32,4,5,français,f,1,0.1,11.64873536,1.36121935
5ede918b4280d611f9a38200,88,1,2024-02-27T11:00:22.543Z,english_488.wav,0,peel,236,32,4,5,français,f,2,0.2,59.26032861,0.93872915
5ede918b4280d611f9a38200,88,1,2024-02-27T11:00:22.543Z,english_488.wav,0,peel,236,32,4,5,français,f,3,0.3,-31.0631162,1.52041262
5ede918b4280d611f9a38200,88,1,2024-02-27T11:00:22.543Z,english_488.wav,0,peel,236,32,4,5,français,f,4,0.32341667,23.8619583,1.83140972
5ede918b4280d611f9a38200,89,1,2024-02-27T11:00:22.543Z,english_567.wav,0,pill,330,32,4,5,français,f,0,0.0,26.28994663,0.43358591
5ede918b4280d611f9a38200,89,1,2024-02-27T11:00:22.543Z,english_567.wav,0,pill,330,32,4,5,français,f,1,0.1,-84.76959918,0.96759171
5ede918b4280d611f9a38200,89,1,2024-02-27T11:00:22.543Z,english_567.wav,0,pill,330,32,4,5,français,f,2,0.2,-17.21635209,0.27115372
5ede918b4280d611f9a38200,89,1,2024-02-27T11:00:22.543Z,english_567.wav,0,pill,330,32,4,5,français,f,3,0.3,-93.28005251,1.2000135
5ede918b4280d611f9a38200,89,1,2024-02-27T11:00:22.543Z,english_567.wav,0,pill,330,32,4,5,français,f,4,0.32341667,55.01605665,1.11881456
5ede918b4280d611f9a38200,90,1,2024-02-27T11:00:22.543Z,english_14.wav,0,pill,497,32,4,5,français,f,0,0.0,98.00979643,0.92494293
5ede918b4280d611f9a38200,90,1,2024-02-27T11:00:22.543Z,english_14.wav,0,pill,497,32,4,5,français,f,1,0.1,-39.90204919,0.80403915
5ede918b4280d611f9a38200,90,1,2024-02-27T11:00:22.543Z,english_14.wav,0,pill,497,32,4,5,français,f,2,0.2,51.0517473,0.29426005
5ede918b4280d611f9a38200,90,1,2024-02-27T11:00:22.543Z,english_14.wav,0,pill,497,32,4,5,français,f,3,0.3,-8.39716694,0.14957292
5ede918b4280d611f9a38200,90,1,2024-02-27T11:00:22.543Z,english_14.wav,0,pill,497,32,4,5,français,f,4,0.32341667,82.54419716,0.1717279
5ede918b4280d611f9a38200,91,1,2024-02-27T11:00:22.543Z,english_959.wav,0,peel,146,32,4,5,français,f,0,0.0,-78.42285057,1.71892855
5ede918b4280d611f9a38200,91,1,2024-02-27T11:00:22.543Z,english_959.wav,0,peel,146,32,4,5,français,f,1,0.1,6.44734251,1.96402951
5ede918b4280d611f9a38200,91,1,2024-02-27T11:00:22.543Z,english_959.wav,0,peel,146,32,4,5,français,f,2,0.2,20.74966326,0.26247596
5ede918b4280d611f9a38200,91,1,2024-02-27T11:00:22.543Z,english_959.wav,0,peel,146,32,4,5,français,f,3,0.3,-29.69680039,1.29464598
5ede918b4280d611f9a38200,91,1,2024-02-27T11:00:22.543Z,english_959.wav,0,peel,146,32,4,5,français,f,4,0.32341667,34.2282551,1.77868038
5ede918b4280d611f9a38200,92,1,2024-02-27T11:00:22.543Z,english_917.wav,0,pill,351,32,4,5,français,f,0,0.0,-2.28432431,0.51220006
5ede918b4280d611f9a38200,92,1,2024-02-27T11:00:22.543Z,english_917.wav,0,pill,351,32,4,5,français,f,1,0.1,-50.4941454,0.3783057
5ede918b4280d611f9a38200,92,1,2024-02-27T11:00:22.543Z,english_917.wav,0,pill,351,32,4,5,français,f,2,0.2,86.41176613,0.52629226
5ede918b4280d611f9a38200,92,1,2024-02-27T11:00:22.543Z,english_917.wav,0,pill,351,32,4,5,français,f,3,0.3,-50.97734163,0.68389314
5ede918b4280d611f9a38200,92,1,2024-02-27T11:00:22.543Z,english_917.wav,0,pill,351,32,4,5,français,f,4,0.32341667,97.13453513,1.73708117
5ede918b4280d611f9a38200,93,1,2024-02-27T11:00:22.543Z,english_934.wav,0,peel,247,32,4,5,français,f,0,0.0,48.23169593,1.38760579
5ede918b4280d611f9a38200,93,1,2024-02-27T11:00:22.543Z,english_934.wav,0,peel,247,32,4,5,français,f,1,0.1,42.81145804,1.74622613
5ede918b4280d611f9a38200,93,1,2024-02-27T11:00:22.543Z,english_934.wav,0,peel,247,32,4,5,français,f,2,0.2,79.06411095,0.2874918
5ede918b4280d611f9a38200,93,1,2024-02-27T11:00:22.543Z,english_934.wav,0,peel,247,32,4,5,français,f,3,0.3,69.44528076,1.61606763
5ede918b4280d611f9a38200,93,1,2024-02-27T11:00:22.543Z,english_934.wav,0,peel,247,32,4,5,français,f,4,0.32341667,88.54940569,1.62058381
5ede918b4280d611f9a38200,94,1,2024-02-27T11:00:22.543Z,english_658.wav,0,peel,702,32,4,5,français,f,0,0.0,-80.21976745,0.49170119
5ede918b4280d611f9a38200,94,1,2024-02-27T11:00:22.543Z,english_658.wav,0,peel,702,32,4,5,français,f,1,0.1,11.23314836,0.6994793
5ede918b4280d611f9a38200,94,1,2024-02-27T11:00:22.543Z,english_658.wav,0,peel,702,32,4,5,français,f,2,0.2,8.94946791,1.18458539
5ede918b4280d611f9a38200,94,1,2024-02-27T11:00:22.543Z,english_658.wav,0,peel,702,32,4,5,français,f,3,0.3,17.22411688,0.7091276
5ede918b4280d611f9a38200,94,1,2024-02-27T11:00:22.543Z,english_658.wav,0,peel,702,32,4,5,français,f,4,0.32341667,10.67081381,1.7453453
5ede918b4280d611f9a38200,95,1,2024-02-27T11:00:22.543Z,english_598.wav,0,peel,556,32,4,5,français,f,0,0.0,4.26365523,0.04069017
5ede918b4280d611f9a38200,95,1,2024-02-27T11:00:22.543Z,english_598.wav,0,peel,556,32,4,5,français,f,1,0.1,-29.634957,1.27980102
5ede918b4280d611f9a38200,95,1,2024-02-27T11:00:22.543Z,english_598.wav,0,peel,556,32,4,5,français,f,2,0.2,-17.49120793,0.98781586
5ede918b4280d611f9a38200,95,1,2024-02-27T11:00:22.543Z,english_598.wav,0,peel,556,32,4,5,français,f,3,0.3,-34.93876912,1.55939702
5ede918b4280d611f9a38200,95,1,2024-02-27T11:00:22.543Z,english_598.wav,0,peel,556,32,4,5,français,f,4,0.32341667,49.49845506,1.74128412
5ede918b4280d611f9a38200,96,1,2024-02-27T11:00:22.543Z,english_596.wav,0,pill,302,32,4,5,français,f,0,0.0,90.29147433,0.88361056
5ede918b4280d611f9a38200,96,1,2024-02-27T11:00:22.543Z,english_596.wav,0,pill,302,32,4,5,français,f,1,0.1,12.52853873,0.63799557
5ede918b4280d611f9a38200,96,1,2024-02-27T11:00:22.543Z,english_596.wav,0,pill,302,32,4,5,français,f,2,0.2,50.53853174,0.09787331
5ede918b4280d611f9a38200,96,1,2024-02-27T11:00:22.543Z,english_596.wav,0,pill,302,32,4,5,français,f,3,0.3,-77.3590695,1.15168959
5ede918b4280d611f9a38200,96,1,2024-02-27T11:00:22.543Z,english_596.wav,0,pill,302,32,4,5,français,f,4,0.32341667,-1.65440801,0.06773829
5ede918b4280d611f9a38200,97,1,2024-02-27T11:00:22.543Z,english_69.wav,0,pill,313,32,4,5,français,f,0,0.0,-57.18730239,0.11878381
5ede918b4280d611f9a38200,97,1,2024-02-27T11:00:22.543Z,english_69.wav,0,pill,313,32,4,5,français,f,1,0.1,16.22212469,1.00797921
5ede918b4280d611f9a38200,97,1,2024-02-27T11:00:22.543Z,english_69.wav,0,pill,313,32,4,5,français,f,2,0.2,-44.28071093,0.42082068
5ede918b4280d611f9a38200,97,1,2024-02-27T11:00:22.543Z,english_69.wav,0,pill,313,32,4,5,français,f,3,0.3,-70.80378082,0.50205716
5ede918b4280d611f9a38200,97,1,2024-02-27T11:00:22.543Z,english_69.wav,0,pill,313,32,4,5,français,f,4,0.32341667,-58.3439892,0.68985838
5ede918b4280d611f9a38200,98,1,2024-02-27T11:00:22.543Z,english_138.wav,0,pill,201,32,4,5,français,f,0,0.0,-79.80620147,0.37063564
5ede918b4280d611f9a38200,98,1,2024-02-27T11:00:22.543Z,english_138.wav,0,pill,201,32,4,5,français,f,1,0.1,-15.42889109,0.81801141
5ede918b4280d611f9a38200,98,1,2024-02-27T11:00:22.543Z,english_138.wav,0,pill,201,32,4,5,français,f,2,0.2,-88.31677226,0.0634538
5ede918b4280d611f9a38200,98,1,2024-02-27T11:00:22.543Z,english_138.wav,0,pill,201,32,4,5,français,f,3,0.3,26.6486106,1.85131452
5ede918b4280d611f9a38200,98,1,2024-02-27T11:00:22.543Z,english_138.wav,0,pill,201,32,4,5,français,f,4,0.32341667,-42.18894711,1.66059024
5ede918b4280d611f9a38200,99,1,2024-02-27T11:00:22.543Z,english_160.wav,0,pill,353,32,4,5,français,f,0,0.0,2.54964477,0.54357393
5ede918b4280d611f9a38200,99,1,2024-02-27T11:00:22.543Z,english_160.wav,0,pill,353,32,4,5,français,f,1,0.1,26.84692557,1.29343216
5ede918b4280d611f9a38200,99,1,2024-02-27T11:00:22.543Z,english_160.wav,0,pill,353,32,4,5,français,f,2,0.2,72.58457191,0.42070854
5ede918b4280d611f9a38200,99,1,2024-02-27T11:00:22.543Z,english_160.wav,0,pill,353,32,4,5,français,f,3,0.3,-6.94481249,1.04489529
5ede918b4280d611f9a38200,99,1,2024-02-27T11:00:22.543Z,english_160.wav,0,pill,353,32,4,5,français,f,4,0.32341667,35.80656171,0.26802137
5ede918b4280d611f9a38200,100,2,2024-02-27T11:00:22.543Z,english_738.wav,0,peel,120,32,4,5,français,f,0,0.0,-37.88087101,1.83397703
5ede918b4280d611f9a38200,100,2,2024-02-27T11:00:22.543Z,english_738.wav,0,peel,120,32,4,5,français,f,1,0.1,-16.85966727,1.52099356
5ede918b4280d611f9a38200,100,2,2024-02-27T11:00:22.543Z,english_738.wav,0,peel,120,32,4,5,français,f,2,0.2,-79.76891938,1.69283951
5ede918b4280d611f9a38200,100,2,2024-02-27T11:00:22.543Z,english_738.wav,0,peel,120,32,4,5,français,f,3,0.3,-82.30918252,1.81957343
5ede918b4280d611f9a38200,100,2,2024-02-27T11:00:22.543Z,english_738.wav,0,peel,120,32,4,5,français,f,4,0.32341667,59.65991076,0.75908376
5ede918b4280d611f9a38200,101,2,2024-02-27T11:00:22.543Z,english_538.wav,0,peel,539,32,4,5,français,f,0,0.0,2.36208538,1.54356298
5ede918b4280d611f9a38200,101,2,2024-02-27T11:00:22.543Z,english_538.wav,0,peel,539,32,4,5,français,f,1,0.1,77.85923423,0.47597082
5ede918b4280d611f9a38200,101,2,2024-02-27T11:00:22.543Z,english_538.wav,0,peel,539,32,4,5,français,f,2,0.2,-89.1271409,1.27977799
5ede918b4280d611f9a38200,101,2,2024-02-27T11:00:22.543Z,english_538.wav,0,peel,539,32,4,5,français,f,3,0.3,-18.79772534,1.05516459
5ede918b4280d611f9a38200,101,2,2024-02-27T11:00:22.543Z,english_538.wav,0,peel,539,32,4,5,français,f,4,0.32341667,87.62276495,1.20284762
5ede918b4280d611f9a38200,102,2,2024-02-27T11:00:22.543Z,english_695.wav,0,pill,317,32,4,5,français,f,0,0.0,-74.02191529,1.19534619
5ede918b4280d611f9a38200,102,2,2024-02-27T11:00:22.543Z,english_695.wav,0,pill,317,32,4,5,français,f,1,0.1,54.28596986,0.93917139
5ede918b4280d611f9a38200,102,2,2024-02-27T11:00:22.543Z,english_695.wav,0,pill,317,32,4,5,français,f,2,0.2,-13.22196683,0.1241488
5ede918b4280d611f9a38200,102,2,2024-02-27T11:00:22.543Z,english_695.wav,0,pill,317,32,4,5,français,f,3,0.3,1.82272444,1.20091234
5ede918b4280d611f9a38200,102,2,2024-02-27T11:00:22.543Z,english_695.wav,0,pill,317,32,4,5,français,f,4,0.32341667,-11.74905262,0.46222147
5ede918b4280d611f9a38200,103,2,2024-02-27T11:00:22.543Z,english_768.wav,0,pill,184,32,4,5,français,f,0,0.0,-28.93145359,1.5002074
5ede918b4280d611f9a38200,103,2,2024-02-27T11:00:22.543Z,english_768.wav,0,pill,184,32,4,5,français,f,1,0.1,59.49166151,1.15432208
5ede918b4280d611f9a38200,103,2,2024-02-27T11:00:22.543Z,english_768.wav,0,pill,184,32,4,5,français,f,2,0.2,41.87955621,0.01731471
5ede918b4280d611f9a38200,103,2,2024-02-27T11:00:22.543Z,english_768.wav,0,pill,184,32,4,5,français,f,3,0.3,-92.17589111,0.98337229
5ede918b4280d611f9a38200,103,2,2024-02-27T11:00:22.543Z,english_768.wav,0,pill,184,32,4,5,français,f,4,0.32341667,15.2364545,0.4381055
5ede918b4280d611f9a38200,104,2,2024-02-27T11:00:22.543Z,english_286.wav,0,pill,53,32,4,5,français,f,0,0.0,-94.9495111,0.49849168
5ede918b4280d611f9a38200,104,2,2024-02-27T11:00:22.543Z,english_286.wav,0,pill,53,32,4,5,français,f,1,0.1,-25.05656786,1.27672914
5ede918b4280d611f9a38200,104,2,2024-02-27T11:00:22.543Z,english_286.wav,0,pill,53,32,4,5,français,f,2,0.2,59.61150177,0.14515846
5ede918b4280d611f9a38200,104,2,2024-02-27T11:00:22.543Z,english_286.wav,0,pill,53,32,4,5,français,f,3,0.3,-32.97544875,1.67164973
5ede918b4280d611f9a38200,104,2,2024-02-27T11:00:22.543Z,english_286.wav,0,pill,53,32,4,5,français,f,4,0.32341667,7.58095242,0.86492177
5ede918b4280d611f9a38200,105,2,2024-02-27T11:00:22.543Z,english_508.wav,0,pill,292,32,4,5,français,f,0,0.0,-21.23116318,1.79614382
5ede918b4280d611f9a38200,105,2,2024-02-27T11:00:22.543Z,english_508.wav,0,pill,292,32,4,5,français,f,1,0.1,-27.56583205,0.60449395
5ede918b4280d611f9a38200,105,2,2024-02-27T11:00:22.543Z,english_508.wav,0,pill,292,32,4,5,français,f,2,0.2,64.21774851,0.56582153
5ede918b4280d611f9a38200,105,2,2024-02-27T11:00:22.543Z,english_508.wav,0,pill,292,32,4,5,français,f,3,0.3,-9.24056951,1.01665474
5ede918b4280d611f9a38200,105,2,2024-02-27T11:00:22.543Z,english_508.wav,0,pill,292,32,4,5,français,f,4,0.32341667,-9.74670904,0.78905044
5ede918b4280d611f9a38200,106,2,2024-02-27T11:00:22.543Z,english_750.wav,0,peel,498,32,4,5,français,f,0,0.0,54.68497377,0.76623701
5ede918b4280d611f9a38200,106,2,2024-02-27T11:00:22.543Z,english_750.wav,0,peel,498,32,4,5,français,f,1,0.1,0.91792919,1.58478782
5ede918b4280d611f9a38200,106,2,2024-02-27T11:00:22.543Z,english_750.wav,0,peel,498,32,4,5,français,f,2,0.2,-67.69423006,0.74884996
5ede918b4280d611f9a38200,106,2,2024-02-27T11:00:22.543Z,english_750.wav,0,peel,498,32,4,5,français,f,3,0.3,20.92985273,0.15814923
5ede918b4280d611f9a38200,106,2,2024-02-27T11:00:22.543Z,english_750.wav,0,peel,498,32,4,5,français,f,4,0.32341667,-39.60032316,1.58320499
5ede918b4280d611f9a38200,107,2,2024-02-27T11:00:22.543Z,english_990.wav,0,pill,582,32,4,5,français,f,0,0.0,-17.98511021,0.6190444
5ede918b4280d611f9a38200,107,2,2024-02-27T11:00:22.543Z,english_990.wav,0,pill,582,32,4,5,français,f,1,0.1,-90.3005676,0.77548775
5ede918b4280d611f9a38200,107,2,2024-02-27T11:00:22.543Z,english_990.wav,0,pill,582,32,4,5,français,f,2,0.2,4.37005684,0.55013224
5ede918b4280d611f9a38200,107,2,2024-02-27T11:00:22.543Z,english_990.wav,0,pill,582,32,4,5,français,f,3,0.3,83.93705034,0.66784051
5ede918b4280d611f9a38200,107,2,2024-02-27T11:00:22.543Z,english_990.wav,0,pill,582,32,4,5,français,f,4,0.32341667,-36.57803625,0.32384409
5ede918b4280d611f9a38200,108,2,2024-02-27T11:00:22.543Z,english_243.wav,0,peel,273,32,4,5,français,f,0,0.0,-74.41503345,0.65151457
5ede918b4280d611f9a38200,108,2,2024-02-27T11:00:22.543Z,english_243.wav,0,peel,273,32,4,5,français,f,1,0.1,-16.65530333,0.20623253
5ede918b4280d611f9a38200,108,2,2024-02-27T11:00:22.543Z,english_243.wav,0,peel,273,32,4,5,français,f,2,0.2,-1.41224798,0.87153721
5ede918b4280d611f9a38200,108,2,2024-02-27T11:00:22.543Z,english_243.wav,0,peel,273,32,4,5,français,f,3,0.3,37.30419975,0.28583671
5ede918b4280d611f9a38200,108,2,2024-02-27T11:00:22.543Z,english_243.wav,0,peel,273,32,4,5,français,f,4,0.32341667,-3.40378668,1.90700275
5ede918b4280d611f9a38200,109,2,2024-02-27T11:00:22.543Z,english_830.wav,0,peel,213,32,4,5,français,f,0,0.0,2.63258607,0.89301132
5ede918b4280d611f9a38200,109,2,2024-02-27T11:00:22.543Z,english_830.wav,0,peel,213,32,4,5,français,f,1,0.1,-31.8387274,1.32560067
5ede918b4280d611f9a38200,109,2,2024-02-27T11:00:22.543Z,english_830.wav,0,peel,213,32,4,5,français,f,2,0.2,-6.78563658,1.08718884
5ede918b4280d611f9a38200,109,2,2024-02-27T11:00:22.543Z,english_830.wav,0,peel,213,32,4,5,français,f,3,0.3,-57.52390495,0.53430446
5ede918b4280d611f9a38200,109,2,2024-02-27T11:00:22.543Z,english_830.wav,0,peel,213,32,4,5,français,f,4,0.32341667,51.13575953,0.53816607
5ede918b4280d611f9a38200,110,2,2024-02-27T11:00:22.543Z,english_937.wav,0,peel,788,32,4,5,français,f,0,0.0,76.77394395,1.55370699
5ede918b4280d611f9a38200,110,2,2024-02-27T11:00:22.543Z,english_937.wav,0,peel,788,32,4,5,français,f,1,0.1,49.33576264,1.82028848
5ede918b4280d611f9a38200,110,2,2024-02-27T11:00:22.543Z,english_937.wav,0,peel,788,32,4,5,français,f,2,0.2,-87.39935237,1.42487505
5ede918b4280d611f9a38200,110,2,2024-02-27T11:00:22.543Z,english_937.wav,0,peel,788,32,4,5,français,f,3,0.3,11.02170053,0.87896062
5ede918b4280d611f9a38200,110,2,2024-02-27T11:00:22.543Z,english_937.wav,0,peel,788,32,4,5,français,f,4,0.32341667,91.99381322,0.96516852
5ede918b4280d611f9a38200,111,2,2024-02-27T11:00:22.543Z,english_378.wav,0,peel,152,32,4,5,français,f,0,0.0,13.37832971,0.65677047
5ede918b4280d611f9a38200,111,2,2024-02-27T11:00:22.543Z,english_378.wav,0,peel,152,32,4,5,français,f,1,0.1,17.37931074,1.74134092
5ede918b4280d611f9a38200,111,2,2024-02-27T11:00:22.543Z,english_378.wav,0,peel,152,32,4,5,français,f,2,0.2,10.9554113,0.67897054
5ede918b4280d611f9a38200,111,2,2024-02-27T11:00:22.543Z,english_378.wav,0,peel,152,32,4,5,français,f,3,0.3,-24.86891171,1.20159635
5ede918b4280d611f9a38200,111,2,2024-02-27T11:00:22.543Z,english_378.wav,0,peel,152,32,4,5,français,f,4,0.32341667,7.89965194,0.27053006
5ede918b4280d611f9a38200,112,2,2024-02-27T11:00:22.543Z,english_825.wav,0,pill,528,32,4,5,français,f,0,0.0,9.96211161,0.17252736
5ede918b4280d611f9a38200,112,2,2024-02-27T11:00:22.543Z,english_825.wav,0,pill,528,32,4,5,français,f,1,0.1,-28.44120521,0.52830291
5ede918b4280d611f9a38200,112,2,2024-02-27T11:00:22.543Z,english_825.wav,0,pill,528,32,4,5,français,f,2,0.2,58.95311712,0.51646024
5ede918b4280d611f9a38200,112,2,2024-02-27T11:00:22.543Z,english_825.wav,0,pill,528,32,4,5,français,f,3,0.3,-14.85414305,0.70859388
5ede918b4280d611f9a38200,112,2,2024-02-27T11:00:22.543Z,english_825.wav,0,pill,528,32,4,5,français,f,4,0.32341667,85.14956963,0.64434305
5ede918b4280d611f9a38200,113,2,2024-02-27T11:00:22.543Z,english_140.wav,0,pill,518,32,4,5,français,f,0,0.0,-63.97366245,1.49783115
5ede918b4280d611f9a38200,113,2,2024-02-27T11:00:22.543Z,english_140.wav,0,pill,518,32,4,5,français,f,1,0.1,-84.90656008,1.37250299
5ede918b4280d611f9a38200,113,2,2024-02-27T11:00:22.543Z,english_140.wav,0,pill,518,32,4,5,français,f,2,0.2,93.42782744,0.10650492
5ede918b4280d611f9a38200,113,2,2024-02-27T11:00:22.543Z,english_140.wav,0,pill,518,32,4,5,français,f,3,0.3,11.57634117,0.84315206
5ede918b4280d611f9a38200,113,2,2024-02-27T11:00:22.543Z,english_140.wav,0,pill,518,32,4,5,français,f,4,0.32341667,80.35905055,1.26233419
5ede918b4280d611f9a38200,114,2,2024-02-27T11:00:22.543Z,english_120.wav,0,pill,361,32,4,5,français,f,0,0.0,55.2306484,0.43658612
5ede918b4280d611f9a38200,114,2,2024-02-27T11:00:22.543Z,english_120.wav,0,pill,361,32,4,5,français,f,1,0.1,82.00530973,0.03999251
5ede918b4280d611f9a38200,114,2,2024-02-27T11:00:22.543Z,english_120.wav,0,pill,361,32,4,5,français,f,2,0.2,-5.84837635,0.80827096
5ede918b4280d611f9a38200,114,2,2024-02-27T11:00:22.543Z,english_120.wav,0,pill,361,32,4,5,français,f,3,0.3,66.20489525,1.78669421
5ede918b4280d611f9a38200,114,2,2024-02-27T11:00:22.543Z,english_120.wav,0,pill,361,32,4,5,français,f,4,0.32341667,-73.22302923,1.04341795
5ede918b4280d611f9a38200,115,2,2024-02-27T11:00:22.543Z,english_812.wav,0,pill,73,32,4,5,français,f,0,0.0,70.24469457,0.85599223
5ede918b4280d611f9a38200,115,2,2024-02-27T11:00:22.543Z,english_812.wav,0,pill,73,32,4,5,français,f,1,0.1,-27.51466786,0.39005905
5ede918b4280d611f9a38200,115,2,2024-02-27T11:00:22.543Z,english_812.wav,0,pill,73,32,4,5,français,f,2,0.2,60.55844263,1.43275618
5ede918b4280d611f9a38200,115,2,2024-02-27T11:00:22.543Z,english_812.wav,0,pill,73,32,4,5,français,f,3,0.3,52.93607499,1.34329238
5ede918b4280d611f9a38200,115,2,2024-02-27T11:00:22.543Z,english_812.wav,0,pill,73,32,4,5,français,f,4,0.32341667,74.74872052,0.96810209
5ede918b4280d611f9a38200,116,2,2024-02-27T11:00:22.543Z,english_701.wav,0,pill,291,32,4,5,français,f,0,0.0,87.15265727,1.41120649
5ede918b4280d611f9a38200,116,2,2024-02-27T11:00:22.543Z,english_701.wav,0,pill,291,32,4,5,français,f,1,0.1,38.39882515,0.44004622
5ede918b4280d611f9a38200,116,2,2024-02-27T11:00:22.543Z,english_701.wav,0,pill,291,32,4,5,français,f,2,0.2,64.60201562,1.15462264
5ede918b4280d611f9a38200,116,2,2024-02-27T11:00:22.543Z,english_701.wav,0,pill,291,32,4,5,français,f,3,0.3,12.58613119,1.17454355
5ede918b4280d611f9a38200,116,2,2024-02-27T11:00:22.543Z,english_701.wav,0,pill,291,32,4,5,français,f,4,0.32341667,46.94968762,1.38716818
5ede918b4280d611f9a38200,117,2,2024-02-27T11:00:22.543Z,english_493.wav,0,peel,163,32,4,5,français,f,0,0.0,42.62366846,0.72879325
5ede918b4280d611f9a38200,117,2,2024-02-27T11:00:22.543Z,english_493.wav,0,peel,163,32,4,5,français,f,1,0.1,-24.95330968,1.87742997
5ede918b4280d611f9a38200,117,2,2024-02-27T11:00:22.543Z,english_493.wav,0,peel,163,32,4,5,français,f,2,0.2,82.3526737,1.69463318
5ede918b4280d611f9a38200,117,2,2024-02-27T11:00:22.543Z,english_493.wav,0,peel,163,32,4,5,français,f,3,0.3,53.78370402,0.82529142
5ede918b4280d611f9a38200,117,2,2024-02-27T11:00:22.543Z,english_493.wav,0,peel,163,32,4,5,français,f,4,0.32341667,-52.5410085,0.10126548
5ede918b4280d611f9a38200,118,2,2024-02-27T11:00:22.543Z,english_743.wav,0,pill,1099,32,4,5,français,f,0,0.0,-28.24983145,1.42102626
5ede918b4280d611f9a38200,118,2,2024-02-27T11:00:22.543Z,english_743.wav,0,pill,1099,32,4,5,français,f,1,0.1,71.30498545,0.84283155
5ede918b4280d611f9a38200,118,2,2024-02-27T11:00:22.543Z,english_743.wav,0,pill,1099,32,4,5,français,f,2,0.2,-89.00652632,0.82757129
5ede918b4280d611f9a38200,118,2,2024-02-27T11:00:22.543Z,english_743.wav,0,pill,1099,32,4,5,français,f,3,0.3,3.43441779,1.38808557
5ede918b4280d611f9a38200,118,2,2024-02-27T11:00:22.543Z,english_743.wav,0,pill,1099,32,4,5,français,f,4,0.32341667,-16.71659348,0.28501565
5ede918b4280d611f9a38200,119,2,2024-02-27T11:00:22.543Z,english_85.wav,0,pill,235,32,4,5,français,f,0,0.0,69.91092253,1.07696769
5ede918b4280d611f9a38200,119,2,2024-02-27T11:00:22.543Z,english_85.wav,0,pill,235,32,4,5,français,f,1,0.1,90.04885235,1.65675227
5ede918b4280d611f9a38200,119,2,2024-02-27T11:00:22.543Z,english_85.wav,0,pill,235,32,4,5,français,f,2,0.2,-54.471964,1.18566865
5ede918b4280d611f9a38200,119,2,2024-02-27T11:00:22.543Z,english_85.wav,0,pill,235,32,4,5,français,f,3,0.3,-32.42862041,0.43131811
5ede918b4280d611f9a38200,119,2,2024-02-27T11:00:22.543Z,english_85.wav,0,pill,235,32,4,5,français,f,4,0.32341667,-26.25094384,1.88641509
5ede918b4280d611f9a38200,120,2,2024-02-27T11:00:22.543Z,english_892.wav,0,pill,524,32,4,5,français,f,0,0.0,38.63128374,0.97893944
5ede918b4280d611f9a38200,120,2,2024-02-27T11:00:22.543Z,english_892.wav,0,pill,524,32,4,5,français,f,1,0.1,22.49899687,0.66551001
5ede918b4280d611f9a38200,120,2,2024-02-27T11:00:22.543Z,english_892.wav,0,pill,524,32,4,5,français,f,2,0.2,28.84135264,0.36795179
5ede918b4280d611f9a38200,120,2,2024-02-27T11:00:22.543Z,english_892.wav,0,pill,524,32,4,5,français,f,3,0.3,81.19740532,1.0840826
5ede918b4280d611f9a38200,120,2,2024-02-27T11:00:22.543Z,english_892.wav,0,pill,524,32,4,5,français,f,4,0.32341667,22.37782167,0.83637256
5ede918b4280d611f9a38200,121,2,2024-02-27T11:00:22.543Z,english_955.wav,0,pill,732,32,4,5,français,f,0,0.0,-93.58498903,1.26703381
5ede918b4280d611f9a38200,121,2,2024-02-27T11:00:22.543Z,english_955.wav,0,pill,732,32,4,5,français,f,1,0.1,-11.56731864,0.51967441
5ede918b4280d611f9a38200,121,2,2024-02-27T11:00:22.543Z,english_955.wav,0,pill,732,32,4,5,français,f,2,0.2,60.37787928,1.0313906
5ede918b4280d611f9a38200,121,2,2024-02-27T11:00:22.543Z,english_955.wav,0,pill,732,32,4,5,français,f,3,0.3,83.42366765,1.58878747
5ede918b4280d611f9a38200,121,2,2024-02-27T11:00:22.543Z,english_955.wav,0,pill,732,32,4,5,français,f,4,0.32341667,-60.32056418,1.0025339
5ede918b4280d611f9a38200,122,2,2024-02-27T11:00:22.543Z,english_630.wav,0,pill,292,32,4,5,français,f,0,0.0,97.25925287,0.34607754
5ede918b4280d611f9a38200,122,2,2024-02-27T11:00:22.543Z,english_630.wav,0,pill,292,32,4,5,français,f,1,0.1,76.95662127,0.15996234
5ede918b4280d611f9a38200,122,2,2024-02-27T11:00:22.543Z,english_630.wav,0,pill,292,32,4,5,français,f,2,0.2,5.01423186,1.73874617
5ede918b4280d611f9a38200,122,2,2024-02-27T11:00:22.543Z,english_630.wav,0,pill,292,32,4,5,français,f,3,0.3,-27.88706711,0.41181915
5ede918b4280d611f9a38200,122,2,2024-02-27T11:00:22.543Z,english_630.wav,0,pill,292,32,4,5,français,f,4,0.32341667,90.69966072,0.77788697
5ede918b4280d611f9a38200,123,2,2024-02-27T11:00:22.543Z,english_626.wav,0,pill,312,32,4,5,français,f,0,0.0,4.25415757,0.7037323
5ede918b4280d611f9a38200,123,2,2024-02-27T11:00:22.543Z,english_626.wav,0,pill,312,32,4,5,français,f,1,0.1,-41.27415217,1.26912647
5ede918b4280d611f9a38200,123,2,2024-02-27T11:00:22.543Z,english_626.wav,0,pill,312,32,4,5,français,f,2,0.2,-74.74598363,0.17760594
5ede918b4280d611f9a38200,123,2,2024-02-27T11:00:22.543Z,english_626.wav,0,pill,312,32,4,5,français,f,3,0.3,-15.94741517,1.12963497
5ede918b4280d611f9a38200,123,2,2024-02-27T11:00:22.543Z,english_626.wav,0,pill,312,32,4,5,français,f,4,0.32341667,43.51897949,0.85087029
5ede918b4280d611f9a38200,124,2,2024-02-27T11:00:22.543Z,english_935.wav,0,pill,158,32,4,5,français,f,0,0.0,64.39543101,0.53440609
5ede918b4280d611f9a38200,124,2,2024-02-27T11:00:22.543Z,english_935.wav,0,pill,158,32,4,5,français,f,1,0.1,86.95314533,0.5847186
5ede918b4280d611f9a38200,124,2,2024-02-27T11:00:22.543Z,english_935.wav,0,pill,158,32,4,5,français,f,2,0.2,-18.93400703,0.87093815
5ede918b4280d611f9a38200,124,2,2024-02-27T11:00:22.543Z,english_935.wav,0,pill,158,32,4,5,français,f,3,0.3,36.25821345,1.35336039
5ede918b4280d611f9a38200,124,2,2024-02-27T11:00:22.543Z,english_935.wav,0,pill,158,32,4,5,français,f,4,0.32341667,-52.75689815,1.46825192
5ede918b4280d611f9a38200,125,2,2024-02-27T11:00:22.543Z,english_535.wav,0,pill,220,32,4,5,français,f,0,0.0,-5.32882057,0.21055966
5ede918b4280d611f9a38200,125,2,2024-02-27T11:00:22.543Z,english_535.wav,0,pill,220,32,4,5,français,f,1,0.1,-34.98045039,0.89683134
5ede918b4280d611f9a38200,125,2,2024-02-27T11:00:22.543Z,english_535.wav,0,pill,220,32,4,5,français,f,2,0.2,30.10834221,1.11178172
5ede918b4280d611f9a38200,125,2,2024-02-27T11:00:22.543Z,english_535.wav,0,pill,220,32,4,5,français,f,3,0.3,-70.22542568,0.20123235
5ede918b4280d611f9a38200,125,2,2024-02-27T11:00:22.543Z,english_535.wav,0,pill,220,32,4,5,français,f,4,0.32341667,-73.0016054,0.99564794
5ede918b4280d611f9a38200,126,2,2024-02-27T11:00:22.543Z,english_256.wav,0,pill,129,32,4,5,français,f,0,0.0,22.60769813,1.84037168
5ede918b4280d611f9a38200,126,2,2024-02-27T11:00:22.543Z,english_256.wav,0,pill,129,32,4,5,français,f,1,0.1,-95.01444593,0.47687766
5ede918b4280d611f9a38200,126,2,2024-02-27T11:00:22.543Z,english_256.wav,0,pill,129,32,4,5,français,f,2,0.2,-19.91310746,0.85339151
5ede918b4280d611f9a38200,126,2,2024-02-27T11:00:22.543Z,english_256.wav,0,pill,129,32,4,5,français,f,3,0.3,-6.39209363,0.75097161
5ede918b4280d611f9a38200,126,2,2024-02-27T11:00:22.543Z,english_256.wav,0,pill,129,32,4,5,français,f,4,0.32341667,24.02209282,1.98695073
5ede918b4280d611f9a38200,127,2,2024-02-27T11:00:22.543Z,english_414.wav,0,pill,662,32,4,5,français,f,0,0.0,19.47839865,0.9434816
5ede918b4280d611f9a38200,127,2,2024-02-27T11:00:22.543Z,english_414.wav,0,pill,662,32,4,5,français,f,1,0.1,59.9490877,1.1146936
5ede918b4280d611f9a38200,127,2,2024-02-27T11:00:22.543Z,english_414.wav,0,pill,662,32,4,5,français,f,2,0.2,22.33981162,0.48476454
5ede918b4280d611f9a38200,127,2,2024-02-27T11:00:22.543Z,english_414.wav,0,pill,662,32,4,5,français,f,3,0.3,18.97426154,0.23554241
5ede918b4280d611f9a38200,127,2,2024-02-27T11:00:22.543Z,english_414.wav,0,pill,662,32,4,5,français,f,4,0.32341667,15.16306506,1.13007685
5ede918b4280d611f9a38200,128,2,2024-02-27T11:00:22.543Z,english_564.wav,0,pill,343,32,4,5,français,f,0,0.0,-4.16228192,1.35245187
5ede918b4280d611f9a38200,128,2,2024-02-27T11:00:22.543Z,english_564.wav,0,pill,343,32,4,5,français,f,1,0.1,-8.38376801,0.24798142
5ede918b4280d611f9a38200,128,2,2024-02-27T11:00:22.543Z,english_564.wav,0,pill,343,32,4,5,français,f,2,0.2,52.82752554,1.26376743
5ede918b4280d611f9a38200,128,2,2024-02-27T11:00:22.543Z,english_564.wav,0,pill,343,32,4,5,français,f,3,0.3,-92.64870354,0.73548171
5ede918b4280d611f9a38200,128,2,2024-02-27T11:00:22.543Z,english_564.wav,0,pill,343,32,4,5,français,f,4,0.32341667,-48.86146536,0.1394123
5ede918b4280d611f9a38200,129,2,2024-02-27T11:00:22.543Z,english_346.wav,0,peel,399,32,4,5,français,f,0,0.0,29.51078372,1.24489428
5ede918b4280d611f9a38200,129,2,2024-02-27T11:00:22.543Z,english_346.wav,0,peel,399,32,4,5,français,f,1,0.1,86.25753287,1.77356048
5ede918b4280d611f9a38200,129,2,2024-02-27T11:00:22.543Z,english_346.wav,0,peel,399,32,4,5,français,f,2,0.2,95.6553577,1.30862901
5ede918b4280d611f9a38200,129,2,2024-02-27T11:00:22.543Z,english_346.wav,0,peel,399,32,4,5,français,f,3,0.3,-65.97707071,0.68318311
5ede918b4280d611f9a38200,129,2,2024-02-27T11:00:22.543Z,english_346.wav,0,peel,399,32,4,5,français,f,4,0.32341667,49.79896228,1.63073528
5ede918b4280d611f9a38200,130,2,2024-02-27T11:00:22.543Z,english_442.wav,0,peel,81,32,4,5,français,f,0,0.0,-5.21319176,1.35819452
5ede918b4280d611f9a38200,130,2,2024-02-27T11:00:22.543Z,english_442.wav,0,peel,81,32,4,5,français,f,1,0.1,-16.23989513,1.66019663
5ede918b4280d611f9a38200,130,2,2024-02-27T11:00:22.543Z,english_442.wav,0,peel,81,32,4,5,français,f,2,0.2,-36.77315909,0.51170704
5ede918b4280d611f9a38200,130,2,2024-02-27T11:00:22.543Z,english_442.wav,0,peel,81,32,4,5,français,f,3,0.3,-33.51446291,1.6590932
5ede918b4280d611f9a38200,130,2,2024-02-27T11:00:22.543Z,english_442.wav,0,peel,81,32,4,5,français,f,4,0.32341667,-25.07447919,0.97998973
5ede918b4280d611f9a38200,131,2,2024-02-27T11:00:22.543Z,english_938.wav,0,pill,450,32,4,5,français,f,0,0.0,55.68553541,1.13527087
5ede918b4280d611f9a38200,131,2,2024-02-27T11:00:22.543Z,english_938.wav,0,pill,450,32,4,5,français,f,1,0.1,19.57508628,0.57526943
5ede918b4280d611f9a38200,131,2,2024-02-27T11:00:22.543Z,english_938.wav,0,pill,450,32,4,5,français,f,2,0.2,99.59707332,0.71873046
5ede918b4280d611f9a38200,131,2,2024-02-27T11:00:22.543Z,english_938.wav,0,pill,450,32,4,5,français,f,3,0.3,-43.3789335,0.88566698
5ede918b4280d611f9a38200,131,2,2024-02-27T11:00:22.543Z,english_938.wav,0,pill,450,32,4,5,français,f,4,0.32341667,90.00594125,0.39461425
5ede918b4280d611f9a38200,132,2,2024-02-27T11:00:22.543Z,english_449.wav,0,peel,695,32,4,5,français,f,0,0.0,-46.54576765,0.60085197
5ede918b4280d611f9a38200,132,2,2024-02-27T11:00:22.543Z,english_449.wav,0,peel,695,32,4,5,français,f,1,0.1,20.05422573,1.74901032
5ede918b4280d611f9a38200,132,2,2024-02-27T11:00:22.543Z,english_449.wav,0,peel,695,32,4,5,français,f,2,0.2,54.52400621,1.9506545
5ede918b4280d611f9a38200,132,2,2024-02-27T11:00:22.543Z,english_449.wav,0,peel,695,32,4,5,français,f,3,0.3,73.66855139,1.81044704
5ede918b4280d611f9a38200,132,2,2024-02-27T11:00:22.543Z,english_449.wav,0,peel,695,32,4,5,français,f,4,0.32341667,-1.88675615,0.93562966
5ede918b4280d611f9a38200,133,2,2024-02-27T11:00:22.543Z,english_877.wav,0,pill,492,32,4,5,français,f,0,0.0,49.36401037,1.25510861
5ede918b4280d611f9a38200,133,2,2024-02-27T11:00:22.543Z,english_877.wav,0,pill,492,32,4,5,français,f,1,0.1,15.17280231,0.84700305
5ede918b4280d611f9a38200,133,2,2024-02-27T11:00:22.543Z,english_877.wav,0,pill,492,32,4,5,français,f,2,0.2,22.36436744,0.32703774
5ede918b4280d611f9a38200,133,2,2024-02-27T11:00:22.543Z,english_877.wav,0,pill,492,32,4,5,français,f,3,0.3,-25.51979868,1.72637958
5ede918b4280d611f9a38200,133,2,2024-02-27T11:00:22.543Z,english_877.wav,0,pill,492,32,4,5,français,f,4,0.32341667,-55.72443313,0.52117686
5ede918b4280d611f9a38200,134,2,2024-02-27T11:00:22.543Z,english_228.wav,0,peel,180,32,4,5,français,f,0,0.0,10.35680964,1.81276751
5ede918b4280d611f9a38200,134,2,2024-02-27T11:00:22.543Z,english_228.wav,0,peel,180,32,4,5,français,f,1,0.1,-84.53961792,0.9819477
5ede918b4280d611f9a38200,134,2,2024-02-27T11:00:22.543Z,english_228.wav,0,peel,180,32,4,5,français,f,2,0.2,38.41788342,1.68506606
5ede918b4280d611f9a38200,134,2,2024-02-27T11:00:22.543Z,english_228.wav,0,peel,180,32,4,5,français,f,3,0.3,-9.18015311,0.19219142
5ede918b4280d611f9a38200,134,2,2024-02-27T11:00:22.543Z,english_228.wav,0,peel,180,32,4,5,français,f,4,0.32341667,-12.25744947,1.99636764
5ede918b4280d611f9a38200,135,2,2024-02-27T11:00:22.543Z,english_948.wav,0,peel,998,32,4,5,français,f,0,0.0,12.28616187,1.33435242
5ede918b4280d611f9a38200,135,2,2024-02-27T11:00:22.543Z,english_948.wav,0,peel,998,32,4,5,français,f,1,0.1,33.44634687,1.33862855
5ede918b4280d611f9a38200,135,2,2024-02-27T11:00:22.543Z,english_948.wav,0,peel,998,32,4,5,français,f,2,0.2,98.80566767,1.25876505
5ede918b4280d611f9a38200,135,2,2024-02-27T11:00:22.543Z,english_948.wav,0,peel,998,32,4,5,français,f,3,0.3,-93.57044844,1.87938727
5ede918b4280d611f9a38200,135,2,2024-02-27T11:00:22.543Z,english_948.wav,0,peel,998,32,4,5,français,f,4,0.32341667,-51.09398555,1.88731406
5ede918b4280d611f9a38200,136,2,2024-02-27T11:00:22.543Z,english_791.wav,0,peel,642,32,4,5,français,f,0,0.0,65.91759783,1.00744019
5ede918b4280d611f9a38200,136,2,2024-02-27T11:00:22.543Z,english_791.wav,0,peel,642,32,4,5,français,f,1,0.1,-36.70731143,0.67929445
5ede918b4280d611f9a38200,136,2,2024-02-27T11:00:22.543Z,english_791.wav,0,peel,642,32,4,5,français,f,2,0.2,67.54354156,0.95779159
5ede918b4280d611f9a38200,136,2,2024-02-27T11:00:22.543Z,english_791.wav,0,peel,642,32,4,5,français,f,3,0.3,2.89249458,1.93585264
5ede918b4280d611f9a38200,136,2,2024-02-27T11:00:22.543Z,english_791.wav,0,peel,642,32,4,5,français,f,4,0.32341667,-55.92630603,0.7587469
5ede918b4280d611f9a38200,137,2,2024-02-27T11:00:22.543Z,english_933.wav,0,pill,243,32,4,5,français,f,0,0.0,-48.12258855,1.54767366
5ede918b4280d611f9a38200,137,2,2024-02-27T11:00:22.543Z,english_933.wav,0,pill,243,32,4,5,français,f,1,0.1,27.26905516,0.30219473
5ede918b4280d611f9a38200,137,2,2024-02-27T11:00:22.543Z,english_933.wav,0,pill,243,32,4,5,français,f,2,0.2,0.35087756,1.50410475
5ede918b4280d611f9a38200,137,2,2024-02-27T11:00:22.543Z,english_933.wav,0,pill,243,32,4,5,français,f,3,0.3,94.96402149,1.44820406
5ede918b4280d611f9a38200,137,2,2024-02-27T11:00:22.543Z,english_933.wav,0,pill,243,32,4,5,français,f,4,0.32341667,61.52669097,0.05049928
5ede918b4280d611f9a38200,138,2,2024-02-27T11:00:22.543Z,english_996.wav,0,pill,413,32,4,5,français,f,0,0.0,-71.70531914,1.36459419
5ede918b4280d611f9a38200,138,2,2024-02-27T11:00:22.543Z,english_996.wav,0,pill,413,32,4,5,français,f,1,0.1,-47.61419544,0.5051745
5ede918b4280d611f9a38200,138,2,2024-02-27T11:00:22.543Z,english_996.wav,0,pill,413,32,4,5,français,f,2,0.2,48.0330823,1.09957376
5ede918b4280d611f9a38200,138,2,2024-02-27T11:00:22.543Z,english_996.wav,0,pill,413,32,4,5,français,f,3,0.3,34.27821317,0.27950682
5ede918b4280d611f9a38200,138,2,2024-02-27T11:00:22.543Z,english_996.wav,0,pill,413,32,4,5,français,f,4,0.32341667,-72.4662587,0.22836241
5ede918b4280d611f9a38200,139,2,2024-02-27T11:00:22.543Z,english_114.wav,0,pill,7,32,4,5,français,f,0,0.0,32.66189176,0.56529239
5ede918b4280d611f9a38200,139,2,2024-02-27T11:00:22.543Z,english_114.wav,0,pill,7,32,4,5,français,f,1,0.1,11.50533392,1.79520186
5ede918b4280d611f9a38200,139,2,2024-02-27T11:00:22.543Z,english_114.wav,0,pill,7,32,4,5,français,f,2,0.2,-73.58201401,1.4619954
5ede918b4280d611f9a38200,139,2,2024-02-27T11:00:22.543Z,english_114.wav,0,pill,7,32,4,5,français,f,3,0.3,-8.93644113,0.78288211
5ede918b4280d611f9a38200,139,2,2024-02-27T11:00:22.543Z,english_114.wav,0,pill,7,32,4,5,français,f,4,0.32341667,-2.4794064,0.66376764
5ede918b4280d611f9a38200,140,2,2024-02-27T11:00:22.543Z,english_978.wav,0,pill,575,32,4,5,français,f,0,0.0,-73.1961296,0.69168228
5ede918b4280d611f9a38200,140,2,2024-02-27T11:00:22.543Z,english_978.wav,0,pill,575,32,4,5,français,f,1,0.1,-56.98452675,1.28516196
5ede918b4280d611f9a38200,140,2,2024-02-27T11:00:22.543Z,english_978.wav,0,pill,575,32,4,5,français,f,2,0.2,1.81288897,1.00851945
5ede918b4280d611f9a38200,140,2,2024-02-27T11:00:22.543Z,english_978.wav,0,pill,575,32,4,5,français,f,3,0.3,-17.93803526,0.05981722
5ede918b4280d611f9a38200,140,2,2024-02-27T11:00:22.543Z,english_978.wav,0,pill,575,32,4,5,français,f,4,0.32341667,-33.17886565,1.89275203
5ede918b4280d611f9a38200,141,2,2024-02-27T11:00:22.543Z,english_236.wav,0,pill,990,32,4,5,français,f,0,0.0,14.26564849,0.89253674
5ede918b4280d611f9a38200,141,2,2024-02-27T11:00:22.543Z,english_236.wav,0,pill,990,32,4,5,français,f,1,0.1,60.97219358,0.38957934
5ede918b4280d611f9a38200,141,2,2024-02-27T11:00:22.543Z,english_236.wav,0,pill,990,32,4,5,français,f,2,0.2,-12.39626346,1.55558051
5ede918b4280d611f9a38200,141,2,2024-02-27T11:00:22.543Z,english_236.wav,0,pill,990,32,4,5,français,f,3,0.3,-62.87774076,0.2682718
5ede918b4280d611f9a38200,141,2,2024-02-27T11:00:22.543Z,english_236.wav,0,pill,990,32,4,5,français,f,4,0.32341667,-75.97684705,1.92182597
5ede918b4280d611f9a38200,142,2,2024-02-27T11:00:22.543Z,english_227.wav,0,pill,452,32,4,5,français,f,0,0.0,-56.39318384,1.7541365
5ede918b4280d611f9a38200,142,2,2024-02-27T11:00:22.543Z,english_227.wav,0,pill,452,32,4,5,français,f,1,0.1,90.87442764,0.66011804
5ede918b4280d611f9a38200,142,2,2024-02-27T11:00:22.543Z,english_227.wav,0,pill,452,32,4,5,français,f,2,0.2,-39.94082392,0.16454365
5ede918b4280d611f9a38200,142,2,2024-02-27T11:00:22.543Z,english_227.wav,0,pill,452,32,4,5,français,f,3,0.3,31.5093861,0.63744506
5ede918b4280d611f9a38200,142,2,2024-02-27T11:00:22.543Z,english_227.wav,0,pill,452,32,4,5,français,f,4,0.32341667,70.38847456,0.55874538
5ede918b4280d611f9a38200,143,2,2024-02-27T11:00:22.543Z,english_514.wav,0,pill,467,32,4,5,français,f,0,0.0,-61.65105701,1.12509033
5ede918b4280d611f9a38200,143,2,2024-02-27T11:00:22.543Z,english_514.wav,0,pill,467,32,4,5,français,f,1,0.1,49.84264816,0.78701739
5ede918b4280d611f9a38200,143,2,2024-02-27T11:00:22.543Z,english_514.wav,0,pill,467,32,4,5,français,f,2,0.2,14.14440898,0.37052689
5ede918b4280d611f9a38200,143,2,2024-02-27T11:00:22.543Z,english_514.wav,0,pill,467,32,4,5,français,f,3,0.3,-30.10662908,1.42053426
5ede918b4280d611f9a38200,143,2,2024-02-27T11:00:22.543Z,english_514.wav,0,pill,467,32,4,5,français,f,4,0.32341667,90.48337022,1.94621598
5ede918b4280d611f9a38200,144,2,2024-02-27T11:00:22.543Z,english_677.wav,0,pill,490,32,4,5,français,f,0,0.0,74.92499355,0.4070184
5ede918b4280d611f9a38200,144,2,2024-02-27T11:00:22.543Z,english_677.wav,0,pill,490,32,4,5,français,f,1,0.1,35.44886391,0.82737557
5ede918b4280d611f9a38200,144,2,2024-02-27T11:00:22.543Z,english_677.wav,0,pill,490,32,4,5,français,f,2,0.2,3.82146975,0.46436239
5ede918b4280d611f9a38200,144,2,2024-02-27T11:00:22.543Z,english_677.wav,0,pill,490,32,4,5,français,f,3,0.3,10.3543008,1.40426898
5ede918b4280d611f9a38200,144,2,2024-02-27T11:00:22.543Z,english_677.wav,0,pill,490,32,4,5,français,f,4,0.32341667,-53.94170103,1.42138659
5ede918b4280d611f9a38200,145,2,2024-02-27T11:00:22.543Z,english_480.wav,0,pill,461,32,4,5,français,f,0,0.0,-9.10453384,0.61491247
5ede918b4280d611f9a38200,145,2,2024-02-27T11:00:22.543Z,english_480.wav,0,pill,461,32,4,5,français,f,1,0.1,72.09708103,1.35502449
5ede918b4280d611f9a38200,145,2,2024-02-27T11:00:22.543Z,english_480.wav,0,pill,461,32,4,5,français,f,2,0.2,-73.7181862,0.28674933
5ede918b4280d611f9a38200,145,2,2024-02-27T11:00:22.543Z,english_480.wav,0,pill,461,32,4,5,français,f,3,0.3,18.73451671,0.14653082
5ede918b4280d611f9a38200,145,2,2024-02-27T11:00:22.543Z,english_480.wav,0,pill,461,32,4,5,français,f,4,0.32341667,83.35837597,1.34653786
5ede918b4280d611f9a38200,146,2,2024-02-27T11:00:22.543Z,english_699.wav,0,peel,697,32,4,5,français,f,0,0.0,-21.84844695,0.55007596
5ede918b4280d611f9a38200,146,2,2024-02-27T11:00:22.543Z,english_699.wav,0,peel,697,32,4,5,français,f,1,0.1,-20.61050251,0.98595355
5ede918b4280d611f9a38200,146,2,2024-02-27T11:00:22.543Z,english_699.wav,0,peel,697,32,4,5,français,f,2,0.2,-7.57046677,1.16771202
5ede918b4280d611f9a38200,146,2,2024-02-27T11:00:22.543Z,english_699.wav,0,peel,697,32,4,5,français,f,3,0.3,-90.18255135,0.60930532
5ede918b4280d611f9a38200,146,2,2024-02-27T11:00:22.543Z,english_699.wav,0,peel,697,32,4,5,français,f,4,0.32341667,-39.12532958,1.39260434
5ede918b4280d611f9a38200,147,2,2024-02-27T11:00:22.543Z,english_323.wav,0,peel,842,32,4,5,français,f,0,0.0,92.33188111,1.59668922
5ede918b4280d611f9a38200,147,2,2024-02-27T11:00:22.543Z,english_323.wav,0,peel,842,32,4,5,français,f,1,0.1,4.22577609,1.75306106
5ede918b4280d611f9a38200,147,2,2024-02-27T11:00:22.543Z,english_323.wav,0,peel,842,32,4,5,français,f,2,0.2,-35.48560344,1.06071567
5ede918b4280d611f9a38200,147,2,2024-02-27T11:00:22.543Z,english_323.wav,0,peel,842,32,4,5,français,f,3,0.3,7.73763769,1.9328625
5ede918b4280d611f9a38200,147,2,2024-02-27T11:00:22.543Z,english_323.wav,0,peel,842,32,4,5,français,f,4,0.32341667,55.62458321,1.27347405
5ede918b4280d611f9a38200,148,2,2024-02-27T11:00:22.543Z,english_230.wav,0,pill,596,32,4,5,français,f,0,0.0,59.01519707,0.66464778
5ede918b4280d611f9a38200,148,2,2024-02-27T11:00:22.543Z,english_230.wav,0,pill,596,32,4,5,français,f,1,0.1,-74.67447784,1.09498554
5ede918b4280d611f9a38200,148,2,2024-02-27T11:00:22.543Z,english_230.wav,0,pill,596,32,4,5,français,f,2,0.2,78.11378701,0.24708562
5ede918b4280d611f9a38200,148,2,2024-02-27T11:00:22.543Z,english_230.wav,0,pill,596,32,4,5,français,f,3,0.3,26.79367619,1.40152246
5ede918b4280d611f9a38200,148,2,2024-02-27T11:00:22.543Z,english_230.wav,0,pill,596,32,4,5,français,f,4,0.32341667,29.92451654,1.02203861
5ede918b4280d611f9a38200,149,2,2024-02-27T11:00:22.543Z,english_894.wav,0,pill,357,32,4,5,français,f,0,0.0,55.36181915,0.37154348
5ede918b4280d611f9a38200,149,2,2024-02-27T11:00:22.543Z,english_894.wav,0,pill,357,32,4,5,français,f,1,0.1,1.74798824,0.78809476
5ede918b4280d611f9a38200,149,2,2024-02-27T11:00:22.543Z,english_894.wav,0,pill,357,32,4,5,français,f,2,0.2,53.5320483,0.08099688
5ede918b4280d611f9a38200,149,2,2024-02-27T11:00:22.543Z,english_894.wav,0,pill,357,32,4,5,français,f,3,0.3,-10.60196251,1.90254096
5ede918b4280d611f9a38200,149,2,2024-02-27T11:00:22.543Z,english_894.wav,0,pill,357,32,4,5,français,f,4,0.32341667,46.95013059,0.68783971
5ede918b4280d611f9a38200,150,3,2024-02-27T11:00:22.543Z,english_455.wav,0,peel,355,32,4,5,français,f,0,0.0,16.09493262,0.21208686
5ede918b4280d611f9a38200,150,3,2024-02-27T11:00:22.543Z,english_455.wav,0,peel,355,32,4,5,français,f,1,0.1,24.58982,1.0305564
5ede918b4280d611f9a38200,150,3,2024-02-27T11:00:22.543Z,english_455.wav,0,peel,355,32,4,5,français,f,2,0.2,-59.31201859,1.53057992
5ede918b4280d611f9a38200,150,3,2024-02-27T11:00:22.543Z,english_455.wav,0,peel,355,32,4,5,français,f,3,0.3,40.79603426,0.62599766
5ede918b4280d611f9a38200,150,3,2024-02-27T11:00:22.543Z,english_455.wav,0,peel,355,32,4,5,français,f,4,0.32341667,-39.30035714,1.43054244
5ede918b4280d611f9a38200,151,3,2024-02-27T11:00:22.543Z,english_49.wav,0,pill,311,32,4,5,français,f,0,0.0,-6.08822071,0.36436507
5ede918b4280d611f9a38200,151,3,2024-02-27T11:00:22.543Z,english_49.wav,0,pill,311,32,4,5,français,f,1,0.1,-56.0367764,1.66948988
5ede918b4280d611f9a38200,151,3,2024-02-27T11:00:22.543Z,english_49.wav,0,pill,311,32,4,5,français,f,2,0.2,-51.95657584,1.20554654
5ede918b4280d611f9a38200,151,3,2024-02-27T11:00:22.543Z,english_49.wav,0,pill,311,32,4,5,français,f,3,0.3,-59.93208112,0.31084089
5ede918b4280d611f9a38200,151,3,2024-02-27T11:00:22.543Z,english_49.wav,0,pill,311,32,4,5,français,f,4,0.32341667,-7.85847813,0.44223059
5ede918b4280d611f9a38200,152,3,2024-02-27T11:00:22.543Z,english_456.wav,0,pill,609,32,4,5,français,f,0,0.0,43.57092671,0.12750432
5ede918b4280d611f9a38200,152,3,2024-02-27T11:00:22.543Z,english_456.wav,0,pill,609,32,4,5,français,f,1,0.1,59.73787768,0.97340157
5ede918b4280d611f9a38200,152,3,2024-02-27T11:00:22.543Z,english_456.wav,0,pill,609,32,4,5,français,f,2,0.2,82.18665257,0.43547726
5ede918b4280d611f9a38200,152,3,2024-02-27T11:00:22.543Z,english_456.wav,0,pill,609,32,4,5,français,f,3,0.3,84.09992258,1.17970357
