subj,trial,block,date,stim,stim_order,response,rt,age,english,french,language,sex,param_index,segment,pitch,stretch
5ca1196fffab4a00149a02a9,0,0,2024-02-27T11:07:41.963Z,english_562.wav,0,pill,1442,27,4,5,Français,f,0,0.0,-40.22672309,0.64031882
5ca1196fffab4a00149a02a9,0,0,2024-02-27T11:07:41.963Z,english_562.wav,0,pill,1442,27,4,5,Français,f,1,0.1,77.961849,0.7637006
5ca1196fffab4a00149a02a9,0,0,2024-02-27T11:07:41.963Z,english_562.wav,0,pill,1442,27,4,5,Français,f,2,0.2,25.52463525,0.87632482
5ca1196fffab4a00149a02a9,0,0,2024-02-27T11:07:41.963Z,english_562.wav,0,pill,1442,27,4,5,Français,f,3,0.3,84.62788358,0.98972612
5ca1196fffab4a00149a02a9,0,0,2024-02-27T11:07:41.963Z,english_562.wav,0,pill,1442,27,4,5,Français,f,4,0.32341667,-53.67427145,0.74010285
5ca1196fffab4a00149a02a9,1,0,2024-02-27T11:07:41.963Z,english_262.wav,0,peel,1677,27,4,5,Français,f,0,0.0,-55.0240476,0.91992097
5ca1196fffab4a00149a02a9,1,0,2024-02-27T11:07:41.963Z,english_262.wav,0,peel,1677,27,4,5,Français,f,1,0.1,46.31562141,0.94194362
5ca1196fffab4a00149a02a9,1,0,2024-02-27T11:07:41.963Z,english_262.wav,0,peel,1677,27,4,5,Français,f,2,0.2,62.5855756,1.80305422
5ca1196fffab4a00149a02a9,1,0,2024-02-27T11:07:41.963Z,english_262.wav,0,peel,1677,27,4,5,Français,f,3,0.3,-4.25909078,0.51544707
5ca1196fffab4a00149a02a9,1,0,2024-02-27T11:07:41.963Z,english_262.wav,0,peel,1677,27,4,5,Français,f,4,0.32341667,16.27030636,1.47198659
5ca1196fffab4a00149a02a9,2,0,2024-02-27T11:07:41.963Z,english_638.wav,0,peel,1793,27,4,5,Français,f,0,0.0,6.92468799,1.1702122
5ca1196fffab4a00149a02a9,2,0,2024-02-27T11:07:41.963Z,english_638.wav,0,peel,1793,27,4,5,Français,f,1,0.1,52.10042521,0.51269982
5ca1196fffab4a00149a02a9,2,0,2024-02-27T11:07:41.963Z,english_638.wav,0,peel,1793,27,4,5,Français,f,2,0.2,-39.07293948,0.1912204
5ca1196fffab4a00149a02a9,2,0,2024-02-27T11:07:41.963Z,english_638.wav,0,peel,1793,27,4,5,Français,f,3,0.3,38.46029754,0.91406415
5ca1196fffab4a00149a02a9,2,0,2024-02-27T11:07:41.963Z,english_638.wav,0,peel,1793,27,4,5,Français,f,4,0.32341667,-16.6630855,1.67689755
5ca1196fffab4a00149a02a9,3,0,2024-02-27T11:07:41.963Z,english_878.wav,0,pill,638,27,4,5,Français,f,0,0.0,84.19501339,0.22676298
5ca1196fffab4a00149a02a9,3,0,2024-02-27T11:07:41.963Z,english_878.wav,0,pill,638,27,4,5,Français,f,1,0.1,76.71234668,0.28568495
5ca1196fffab4a00149a02a9,3,0,2024-02-27T11:07:41.963Z,english_878.wav,0,pill,638,27,4,5,Français,f,2,0.2,-74.61835319,0.74220819
5ca1196fffab4a00149a02a9,3,0,2024-02-27T11:07:41.963Z,english_878.wav,0,pill,638,27,4,5,Français,f,3,0.3,83.79758366,1.72755148
5ca1196fffab4a00149a02a9,3,0,2024-02-27T11:07:41.963Z,english_878.wav,0,pill,638,27,4,5,Français,f,4,0.32341667,-29.32243698,1.88938616
5ca1196fffab4a00149a02a9,4,0,2024-02-27T11:07:41.963Z,english_885.wav,0,pill,500,27,4,5,Français,f,0,0.0,36.3288655,0.78617108
5ca1196fffab4a00149a02a9,4,0,2024-02-27T11:07:41.963Z,english_885.wav,0,pill,500,27,4,5,Français,f,1,0.1,-33.4786966,0.96292114
5ca1196fffab4a00149a02a9,4,0,2024-02-27T11:07:41.963Z,english_885.wav,0,pill,500,27,4,5,Français,f,2,0.2,8.05827153,0.70266535
5ca1196fffab4a00149a02a9,4,0,2024-02-27T11:07:41.963Z,english_885.wav,0,pill,500,27,4,5,Français,f,3,0.3,84.98004341,0.45613544
5ca1196fffab4a00149a02a9,4,0,2024-02-27T11:07:41.963Z,english_885.wav,0,pill,500,27,4,5,Français,f,4,0.32341667,-34.65749493,0.81873504
5ca1196fffab4a00149a02a9,5,0,2024-02-27T11:07:41.963Z,english_507.wav,0,peel,424,27,4,5,Français,f,0,0.0,-61.1842488,1.97653192
5ca1196fffab4a00149a02a9,5,0,2024-02-27T11:07:41.963Z,english_507.wav,0,peel,424,27,4,5,Français,f,1,0.1,-67.40048172,1.52355847
5ca1196fffab4a00149a02a9,5,0,2024-02-27T11:07:41.963Z,english_507.wav,0,peel,424,27,4,5,Français,f,2,0.2,12.41471853,0.98006415
5ca1196fffab4a00149a02a9,5,0,2024-02-27T11:07:41.963Z,english_507.wav,0,peel,424,27,4,5,Français,f,3,0.3,-23.82579329,0.44372312
5ca1196fffab4a00149a02a9,5,0,2024-02-27T11:07:41.963Z,english_507.wav,0,peel,424,27,4,5,Français,f,4,0.32341667,9.53005369,0.65281453
5ca1196fffab4a00149a02a9,6,0,2024-02-27T11:07:41.963Z,english_306.wav,0,peel,448,27,4,5,Français,f,0,0.0,-78.46406697,1.96625377
5ca1196fffab4a00149a02a9,6,0,2024-02-27T11:07:41.963Z,english_306.wav,0,peel,448,27,4,5,Français,f,1,0.1,-60.64765069,1.9128761
5ca1196fffab4a00149a02a9,6,0,2024-02-27T11:07:41.963Z,english_306.wav,0,peel,448,27,4,5,Français,f,2,0.2,41.654101,0.92284414
5ca1196fffab4a00149a02a9,6,0,2024-02-27T11:07:41.963Z,english_306.wav,0,peel,448,27,4,5,Français,f,3,0.3,58.45609749,1.12546267
5ca1196fffab4a00149a02a9,6,0,2024-02-27T11:07:41.963Z,english_306.wav,0,peel,448,27,4,5,Français,f,4,0.32341667,-89.32145871,0.77622038
5ca1196fffab4a00149a02a9,7,0,2024-02-27T11:07:41.963Z,english_886.wav,0,peel,435,27,4,5,Français,f,0,0.0,52.0334205,0.43451348
5ca1196fffab4a00149a02a9,7,0,2024-02-27T11:07:41.963Z,english_886.wav,0,peel,435,27,4,5,Français,f,1,0.1,-34.60142464,1.57387994
5ca1196fffab4a00149a02a9,7,0,2024-02-27T11:07:41.963Z,english_886.wav,0,peel,435,27,4,5,Français,f,2,0.2,77.69993065,1.05416836
5ca1196fffab4a00149a02a9,7,0,2024-02-27T11:07:41.963Z,english_886.wav,0,peel,435,27,4,5,Français,f,3,0.3,29.08950905,0.32554246
5ca1196fffab4a00149a02a9,7,0,2024-02-27T11:07:41.963Z,english_886.wav,0,peel,435,27,4,5,Français,f,4,0.32341667,-98.8324779,1.85669509
5ca1196fffab4a00149a02a9,8,0,2024-02-27T11:07:41.963Z,english_115.wav,0,peel,311,27,4,5,Français,f,0,0.0,-6.4126324,0.37361158
5ca1196fffab4a00149a02a9,8,0,2024-02-27T11:07:41.963Z,english_115.wav,0,peel,311,27,4,5,Français,f,1,0.1,-78.70213007,1.5865766
5ca1196fffab4a00149a02a9,8,0,2024-02-27T11:07:41.963Z,english_115.wav,0,peel,311,27,4,5,Français,f,2,0.2,-0.36204046,1.00360432
5ca1196fffab4a00149a02a9,8,0,2024-02-27T11:07:41.963Z,english_115.wav,0,peel,311,27,4,5,Français,f,3,0.3,-47.97210547,1.3933449
5ca1196fffab4a00149a02a9,8,0,2024-02-27T11:07:41.963Z,english_115.wav,0,peel,311,27,4,5,Français,f,4,0.32341667,3.06964689,1.1205092
5ca1196fffab4a00149a02a9,9,0,2024-02-27T11:07:41.963Z,english_533.wav,0,peel,547,27,4,5,Français,f,0,0.0,-10.36570298,0.10013008
5ca1196fffab4a00149a02a9,9,0,2024-02-27T11:07:41.963Z,english_533.wav,0,peel,547,27,4,5,Français,f,1,0.1,-67.04420928,1.73583104
5ca1196fffab4a00149a02a9,9,0,2024-02-27T11:07:41.963Z,english_533.wav,0,peel,547,27,4,5,Français,f,2,0.2,-31.24691396,1.00550506
5ca1196fffab4a00149a02a9,9,0,2024-02-27T11:07:41.963Z,english_533.wav,0,peel,547,27,4,5,Français,f,3,0.3,-22.73912087,1.21009828
5ca1196fffab4a00149a02a9,9,0,2024-02-27T11:07:41.963Z,english_533.wav,0,peel,547,27,4,5,Français,f,4,0.32341667,-4.63915005,1.69946188
5ca1196fffab4a00149a02a9,10,0,2024-02-27T11:07:41.963Z,english_811.wav,0,peel,511,27,4,5,Français,f,0,0.0,-51.03425556,1.55055496
5ca1196fffab4a00149a02a9,10,0,2024-02-27T11:07:41.963Z,english_811.wav,0,peel,511,27,4,5,Français,f,1,0.1,22.81695275,1.74830484
5ca1196fffab4a00149a02a9,10,0,2024-02-27T11:07:41.963Z,english_811.wav,0,peel,511,27,4,5,Français,f,2,0.2,73.06623682,1.24661488
5ca1196fffab4a00149a02a9,10,0,2024-02-27T11:07:41.963Z,english_811.wav,0,peel,511,27,4,5,Français,f,3,0.3,-9.17693151,0.09792889
5ca1196fffab4a00149a02a9,10,0,2024-02-27T11:07:41.963Z,english_811.wav,0,peel,511,27,4,5,Français,f,4,0.32341667,79.97760745,0.03735929
5ca1196fffab4a00149a02a9,11,0,2024-02-27T11:07:41.963Z,english_422.wav,0,pill,444,27,4,5,Français,f,0,0.0,-79.81150205,1.34332733
5ca1196fffab4a00149a02a9,11,0,2024-02-27T11:07:41.963Z,english_422.wav,0,pill,444,27,4,5,Français,f,1,0.1,-2.02836706,0.77514932
5ca1196fffab4a00149a02a9,11,0,2024-02-27T11:07:41.963Z,english_422.wav,0,pill,444,27,4,5,Français,f,2,0.2,-11.18998235,0.33214039
5ca1196fffab4a00149a02a9,11,0,2024-02-27T11:07:41.963Z,english_422.wav,0,pill,444,27,4,5,Français,f,3,0.3,52.04958687,0.53493982
5ca1196fffab4a00149a02a9,11,0,2024-02-27T11:07:41.963Z,english_422.wav,0,pill,444,27,4,5,Français,f,4,0.32341667,-63.48776447,0.45685022
5ca1196fffab4a00149a02a9,12,0,2024-02-27T11:07:41.963Z,english_345.wav,0,peel,327,27,4,5,Français,f,0,0.0,-46.00579497,1.58751342
5ca1196fffab4a00149a02a9,12,0,2024-02-27T11:07:41.963Z,english_345.wav,0,peel,327,27,4,5,Français,f,1,0.1,-45.5805492,1.0202646
5ca1196fffab4a00149a02a9,12,0,2024-02-27T11:07:41.963Z,english_345.wav,0,peel,327,27,4,5,Français,f,2,0.2,-14.04378539,0.61561299
5ca1196fffab4a00149a02a9,12,0,2024-02-27T11:07:41.963Z,english_345.wav,0,peel,327,27,4,5,Français,f,3,0.3,63.72413351,1.21547564
5ca1196fffab4a00149a02a9,12,0,2024-02-27T11:07:41.963Z,english_345.wav,0,peel,327,27,4,5,Français,f,4,0.32341667,18.03717792,1.47127253
5ca1196fffab4a00149a02a9,13,0,2024-02-27T11:07:41.963Z,english_397.wav,0,pill,905,27,4,5,Français,f,0,0.0,89.67962381,0.42719638
5ca1196fffab4a00149a02a9,13,0,2024-02-27T11:07:41.963Z,english_397.wav,0,pill,905,27,4,5,Français,f,1,0.1,-80.29722345,0.89466904
5ca1196fffab4a00149a02a9,13,0,2024-02-27T11:07:41.963Z,english_397.wav,0,pill,905,27,4,5,Français,f,2,0.2,60.53564011,0.56174568
5ca1196fffab4a00149a02a9,13,0,2024-02-27T11:07:41.963Z,english_397.wav,0,pill,905,27,4,5,Français,f,3,0.3,9.94565725,0.1553242
5ca1196fffab4a00149a02a9,13,0,2024-02-27T11:07:41.963Z,english_397.wav,0,pill,905,27,4,5,Français,f,4,0.32341667,0.1319882,1.89079641
5ca1196fffab4a00149a02a9,14,0,2024-02-27T11:07:41.963Z,english_253.wav,0,peel,405,27,4,5,Français,f,0,0.0,12.9108365,0.20464585
5ca1196fffab4a00149a02a9,14,0,2024-02-27T11:07:41.963Z,english_253.wav,0,peel,405,27,4,5,Français,f,1,0.1,-70.83420593,1.97412558
5ca1196fffab4a00149a02a9,14,0,2024-02-27T11:07:41.963Z,english_253.wav,0,peel,405,27,4,5,Français,f,2,0.2,-6.13796162,1.12401504
5ca1196fffab4a00149a02a9,14,0,2024-02-27T11:07:41.963Z,english_253.wav,0,peel,405,27,4,5,Français,f,3,0.3,38.03543053,1.75851492
5ca1196fffab4a00149a02a9,14,0,2024-02-27T11:07:41.963Z,english_253.wav,0,peel,405,27,4,5,Français,f,4,0.32341667,-61.21147917,0.77953826
5ca1196fffab4a00149a02a9,15,0,2024-02-27T11:07:41.963Z,english_888.wav,0,peel,526,27,4,5,Français,f,0,0.0,-75.11317729,0.15619421
5ca1196fffab4a00149a02a9,15,0,2024-02-27T11:07:41.963Z,english_888.wav,0,peel,526,27,4,5,Français,f,1,0.1,-15.41916561,1.45351631
5ca1196fffab4a00149a02a9,15,0,2024-02-27T11:07:41.963Z,english_888.wav,0,peel,526,27,4,5,Français,f,2,0.2,30.82770832,1.60154734
5ca1196fffab4a00149a02a9,15,0,2024-02-27T11:07:41.963Z,english_888.wav,0,peel,526,27,4,5,Français,f,3,0.3,69.72581111,1.09787436
5ca1196fffab4a00149a02a9,15,0,2024-02-27T11:07:41.963Z,english_888.wav,0,peel,526,27,4,5,Français,f,4,0.32341667,-21.6620698,1.3760261
5ca1196fffab4a00149a02a9,16,0,2024-02-27T11:07:41.963Z,english_796.wav,0,pill,886,27,4,5,Français,f,0,0.0,57.52331511,0.93419081
5ca1196fffab4a00149a02a9,16,0,2024-02-27T11:07:41.963Z,english_796.wav,0,pill,886,27,4,5,Français,f,1,0.1,-53.71774571,0.77950231
5ca1196fffab4a00149a02a9,16,0,2024-02-27T11:07:41.963Z,english_796.wav,0,pill,886,27,4,5,Français,f,2,0.2,-36.09214461,0.54947466
5ca1196fffab4a00149a02a9,16,0,2024-02-27T11:07:41.963Z,english_796.wav,0,pill,886,27,4,5,Français,f,3,0.3,23.21783142,1.69054841
5ca1196fffab4a00149a02a9,16,0,2024-02-27T11:07:41.963Z,english_796.wav,0,pill,886,27,4,5,Français,f,4,0.32341667,-74.52171885,0.76047802
5ca1196fffab4a00149a02a9,17,0,2024-02-27T11:07:41.963Z,english_271.wav,0,pill,614,27,4,5,Français,f,0,0.0,24.41564841,0.25667552
5ca1196fffab4a00149a02a9,17,0,2024-02-27T11:07:41.963Z,english_271.wav,0,pill,614,27,4,5,Français,f,1,0.1,-64.42577909,1.20221217
5ca1196fffab4a00149a02a9,17,0,2024-02-27T11:07:41.963Z,english_271.wav,0,pill,614,27,4,5,Français,f,2,0.2,32.27025317,0.24658485
5ca1196fffab4a00149a02a9,17,0,2024-02-27T11:07:41.963Z,english_271.wav,0,pill,614,27,4,5,Français,f,3,0.3,58.71212772,1.57844265
5ca1196fffab4a00149a02a9,17,0,2024-02-27T11:07:41.963Z,english_271.wav,0,pill,614,27,4,5,Français,f,4,0.32341667,46.7300547,1.00400066
5ca1196fffab4a00149a02a9,18,0,2024-02-27T11:07:41.963Z,english_80.wav,0,pill,357,27,4,5,Français,f,0,0.0,33.21374474,1.09809668
5ca1196fffab4a00149a02a9,18,0,2024-02-27T11:07:41.963Z,english_80.wav,0,pill,357,27,4,5,Français,f,1,0.1,-72.2618742,1.73594877
5ca1196fffab4a00149a02a9,18,0,2024-02-27T11:07:41.963Z,english_80.wav,0,pill,357,27,4,5,Français,f,2,0.2,-29.44860443,0.30037535
5ca1196fffab4a00149a02a9,18,0,2024-02-27T11:07:41.963Z,english_80.wav,0,pill,357,27,4,5,Français,f,3,0.3,-33.36418129,0.36613598
5ca1196fffab4a00149a02a9,18,0,2024-02-27T11:07:41.963Z,english_80.wav,0,pill,357,27,4,5,Français,f,4,0.32341667,-65.11319145,0.50687614
5ca1196fffab4a00149a02a9,19,0,2024-02-27T11:07:41.963Z,english_200.wav,0,peel,277,27,4,5,Français,f,0,0.0,48.98677304,1.07797747
5ca1196fffab4a00149a02a9,19,0,2024-02-27T11:07:41.963Z,english_200.wav,0,peel,277,27,4,5,Français,f,1,0.1,13.54292536,1.23698451
5ca1196fffab4a00149a02a9,19,0,2024-02-27T11:07:41.963Z,english_200.wav,0,peel,277,27,4,5,Français,f,2,0.2,15.98335964,0.85343662
5ca1196fffab4a00149a02a9,19,0,2024-02-27T11:07:41.963Z,english_200.wav,0,peel,277,27,4,5,Français,f,3,0.3,-46.7743147,1.38707984
5ca1196fffab4a00149a02a9,19,0,2024-02-27T11:07:41.963Z,english_200.wav,0,peel,277,27,4,5,Français,f,4,0.32341667,-12.18386714,0.65409939
5ca1196fffab4a00149a02a9,20,0,2024-02-27T11:07:41.963Z,english_24.wav,0,pill,374,27,4,5,Français,f,0,0.0,83.82729659,0.31203725
5ca1196fffab4a00149a02a9,20,0,2024-02-27T11:07:41.963Z,english_24.wav,0,pill,374,27,4,5,Français,f,1,0.1,-2.54724082,1.56948954
5ca1196fffab4a00149a02a9,20,0,2024-02-27T11:07:41.963Z,english_24.wav,0,pill,374,27,4,5,Français,f,2,0.2,88.70909739,0.87333864
5ca1196fffab4a00149a02a9,20,0,2024-02-27T11:07:41.963Z,english_24.wav,0,pill,374,27,4,5,Français,f,3,0.3,48.93770926,0.88535019
5ca1196fffab4a00149a02a9,20,0,2024-02-27T11:07:41.963Z,english_24.wav,0,pill,374,27,4,5,Français,f,4,0.32341667,53.25190048,0.66112496
5ca1196fffab4a00149a02a9,21,0,2024-02-27T11:07:41.963Z,english_197.wav,0,peel,134,27,4,5,Français,f,0,0.0,-60.72223742,1.8449777
5ca1196fffab4a00149a02a9,21,0,2024-02-27T11:07:41.963Z,english_197.wav,0,peel,134,27,4,5,Français,f,1,0.1,-88.93421142,1.74693134
5ca1196fffab4a00149a02a9,21,0,2024-02-27T11:07:41.963Z,english_197.wav,0,peel,134,27,4,5,Français,f,2,0.2,51.43827126,1.11057597
5ca1196fffab4a00149a02a9,21,0,2024-02-27T11:07:41.963Z,english_197.wav,0,peel,134,27,4,5,Français,f,3,0.3,7.80125839,1.67371275
5ca1196fffab4a00149a02a9,21,0,2024-02-27T11:07:41.963Z,english_197.wav,0,peel,134,27,4,5,Français,f,4,0.32341667,-53.06876459,1.16077516
5ca1196fffab4a00149a02a9,22,0,2024-02-27T11:07:41.963Z,english_130.wav,0,peel,309,27,4,5,Français,f,0,0.0,-27.4951122,0.83907871
5ca1196fffab4a00149a02a9,22,0,2024-02-27T11:07:41.963Z,english_130.wav,0,peel,309,27,4,5,Français,f,1,0.1,-38.07775804,1.38560413
5ca1196fffab4a00149a02a9,22,0,2024-02-27T11:07:41.963Z,english_130.wav,0,peel,309,27,4,5,Français,f,2,0.2,-9.69340922,0.50531735
5ca1196fffab4a00149a02a9,22,0,2024-02-27T11:07:41.963Z,english_130.wav,0,peel,309,27,4,5,Français,f,3,0.3,-88.09187015,0.53414674
5ca1196fffab4a00149a02a9,22,0,2024-02-27T11:07:41.963Z,english_130.wav,0,peel,309,27,4,5,Français,f,4,0.32341667,-47.45461314,1.10107345
5ca1196fffab4a00149a02a9,23,0,2024-02-27T11:07:41.963Z,english_526.wav,0,pill,232,27,4,5,Français,f,0,0.0,-32.34532461,0.924261
5ca1196fffab4a00149a02a9,23,0,2024-02-27T11:07:41.963Z,english_526.wav,0,pill,232,27,4,5,Français,f,1,0.1,-46.6208459,0.25414499
5ca1196fffab4a00149a02a9,23,0,2024-02-27T11:07:41.963Z,english_526.wav,0,pill,232,27,4,5,Français,f,2,0.2,-42.84927068,1.01925886
5ca1196fffab4a00149a02a9,23,0,2024-02-27T11:07:41.963Z,english_526.wav,0,pill,232,27,4,5,Français,f,3,0.3,3.47643827,0.65966822
5ca1196fffab4a00149a02a9,23,0,2024-02-27T11:07:41.963Z,english_526.wav,0,pill,232,27,4,5,Français,f,4,0.32341667,52.79087598,1.50872035
5ca1196fffab4a00149a02a9,24,0,2024-02-27T11:07:41.963Z,english_521.wav,0,pill,898,27,4,5,Français,f,0,0.0,-39.78859965,1.84590666
5ca1196fffab4a00149a02a9,24,0,2024-02-27T11:07:41.963Z,english_521.wav,0,pill,898,27,4,5,Français,f,1,0.1,94.65680132,0.33665341
5ca1196fffab4a00149a02a9,24,0,2024-02-27T11:07:41.963Z,english_521.wav,0,pill,898,27,4,5,Français,f,2,0.2,-68.68225016,1.01474729
5ca1196fffab4a00149a02a9,24,0,2024-02-27T11:07:41.963Z,english_521.wav,0,pill,898,27,4,5,Français,f,3,0.3,19.56493677,0.73624599
5ca1196fffab4a00149a02a9,24,0,2024-02-27T11:07:41.963Z,english_521.wav,0,pill,898,27,4,5,Français,f,4,0.32341667,69.42990376,1.4391639
5ca1196fffab4a00149a02a9,25,0,2024-02-27T11:07:41.963Z,english_38.wav,0,peel,293,27,4,5,Français,f,0,0.0,-2.78484508,0.45448836
5ca1196fffab4a00149a02a9,25,0,2024-02-27T11:07:41.963Z,english_38.wav,0,peel,293,27,4,5,Français,f,1,0.1,-57.68912839,0.86252605
5ca1196fffab4a00149a02a9,25,0,2024-02-27T11:07:41.963Z,english_38.wav,0,peel,293,27,4,5,Français,f,2,0.2,-17.27242754,1.61904865
5ca1196fffab4a00149a02a9,25,0,2024-02-27T11:07:41.963Z,english_38.wav,0,peel,293,27,4,5,Français,f,3,0.3,-2.64514482,1.39130822
5ca1196fffab4a00149a02a9,25,0,2024-02-27T11:07:41.963Z,english_38.wav,0,peel,293,27,4,5,Français,f,4,0.32341667,55.14373267,1.59066599
5ca1196fffab4a00149a02a9,26,0,2024-02-27T11:07:41.963Z,english_488.wav,0,peel,913,27,4,5,Français,f,0,0.0,7.19120882,0.55609806
5ca1196fffab4a00149a02a9,26,0,2024-02-27T11:07:41.963Z,english_488.wav,0,peel,913,27,4,5,Français,f,1,0.1,11.64873536,1.36121935
5ca1196fffab4a00149a02a9,26,0,2024-02-27T11:07:41.963Z,english_488.wav,0,peel,913,27,4,5,Français,f,2,0.2,59.26032861,0.93872915
5ca1196fffab4a00149a02a9,26,0,2024-02-27T11:07:41.963Z,english_488.wav,0,peel,913,27,4,5,Français,f,3,0.3,-31.0631162,1.52041262
5ca1196fffab4a00149a02a9,26,0,2024-02-27T11:07:41.963Z,english_488.wav,0,peel,913,27,4,5,Français,f,4,0.32341667,23.8619583,1.83140972
5ca1196fffab4a00149a02a9,27,0,2024-02-27T11:07:41.963Z,english_537.wav,0,peel,428,27,4,5,Français,f,0,0.0,70.8709352,0.55947112
5ca1196fffab4a00149a02a9,27,0,2024-02-27T11:07:41.963Z,english_537.wav,0,peel,428,27,4,5,Français,f,1,0.1,32.34369018,1.10627241
5ca1196fffab4a00149a02a9,27,0,2024-02-27T11:07:41.963Z,english_537.wav,0,peel,428,27,4,5,Français,f,2,0.2,-92.9302278,1.10842043
5ca1196fffab4a00149a02a9,27,0,2024-02-27T11:07:41.963Z,english_537.wav,0,peel,428,27,4,5,Français,f,3,0.3,14.89115364,0.86800797
5ca1196fffab4a00149a02a9,27,0,2024-02-27T11:07:41.963Z,english_537.wav,0,peel,428,27,4,5,Français,f,4,0.32341667,-67.12260703,1.7659473
5ca1196fffab4a00149a02a9,28,0,2024-02-27T11:07:41.963Z,english_357.wav,0,pill,482,27,4,5,Français,f,0,0.0,76.35734026,1.14590216
5ca1196fffab4a00149a02a9,28,0,2024-02-27T11:07:41.963Z,english_357.wav,0,pill,482,27,4,5,Français,f,1,0.1,-86.84267031,0.53472093
5ca1196fffab4a00149a02a9,28,0,2024-02-27T11:07:41.963Z,english_357.wav,0,pill,482,27,4,5,Français,f,2,0.2,-64.6676431,0.54723503
5ca1196fffab4a00149a02a9,28,0,2024-02-27T11:07:41.963Z,english_357.wav,0,pill,482,27,4,5,Français,f,3,0.3,-69.9472318,1.29334783
5ca1196fffab4a00149a02a9,28,0,2024-02-27T11:07:41.963Z,english_357.wav,0,pill,482,27,4,5,Français,f,4,0.32341667,87.84988665,1.74725804
5ca1196fffab4a00149a02a9,29,0,2024-02-27T11:07:41.963Z,english_256.wav,0,peel,307,27,4,5,Français,f,0,0.0,22.60769813,1.84037168
5ca1196fffab4a00149a02a9,29,0,2024-02-27T11:07:41.963Z,english_256.wav,0,peel,307,27,4,5,Français,f,1,0.1,-95.01444593,0.47687766
5ca1196fffab4a00149a02a9,29,0,2024-02-27T11:07:41.963Z,english_256.wav,0,peel,307,27,4,5,Français,f,2,0.2,-19.91310746,0.85339151
5ca1196fffab4a00149a02a9,29,0,2024-02-27T11:07:41.963Z,english_256.wav,0,peel,307,27,4,5,Français,f,3,0.3,-6.39209363,0.75097161
5ca1196fffab4a00149a02a9,29,0,2024-02-27T11:07:41.963Z,english_256.wav,0,peel,307,27,4,5,Français,f,4,0.32341667,24.02209282,1.98695073
5ca1196fffab4a00149a02a9,30,0,2024-02-27T11:07:41.963Z,english_508.wav,0,pill,639,27,4,5,Français,f,0,0.0,-21.23116318,1.79614382
5ca1196fffab4a00149a02a9,30,0,2024-02-27T11:07:41.963Z,english_508.wav,0,pill,639,27,4,5,Français,f,1,0.1,-27.56583205,0.60449395
5ca1196fffab4a00149a02a9,30,0,2024-02-27T11:07:41.963Z,english_508.wav,0,pill,639,27,4,5,Français,f,2,0.2,64.21774851,0.56582153
5ca1196fffab4a00149a02a9,30,0,2024-02-27T11:07:41.963Z,english_508.wav,0,pill,639,27,4,5,Français,f,3,0.3,-9.24056951,1.01665474
5ca1196fffab4a00149a02a9,30,0,2024-02-27T11:07:41.963Z,english_508.wav,0,pill,639,27,4,5,Français,f,4,0.32341667,-9.74670904,0.78905044
5ca1196fffab4a00149a02a9,31,0,2024-02-27T11:07:41.963Z,english_108.wav,0,peel,327,27,4,5,Français,f,0,0.0,-20.69942707,0.77052949
5ca1196fffab4a00149a02a9,31,0,2024-02-27T11:07:41.963Z,english_108.wav,0,peel,327,27,4,5,Français,f,1,0.1,-59.42152954,1.01445352
5ca1196fffab4a00149a02a9,31,0,2024-02-27T11:07:41.963Z,english_108.wav,0,peel,327,27,4,5,Français,f,2,0.2,-8.09170222,0.42363715
5ca1196fffab4a00149a02a9,31,0,2024-02-27T11:07:41.963Z,english_108.wav,0,peel,327,27,4,5,Français,f,3,0.3,21.99826779,1.45799831
5ca1196fffab4a00149a02a9,31,0,2024-02-27T11:07:41.963Z,english_108.wav,0,peel,327,27,4,5,Français,f,4,0.32341667,56.38973361,1.71498507
5ca1196fffab4a00149a02a9,32,0,2024-02-27T11:07:41.963Z,english_669.wav,0,pill,1359,27,4,5,Français,f,0,0.0,-58.38123624,0.53455866
5ca1196fffab4a00149a02a9,32,0,2024-02-27T11:07:41.963Z,english_669.wav,0,pill,1359,27,4,5,Français,f,1,0.1,-80.20155876,0.64376179
5ca1196fffab4a00149a02a9,32,0,2024-02-27T11:07:41.963Z,english_669.wav,0,pill,1359,27,4,5,Français,f,2,0.2,-25.59737246,0.76694756
5ca1196fffab4a00149a02a9,32,0,2024-02-27T11:07:41.963Z,english_669.wav,0,pill,1359,27,4,5,Français,f,3,0.3,-30.25633946,1.36842807
5ca1196fffab4a00149a02a9,32,0,2024-02-27T11:07:41.963Z,english_669.wav,0,pill,1359,27,4,5,Français,f,4,0.32341667,-70.78768349,0.06434218
5ca1196fffab4a00149a02a9,33,0,2024-02-27T11:07:41.963Z,english_53.wav,0,pill,579,27,4,5,Français,f,0,0.0,5.97237457,0.42230306
5ca1196fffab4a00149a02a9,33,0,2024-02-27T11:07:41.963Z,english_53.wav,0,pill,579,27,4,5,Français,f,1,0.1,-76.12131912,0.60624646
5ca1196fffab4a00149a02a9,33,0,2024-02-27T11:07:41.963Z,english_53.wav,0,pill,579,27,4,5,Français,f,2,0.2,55.18337216,0.26369256
5ca1196fffab4a00149a02a9,33,0,2024-02-27T11:07:41.963Z,english_53.wav,0,pill,579,27,4,5,Français,f,3,0.3,70.32610425,1.07400525
5ca1196fffab4a00149a02a9,33,0,2024-02-27T11:07:41.963Z,english_53.wav,0,pill,579,27,4,5,Français,f,4,0.32341667,26.40450832,0.2721545
5ca1196fffab4a00149a02a9,34,0,2024-02-27T11:07:41.963Z,english_998.wav,0,pill,1057,27,4,5,Français,f,0,0.0,-57.03196796,0.0179282
5ca1196fffab4a00149a02a9,34,0,2024-02-27T11:07:41.963Z,english_998.wav,0,pill,1057,27,4,5,Français,f,1,0.1,-12.93623633,1.72217412
5ca1196fffab4a00149a02a9,34,0,2024-02-27T11:07:41.963Z,english_998.wav,0,pill,1057,27,4,5,Français,f,2,0.2,-24.63186366,0.91011795
5ca1196fffab4a00149a02a9,34,0,2024-02-27T11:07:41.963Z,english_998.wav,0,pill,1057,27,4,5,Français,f,3,0.3,-10.49750637,1.24282972
5ca1196fffab4a00149a02a9,34,0,2024-02-27T11:07:41.963Z,english_998.wav,0,pill,1057,27,4,5,Français,f,4,0.32341667,22.76793653,0.40520665
5ca1196fffab4a00149a02a9,35,0,2024-02-27T11:07:41.963Z,english_335.wav,0,pill,336,27,4,5,Français,f,0,0.0,2.73277154,0.73564724
5ca1196fffab4a00149a02a9,35,0,2024-02-27T11:07:41.963Z,english_335.wav,0,pill,336,27,4,5,Français,f,1,0.1,-7.1950175,0.15546095
5ca1196fffab4a00149a02a9,35,0,2024-02-27T11:07:41.963Z,english_335.wav,0,pill,336,27,4,5,Français,f,2,0.2,60.45920583,0.90435367
5ca1196fffab4a00149a02a9,35,0,2024-02-27T11:07:41.963Z,english_335.wav,0,pill,336,27,4,5,Français,f,3,0.3,-26.91989021,0.56661996
5ca1196fffab4a00149a02a9,35,0,2024-02-27T11:07:41.963Z,english_335.wav,0,pill,336,27,4,5,Français,f,4,0.32341667,-2.30142169,1.21763394
5ca1196fffab4a00149a02a9,36,0,2024-02-27T11:07:41.963Z,english_851.wav,0,peel,421,27,4,5,Français,f,0,0.0,-83.90491711,1.65488062
5ca1196fffab4a00149a02a9,36,0,2024-02-27T11:07:41.963Z,english_851.wav,0,peel,421,27,4,5,Français,f,1,0.1,92.94065497,0.14315595
5ca1196fffab4a00149a02a9,36,0,2024-02-27T11:07:41.963Z,english_851.wav,0,peel,421,27,4,5,Français,f,2,0.2,-63.47542883,0.84481863
5ca1196fffab4a00149a02a9,36,0,2024-02-27T11:07:41.963Z,english_851.wav,0,peel,421,27,4,5,Français,f,3,0.3,13.34025436,1.9580918
5ca1196fffab4a00149a02a9,36,0,2024-02-27T11:07:41.963Z,english_851.wav,0,peel,421,27,4,5,Français,f,4,0.32341667,32.96474042,0.23608581
5ca1196fffab4a00149a02a9,37,0,2024-02-27T11:07:41.963Z,english_235.wav,0,peel,466,27,4,5,Français,f,0,0.0,-1.09951899,1.56432712
5ca1196fffab4a00149a02a9,37,0,2024-02-27T11:07:41.963Z,english_235.wav,0,peel,466,27,4,5,Français,f,1,0.1,-96.83918407,0.18127978
5ca1196fffab4a00149a02a9,37,0,2024-02-27T11:07:41.963Z,english_235.wav,0,peel,466,27,4,5,Français,f,2,0.2,96.22116446,1.26168206
5ca1196fffab4a00149a02a9,37,0,2024-02-27T11:07:41.963Z,english_235.wav,0,peel,466,27,4,5,Français,f,3,0.3,48.9502898,1.98140435
5ca1196fffab4a00149a02a9,37,0,2024-02-27T11:07:41.963Z,english_235.wav,0,peel,466,27,4,5,Français,f,4,0.32341667,38.18641725,0.52366779
5ca1196fffab4a00149a02a9,38,0,2024-02-27T11:07:41.963Z,english_578.wav,0,pill,312,27,4,5,Français,f,0,0.0,-76.90925642,1.21901793
5ca1196fffab4a00149a02a9,38,0,2024-02-27T11:07:41.963Z,english_578.wav,0,pill,312,27,4,5,Français,f,1,0.1,-68.48676994,1.4118495
5ca1196fffab4a00149a02a9,38,0,2024-02-27T11:07:41.963Z,english_578.wav,0,pill,312,27,4,5,Français,f,2,0.2,36.30884798,0.05521057
5ca1196fffab4a00149a02a9,38,0,2024-02-27T11:07:41.963Z,english_578.wav,0,pill,312,27,4,5,Français,f,3,0.3,-36.82491274,1.45629656
5ca1196fffab4a00149a02a9,38,0,2024-02-27T11:07:41.963Z,english_578.wav,0,pill,312,27,4,5,Français,f,4,0.32341667,-4.04717442,1.80268091
5ca1196fffab4a00149a02a9,39,0,2024-02-27T11:07:41.963Z,english_138.wav,0,pill,567,27,4,5,Français,f,0,0.0,-79.80620147,0.37063564
5ca1196fffab4a00149a02a9,39,0,2024-02-27T11:07:41.963Z,english_138.wav,0,pill,567,27,4,5,Français,f,1,0.1,-15.42889109,0.81801141
5ca1196fffab4a00149a02a9,39,0,2024-02-27T11:07:41.963Z,english_138.wav,0,pill,567,27,4,5,Français,f,2,0.2,-88.31677226,0.0634538
5ca1196fffab4a00149a02a9,39,0,2024-02-27T11:07:41.963Z,english_138.wav,0,pill,567,27,4,5,Français,f,3,0.3,26.6486106,1.85131452
5ca1196fffab4a00149a02a9,39,0,2024-02-27T11:07:41.963Z,english_138.wav,0,pill,567,27,4,5,Français,f,4,0.32341667,-42.18894711,1.66059024
5ca1196fffab4a00149a02a9,40,0,2024-02-27T11:07:41.963Z,english_281.wav,0,pill,693,27,4,5,Français,f,0,0.0,-55.42099824,1.64310908
5ca1196fffab4a00149a02a9,40,0,2024-02-27T11:07:41.963Z,english_281.wav,0,pill,693,27,4,5,Français,f,1,0.1,30.44020676,0.76997124
5ca1196fffab4a00149a02a9,40,0,2024-02-27T11:07:41.963Z,english_281.wav,0,pill,693,27,4,5,Français,f,2,0.2,53.34739709,0.1940809
5ca1196fffab4a00149a02a9,40,0,2024-02-27T11:07:41.963Z,english_281.wav,0,pill,693,27,4,5,Français,f,3,0.3,-32.26512488,0.25794937
5ca1196fffab4a00149a02a9,40,0,2024-02-27T11:07:41.963Z,english_281.wav,0,pill,693,27,4,5,Français,f,4,0.32341667,-59.86883114,1.27043487
5ca1196fffab4a00149a02a9,41,0,2024-02-27T11:07:41.963Z,english_40.wav,0,pill,333,27,4,5,Français,f,0,0.0,20.98315678,0.33544846
5ca1196fffab4a00149a02a9,41,0,2024-02-27T11:07:41.963Z,english_40.wav,0,pill,333,27,4,5,Français,f,1,0.1,80.64974175,0.81764939
5ca1196fffab4a00149a02a9,41,0,2024-02-27T11:07:41.963Z,english_40.wav,0,pill,333,27,4,5,Français,f,2,0.2,5.38930518,0.17548883
5ca1196fffab4a00149a02a9,41,0,2024-02-27T11:07:41.963Z,english_40.wav,0,pill,333,27,4,5,Français,f,3,0.3,18.83593916,0.83674413
5ca1196fffab4a00149a02a9,41,0,2024-02-27T11:07:41.963Z,english_40.wav,0,pill,333,27,4,5,Français,f,4,0.32341667,-14.62145671,0.80890384
5ca1196fffab4a00149a02a9,42,0,2024-02-27T11:07:41.963Z,english_879.wav,0,peel,512,27,4,5,Français,f,0,0.0,-56.32485069,0.53184386
5ca1196fffab4a00149a02a9,42,0,2024-02-27T11:07:41.963Z,english_879.wav,0,peel,512,27,4,5,Français,f,1,0.1,64.67592183,1.34296213
5ca1196fffab4a00149a02a9,42,0,2024-02-27T11:07:41.963Z,english_879.wav,0,peel,512,27,4,5,Français,f,2,0.2,25.82204554,0.44649674
5ca1196fffab4a00149a02a9,42,0,2024-02-27T11:07:41.963Z,english_879.wav,0,peel,512,27,4,5,Français,f,3,0.3,5.66794257,0.79707043
5ca1196fffab4a00149a02a9,42,0,2024-02-27T11:07:41.963Z,english_879.wav,0,peel,512,27,4,5,Français,f,4,0.32341667,-31.65503708,1.19804995
5ca1196fffab4a00149a02a9,43,0,2024-02-27T11:07:41.963Z,english_371.wav,0,peel,238,27,4,5,Français,f,0,0.0,44.65928585,0.25571852
5ca1196fffab4a00149a02a9,43,0,2024-02-27T11:07:41.963Z,english_371.wav,0,peel,238,27,4,5,Français,f,1,0.1,2.85031152,1.3562861
5ca1196fffab4a00149a02a9,43,0,2024-02-27T11:07:41.963Z,english_371.wav,0,peel,238,27,4,5,Français,f,2,0.2,-57.71166213,1.30905236
5ca1196fffab4a00149a02a9,43,0,2024-02-27T11:07:41.963Z,english_371.wav,0,peel,238,27,4,5,Français,f,3,0.3,-66.93032782,1.33160076
5ca1196fffab4a00149a02a9,43,0,2024-02-27T11:07:41.963Z,english_371.wav,0,peel,238,27,4,5,Français,f,4,0.32341667,13.43806553,0.62192137
5ca1196fffab4a00149a02a9,44,0,2024-02-27T11:07:41.963Z,english_152.wav,0,pill,411,27,4,5,Français,f,0,0.0,-21.97873044,1.75752799
5ca1196fffab4a00149a02a9,44,0,2024-02-27T11:07:41.963Z,english_152.wav,0,pill,411,27,4,5,Français,f,1,0.1,85.66675034,1.21467008
5ca1196fffab4a00149a02a9,44,0,2024-02-27T11:07:41.963Z,english_152.wav,0,pill,411,27,4,5,Français,f,2,0.2,-66.57447909,0.82299352
5ca1196fffab4a00149a02a9,44,0,2024-02-27T11:07:41.963Z,english_152.wav,0,pill,411,27,4,5,Français,f,3,0.3,-33.8772441,0.48869868
5ca1196fffab4a00149a02a9,44,0,2024-02-27T11:07:41.963Z,english_152.wav,0,pill,411,27,4,5,Français,f,4,0.32341667,-46.50239179,0.31705885
5ca1196fffab4a00149a02a9,45,0,2024-02-27T11:07:41.963Z,english_246.wav,0,pill,437,27,4,5,Français,f,0,0.0,-62.23082525,0.02615808
5ca1196fffab4a00149a02a9,45,0,2024-02-27T11:07:41.963Z,english_246.wav,0,pill,437,27,4,5,Français,f,1,0.1,59.67623932,1.52596932
5ca1196fffab4a00149a02a9,45,0,2024-02-27T11:07:41.963Z,english_246.wav,0,pill,437,27,4,5,Français,f,2,0.2,-63.30715513,1.87080553
5ca1196fffab4a00149a02a9,45,0,2024-02-27T11:07:41.963Z,english_246.wav,0,pill,437,27,4,5,Français,f,3,0.3,15.41118057,0.81226596
5ca1196fffab4a00149a02a9,45,0,2024-02-27T11:07:41.963Z,english_246.wav,0,pill,437,27,4,5,Français,f,4,0.32341667,90.60814582,0.64975072
5ca1196fffab4a00149a02a9,46,0,2024-02-27T11:07:41.963Z,english_607.wav,0,peel,336,27,4,5,Français,f,0,0.0,46.6865757,1.30575186
5ca1196fffab4a00149a02a9,46,0,2024-02-27T11:07:41.963Z,english_607.wav,0,peel,336,27,4,5,Français,f,1,0.1,39.2269946,1.04660061
5ca1196fffab4a00149a02a9,46,0,2024-02-27T11:07:41.963Z,english_607.wav,0,peel,336,27,4,5,Français,f,2,0.2,9.54774619,0.88274406
5ca1196fffab4a00149a02a9,46,0,2024-02-27T11:07:41.963Z,english_607.wav,0,peel,336,27,4,5,Français,f,3,0.3,16.02187378,1.5824547
5ca1196fffab4a00149a02a9,46,0,2024-02-27T11:07:41.963Z,english_607.wav,0,peel,336,27,4,5,Français,f,4,0.32341667,75.62266759,0.67660632
5ca1196fffab4a00149a02a9,47,0,2024-02-27T11:07:41.963Z,english_523.wav,0,pill,321,27,4,5,Français,f,0,0.0,8.07414344,0.20594791
5ca1196fffab4a00149a02a9,47,0,2024-02-27T11:07:41.963Z,english_523.wav,0,pill,321,27,4,5,Français,f,1,0.1,27.61667564,1.87511385
5ca1196fffab4a00149a02a9,47,0,2024-02-27T11:07:41.963Z,english_523.wav,0,pill,321,27,4,5,Français,f,2,0.2,12.25175146,0.19246655
5ca1196fffab4a00149a02a9,47,0,2024-02-27T11:07:41.963Z,english_523.wav,0,pill,321,27,4,5,Français,f,3,0.3,5.7333769,0.42766967
5ca1196fffab4a00149a02a9,47,0,2024-02-27T11:07:41.963Z,english_523.wav,0,pill,321,27,4,5,Français,f,4,0.32341667,77.72310536,1.43882185
5ca1196fffab4a00149a02a9,48,0,2024-02-27T11:07:41.963Z,english_304.wav,0,pill,405,27,4,5,Français,f,0,0.0,-80.7192326,0.54130022
5ca1196fffab4a00149a02a9,48,0,2024-02-27T11:07:41.963Z,english_304.wav,0,pill,405,27,4,5,Français,f,1,0.1,34.14230443,0.20766845
5ca1196fffab4a00149a02a9,48,0,2024-02-27T11:07:41.963Z,english_304.wav,0,pill,405,27,4,5,Français,f,2,0.2,-43.78548789,1.25157904
5ca1196fffab4a00149a02a9,48,0,2024-02-27T11:07:41.963Z,english_304.wav,0,pill,405,27,4,5,Français,f,3,0.3,85.79520644,0.76195837
5ca1196fffab4a00149a02a9,48,0,2024-02-27T11:07:41.963Z,english_304.wav,0,pill,405,27,4,5,Français,f,4,0.32341667,-29.32737886,0.20991234
5ca1196fffab4a00149a02a9,49,0,2024-02-27T11:07:41.963Z,english_933.wav,0,peel,329,27,4,5,Français,f,0,0.0,-48.12258855,1.54767366
5ca1196fffab4a00149a02a9,49,0,2024-02-27T11:07:41.963Z,english_933.wav,0,peel,329,27,4,5,Français,f,1,0.1,27.26905516,0.30219473
5ca1196fffab4a00149a02a9,49,0,2024-02-27T11:07:41.963Z,english_933.wav,0,peel,329,27,4,5,Français,f,2,0.2,0.35087756,1.50410475
5ca1196fffab4a00149a02a9,49,0,2024-02-27T11:07:41.963Z,english_933.wav,0,peel,329,27,4,5,Français,f,3,0.3,94.96402149,1.44820406
5ca1196fffab4a00149a02a9,49,0,2024-02-27T11:07:41.963Z,english_933.wav,0,peel,329,27,4,5,Français,f,4,0.32341667,61.52669097,0.05049928
5ca1196fffab4a00149a02a9,50,1,2024-02-27T11:07:41.963Z,english_892.wav,0,pill,685,27,4,5,Français,f,0,0.0,38.63128374,0.97893944
5ca1196fffab4a00149a02a9,50,1,2024-02-27T11:07:41.963Z,english_892.wav,0,pill,685,27,4,5,Français,f,1,0.1,22.49899687,0.66551001
5ca1196fffab4a00149a02a9,50,1,2024-02-27T11:07:41.963Z,english_892.wav,0,pill,685,27,4,5,Français,f,2,0.2,28.84135264,0.36795179
5ca1196fffab4a00149a02a9,50,1,2024-02-27T11:07:41.963Z,english_892.wav,0,pill,685,27,4,5,Français,f,3,0.3,81.19740532,1.0840826
5ca1196fffab4a00149a02a9,50,1,2024-02-27T11:07:41.963Z,english_892.wav,0,pill,685,27,4,5,Français,f,4,0.32341667,22.37782167,0.83637256
5ca1196fffab4a00149a02a9,51,1,2024-02-27T11:07:41.963Z,english_923.wav,0,peel,182,27,4,5,Français,f,0,0.0,-0.59122564,1.19594648
5ca1196fffab4a00149a02a9,51,1,2024-02-27T11:07:41.963Z,english_923.wav,0,peel,182,27,4,5,Français,f,1,0.1,-5.70499959,1.05419104
5ca1196fffab4a00149a02a9,51,1,2024-02-27T11:07:41.963Z,english_923.wav,0,peel,182,27,4,5,Français,f,2,0.2,-29.88927864,0.73000078
5ca1196fffab4a00149a02a9,51,1,2024-02-27T11:07:41.963Z,english_923.wav,0,peel,182,27,4,5,Français,f,3,0.3,-82.02126299,1.36390543
5ca1196fffab4a00149a02a9,51,1,2024-02-27T11:07:41.963Z,english_923.wav,0,peel,182,27,4,5,Français,f,4,0.32341667,16.89967319,1.13865732
5ca1196fffab4a00149a02a9,52,1,2024-02-27T11:07:41.963Z,english_602.wav,0,peel,371,27,4,5,Français,f,0,0.0,-53.18857274,1.95117352
5ca1196fffab4a00149a02a9,52,1,2024-02-27T11:07:41.963Z,english_602.wav,0,peel,371,27,4,5,Français,f,1,0.1,-52.96167371,1.1427253
5ca1196fffab4a00149a02a9,52,1,2024-02-27T11:07:41.963Z,english_602.wav,0,peel,371,27,4,5,Français,f,2,0.2,38.20784676,1.10694813
5ca1196fffab4a00149a02a9,52,1,2024-02-27T11:07:41.963Z,english_602.wav,0,peel,371,27,4,5,Français,f,3,0.3,46.0178344,0.8717932
5ca1196fffab4a00149a02a9,52,1,2024-02-27T11:07:41.963Z,english_602.wav,0,peel,371,27,4,5,Français,f,4,0.32341667,78.11630752,0.71626065
5ca1196fffab4a00149a02a9,53,1,2024-02-27T11:07:41.963Z,english_901.wav,0,peel,188,27,4,5,Français,f,0,0.0,-14.81770559,1.5194741
5ca1196fffab4a00149a02a9,53,1,2024-02-27T11:07:41.963Z,english_901.wav,0,peel,188,27,4,5,Français,f,1,0.1,-27.73561163,1.98674938
5ca1196fffab4a00149a02a9,53,1,2024-02-27T11:07:41.963Z,english_901.wav,0,peel,188,27,4,5,Français,f,2,0.2,-22.44015454,0.54356598
5ca1196fffab4a00149a02a9,53,1,2024-02-27T11:07:41.963Z,english_901.wav,0,peel,188,27,4,5,Français,f,3,0.3,-41.34815185,1.30497628
5ca1196fffab4a00149a02a9,53,1,2024-02-27T11:07:41.963Z,english_901.wav,0,peel,188,27,4,5,Français,f,4,0.32341667,10.13492358,0.61526789
5ca1196fffab4a00149a02a9,54,1,2024-02-27T11:07:41.963Z,english_413.wav,0,pill,510,27,4,5,Français,f,0,0.0,-9.66675054,1.82887045
5ca1196fffab4a00149a02a9,54,1,2024-02-27T11:07:41.963Z,english_413.wav,0,pill,510,27,4,5,Français,f,1,0.1,15.27504309,0.80668743
5ca1196fffab4a00149a02a9,54,1,2024-02-27T11:07:41.963Z,english_413.wav,0,pill,510,27,4,5,Français,f,2,0.2,-94.93171401,0.90586838
5ca1196fffab4a00149a02a9,54,1,2024-02-27T11:07:41.963Z,english_413.wav,0,pill,510,27,4,5,Français,f,3,0.3,-42.87800999,1.3937681
5ca1196fffab4a00149a02a9,54,1,2024-02-27T11:07:41.963Z,english_413.wav,0,pill,510,27,4,5,Français,f,4,0.32341667,-63.39385234,0.34165264
5ca1196fffab4a00149a02a9,55,1,2024-02-27T11:07:41.963Z,english_237.wav,0,pill,529,27,4,5,Français,f,0,0.0,-40.35335157,0.42178982
5ca1196fffab4a00149a02a9,55,1,2024-02-27T11:07:41.963Z,english_237.wav,0,pill,529,27,4,5,Français,f,1,0.1,42.86374565,0.6060796
5ca1196fffab4a00149a02a9,55,1,2024-02-27T11:07:41.963Z,english_237.wav,0,pill,529,27,4,5,Français,f,2,0.2,7.79480372,0.58312984
5ca1196fffab4a00149a02a9,55,1,2024-02-27T11:07:41.963Z,english_237.wav,0,pill,529,27,4,5,Français,f,3,0.3,-48.50613844,1.50499267
5ca1196fffab4a00149a02a9,55,1,2024-02-27T11:07:41.963Z,english_237.wav,0,pill,529,27,4,5,Français,f,4,0.32341667,17.78174719,1.72211243
5ca1196fffab4a00149a02a9,56,1,2024-02-27T11:07:41.963Z,english_961.wav,0,peel,264,27,4,5,Français,f,0,0.0,20.81275789,1.87720953
5ca1196fffab4a00149a02a9,56,1,2024-02-27T11:07:41.963Z,english_961.wav,0,peel,264,27,4,5,Français,f,1,0.1,46.48072234,1.43497285
5ca1196fffab4a00149a02a9,56,1,2024-02-27T11:07:41.963Z,english_961.wav,0,peel,264,27,4,5,Français,f,2,0.2,79.36291712,1.9095844
5ca1196fffab4a00149a02a9,56,1,2024-02-27T11:07:41.963Z,english_961.wav,0,peel,264,27,4,5,Français,f,3,0.3,7.86976501,0.20821065
5ca1196fffab4a00149a02a9,56,1,2024-02-27T11:07:41.963Z,english_961.wav,0,peel,264,27,4,5,Français,f,4,0.32341667,-45.45751668,0.0640973
5ca1196fffab4a00149a02a9,57,1,2024-02-27T11:07:41.963Z,english_171.wav,0,pill,711,27,4,5,Français,f,0,0.0,13.65984607,0.71637608
5ca1196fffab4a00149a02a9,57,1,2024-02-27T11:07:41.963Z,english_171.wav,0,pill,711,27,4,5,Français,f,1,0.1,70.55092655,1.80826384
5ca1196fffab4a00149a02a9,57,1,2024-02-27T11:07:41.963Z,english_171.wav,0,pill,711,27,4,5,Français,f,2,0.2,57.57935127,0.47277884
5ca1196fffab4a00149a02a9,57,1,2024-02-27T11:07:41.963Z,english_171.wav,0,pill,711,27,4,5,Français,f,3,0.3,-55.35579571,1.22036711
5ca1196fffab4a00149a02a9,57,1,2024-02-27T11:07:41.963Z,english_171.wav,0,pill,711,27,4,5,Français,f,4,0.32341667,13.04572565,0.00907712
5ca1196fffab4a00149a02a9,58,1,2024-02-27T11:07:41.963Z,english_230.wav,0,pill,1025,27,4,5,Français,f,0,0.0,59.01519707,0.66464778
5ca1196fffab4a00149a02a9,58,1,2024-02-27T11:07:41.963Z,english_230.wav,0,pill,1025,27,4,5,Français,f,1,0.1,-74.67447784,1.09498554
5ca1196fffab4a00149a02a9,58,1,2024-02-27T11:07:41.963Z,english_230.wav,0,pill,1025,27,4,5,Français,f,2,0.2,78.11378701,0.24708562
5ca1196fffab4a00149a02a9,58,1,2024-02-27T11:07:41.963Z,english_230.wav,0,pill,1025,27,4,5,Français,f,3,0.3,26.79367619,1.40152246
5ca1196fffab4a00149a02a9,58,1,2024-02-27T11:07:41.963Z,english_230.wav,0,pill,1025,27,4,5,Français,f,4,0.32341667,29.92451654,1.02203861
5ca1196fffab4a00149a02a9,59,1,2024-02-27T11:07:41.963Z,english_367.wav,0,peel,410,27,4,5,Français,f,0,0.0,69.68935346,1.12532443
5ca1196fffab4a00149a02a9,59,1,2024-02-27T11:07:41.963Z,english_367.wav,0,peel,410,27,4,5,Français,f,1,0.1,-21.84293244,1.15903886
5ca1196fffab4a00149a02a9,59,1,2024-02-27T11:07:41.963Z,english_367.wav,0,peel,410,27,4,5,Français,f,2,0.2,-22.40126322,1.68834661
5ca1196fffab4a00149a02a9,59,1,2024-02-27T11:07:41.963Z,english_367.wav,0,peel,410,27,4,5,Français,f,3,0.3,-77.83415675,1.78966274
5ca1196fffab4a00149a02a9,59,1,2024-02-27T11:07:41.963Z,english_367.wav,0,peel,410,27,4,5,Français,f,4,0.32341667,18.42522507,1.57311162
5ca1196fffab4a00149a02a9,60,1,2024-02-27T11:07:41.963Z,english_906.wav,0,peel,305,27,4,5,Français,f,0,0.0,-40.48589107,1.22436898
5ca1196fffab4a00149a02a9,60,1,2024-02-27T11:07:41.963Z,english_906.wav,0,peel,305,27,4,5,Français,f,1,0.1,47.48995475,1.54823641
5ca1196fffab4a00149a02a9,60,1,2024-02-27T11:07:41.963Z,english_906.wav,0,peel,305,27,4,5,Français,f,2,0.2,-46.73743802,1.02590908
5ca1196fffab4a00149a02a9,60,1,2024-02-27T11:07:41.963Z,english_906.wav,0,peel,305,27,4,5,Français,f,3,0.3,-97.96557374,1.74877791
5ca1196fffab4a00149a02a9,60,1,2024-02-27T11:07:41.963Z,english_906.wav,0,peel,305,27,4,5,Français,f,4,0.32341667,18.48293991,0.76585735
5ca1196fffab4a00149a02a9,61,1,2024-02-27T11:07:41.963Z,english_14.wav,0,pill,431,27,4,5,Français,f,0,0.0,98.00979643,0.92494293
5ca1196fffab4a00149a02a9,61,1,2024-02-27T11:07:41.963Z,english_14.wav,0,pill,431,27,4,5,Français,f,1,0.1,-39.90204919,0.80403915
5ca1196fffab4a00149a02a9,61,1,2024-02-27T11:07:41.963Z,english_14.wav,0,pill,431,27,4,5,Français,f,2,0.2,51.0517473,0.29426005
5ca1196fffab4a00149a02a9,61,1,2024-02-27T11:07:41.963Z,english_14.wav,0,pill,431,27,4,5,Français,f,3,0.3,-8.39716694,0.14957292
5ca1196fffab4a00149a02a9,61,1,2024-02-27T11:07:41.963Z,english_14.wav,0,pill,431,27,4,5,Français,f,4,0.32341667,82.54419716,0.1717279
5ca1196fffab4a00149a02a9,62,1,2024-02-27T11:07:41.963Z,english_920.wav,0,peel,340,27,4,5,Français,f,0,0.0,95.7501832,1.54313256
5ca1196fffab4a00149a02a9,62,1,2024-02-27T11:07:41.963Z,english_920.wav,0,peel,340,27,4,5,Français,f,1,0.1,-3.19831823,1.33500472
5ca1196fffab4a00149a02a9,62,1,2024-02-27T11:07:41.963Z,english_920.wav,0,peel,340,27,4,5,Français,f,2,0.2,-16.96134457,1.12819963
5ca1196fffab4a00149a02a9,62,1,2024-02-27T11:07:41.963Z,english_920.wav,0,peel,340,27,4,5,Français,f,3,0.3,-28.81747413,1.72147256
5ca1196fffab4a00149a02a9,62,1,2024-02-27T11:07:41.963Z,english_920.wav,0,peel,340,27,4,5,Français,f,4,0.32341667,42.63505928,0.57593815
5ca1196fffab4a00149a02a9,63,1,2024-02-27T11:07:41.963Z,english_783.wav,0,pill,373,27,4,5,Français,f,0,0.0,23.05268069,1.49549247
5ca1196fffab4a00149a02a9,63,1,2024-02-27T11:07:41.963Z,english_783.wav,0,pill,373,27,4,5,Français,f,1,0.1,9.36005369,0.13797177
5ca1196fffab4a00149a02a9,63,1,2024-02-27T11:07:41.963Z,english_783.wav,0,pill,373,27,4,5,Français,f,2,0.2,62.81522218,1.80236654
5ca1196fffab4a00149a02a9,63,1,2024-02-27T11:07:41.963Z,english_783.wav,0,pill,373,27,4,5,Français,f,3,0.3,67.71456376,0.33800471
5ca1196fffab4a00149a02a9,63,1,2024-02-27T11:07:41.963Z,english_783.wav,0,pill,373,27,4,5,Français,f,4,0.32341667,77.96788237,1.97708045
5ca1196fffab4a00149a02a9,64,1,2024-02-27T11:07:41.963Z,english_730.wav,0,peel,393,27,4,5,Français,f,0,0.0,12.15035978,0.91227818
5ca1196fffab4a00149a02a9,64,1,2024-02-27T11:07:41.963Z,english_730.wav,0,peel,393,27,4,5,Français,f,1,0.1,-56.22765555,1.17022701
5ca1196fffab4a00149a02a9,64,1,2024-02-27T11:07:41.963Z,english_730.wav,0,peel,393,27,4,5,Français,f,2,0.2,-53.26534685,0.58034143
5ca1196fffab4a00149a02a9,64,1,2024-02-27T11:07:41.963Z,english_730.wav,0,peel,393,27,4,5,Français,f,3,0.3,-25.75230742,1.9562998
5ca1196fffab4a00149a02a9,64,1,2024-02-27T11:07:41.963Z,english_730.wav,0,peel,393,27,4,5,Français,f,4,0.32341667,-73.04726616,1.99538846
5ca1196fffab4a00149a02a9,65,1,2024-02-27T11:07:41.963Z,english_147.wav,0,peel,361,27,4,5,Français,f,0,0.0,-14.37625717,1.08714974
5ca1196fffab4a00149a02a9,65,1,2024-02-27T11:07:41.963Z,english_147.wav,0,peel,361,27,4,5,Français,f,1,0.1,-48.99147792,1.05600262
5ca1196fffab4a00149a02a9,65,1,2024-02-27T11:07:41.963Z,english_147.wav,0,peel,361,27,4,5,Français,f,2,0.2,-76.025031,0.62193731
5ca1196fffab4a00149a02a9,65,1,2024-02-27T11:07:41.963Z,english_147.wav,0,peel,361,27,4,5,Français,f,3,0.3,-4.271985,1.23272935
5ca1196fffab4a00149a02a9,65,1,2024-02-27T11:07:41.963Z,english_147.wav,0,peel,361,27,4,5,Français,f,4,0.32341667,90.36670579,0.90867663
5ca1196fffab4a00149a02a9,66,1,2024-02-27T11:07:41.963Z,english_896.wav,0,pill,473,27,4,5,Français,f,0,0.0,-76.63716622,1.08893336
5ca1196fffab4a00149a02a9,66,1,2024-02-27T11:07:41.963Z,english_896.wav,0,pill,473,27,4,5,Français,f,1,0.1,-73.11298951,0.41748987
5ca1196fffab4a00149a02a9,66,1,2024-02-27T11:07:41.963Z,english_896.wav,0,pill,473,27,4,5,Français,f,2,0.2,48.53347054,0.32012442
5ca1196fffab4a00149a02a9,66,1,2024-02-27T11:07:41.963Z,english_896.wav,0,pill,473,27,4,5,Français,f,3,0.3,-4.46661278,0.63387312
5ca1196fffab4a00149a02a9,66,1,2024-02-27T11:07:41.963Z,english_896.wav,0,pill,473,27,4,5,Français,f,4,0.32341667,-44.69533701,1.27766005
5ca1196fffab4a00149a02a9,67,1,2024-02-27T11:07:41.963Z,english_378.wav,0,peel,195,27,4,5,Français,f,0,0.0,13.37832971,0.65677047
5ca1196fffab4a00149a02a9,67,1,2024-02-27T11:07:41.963Z,english_378.wav,0,peel,195,27,4,5,Français,f,1,0.1,17.37931074,1.74134092
5ca1196fffab4a00149a02a9,67,1,2024-02-27T11:07:41.963Z,english_378.wav,0,peel,195,27,4,5,Français,f,2,0.2,10.9554113,0.67897054
5ca1196fffab4a00149a02a9,67,1,2024-02-27T11:07:41.963Z,english_378.wav,0,peel,195,27,4,5,Français,f,3,0.3,-24.86891171,1.20159635
5ca1196fffab4a00149a02a9,67,1,2024-02-27T11:07:41.963Z,english_378.wav,0,peel,195,27,4,5,Français,f,4,0.32341667,7.89965194,0.27053006
5ca1196fffab4a00149a02a9,68,1,2024-02-27T11:07:41.963Z,english_110.wav,0,peel,310,27,4,5,Français,f,0,0.0,87.43016285,1.84693198
5ca1196fffab4a00149a02a9,68,1,2024-02-27T11:07:41.963Z,english_110.wav,0,peel,310,27,4,5,Français,f,1,0.1,-22.53798338,0.72868036
5ca1196fffab4a00149a02a9,68,1,2024-02-27T11:07:41.963Z,english_110.wav,0,peel,310,27,4,5,Français,f,2,0.2,60.38266123,1.6889543
5ca1196fffab4a00149a02a9,68,1,2024-02-27T11:07:41.963Z,english_110.wav,0,peel,310,27,4,5,Français,f,3,0.3,50.75224473,0.97311446
5ca1196fffab4a00149a02a9,68,1,2024-02-27T11:07:41.963Z,english_110.wav,0,peel,310,27,4,5,Français,f,4,0.32341667,87.78495288,0.46157718
5ca1196fffab4a00149a02a9,69,1,2024-02-27T11:07:41.963Z,english_756.wav,0,peel,545,27,4,5,Français,f,0,0.0,-75.60908863,1.29894989
5ca1196fffab4a00149a02a9,69,1,2024-02-27T11:07:41.963Z,english_756.wav,0,peel,545,27,4,5,Français,f,1,0.1,-4.30259752,0.61363685
5ca1196fffab4a00149a02a9,69,1,2024-02-27T11:07:41.963Z,english_756.wav,0,peel,545,27,4,5,Français,f,2,0.2,20.94377522,1.41793961
5ca1196fffab4a00149a02a9,69,1,2024-02-27T11:07:41.963Z,english_756.wav,0,peel,545,27,4,5,Français,f,3,0.3,10.45062111,1.73528762
5ca1196fffab4a00149a02a9,69,1,2024-02-27T11:07:41.963Z,english_756.wav,0,peel,545,27,4,5,Français,f,4,0.32341667,86.50209298,0.4791473
5ca1196fffab4a00149a02a9,70,1,2024-02-27T11:07:41.963Z,english_836.wav,0,pill,445,27,4,5,Français,f,0,0.0,34.85846782,1.04017402
5ca1196fffab4a00149a02a9,70,1,2024-02-27T11:07:41.963Z,english_836.wav,0,pill,445,27,4,5,Français,f,1,0.1,41.54458908,0.35535359
5ca1196fffab4a00149a02a9,70,1,2024-02-27T11:07:41.963Z,english_836.wav,0,pill,445,27,4,5,Français,f,2,0.2,23.27363575,0.10471693
5ca1196fffab4a00149a02a9,70,1,2024-02-27T11:07:41.963Z,english_836.wav,0,pill,445,27,4,5,Français,f,3,0.3,86.83996211,0.55523491
5ca1196fffab4a00149a02a9,70,1,2024-02-27T11:07:41.963Z,english_836.wav,0,pill,445,27,4,5,Français,f,4,0.32341667,-32.25656931,0.70311776
5ca1196fffab4a00149a02a9,71,1,2024-02-27T11:07:41.963Z,english_852.wav,0,pill,637,27,4,5,Français,f,0,0.0,-59.21906832,1.76087743
5ca1196fffab4a00149a02a9,71,1,2024-02-27T11:07:41.963Z,english_852.wav,0,pill,637,27,4,5,Français,f,1,0.1,5.96662808,0.85304022
5ca1196fffab4a00149a02a9,71,1,2024-02-27T11:07:41.963Z,english_852.wav,0,pill,637,27,4,5,Français,f,2,0.2,12.29830648,0.5029047
5ca1196fffab4a00149a02a9,71,1,2024-02-27T11:07:41.963Z,english_852.wav,0,pill,637,27,4,5,Français,f,3,0.3,-98.20735767,0.66544939
5ca1196fffab4a00149a02a9,71,1,2024-02-27T11:07:41.963Z,english_852.wav,0,pill,637,27,4,5,Français,f,4,0.32341667,-0.5186354,0.26669214
5ca1196fffab4a00149a02a9,72,1,2024-02-27T11:07:41.963Z,english_674.wav,0,peel,427,27,4,5,Français,f,0,0.0,-38.60253285,0.25488683
5ca1196fffab4a00149a02a9,72,1,2024-02-27T11:07:41.963Z,english_674.wav,0,peel,427,27,4,5,Français,f,1,0.1,46.14948962,1.80679583
5ca1196fffab4a00149a02a9,72,1,2024-02-27T11:07:41.963Z,english_674.wav,0,peel,427,27,4,5,Français,f,2,0.2,-49.76414787,1.59420413
5ca1196fffab4a00149a02a9,72,1,2024-02-27T11:07:41.963Z,english_674.wav,0,peel,427,27,4,5,Français,f,3,0.3,-66.16492387,1.25714797
5ca1196fffab4a00149a02a9,72,1,2024-02-27T11:07:41.963Z,english_674.wav,0,peel,427,27,4,5,Français,f,4,0.32341667,28.37583826,1.20557216
5ca1196fffab4a00149a02a9,73,1,2024-02-27T11:07:41.963Z,english_787.wav,0,peel,619,27,4,5,Français,f,0,0.0,57.99353047,1.96251481
5ca1196fffab4a00149a02a9,73,1,2024-02-27T11:07:41.963Z,english_787.wav,0,peel,619,27,4,5,Français,f,1,0.1,-40.79525362,0.94444479
5ca1196fffab4a00149a02a9,73,1,2024-02-27T11:07:41.963Z,english_787.wav,0,peel,619,27,4,5,Français,f,2,0.2,23.78072576,0.924778
5ca1196fffab4a00149a02a9,73,1,2024-02-27T11:07:41.963Z,english_787.wav,0,peel,619,27,4,5,Français,f,3,0.3,72.96982422,0.31383508
5ca1196fffab4a00149a02a9,73,1,2024-02-27T11:07:41.963Z,english_787.wav,0,peel,619,27,4,5,Français,f,4,0.32341667,53.76957631,0.68947425
5ca1196fffab4a00149a02a9,74,1,2024-02-27T11:07:41.963Z,english_248.wav,0,pill,797,27,4,5,Français,f,0,0.0,62.49888219,0.01612638
5ca1196fffab4a00149a02a9,74,1,2024-02-27T11:07:41.963Z,english_248.wav,0,pill,797,27,4,5,Français,f,1,0.1,-37.43052778,0.65001727
5ca1196fffab4a00149a02a9,74,1,2024-02-27T11:07:41.963Z,english_248.wav,0,pill,797,27,4,5,Français,f,2,0.2,50.26474258,1.10053755
5ca1196fffab4a00149a02a9,74,1,2024-02-27T11:07:41.963Z,english_248.wav,0,pill,797,27,4,5,Français,f,3,0.3,-90.47385391,0.93833438
5ca1196fffab4a00149a02a9,74,1,2024-02-27T11:07:41.963Z,english_248.wav,0,pill,797,27,4,5,Français,f,4,0.32341667,-16.4169983,1.90627888
5ca1196fffab4a00149a02a9,75,1,2024-02-27T11:07:41.963Z,english_970.wav,0,peel,449,27,4,5,Français,f,0,0.0,37.22911191,0.60712849
5ca1196fffab4a00149a02a9,75,1,2024-02-27T11:07:41.963Z,english_970.wav,0,peel,449,27,4,5,Français,f,1,0.1,36.57191813,1.26781741
5ca1196fffab4a00149a02a9,75,1,2024-02-27T11:07:41.963Z,english_970.wav,0,peel,449,27,4,5,Français,f,2,0.2,20.2344678,1.29373459
5ca1196fffab4a00149a02a9,75,1,2024-02-27T11:07:41.963Z,english_970.wav,0,peel,449,27,4,5,Français,f,3,0.3,-86.31030026,0.18112256
5ca1196fffab4a00149a02a9,75,1,2024-02-27T11:07:41.963Z,english_970.wav,0,peel,449,27,4,5,Français,f,4,0.32341667,-83.96880691,1.07780169
5ca1196fffab4a00149a02a9,76,1,2024-02-27T11:07:41.963Z,english_644.wav,0,peel,600,27,4,5,Français,f,0,0.0,21.57551932,1.87520752
5ca1196fffab4a00149a02a9,76,1,2024-02-27T11:07:41.963Z,english_644.wav,0,peel,600,27,4,5,Français,f,1,0.1,-11.98636437,1.28750901
5ca1196fffab4a00149a02a9,76,1,2024-02-27T11:07:41.963Z,english_644.wav,0,peel,600,27,4,5,Français,f,2,0.2,-86.21942338,0.33708129
5ca1196fffab4a00149a02a9,76,1,2024-02-27T11:07:41.963Z,english_644.wav,0,peel,600,27,4,5,Français,f,3,0.3,-38.98906039,1.53524213
5ca1196fffab4a00149a02a9,76,1,2024-02-27T11:07:41.963Z,english_644.wav,0,peel,600,27,4,5,Français,f,4,0.32341667,-28.58177745,0.3058721
5ca1196fffab4a00149a02a9,77,1,2024-02-27T11:07:41.963Z,english_446.wav,0,peel,581,27,4,5,Français,f,0,0.0,-50.90487531,0.84721497
5ca1196fffab4a00149a02a9,77,1,2024-02-27T11:07:41.963Z,english_446.wav,0,peel,581,27,4,5,Français,f,1,0.1,77.9515464,0.90863808
5ca1196fffab4a00149a02a9,77,1,2024-02-27T11:07:41.963Z,english_446.wav,0,peel,581,27,4,5,Français,f,2,0.2,12.96913102,0.45582271
5ca1196fffab4a00149a02a9,77,1,2024-02-27T11:07:41.963Z,english_446.wav,0,peel,581,27,4,5,Français,f,3,0.3,31.20275809,0.65529325
5ca1196fffab4a00149a02a9,77,1,2024-02-27T11:07:41.963Z,english_446.wav,0,peel,581,27,4,5,Français,f,4,0.32341667,-30.39700356,0.08422993
5ca1196fffab4a00149a02a9,78,1,2024-02-27T11:07:41.963Z,english_871.wav,0,peel,771,27,4,5,Français,f,0,0.0,84.63625516,0.21643415
5ca1196fffab4a00149a02a9,78,1,2024-02-27T11:07:41.963Z,english_871.wav,0,peel,771,27,4,5,Français,f,1,0.1,-19.11058767,1.23538017
5ca1196fffab4a00149a02a9,78,1,2024-02-27T11:07:41.963Z,english_871.wav,0,peel,771,27,4,5,Français,f,2,0.2,49.1497137,1.26375285
5ca1196fffab4a00149a02a9,78,1,2024-02-27T11:07:41.963Z,english_871.wav,0,peel,771,27,4,5,Français,f,3,0.3,-83.07816512,0.03257235
5ca1196fffab4a00149a02a9,78,1,2024-02-27T11:07:41.963Z,english_871.wav,0,peel,771,27,4,5,Français,f,4,0.32341667,11.22002909,1.90703832
5ca1196fffab4a00149a02a9,79,1,2024-02-27T11:07:41.963Z,english_666.wav,0,peel,612,27,4,5,Français,f,0,0.0,-6.63307831,0.44221414
5ca1196fffab4a00149a02a9,79,1,2024-02-27T11:07:41.963Z,english_666.wav,0,peel,612,27,4,5,Français,f,1,0.1,-47.66524373,1.62559692
5ca1196fffab4a00149a02a9,79,1,2024-02-27T11:07:41.963Z,english_666.wav,0,peel,612,27,4,5,Français,f,2,0.2,66.93817534,0.27313334
5ca1196fffab4a00149a02a9,79,1,2024-02-27T11:07:41.963Z,english_666.wav,0,peel,612,27,4,5,Français,f,3,0.3,-1.338646,0.46846925
5ca1196fffab4a00149a02a9,79,1,2024-02-27T11:07:41.963Z,english_666.wav,0,peel,612,27,4,5,Français,f,4,0.32341667,-14.31927765,1.08883823
5ca1196fffab4a00149a02a9,80,1,2024-02-27T11:07:41.963Z,english_395.wav,0,peel,412,27,4,5,Français,f,0,0.0,12.69072165,1.18485033
5ca1196fffab4a00149a02a9,80,1,2024-02-27T11:07:41.963Z,english_395.wav,0,peel,412,27,4,5,Français,f,1,0.1,16.88915645,0.64230571
5ca1196fffab4a00149a02a9,80,1,2024-02-27T11:07:41.963Z,english_395.wav,0,peel,412,27,4,5,Français,f,2,0.2,49.23789678,0.95454364
5ca1196fffab4a00149a02a9,80,1,2024-02-27T11:07:41.963Z,english_395.wav,0,peel,412,27,4,5,Français,f,3,0.3,39.87613746,0.75997929
5ca1196fffab4a00149a02a9,80,1,2024-02-27T11:07:41.963Z,english_395.wav,0,peel,412,27,4,5,Français,f,4,0.32341667,70.90138048,1.50770695
5ca1196fffab4a00149a02a9,81,1,2024-02-27T11:07:41.963Z,english_694.wav,0,pill,686,27,4,5,Français,f,0,0.0,-79.88370205,0.99496101
5ca1196fffab4a00149a02a9,81,1,2024-02-27T11:07:41.963Z,english_694.wav,0,pill,686,27,4,5,Français,f,1,0.1,-58.02841319,0.06406007
5ca1196fffab4a00149a02a9,81,1,2024-02-27T11:07:41.963Z,english_694.wav,0,pill,686,27,4,5,Français,f,2,0.2,-50.54988317,0.5055253
5ca1196fffab4a00149a02a9,81,1,2024-02-27T11:07:41.963Z,english_694.wav,0,pill,686,27,4,5,Français,f,3,0.3,-20.79864769,0.19498426
5ca1196fffab4a00149a02a9,81,1,2024-02-27T11:07:41.963Z,english_694.wav,0,pill,686,27,4,5,Français,f,4,0.32341667,-73.64916114,0.36410653
5ca1196fffab4a00149a02a9,82,1,2024-02-27T11:07:41.963Z,english_624.wav,0,peel,324,27,4,5,Français,f,0,0.0,-66.94889137,0.79130031
5ca1196fffab4a00149a02a9,82,1,2024-02-27T11:07:41.963Z,english_624.wav,0,peel,324,27,4,5,Français,f,1,0.1,-6.87427926,1.85178888
5ca1196fffab4a00149a02a9,82,1,2024-02-27T11:07:41.963Z,english_624.wav,0,peel,324,27,4,5,Français,f,2,0.2,69.52298075,0.79988954
5ca1196fffab4a00149a02a9,82,1,2024-02-27T11:07:41.963Z,english_624.wav,0,peel,324,27,4,5,Français,f,3,0.3,-45.26015132,0.87521033
5ca1196fffab4a00149a02a9,82,1,2024-02-27T11:07:41.963Z,english_624.wav,0,peel,324,27,4,5,Français,f,4,0.32341667,-50.37935108,1.50754026
5ca1196fffab4a00149a02a9,83,1,2024-02-27T11:07:41.963Z,english_967.wav,0,peel,512,27,4,5,Français,f,0,0.0,-33.19777689,0.76720641
5ca1196fffab4a00149a02a9,83,1,2024-02-27T11:07:41.963Z,english_967.wav,0,peel,512,27,4,5,Français,f,1,0.1,83.84847924,1.4094361
5ca1196fffab4a00149a02a9,83,1,2024-02-27T11:07:41.963Z,english_967.wav,0,peel,512,27,4,5,Français,f,2,0.2,81.27362124,0.74435637
5ca1196fffab4a00149a02a9,83,1,2024-02-27T11:07:41.963Z,english_967.wav,0,peel,512,27,4,5,Français,f,3,0.3,22.78466805,0.29904584
5ca1196fffab4a00149a02a9,83,1,2024-02-27T11:07:41.963Z,english_967.wav,0,peel,512,27,4,5,Français,f,4,0.32341667,16.56894366,0.47687807
5ca1196fffab4a00149a02a9,84,1,2024-02-27T11:07:41.963Z,english_882.wav,0,pill,379,27,4,5,Français,f,0,0.0,-42.93700265,1.06489748
5ca1196fffab4a00149a02a9,84,1,2024-02-27T11:07:41.963Z,english_882.wav,0,pill,379,27,4,5,Français,f,1,0.1,-62.35786663,1.38883859
5ca1196fffab4a00149a02a9,84,1,2024-02-27T11:07:41.963Z,english_882.wav,0,pill,379,27,4,5,Français,f,2,0.2,-16.20482572,0.28843799
5ca1196fffab4a00149a02a9,84,1,2024-02-27T11:07:41.963Z,english_882.wav,0,pill,379,27,4,5,Français,f,3,0.3,-46.49020195,1.05408179
5ca1196fffab4a00149a02a9,84,1,2024-02-27T11:07:41.963Z,english_882.wav,0,pill,379,27,4,5,Français,f,4,0.32341667,-64.89408339,1.78517837
5ca1196fffab4a00149a02a9,85,1,2024-02-27T11:07:41.963Z,english_702.wav,0,peel,511,27,4,5,Français,f,0,0.0,-19.6614881,1.13820402
5ca1196fffab4a00149a02a9,85,1,2024-02-27T11:07:41.963Z,english_702.wav,0,peel,511,27,4,5,Français,f,1,0.1,-92.60133235,1.47755069
5ca1196fffab4a00149a02a9,85,1,2024-02-27T11:07:41.963Z,english_702.wav,0,peel,511,27,4,5,Français,f,2,0.2,-18.01071493,1.33705675
5ca1196fffab4a00149a02a9,85,1,2024-02-27T11:07:41.963Z,english_702.wav,0,peel,511,27,4,5,Français,f,3,0.3,91.54675011,0.59768286
5ca1196fffab4a00149a02a9,85,1,2024-02-27T11:07:41.963Z,english_702.wav,0,peel,511,27,4,5,Français,f,4,0.32341667,23.09112348,0.82103567
5ca1196fffab4a00149a02a9,86,1,2024-02-27T11:07:41.963Z,english_258.wav,0,peel,643,27,4,5,Français,f,0,0.0,-7.1133109,1.89026761
5ca1196fffab4a00149a02a9,86,1,2024-02-27T11:07:41.963Z,english_258.wav,0,peel,643,27,4,5,Français,f,1,0.1,44.58564752,1.79361992
5ca1196fffab4a00149a02a9,86,1,2024-02-27T11:07:41.963Z,english_258.wav,0,peel,643,27,4,5,Français,f,2,0.2,45.36800295,0.43687845
5ca1196fffab4a00149a02a9,86,1,2024-02-27T11:07:41.963Z,english_258.wav,0,peel,643,27,4,5,Français,f,3,0.3,25.81301737,0.04688612
5ca1196fffab4a00149a02a9,86,1,2024-02-27T11:07:41.963Z,english_258.wav,0,peel,643,27,4,5,Français,f,4,0.32341667,-77.97513924,0.52567924
5ca1196fffab4a00149a02a9,87,1,2024-02-27T11:07:41.963Z,english_192.wav,0,pill,279,27,4,5,Français,f,0,0.0,78.04280759,0.73118961
5ca1196fffab4a00149a02a9,87,1,2024-02-27T11:07:41.963Z,english_192.wav,0,pill,279,27,4,5,Français,f,1,0.1,-85.52188616,0.7164391
5ca1196fffab4a00149a02a9,87,1,2024-02-27T11:07:41.963Z,english_192.wav,0,pill,279,27,4,5,Français,f,2,0.2,-14.2601202,1.68273927
5ca1196fffab4a00149a02a9,87,1,2024-02-27T11:07:41.963Z,english_192.wav,0,pill,279,27,4,5,Français,f,3,0.3,29.76504865,0.51501418
5ca1196fffab4a00149a02a9,87,1,2024-02-27T11:07:41.963Z,english_192.wav,0,pill,279,27,4,5,Français,f,4,0.32341667,82.81048791,1.16986294
5ca1196fffab4a00149a02a9,88,1,2024-02-27T11:07:41.963Z,english_640.wav,0,peel,598,27,4,5,Français,f,0,0.0,74.95875769,1.81273707
5ca1196fffab4a00149a02a9,88,1,2024-02-27T11:07:41.963Z,english_640.wav,0,peel,598,27,4,5,Français,f,1,0.1,87.73764633,1.50076703
5ca1196fffab4a00149a02a9,88,1,2024-02-27T11:07:41.963Z,english_640.wav,0,peel,598,27,4,5,Français,f,2,0.2,-71.36544648,0.25286143
5ca1196fffab4a00149a02a9,88,1,2024-02-27T11:07:41.963Z,english_640.wav,0,peel,598,27,4,5,Français,f,3,0.3,11.07583082,0.53181051
5ca1196fffab4a00149a02a9,88,1,2024-02-27T11:07:41.963Z,english_640.wav,0,peel,598,27,4,5,Français,f,4,0.32341667,18.32643638,0.76351343
5ca1196fffab4a00149a02a9,89,1,2024-02-27T11:07:41.963Z,english_689.wav,0,pill,710,27,4,5,Français,f,0,0.0,42.02822248,1.89069384
5ca1196fffab4a00149a02a9,89,1,2024-02-27T11:07:41.963Z,english_689.wav,0,pill,710,27,4,5,Français,f,1,0.1,-61.92185233,0.33123617
5ca1196fffab4a00149a02a9,89,1,2024-02-27T11:07:41.963Z,english_689.wav,0,pill,710,27,4,5,Français,f,2,0.2,-8.45156809,0.5478675
5ca1196fffab4a00149a02a9,89,1,2024-02-27T11:07:41.963Z,english_689.wav,0,pill,710,27,4,5,Français,f,3,0.3,15.09500637,0.80334133
5ca1196fffab4a00149a02a9,89,1,2024-02-27T11:07:41.963Z,english_689.wav,0,pill,710,27,4,5,Français,f,4,0.32341667,8.33163023,1.42024866
5ca1196fffab4a00149a02a9,90,1,2024-02-27T11:07:41.963Z,english_279.wav,0,peel,576,27,4,5,Français,f,0,0.0,-20.90398108,0.60114424
5ca1196fffab4a00149a02a9,90,1,2024-02-27T11:07:41.963Z,english_279.wav,0,peel,576,27,4,5,Français,f,1,0.1,98.83098338,0.92336304
5ca1196fffab4a00149a02a9,90,1,2024-02-27T11:07:41.963Z,english_279.wav,0,peel,576,27,4,5,Français,f,2,0.2,-95.37608427,1.39045705
5ca1196fffab4a00149a02a9,90,1,2024-02-27T11:07:41.963Z,english_279.wav,0,peel,576,27,4,5,Français,f,3,0.3,-52.65380993,0.64938935
5ca1196fffab4a00149a02a9,90,1,2024-02-27T11:07:41.963Z,english_279.wav,0,peel,576,27,4,5,Français,f,4,0.32341667,47.72500112,1.57478054
5ca1196fffab4a00149a02a9,91,1,2024-02-27T11:07:41.963Z,english_77.wav,0,pill,683,27,4,5,Français,f,0,0.0,-72.40491727,0.02183184
5ca1196fffab4a00149a02a9,91,1,2024-02-27T11:07:41.963Z,english_77.wav,0,pill,683,27,4,5,Français,f,1,0.1,8.82020558,1.36505393
5ca1196fffab4a00149a02a9,91,1,2024-02-27T11:07:41.963Z,english_77.wav,0,pill,683,27,4,5,Français,f,2,0.2,89.28229375,1.34112472
5ca1196fffab4a00149a02a9,91,1,2024-02-27T11:07:41.963Z,english_77.wav,0,pill,683,27,4,5,Français,f,3,0.3,-14.39120814,0.45737201
5ca1196fffab4a00149a02a9,91,1,2024-02-27T11:07:41.963Z,english_77.wav,0,pill,683,27,4,5,Français,f,4,0.32341667,0.18022976,1.1673494
5ca1196fffab4a00149a02a9,92,1,2024-02-27T11:07:41.963Z,english_360.wav,0,pill,1296,27,4,5,Français,f,0,0.0,-50.57937638,0.73788637
5ca1196fffab4a00149a02a9,92,1,2024-02-27T11:07:41.963Z,english_360.wav,0,pill,1296,27,4,5,Français,f,1,0.1,-29.22164644,0.6487653
5ca1196fffab4a00149a02a9,92,1,2024-02-27T11:07:41.963Z,english_360.wav,0,pill,1296,27,4,5,Français,f,2,0.2,-88.45421248,0.73193848
5ca1196fffab4a00149a02a9,92,1,2024-02-27T11:07:41.963Z,english_360.wav,0,pill,1296,27,4,5,Français,f,3,0.3,93.68039656,1.75347372
5ca1196fffab4a00149a02a9,92,1,2024-02-27T11:07:41.963Z,english_360.wav,0,pill,1296,27,4,5,Français,f,4,0.32341667,-2.59092547,1.19277037
5ca1196fffab4a00149a02a9,93,1,2024-02-27T11:07:41.963Z,english_196.wav,0,peel,807,27,4,5,Français,f,0,0.0,-86.38202104,1.63362226
5ca1196fffab4a00149a02a9,93,1,2024-02-27T11:07:41.963Z,english_196.wav,0,peel,807,27,4,5,Français,f,1,0.1,0.95731439,1.36148231
5ca1196fffab4a00149a02a9,93,1,2024-02-27T11:07:41.963Z,english_196.wav,0,peel,807,27,4,5,Français,f,2,0.2,-48.4797064,0.68683683
5ca1196fffab4a00149a02a9,93,1,2024-02-27T11:07:41.963Z,english_196.wav,0,peel,807,27,4,5,Français,f,3,0.3,50.57477866,1.59869277
5ca1196fffab4a00149a02a9,93,1,2024-02-27T11:07:41.963Z,english_196.wav,0,peel,807,27,4,5,Français,f,4,0.32341667,-52.07184875,0.40963154
5ca1196fffab4a00149a02a9,94,1,2024-02-27T11:07:41.963Z,english_184.wav,0,peel,491,27,4,5,Français,f,0,0.0,29.65201825,1.69567788
5ca1196fffab4a00149a02a9,94,1,2024-02-27T11:07:41.963Z,english_184.wav,0,peel,491,27,4,5,Français,f,1,0.1,16.48348791,1.26735627
5ca1196fffab4a00149a02a9,94,1,2024-02-27T11:07:41.963Z,english_184.wav,0,peel,491,27,4,5,Français,f,2,0.2,3.77448983,0.95352895
5ca1196fffab4a00149a02a9,94,1,2024-02-27T11:07:41.963Z,english_184.wav,0,peel,491,27,4,5,Français,f,3,0.3,62.87502431,1.7991474
5ca1196fffab4a00149a02a9,94,1,2024-02-27T11:07:41.963Z,english_184.wav,0,peel,491,27,4,5,Français,f,4,0.32341667,-8.82418577,0.98992659
5ca1196fffab4a00149a02a9,95,1,2024-02-27T11:07:41.963Z,english_458.wav,0,pill,1402,27,4,5,Français,f,0,0.0,-49.69821038,0.39452057
5ca1196fffab4a00149a02a9,95,1,2024-02-27T11:07:41.963Z,english_458.wav,0,pill,1402,27,4,5,Français,f,1,0.1,-49.80647014,1.24604375
5ca1196fffab4a00149a02a9,95,1,2024-02-27T11:07:41.963Z,english_458.wav,0,pill,1402,27,4,5,Français,f,2,0.2,11.98261521,0.42272405
5ca1196fffab4a00149a02a9,95,1,2024-02-27T11:07:41.963Z,english_458.wav,0,pill,1402,27,4,5,Français,f,3,0.3,59.43319096,0.21259233
5ca1196fffab4a00149a02a9,95,1,2024-02-27T11:07:41.963Z,english_458.wav,0,pill,1402,27,4,5,Français,f,4,0.32341667,-34.5671642,1.13235362
5ca1196fffab4a00149a02a9,96,1,2024-02-27T11:07:41.963Z,english_191.wav,0,pill,827,27,4,5,Français,f,0,0.0,5.22709543,0.24693927
5ca1196fffab4a00149a02a9,96,1,2024-02-27T11:07:41.963Z,english_191.wav,0,pill,827,27,4,5,Français,f,1,0.1,-51.29785688,1.61528443
5ca1196fffab4a00149a02a9,96,1,2024-02-27T11:07:41.963Z,english_191.wav,0,pill,827,27,4,5,Français,f,2,0.2,14.39503603,0.10158113
5ca1196fffab4a00149a02a9,96,1,2024-02-27T11:07:41.963Z,english_191.wav,0,pill,827,27,4,5,Français,f,3,0.3,60.50312404,1.02883866
5ca1196fffab4a00149a02a9,96,1,2024-02-27T11:07:41.963Z,english_191.wav,0,pill,827,27,4,5,Français,f,4,0.32341667,68.15927452,0.69870432
5ca1196fffab4a00149a02a9,97,1,2024-02-27T11:07:41.963Z,english_43.wav,0,pill,512,27,4,5,Français,f,0,0.0,22.40064366,1.74132857
5ca1196fffab4a00149a02a9,97,1,2024-02-27T11:07:41.963Z,english_43.wav,0,pill,512,27,4,5,Français,f,1,0.1,-68.20152198,0.12763156
5ca1196fffab4a00149a02a9,97,1,2024-02-27T11:07:41.963Z,english_43.wav,0,pill,512,27,4,5,Français,f,2,0.2,62.56231291,0.31420738
5ca1196fffab4a00149a02a9,97,1,2024-02-27T11:07:41.963Z,english_43.wav,0,pill,512,27,4,5,Français,f,3,0.3,45.0736378,0.98572154
5ca1196fffab4a00149a02a9,97,1,2024-02-27T11:07:41.963Z,english_43.wav,0,pill,512,27,4,5,Français,f,4,0.32341667,-36.46791656,0.91325677
5ca1196fffab4a00149a02a9,98,1,2024-02-27T11:07:41.963Z,english_445.wav,0,peel,265,27,4,5,Français,f,0,0.0,88.00598922,1.42174052
5ca1196fffab4a00149a02a9,98,1,2024-02-27T11:07:41.963Z,english_445.wav,0,peel,265,27,4,5,Français,f,1,0.1,96.51328737,1.49122509
5ca1196fffab4a00149a02a9,98,1,2024-02-27T11:07:41.963Z,english_445.wav,0,peel,265,27,4,5,Français,f,2,0.2,29.11093561,0.62095286
5ca1196fffab4a00149a02a9,98,1,2024-02-27T11:07:41.963Z,english_445.wav,0,peel,265,27,4,5,Français,f,3,0.3,69.6076589,1.14630865
5ca1196fffab4a00149a02a9,98,1,2024-02-27T11:07:41.963Z,english_445.wav,0,peel,265,27,4,5,Français,f,4,0.32341667,-59.73938179,1.38538671
5ca1196fffab4a00149a02a9,99,1,2024-02-27T11:07:41.963Z,english_303.wav,0,pill,398,27,4,5,Français,f,0,0.0,67.00540241,1.22520816
5ca1196fffab4a00149a02a9,99,1,2024-02-27T11:07:41.963Z,english_303.wav,0,pill,398,27,4,5,Français,f,1,0.1,32.95821842,1.22732479
5ca1196fffab4a00149a02a9,99,1,2024-02-27T11:07:41.963Z,english_303.wav,0,pill,398,27,4,5,Français,f,2,0.2,-23.67517146,0.54923068
5ca1196fffab4a00149a02a9,99,1,2024-02-27T11:07:41.963Z,english_303.wav,0,pill,398,27,4,5,Français,f,3,0.3,-66.94926695,0.8977578
5ca1196fffab4a00149a02a9,99,1,2024-02-27T11:07:41.963Z,english_303.wav,0,pill,398,27,4,5,Français,f,4,0.32341667,65.71723135,1.41807679
5ca1196fffab4a00149a02a9,100,2,2024-02-27T11:07:41.963Z,english_789.wav,0,peel,201,27,4,5,Français,f,0,0.0,70.69388181,1.62690516
5ca1196fffab4a00149a02a9,100,2,2024-02-27T11:07:41.963Z,english_789.wav,0,peel,201,27,4,5,Français,f,1,0.1,-91.45782136,1.02092359
5ca1196fffab4a00149a02a9,100,2,2024-02-27T11:07:41.963Z,english_789.wav,0,peel,201,27,4,5,Français,f,2,0.2,-94.67801392,0.93437639
5ca1196fffab4a00149a02a9,100,2,2024-02-27T11:07:41.963Z,english_789.wav,0,peel,201,27,4,5,Français,f,3,0.3,83.76501612,1.8239896
5ca1196fffab4a00149a02a9,100,2,2024-02-27T11:07:41.963Z,english_789.wav,0,peel,201,27,4,5,Français,f,4,0.32341667,-4.60584958,1.29596798
5ca1196fffab4a00149a02a9,101,2,2024-02-27T11:07:41.963Z,english_536.wav,0,peel,447,27,4,5,Français,f,0,0.0,19.16157828,1.0914138
5ca1196fffab4a00149a02a9,101,2,2024-02-27T11:07:41.963Z,english_536.wav,0,peel,447,27,4,5,Français,f,1,0.1,-70.44875328,1.55996729
5ca1196fffab4a00149a02a9,101,2,2024-02-27T11:07:41.963Z,english_536.wav,0,peel,447,27,4,5,Français,f,2,0.2,9.3844651,1.22014226
5ca1196fffab4a00149a02a9,101,2,2024-02-27T11:07:41.963Z,english_536.wav,0,peel,447,27,4,5,Français,f,3,0.3,54.79833109,0.24268308
5ca1196fffab4a00149a02a9,101,2,2024-02-27T11:07:41.963Z,english_536.wav,0,peel,447,27,4,5,Français,f,4,0.32341667,-43.58683919,1.12643869
5ca1196fffab4a00149a02a9,102,2,2024-02-27T11:07:41.963Z,english_333.wav,0,peel,338,27,4,5,Français,f,0,0.0,61.26933292,0.50090252
5ca1196fffab4a00149a02a9,102,2,2024-02-27T11:07:41.963Z,english_333.wav,0,peel,338,27,4,5,Français,f,1,0.1,38.65533839,1.61630161
5ca1196fffab4a00149a02a9,102,2,2024-02-27T11:07:41.963Z,english_333.wav,0,peel,338,27,4,5,Français,f,2,0.2,-27.91605269,1.73322278
5ca1196fffab4a00149a02a9,102,2,2024-02-27T11:07:41.963Z,english_333.wav,0,peel,338,27,4,5,Français,f,3,0.3,36.00101096,0.67742762
5ca1196fffab4a00149a02a9,102,2,2024-02-27T11:07:41.963Z,english_333.wav,0,peel,338,27,4,5,Français,f,4,0.32341667,-78.35943708,0.46993908
5ca1196fffab4a00149a02a9,103,2,2024-02-27T11:07:41.963Z,english_428.wav,0,peel,400,27,4,5,Français,f,0,0.0,-98.34466569,1.83106884
5ca1196fffab4a00149a02a9,103,2,2024-02-27T11:07:41.963Z,english_428.wav,0,peel,400,27,4,5,Français,f,1,0.1,-10.51162175,1.34345266
5ca1196fffab4a00149a02a9,103,2,2024-02-27T11:07:41.963Z,english_428.wav,0,peel,400,27,4,5,Français,f,2,0.2,97.93427859,0.65853672
5ca1196fffab4a00149a02a9,103,2,2024-02-27T11:07:41.963Z,english_428.wav,0,peel,400,27,4,5,Français,f,3,0.3,35.61870537,1.28105878
5ca1196fffab4a00149a02a9,103,2,2024-02-27T11:07:41.963Z,english_428.wav,0,peel,400,27,4,5,Français,f,4,0.32341667,-12.49352836,0.15324236
5ca1196fffab4a00149a02a9,104,2,2024-02-27T11:07:41.963Z,english_286.wav,0,pill,315,27,4,5,Français,f,0,0.0,-94.9495111,0.49849168
5ca1196fffab4a00149a02a9,104,2,2024-02-27T11:07:41.963Z,english_286.wav,0,pill,315,27,4,5,Français,f,1,0.1,-25.05656786,1.27672914
5ca1196fffab4a00149a02a9,104,2,2024-02-27T11:07:41.963Z,english_286.wav,0,pill,315,27,4,5,Français,f,2,0.2,59.61150177,0.14515846
5ca1196fffab4a00149a02a9,104,2,2024-02-27T11:07:41.963Z,english_286.wav,0,pill,315,27,4,5,Français,f,3,0.3,-32.97544875,1.67164973
5ca1196fffab4a00149a02a9,104,2,2024-02-27T11:07:41.963Z,english_286.wav,0,pill,315,27,4,5,Français,f,4,0.32341667,7.58095242,0.86492177
5ca1196fffab4a00149a02a9,105,2,2024-02-27T11:07:41.963Z,english_121.wav,0,peel,460,27,4,5,Français,f,0,0.0,-30.24687583,0.23154591
5ca1196fffab4a00149a02a9,105,2,2024-02-27T11:07:41.963Z,english_121.wav,0,peel,460,27,4,5,Français,f,1,0.1,-28.09260766,0.6680997
5ca1196fffab4a00149a02a9,105,2,2024-02-27T11:07:41.963Z,english_121.wav,0,peel,460,27,4,5,Français,f,2,0.2,-29.54951374,1.79539672
5ca1196fffab4a00149a02a9,105,2,2024-02-27T11:07:41.963Z,english_121.wav,0,peel,460,27,4,5,Français,f,3,0.3,-37.35286973,0.57554739
5ca1196fffab4a00149a02a9,105,2,2024-02-27T11:07:41.963Z,english_121.wav,0,peel,460,27,4,5,Français,f,4,0.32341667,58.68529554,1.8709958
5ca1196fffab4a00149a02a9,106,2,2024-02-27T11:07:41.963Z,english_27.wav,0,pill,3039,27,4,5,Français,f,0,0.0,-6.18374659,1.89085405
5ca1196fffab4a00149a02a9,106,2,2024-02-27T11:07:41.963Z,english_27.wav,0,pill,3039,27,4,5,Français,f,1,0.1,32.21095844,0.80138328
5ca1196fffab4a00149a02a9,106,2,2024-02-27T11:07:41.963Z,english_27.wav,0,pill,3039,27,4,5,Français,f,2,0.2,21.02729748,1.01248602
5ca1196fffab4a00149a02a9,106,2,2024-02-27T11:07:41.963Z,english_27.wav,0,pill,3039,27,4,5,Français,f,3,0.3,4.79829383,1.67412938
5ca1196fffab4a00149a02a9,106,2,2024-02-27T11:07:41.963Z,english_27.wav,0,pill,3039,27,4,5,Français,f,4,0.32341667,-70.7577659,0.3387802
5ca1196fffab4a00149a02a9,107,2,2024-02-27T11:07:41.963Z,english_635.wav,0,peel,431,27,4,5,Français,f,0,0.0,27.7169436,1.98702335
5ca1196fffab4a00149a02a9,107,2,2024-02-27T11:07:41.963Z,english_635.wav,0,peel,431,27,4,5,Français,f,1,0.1,-44.8292656,1.27737447
5ca1196fffab4a00149a02a9,107,2,2024-02-27T11:07:41.963Z,english_635.wav,0,peel,431,27,4,5,Français,f,2,0.2,67.97685769,0.57401651
5ca1196fffab4a00149a02a9,107,2,2024-02-27T11:07:41.963Z,english_635.wav,0,peel,431,27,4,5,Français,f,3,0.3,82.0264667,0.46134276
5ca1196fffab4a00149a02a9,107,2,2024-02-27T11:07:41.963Z,english_635.wav,0,peel,431,27,4,5,Français,f,4,0.32341667,84.34985253,0.71235155
5ca1196fffab4a00149a02a9,108,2,2024-02-27T11:07:41.963Z,english_455.wav,0,peel,524,27,4,5,Français,f,0,0.0,16.09493262,0.21208686
5ca1196fffab4a00149a02a9,108,2,2024-02-27T11:07:41.963Z,english_455.wav,0,peel,524,27,4,5,Français,f,1,0.1,24.58982,1.0305564
5ca1196fffab4a00149a02a9,108,2,2024-02-27T11:07:41.963Z,english_455.wav,0,peel,524,27,4,5,Français,f,2,0.2,-59.31201859,1.53057992
5ca1196fffab4a00149a02a9,108,2,2024-02-27T11:07:41.963Z,english_455.wav,0,peel,524,27,4,5,Français,f,3,0.3,40.79603426,0.62599766
5ca1196fffab4a00149a02a9,108,2,2024-02-27T11:07:41.963Z,english_455.wav,0,peel,524,27,4,5,Français,f,4,0.32341667,-39.30035714,1.43054244
5ca1196fffab4a00149a02a9,109,2,2024-02-27T11:07:41.963Z,english_927.wav,0,pill,310,27,4,5,Français,f,0,0.0,81.66311017,1.3783001
5ca1196fffab4a00149a02a9,109,2,2024-02-27T11:07:41.963Z,english_927.wav,0,pill,310,27,4,5,Français,f,1,0.1,0.87570902,0.51323502
5ca1196fffab4a00149a02a9,109,2,2024-02-27T11:07:41.963Z,english_927.wav,0,pill,310,27,4,5,Français,f,2,0.2,-59.21619647,0.98265958
5ca1196fffab4a00149a02a9,109,2,2024-02-27T11:07:41.963Z,english_927.wav,0,pill,310,27,4,5,Français,f,3,0.3,-57.6787773,0.30790993
5ca1196fffab4a00149a02a9,109,2,2024-02-27T11:07:41.963Z,english_927.wav,0,pill,310,27,4,5,Français,f,4,0.32341667,-30.87043146,1.17222751
5ca1196fffab4a00149a02a9,110,2,2024-02-27T11:07:41.963Z,english_840.wav,0,pill,565,27,4,5,Français,f,0,0.0,-27.11425843,1.31301797
5ca1196fffab4a00149a02a9,110,2,2024-02-27T11:07:41.963Z,english_840.wav,0,pill,565,27,4,5,Français,f,1,0.1,-47.31494811,0.54280133
5ca1196fffab4a00149a02a9,110,2,2024-02-27T11:07:41.963Z,english_840.wav,0,pill,565,27,4,5,Français,f,2,0.2,-88.66887426,0.14090987
5ca1196fffab4a00149a02a9,110,2,2024-02-27T11:07:41.963Z,english_840.wav,0,pill,565,27,4,5,Français,f,3,0.3,7.86940595,0.11950116
5ca1196fffab4a00149a02a9,110,2,2024-02-27T11:07:41.963Z,english_840.wav,0,pill,565,27,4,5,Français,f,4,0.32341667,87.61758205,1.48166624
5ca1196fffab4a00149a02a9,111,2,2024-02-27T11:07:41.963Z,english_900.wav,0,peel,230,27,4,5,Français,f,0,0.0,-54.93304755,1.64865849
5ca1196fffab4a00149a02a9,111,2,2024-02-27T11:07:41.963Z,english_900.wav,0,peel,230,27,4,5,Français,f,1,0.1,58.88524349,1.11215591
5ca1196fffab4a00149a02a9,111,2,2024-02-27T11:07:41.963Z,english_900.wav,0,peel,230,27,4,5,Français,f,2,0.2,-67.87194092,0.89823705
5ca1196fffab4a00149a02a9,111,2,2024-02-27T11:07:41.963Z,english_900.wav,0,peel,230,27,4,5,Français,f,3,0.3,20.66021993,1.30060406
5ca1196fffab4a00149a02a9,111,2,2024-02-27T11:07:41.963Z,english_900.wav,0,peel,230,27,4,5,Français,f,4,0.32341667,-10.79853151,1.95850441
5ca1196fffab4a00149a02a9,112,2,2024-02-27T11:07:41.963Z,english_236.wav,0,pill,347,27,4,5,Français,f,0,0.0,14.26564849,0.89253674
5ca1196fffab4a00149a02a9,112,2,2024-02-27T11:07:41.963Z,english_236.wav,0,pill,347,27,4,5,Français,f,1,0.1,60.97219358,0.38957934
5ca1196fffab4a00149a02a9,112,2,2024-02-27T11:07:41.963Z,english_236.wav,0,pill,347,27,4,5,Français,f,2,0.2,-12.39626346,1.55558051
5ca1196fffab4a00149a02a9,112,2,2024-02-27T11:07:41.963Z,english_236.wav,0,pill,347,27,4,5,Français,f,3,0.3,-62.87774076,0.2682718
5ca1196fffab4a00149a02a9,112,2,2024-02-27T11:07:41.963Z,english_236.wav,0,pill,347,27,4,5,Français,f,4,0.32341667,-75.97684705,1.92182597
5ca1196fffab4a00149a02a9,113,2,2024-02-27T11:07:41.963Z,english_519.wav,0,peel,368,27,4,5,Français,f,0,0.0,-8.06946753,0.14231686
5ca1196fffab4a00149a02a9,113,2,2024-02-27T11:07:41.963Z,english_519.wav,0,peel,368,27,4,5,Français,f,1,0.1,-66.74939098,1.74411569
5ca1196fffab4a00149a02a9,113,2,2024-02-27T11:07:41.963Z,english_519.wav,0,peel,368,27,4,5,Français,f,2,0.2,-27.98142454,1.42967772
5ca1196fffab4a00149a02a9,113,2,2024-02-27T11:07:41.963Z,english_519.wav,0,peel,368,27,4,5,Français,f,3,0.3,-72.75033344,0.44774012
5ca1196fffab4a00149a02a9,113,2,2024-02-27T11:07:41.963Z,english_519.wav,0,peel,368,27,4,5,Français,f,4,0.32341667,-36.15575878,1.4256209
5ca1196fffab4a00149a02a9,114,2,2024-02-27T11:07:41.963Z,english_597.wav,0,peel,2159,27,4,5,Français,f,0,0.0,-83.66792118,0.17389721
5ca1196fffab4a00149a02a9,114,2,2024-02-27T11:07:41.963Z,english_597.wav,0,peel,2159,27,4,5,Français,f,1,0.1,-19.98744657,0.39349672
5ca1196fffab4a00149a02a9,114,2,2024-02-27T11:07:41.963Z,english_597.wav,0,peel,2159,27,4,5,Français,f,2,0.2,-30.38458549,1.97590818
5ca1196fffab4a00149a02a9,114,2,2024-02-27T11:07:41.963Z,english_597.wav,0,peel,2159,27,4,5,Français,f,3,0.3,-63.4406446,1.84988074
5ca1196fffab4a00149a02a9,114,2,2024-02-27T11:07:41.963Z,english_597.wav,0,peel,2159,27,4,5,Français,f,4,0.32341667,25.67812426,1.17620678
5ca1196fffab4a00149a02a9,115,2,2024-02-27T11:07:41.963Z,english_312.wav,0,pill,536,27,4,5,Français,f,0,0.0,44.01610098,1.36033213
5ca1196fffab4a00149a02a9,115,2,2024-02-27T11:07:41.963Z,english_312.wav,0,pill,536,27,4,5,Français,f,1,0.1,-34.76139374,0.08557756
5ca1196fffab4a00149a02a9,115,2,2024-02-27T11:07:41.963Z,english_312.wav,0,pill,536,27,4,5,Français,f,2,0.2,-43.47986862,1.06509633
5ca1196fffab4a00149a02a9,115,2,2024-02-27T11:07:41.963Z,english_312.wav,0,pill,536,27,4,5,Français,f,3,0.3,-9.79517271,0.67257935
5ca1196fffab4a00149a02a9,115,2,2024-02-27T11:07:41.963Z,english_312.wav,0,pill,536,27,4,5,Français,f,4,0.32341667,85.48914895,0.12614926
5ca1196fffab4a00149a02a9,116,2,2024-02-27T11:07:41.963Z,english_137.wav,0,pill,3,27,4,5,Français,f,0,0.0,-81.54177422,0.16940048
5ca1196fffab4a00149a02a9,116,2,2024-02-27T11:07:41.963Z,english_137.wav,0,pill,3,27,4,5,Français,f,1,0.1,48.50229113,1.33204053
5ca1196fffab4a00149a02a9,116,2,2024-02-27T11:07:41.963Z,english_137.wav,0,pill,3,27,4,5,Français,f,2,0.2,-43.40912925,1.8593258
5ca1196fffab4a00149a02a9,116,2,2024-02-27T11:07:41.963Z,english_137.wav,0,pill,3,27,4,5,Français,f,3,0.3,54.89578869,1.77805515
5ca1196fffab4a00149a02a9,116,2,2024-02-27T11:07:41.963Z,english_137.wav,0,pill,3,27,4,5,Français,f,4,0.32341667,90.09778797,1.80981769
5ca1196fffab4a00149a02a9,117,2,2024-02-27T11:07:41.963Z,english_993.wav,0,peel,276,27,4,5,Français,f,0,0.0,-66.15449332,1.17508471
5ca1196fffab4a00149a02a9,117,2,2024-02-27T11:07:41.963Z,english_993.wav,0,peel,276,27,4,5,Français,f,1,0.1,33.08083728,0.94744004
5ca1196fffab4a00149a02a9,117,2,2024-02-27T11:07:41.963Z,english_993.wav,0,peel,276,27,4,5,Français,f,2,0.2,51.46479562,0.74931244
5ca1196fffab4a00149a02a9,117,2,2024-02-27T11:07:41.963Z,english_993.wav,0,peel,276,27,4,5,Français,f,3,0.3,-80.58676237,0.35628979
5ca1196fffab4a00149a02a9,117,2,2024-02-27T11:07:41.963Z,english_993.wav,0,peel,276,27,4,5,Français,f,4,0.32341667,81.97884737,1.25416847
5ca1196fffab4a00149a02a9,118,2,2024-02-27T11:07:41.963Z,english_406.wav,0,pill,533,27,4,5,Français,f,0,0.0,28.09923375,1.43312072
5ca1196fffab4a00149a02a9,118,2,2024-02-27T11:07:41.963Z,english_406.wav,0,pill,533,27,4,5,Français,f,1,0.1,-15.10813675,0.8890381
5ca1196fffab4a00149a02a9,118,2,2024-02-27T11:07:41.963Z,english_406.wav,0,pill,533,27,4,5,Français,f,2,0.2,-12.43931725,0.60560557
5ca1196fffab4a00149a02a9,118,2,2024-02-27T11:07:41.963Z,english_406.wav,0,pill,533,27,4,5,Français,f,3,0.3,-27.33468297,1.13565345
5ca1196fffab4a00149a02a9,118,2,2024-02-27T11:07:41.963Z,english_406.wav,0,pill,533,27,4,5,Français,f,4,0.32341667,-62.66931892,1.8467177
5ca1196fffab4a00149a02a9,119,2,2024-02-27T11:07:41.963Z,english_443.wav,0,peel,595,27,4,5,Français,f,0,0.0,0.608638,1.06022382
5ca1196fffab4a00149a02a9,119,2,2024-02-27T11:07:41.963Z,english_443.wav,0,peel,595,27,4,5,Français,f,1,0.1,15.80398242,1.02694767
5ca1196fffab4a00149a02a9,119,2,2024-02-27T11:07:41.963Z,english_443.wav,0,peel,595,27,4,5,Français,f,2,0.2,-53.8454718,0.72801533
5ca1196fffab4a00149a02a9,119,2,2024-02-27T11:07:41.963Z,english_443.wav,0,peel,595,27,4,5,Français,f,3,0.3,32.36058062,1.22153209
5ca1196fffab4a00149a02a9,119,2,2024-02-27T11:07:41.963Z,english_443.wav,0,peel,595,27,4,5,Français,f,4,0.32341667,41.23353215,0.58841963
5ca1196fffab4a00149a02a9,120,2,2024-02-27T11:07:41.963Z,english_985.wav,0,pill,288,27,4,5,Français,f,0,0.0,31.76144354,0.46805505
5ca1196fffab4a00149a02a9,120,2,2024-02-27T11:07:41.963Z,english_985.wav,0,pill,288,27,4,5,Français,f,1,0.1,49.0534069,1.72857245
5ca1196fffab4a00149a02a9,120,2,2024-02-27T11:07:41.963Z,english_985.wav,0,pill,288,27,4,5,Français,f,2,0.2,-59.14058353,0.05336254
5ca1196fffab4a00149a02a9,120,2,2024-02-27T11:07:41.963Z,english_985.wav,0,pill,288,27,4,5,Français,f,3,0.3,-36.25561351,0.45417652
5ca1196fffab4a00149a02a9,120,2,2024-02-27T11:07:41.963Z,english_985.wav,0,pill,288,27,4,5,Français,f,4,0.32341667,-53.50268286,1.33850641
5ca1196fffab4a00149a02a9,121,2,2024-02-27T11:07:41.963Z,english_512.wav,0,pill,98,27,4,5,Français,f,0,0.0,92.76608442,1.91273189
5ca1196fffab4a00149a02a9,121,2,2024-02-27T11:07:41.963Z,english_512.wav,0,pill,98,27,4,5,Français,f,1,0.1,-20.68005196,1.02897077
5ca1196fffab4a00149a02a9,121,2,2024-02-27T11:07:41.963Z,english_512.wav,0,pill,98,27,4,5,Français,f,2,0.2,-55.10098951,0.7965214
5ca1196fffab4a00149a02a9,121,2,2024-02-27T11:07:41.963Z,english_512.wav,0,pill,98,27,4,5,Français,f,3,0.3,79.8086149,1.98502062
5ca1196fffab4a00149a02a9,121,2,2024-02-27T11:07:41.963Z,english_512.wav,0,pill,98,27,4,5,Français,f,4,0.32341667,-91.21136492,0.13323305
5ca1196fffab4a00149a02a9,122,2,2024-02-27T11:07:41.963Z,english_347.wav,0,peel,279,27,4,5,Français,f,0,0.0,34.89178431,1.32203506
5ca1196fffab4a00149a02a9,122,2,2024-02-27T11:07:41.963Z,english_347.wav,0,peel,279,27,4,5,Français,f,1,0.1,53.24978685,0.28714436
5ca1196fffab4a00149a02a9,122,2,2024-02-27T11:07:41.963Z,english_347.wav,0,peel,279,27,4,5,Français,f,2,0.2,4.11185022,1.66093526
5ca1196fffab4a00149a02a9,122,2,2024-02-27T11:07:41.963Z,english_347.wav,0,peel,279,27,4,5,Français,f,3,0.3,89.26663646,1.29826057
5ca1196fffab4a00149a02a9,122,2,2024-02-27T11:07:41.963Z,english_347.wav,0,peel,279,27,4,5,Français,f,4,0.32341667,-53.02646266,0.05504814
5ca1196fffab4a00149a02a9,123,2,2024-02-27T11:07:41.963Z,english_606.wav,0,peel,410,27,4,5,Français,f,0,0.0,-54.19201916,1.71730642
5ca1196fffab4a00149a02a9,123,2,2024-02-27T11:07:41.963Z,english_606.wav,0,peel,410,27,4,5,Français,f,1,0.1,-9.49104439,0.42216081
5ca1196fffab4a00149a02a9,123,2,2024-02-27T11:07:41.963Z,english_606.wav,0,peel,410,27,4,5,Français,f,2,0.2,1.17868262,1.31506394
5ca1196fffab4a00149a02a9,123,2,2024-02-27T11:07:41.963Z,english_606.wav,0,peel,410,27,4,5,Français,f,3,0.3,-95.39718692,0.06922913
5ca1196fffab4a00149a02a9,123,2,2024-02-27T11:07:41.963Z,english_606.wav,0,peel,410,27,4,5,Français,f,4,0.32341667,-48.659775,0.08316227
5ca1196fffab4a00149a02a9,124,2,2024-02-27T11:07:41.963Z,english_587.wav,0,peel,362,27,4,5,Français,f,0,0.0,-33.32102811,0.7972352
5ca1196fffab4a00149a02a9,124,2,2024-02-27T11:07:41.963Z,english_587.wav,0,peel,362,27,4,5,Français,f,1,0.1,46.1287001,1.97425238
5ca1196fffab4a00149a02a9,124,2,2024-02-27T11:07:41.963Z,english_587.wav,0,peel,362,27,4,5,Français,f,2,0.2,-62.23894368,0.99609006
5ca1196fffab4a00149a02a9,124,2,2024-02-27T11:07:41.963Z,english_587.wav,0,peel,362,27,4,5,Français,f,3,0.3,36.67711132,1.18577707
5ca1196fffab4a00149a02a9,124,2,2024-02-27T11:07:41.963Z,english_587.wav,0,peel,362,27,4,5,Français,f,4,0.32341667,-11.53320103,1.64089558
5ca1196fffab4a00149a02a9,125,2,2024-02-27T11:07:41.963Z,english_156.wav,0,pill,417,27,4,5,Français,f,0,0.0,93.86570948,0.27803573
5ca1196fffab4a00149a02a9,125,2,2024-02-27T11:07:41.963Z,english_156.wav,0,pill,417,27,4,5,Français,f,1,0.1,63.74639013,0.76121308
5ca1196fffab4a00149a02a9,125,2,2024-02-27T11:07:41.963Z,english_156.wav,0,pill,417,27,4,5,Français,f,2,0.2,-97.10775444,0.98438609
5ca1196fffab4a00149a02a9,125,2,2024-02-27T11:07:41.963Z,english_156.wav,0,pill,417,27,4,5,Français,f,3,0.3,99.76737427,0.34877861
5ca1196fffab4a00149a02a9,125,2,2024-02-27T11:07:41.963Z,english_156.wav,0,pill,417,27,4,5,Français,f,4,0.32341667,11.29868277,0.58154428
5ca1196fffab4a00149a02a9,126,2,2024-02-27T11:07:41.963Z,english_676.wav,0,peel,264,27,4,5,Français,f,0,0.0,3.93099148,1.7716209
5ca1196fffab4a00149a02a9,126,2,2024-02-27T11:07:41.963Z,english_676.wav,0,peel,264,27,4,5,Français,f,1,0.1,73.76311644,1.97281878
5ca1196fffab4a00149a02a9,126,2,2024-02-27T11:07:41.963Z,english_676.wav,0,peel,264,27,4,5,Français,f,2,0.2,-26.92634129,1.42487848
5ca1196fffab4a00149a02a9,126,2,2024-02-27T11:07:41.963Z,english_676.wav,0,peel,264,27,4,5,Français,f,3,0.3,51.70874443,1.45099775
5ca1196fffab4a00149a02a9,126,2,2024-02-27T11:07:41.963Z,english_676.wav,0,peel,264,27,4,5,Français,f,4,0.32341667,-48.7675791,1.84822532
5ca1196fffab4a00149a02a9,127,2,2024-02-27T11:07:41.963Z,english_574.wav,0,pill,390,27,4,5,Français,f,0,0.0,53.128433,0.28349694
5ca1196fffab4a00149a02a9,127,2,2024-02-27T11:07:41.963Z,english_574.wav,0,pill,390,27,4,5,Français,f,1,0.1,70.24248151,0.66519348
5ca1196fffab4a00149a02a9,127,2,2024-02-27T11:07:41.963Z,english_574.wav,0,pill,390,27,4,5,Français,f,2,0.2,47.13290739,1.25768036
5ca1196fffab4a00149a02a9,127,2,2024-02-27T11:07:41.963Z,english_574.wav,0,pill,390,27,4,5,Français,f,3,0.3,52.31480293,1.43482954
5ca1196fffab4a00149a02a9,127,2,2024-02-27T11:07:41.963Z,english_574.wav,0,pill,390,27,4,5,Français,f,4,0.32341667,-33.06438127,1.23350688
5ca1196fffab4a00149a02a9,128,2,2024-02-27T11:07:41.963Z,english_496.wav,0,peel,510,27,4,5,Français,f,0,0.0,-50.36729616,1.24588939
5ca1196fffab4a00149a02a9,128,2,2024-02-27T11:07:41.963Z,english_496.wav,0,peel,510,27,4,5,Français,f,1,0.1,43.15166092,1.651593
5ca1196fffab4a00149a02a9,128,2,2024-02-27T11:07:41.963Z,english_496.wav,0,peel,510,27,4,5,Français,f,2,0.2,-89.08132341,0.94120535
5ca1196fffab4a00149a02a9,128,2,2024-02-27T11:07:41.963Z,english_496.wav,0,peel,510,27,4,5,Français,f,3,0.3,-31.93753525,0.55989053
5ca1196fffab4a00149a02a9,128,2,2024-02-27T11:07:41.963Z,english_496.wav,0,peel,510,27,4,5,Français,f,4,0.32341667,-79.66514086,1.95233748
5ca1196fffab4a00149a02a9,129,2,2024-02-27T11:07:41.963Z,english_90.wav,0,peel,234,27,4,5,Français,f,0,0.0,82.68866707,0.54239523
5ca1196fffab4a00149a02a9,129,2,2024-02-27T11:07:41.963Z,english_90.wav,0,peel,234,27,4,5,Français,f,1,0.1,-81.25370946,1.03335699
5ca1196fffab4a00149a02a9,129,2,2024-02-27T11:07:41.963Z,english_90.wav,0,peel,234,27,4,5,Français,f,2,0.2,56.28719083,1.93576477
5ca1196fffab4a00149a02a9,129,2,2024-02-27T11:07:41.963Z,english_90.wav,0,peel,234,27,4,5,Français,f,3,0.3,-46.43338119,0.74570916
5ca1196fffab4a00149a02a9,129,2,2024-02-27T11:07:41.963Z,english_90.wav,0,peel,234,27,4,5,Français,f,4,0.32341667,-19.93520327,1.11115504
5ca1196fffab4a00149a02a9,130,2,2024-02-27T11:07:41.963Z,english_932.wav,0,pill,866,27,4,5,Français,f,0,0.0,-3.8848098,1.00949787
5ca1196fffab4a00149a02a9,130,2,2024-02-27T11:07:41.963Z,english_932.wav,0,pill,866,27,4,5,Français,f,1,0.1,-32.48916274,1.44703087
5ca1196fffab4a00149a02a9,130,2,2024-02-27T11:07:41.963Z,english_932.wav,0,pill,866,27,4,5,Français,f,2,0.2,81.26251807,0.10808594
5ca1196fffab4a00149a02a9,130,2,2024-02-27T11:07:41.963Z,english_932.wav,0,pill,866,27,4,5,Français,f,3,0.3,-18.23478105,0.03465182
5ca1196fffab4a00149a02a9,130,2,2024-02-27T11:07:41.963Z,english_932.wav,0,pill,866,27,4,5,Français,f,4,0.32341667,7.90132089,0.79845554
5ca1196fffab4a00149a02a9,131,2,2024-02-27T11:07:41.963Z,english_388.wav,0,pill,305,27,4,5,Français,f,0,0.0,17.9760939,0.95494184
5ca1196fffab4a00149a02a9,131,2,2024-02-27T11:07:41.963Z,english_388.wav,0,pill,305,27,4,5,Français,f,1,0.1,-43.00340989,0.10281418
5ca1196fffab4a00149a02a9,131,2,2024-02-27T11:07:41.963Z,english_388.wav,0,pill,305,27,4,5,Français,f,2,0.2,-30.55059063,1.52164503
5ca1196fffab4a00149a02a9,131,2,2024-02-27T11:07:41.963Z,english_388.wav,0,pill,305,27,4,5,Français,f,3,0.3,-92.55876504,1.24827519
5ca1196fffab4a00149a02a9,131,2,2024-02-27T11:07:41.963Z,english_388.wav,0,pill,305,27,4,5,Français,f,4,0.32341667,-64.21175873,0.08180338
5ca1196fffab4a00149a02a9,132,2,2024-02-27T11:07:41.963Z,english_58.wav,0,pill,518,27,4,5,Français,f,0,0.0,20.12478601,1.19415515
5ca1196fffab4a00149a02a9,132,2,2024-02-27T11:07:41.963Z,english_58.wav,0,pill,518,27,4,5,Français,f,1,0.1,-22.60038942,0.26098942
5ca1196fffab4a00149a02a9,132,2,2024-02-27T11:07:41.963Z,english_58.wav,0,pill,518,27,4,5,Français,f,2,0.2,34.38627512,1.99195241
5ca1196fffab4a00149a02a9,132,2,2024-02-27T11:07:41.963Z,english_58.wav,0,pill,518,27,4,5,Français,f,3,0.3,30.90369434,0.42925074
5ca1196fffab4a00149a02a9,132,2,2024-02-27T11:07:41.963Z,english_58.wav,0,pill,518,27,4,5,Français,f,4,0.32341667,11.39971337,0.50368767
5ca1196fffab4a00149a02a9,133,2,2024-02-27T11:07:41.963Z,english_713.wav,0,pill,330,27,4,5,Français,f,0,0.0,18.77281956,1.04868626
5ca1196fffab4a00149a02a9,133,2,2024-02-27T11:07:41.963Z,english_713.wav,0,pill,330,27,4,5,Français,f,1,0.1,40.78610286,0.48332939
5ca1196fffab4a00149a02a9,133,2,2024-02-27T11:07:41.963Z,english_713.wav,0,pill,330,27,4,5,Français,f,2,0.2,84.18153491,0.83217717
5ca1196fffab4a00149a02a9,133,2,2024-02-27T11:07:41.963Z,english_713.wav,0,pill,330,27,4,5,Français,f,3,0.3,47.00827256,1.90318663
5ca1196fffab4a00149a02a9,133,2,2024-02-27T11:07:41.963Z,english_713.wav,0,pill,330,27,4,5,Français,f,4,0.32341667,66.01008384,0.50055362
5ca1196fffab4a00149a02a9,134,2,2024-02-27T11:07:41.963Z,english_677.wav,0,pill,193,27,4,5,Français,f,0,0.0,74.92499355,0.4070184
5ca1196fffab4a00149a02a9,134,2,2024-02-27T11:07:41.963Z,english_677.wav,0,pill,193,27,4,5,Français,f,1,0.1,35.44886391,0.82737557
5ca1196fffab4a00149a02a9,134,2,2024-02-27T11:07:41.963Z,english_677.wav,0,pill,193,27,4,5,Français,f,2,0.2,3.82146975,0.46436239
5ca1196fffab4a00149a02a9,134,2,2024-02-27T11:07:41.963Z,english_677.wav,0,pill,193,27,4,5,Français,f,3,0.3,10.3543008,1.40426898
5ca1196fffab4a00149a02a9,134,2,2024-02-27T11:07:41.963Z,english_677.wav,0,pill,193,27,4,5,Français,f,4,0.32341667,-53.94170103,1.42138659
5ca1196fffab4a00149a02a9,135,2,2024-02-27T11:07:41.963Z,english_797.wav,0,pill,137,27,4,5,Français,f,0,0.0,-10.77604935,1.75152448
5ca1196fffab4a00149a02a9,135,2,2024-02-27T11:07:41.963Z,english_797.wav,0,pill,137,27,4,5,Français,f,1,0.1,76.52998448,0.25625033
5ca1196fffab4a00149a02a9,135,2,2024-02-27T11:07:41.963Z,english_797.wav,0,pill,137,27,4,5,Français,f,2,0.2,-52.30950648,1.63910521
5ca1196fffab4a00149a02a9,135,2,2024-02-27T11:07:41.963Z,english_797.wav,0,pill,137,27,4,5,Français,f,3,0.3,-19.27189704,1.44412191
5ca1196fffab4a00149a02a9,135,2,2024-02-27T11:07:41.963Z,english_797.wav,0,pill,137,27,4,5,Français,f,4,0.32341667,-68.52312916,1.41513857
5ca1196fffab4a00149a02a9,136,2,2024-02-27T11:07:41.963Z,english_290.wav,0,pill,616,27,4,5,Français,f,0,0.0,73.71968657,0.30552726
5ca1196fffab4a00149a02a9,136,2,2024-02-27T11:07:41.963Z,english_290.wav,0,pill,616,27,4,5,Français,f,1,0.1,-59.85317413,1.31636279
5ca1196fffab4a00149a02a9,136,2,2024-02-27T11:07:41.963Z,english_290.wav,0,pill,616,27,4,5,Français,f,2,0.2,71.1426587,0.54925413
5ca1196fffab4a00149a02a9,136,2,2024-02-27T11:07:41.963Z,english_290.wav,0,pill,616,27,4,5,Français,f,3,0.3,-18.50007061,1.26204455
5ca1196fffab4a00149a02a9,136,2,2024-02-27T11:07:41.963Z,english_290.wav,0,pill,616,27,4,5,Français,f,4,0.32341667,-65.91143137,0.60528556
5ca1196fffab4a00149a02a9,137,2,2024-02-27T11:07:41.963Z,english_216.wav,0,peel,391,27,4,5,Français,f,0,0.0,-62.2888105,1.07577895
5ca1196fffab4a00149a02a9,137,2,2024-02-27T11:07:41.963Z,english_216.wav,0,peel,391,27,4,5,Français,f,1,0.1,-52.19325919,1.07125686
5ca1196fffab4a00149a02a9,137,2,2024-02-27T11:07:41.963Z,english_216.wav,0,peel,391,27,4,5,Français,f,2,0.2,-77.81566322,1.51342084
5ca1196fffab4a00149a02a9,137,2,2024-02-27T11:07:41.963Z,english_216.wav,0,peel,391,27,4,5,Français,f,3,0.3,73.5246301,1.37714716
5ca1196fffab4a00149a02a9,137,2,2024-02-27T11:07:41.963Z,english_216.wav,0,peel,391,27,4,5,Français,f,4,0.32341667,73.4409389,1.55456291
5ca1196fffab4a00149a02a9,138,2,2024-02-27T11:07:41.963Z,english_319.wav,0,pill,1005,27,4,5,Français,f,0,0.0,-84.37928886,1.17141126
5ca1196fffab4a00149a02a9,138,2,2024-02-27T11:07:41.963Z,english_319.wav,0,pill,1005,27,4,5,Français,f,1,0.1,-52.76931383,1.13741792
5ca1196fffab4a00149a02a9,138,2,2024-02-27T11:07:41.963Z,english_319.wav,0,pill,1005,27,4,5,Français,f,2,0.2,56.06390533,0.91618882
5ca1196fffab4a00149a02a9,138,2,2024-02-27T11:07:41.963Z,english_319.wav,0,pill,1005,27,4,5,Français,f,3,0.3,-69.46438111,0.7080153
5ca1196fffab4a00149a02a9,138,2,2024-02-27T11:07:41.963Z,english_319.wav,0,pill,1005,27,4,5,Français,f,4,0.32341667,91.86152445,0.5910213
5ca1196fffab4a00149a02a9,139,2,2024-02-27T11:07:41.963Z,english_544.wav,0,peel,215,27,4,5,Français,f,0,0.0,96.80704334,1.85115917
5ca1196fffab4a00149a02a9,139,2,2024-02-27T11:07:41.963Z,english_544.wav,0,peel,215,27,4,5,Français,f,1,0.1,70.5198752,0.8718407
5ca1196fffab4a00149a02a9,139,2,2024-02-27T11:07:41.963Z,english_544.wav,0,peel,215,27,4,5,Français,f,2,0.2,78.21609099,1.82238935
5ca1196fffab4a00149a02a9,139,2,2024-02-27T11:07:41.963Z,english_544.wav,0,peel,215,27,4,5,Français,f,3,0.3,-95.7752672,0.25719172
5ca1196fffab4a00149a02a9,139,2,2024-02-27T11:07:41.963Z,english_544.wav,0,peel,215,27,4,5,Français,f,4,0.32341667,-56.58918052,0.72929157
5ca1196fffab4a00149a02a9,140,2,2024-02-27T11:07:41.963Z,english_925.wav,0,peel,370,27,4,5,Français,f,0,0.0,-23.38055082,1.07708889
5ca1196fffab4a00149a02a9,140,2,2024-02-27T11:07:41.963Z,english_925.wav,0,peel,370,27,4,5,Français,f,1,0.1,12.69502826,1.65606803
5ca1196fffab4a00149a02a9,140,2,2024-02-27T11:07:41.963Z,english_925.wav,0,peel,370,27,4,5,Français,f,2,0.2,77.53463838,0.48648737
5ca1196fffab4a00149a02a9,140,2,2024-02-27T11:07:41.963Z,english_925.wav,0,peel,370,27,4,5,Français,f,3,0.3,58.05299948,0.8939016
5ca1196fffab4a00149a02a9,140,2,2024-02-27T11:07:41.963Z,english_925.wav,0,peel,370,27,4,5,Français,f,4,0.32341667,54.12197927,0.72199492
5ca1196fffab4a00149a02a9,141,2,2024-02-27T11:07:41.963Z,english_681.wav,0,peel,1052,27,4,5,Français,f,0,0.0,65.45313908,1.43173201
5ca1196fffab4a00149a02a9,141,2,2024-02-27T11:07:41.963Z,english_681.wav,0,peel,1052,27,4,5,Français,f,1,0.1,23.22224239,1.64604346
5ca1196fffab4a00149a02a9,141,2,2024-02-27T11:07:41.963Z,english_681.wav,0,peel,1052,27,4,5,Français,f,2,0.2,44.35096717,0.82186037
5ca1196fffab4a00149a02a9,141,2,2024-02-27T11:07:41.963Z,english_681.wav,0,peel,1052,27,4,5,Français,f,3,0.3,67.45757963,0.26689352
5ca1196fffab4a00149a02a9,141,2,2024-02-27T11:07:41.963Z,english_681.wav,0,peel,1052,27,4,5,Français,f,4,0.32341667,55.5822091,1.64490636
5ca1196fffab4a00149a02a9,142,2,2024-02-27T11:07:41.963Z,english_362.wav,0,peel,474,27,4,5,Français,f,0,0.0,12.71485551,1.44490364
5ca1196fffab4a00149a02a9,142,2,2024-02-27T11:07:41.963Z,english_362.wav,0,peel,474,27,4,5,Français,f,1,0.1,-18.83660308,1.3029027
5ca1196fffab4a00149a02a9,142,2,2024-02-27T11:07:41.963Z,english_362.wav,0,peel,474,27,4,5,Français,f,2,0.2,-52.07271323,1.10609828
5ca1196fffab4a00149a02a9,142,2,2024-02-27T11:07:41.963Z,english_362.wav,0,peel,474,27,4,5,Français,f,3,0.3,-29.96931661,1.18379787
5ca1196fffab4a00149a02a9,142,2,2024-02-27T11:07:41.963Z,english_362.wav,0,peel,474,27,4,5,Français,f,4,0.32341667,-9.99178163,1.80996789
5ca1196fffab4a00149a02a9,143,2,2024-02-27T11:07:41.963Z,english_6.wav,0,peel,302,27,4,5,Français,f,0,0.0,-8.2116192,1.24832701
5ca1196fffab4a00149a02a9,143,2,2024-02-27T11:07:41.963Z,english_6.wav,0,peel,302,27,4,5,Français,f,1,0.1,-28.50933877,0.74984456
5ca1196fffab4a00149a02a9,143,2,2024-02-27T11:07:41.963Z,english_6.wav,0,peel,302,27,4,5,Français,f,2,0.2,-90.20174912,1.37568362
5ca1196fffab4a00149a02a9,143,2,2024-02-27T11:07:41.963Z,english_6.wav,0,peel,302,27,4,5,Français,f,3,0.3,-7.18062469,0.47637706
5ca1196fffab4a00149a02a9,143,2,2024-02-27T11:07:41.963Z,english_6.wav,0,peel,302,27,4,5,Français,f,4,0.32341667,-36.83558467,0.68255954
5ca1196fffab4a00149a02a9,144,2,2024-02-27T11:07:41.963Z,english_291.wav,0,peel,528,27,4,5,Français,f,0,0.0,-23.91479102,1.25533579
5ca1196fffab4a00149a02a9,144,2,2024-02-27T11:07:41.963Z,english_291.wav,0,peel,528,27,4,5,Français,f,1,0.1,-31.34063508,0.8599513
5ca1196fffab4a00149a02a9,144,2,2024-02-27T11:07:41.963Z,english_291.wav,0,peel,528,27,4,5,Français,f,2,0.2,-16.29866726,1.40556138
5ca1196fffab4a00149a02a9,144,2,2024-02-27T11:07:41.963Z,english_291.wav,0,peel,528,27,4,5,Français,f,3,0.3,10.36632866,0.42924112
5ca1196fffab4a00149a02a9,144,2,2024-02-27T11:07:41.963Z,english_291.wav,0,peel,528,27,4,5,Français,f,4,0.32341667,7.35722843,0.61564446
5ca1196fffab4a00149a02a9,145,2,2024-02-27T11:07:41.963Z,english_748.wav,0,peel,524,27,4,5,Français,f,0,0.0,0.23647087,0.91094575
5ca1196fffab4a00149a02a9,145,2,2024-02-27T11:07:41.963Z,english_748.wav,0,peel,524,27,4,5,Français,f,1,0.1,45.60572596,1.68800655
5ca1196fffab4a00149a02a9,145,2,2024-02-27T11:07:41.963Z,english_748.wav,0,peel,524,27,4,5,Français,f,2,0.2,6.14588966,1.37684191
5ca1196fffab4a00149a02a9,145,2,2024-02-27T11:07:41.963Z,english_748.wav,0,peel,524,27,4,5,Français,f,3,0.3,-10.39850874,0.70556294
5ca1196fffab4a00149a02a9,145,2,2024-02-27T11:07:41.963Z,english_748.wav,0,peel,524,27,4,5,Français,f,4,0.32341667,-7.86503132,1.52987196
5ca1196fffab4a00149a02a9,146,2,2024-02-27T11:07:41.963Z,english_491.wav,0,pill,337,27,4,5,Français,f,0,0.0,-58.06424917,1.23740358
5ca1196fffab4a00149a02a9,146,2,2024-02-27T11:07:41.963Z,english_491.wav,0,pill,337,27,4,5,Français,f,1,0.1,-10.73132445,0.97891215
5ca1196fffab4a00149a02a9,146,2,2024-02-27T11:07:41.963Z,english_491.wav,0,pill,337,27,4,5,Français,f,2,0.2,17.9230478,0.17588849
5ca1196fffab4a00149a02a9,146,2,2024-02-27T11:07:41.963Z,english_491.wav,0,pill,337,27,4,5,Français,f,3,0.3,-41.27614743,0.52166982
5ca1196fffab4a00149a02a9,146,2,2024-02-27T11:07:41.963Z,english_491.wav,0,pill,337,27,4,5,Français,f,4,0.32341667,-30.17832464,1.65640468
5ca1196fffab4a00149a02a9,147,2,2024-02-27T11:07:41.963Z,english_738.wav,0,peel,265,27,4,5,Français,f,0,0.0,-37.88087101,1.83397703
5ca1196fffab4a00149a02a9,147,2,2024-02-27T11:07:41.963Z,english_738.wav,0,peel,265,27,4,5,Français,f,1,0.1,-16.85966727,1.52099356
5ca1196fffab4a00149a02a9,147,2,2024-02-27T11:07:41.963Z,english_738.wav,0,peel,265,27,4,5,Français,f,2,0.2,-79.76891938,1.69283951
5ca1196fffab4a00149a02a9,147,2,2024-02-27T11:07:41.963Z,english_738.wav,0,peel,265,27,4,5,Français,f,3,0.3,-82.30918252,1.81957343
5ca1196fffab4a00149a02a9,147,2,2024-02-27T11:07:41.963Z,english_738.wav,0,peel,265,27,4,5,Français,f,4,0.32341667,59.65991076,0.75908376
5ca1196fffab4a00149a02a9,148,2,2024-02-27T11:07:41.963Z,english_60.wav,0,pill,569,27,4,5,Français,f,0,0.0,82.53369854,0.66834278
5ca1196fffab4a00149a02a9,148,2,2024-02-27T11:07:41.963Z,english_60.wav,0,pill,569,27,4,5,Français,f,1,0.1,60.14491878,1.16350573
5ca1196fffab4a00149a02a9,148,2,2024-02-27T11:07:41.963Z,english_60.wav,0,pill,569,27,4,5,Français,f,2,0.2,-26.84704149,1.24827189
5ca1196fffab4a00149a02a9,148,2,2024-02-27T11:07:41.963Z,english_60.wav,0,pill,569,27,4,5,Français,f,3,0.3,-19.8784386,0.70182905
5ca1196fffab4a00149a02a9,148,2,2024-02-27T11:07:41.963Z,english_60.wav,0,pill,569,27,4,5,Français,f,4,0.32341667,-26.04492652,0.20173025
5ca1196fffab4a00149a02a9,149,2,2024-02-27T11:07:41.963Z,english_673.wav,0,peel,511,27,4,5,Français,f,0,0.0,-57.74220233,1.16794182
5ca1196fffab4a00149a02a9,149,2,2024-02-27T11:07:41.963Z,english_673.wav,0,peel,511,27,4,5,Français,f,1,0.1,51.69168463,0.24005868
5ca1196fffab4a00149a02a9,149,2,2024-02-27T11:07:41.963Z,english_673.wav,0,peel,511,27,4,5,Français,f,2,0.2,32.71998218,1.1491536
5ca1196fffab4a00149a02a9,149,2,2024-02-27T11:07:41.963Z,english_673.wav,0,peel,511,27,4,5,Français,f,3,0.3,1.53841214,1.59180477
5ca1196fffab4a00149a02a9,149,2,2024-02-27T11:07:41.963Z,english_673.wav,0,peel,511,27,4,5,Français,f,4,0.32341667,-95.68622946,1.00634228
5ca1196fffab4a00149a02a9,150,3,2024-02-27T11:07:41.963Z,english_939.wav,0,peel,354,27,4,5,Français,f,0,0.0,-23.2558256,0.1774722
5ca1196fffab4a00149a02a9,150,3,2024-02-27T11:07:41.963Z,english_939.wav,0,peel,354,27,4,5,Français,f,1,0.1,-16.62065377,0.56271239
5ca1196fffab4a00149a02a9,150,3,2024-02-27T11:07:41.963Z,english_939.wav,0,peel,354,27,4,5,Français,f,2,0.2,-49.54734698,1.42782479
5ca1196fffab4a00149a02a9,150,3,2024-02-27T11:07:41.963Z,english_939.wav,0,peel,354,27,4,5,Français,f,3,0.3,22.82101289,0.76516147
5ca1196fffab4a00149a02a9,150,3,2024-02-27T11:07:41.963Z,english_939.wav,0,peel,354,27,4,5,Français,f,4,0.32341667,28.63490654,1.70219777
5ca1196fffab4a00149a02a9,151,3,2024-02-27T11:07:41.963Z,english_432.wav,0,peel,149,27,4,5,Français,f,0,0.0,34.04923955,0.51661687
5ca1196fffab4a00149a02a9,151,3,2024-02-27T11:07:41.963Z,english_432.wav,0,peel,149,27,4,5,Français,f,1,0.1,-20.16773507,0.2259012
5ca1196fffab4a00149a02a9,151,3,2024-02-27T11:07:41.963Z,english_432.wav,0,peel,149,27,4,5,Français,f,2,0.2,58.06800811,1.98214485
5ca1196fffab4a00149a02a9,151,3,2024-02-27T11:07:41.963Z,english_432.wav,0,peel,149,27,4,5,Français,f,3,0.3,46.82268278,1.23025235
5ca1196fffab4a00149a02a9,151,3,2024-02-27T11:07:41.963Z,english_432.wav,0,peel,149,27,4,5,Français,f,4,0.32341667,16.04458546,1.72803009
5ca1196fffab4a00149a02a9,152,3,2024-02-27T11:07:41.963Z,english_75.wav,0,peel,754,27,4,5,Français,f,0,0.0,-9.18091647,0.92930856
5ca1196fffab4a00149a02a9,152,3,2024-02-27T11:07:41.963Z,english_75.wav,0,peel,754,27,4,5,Français,f,1,0.1,-62.02164907,1.94000482
5ca1196fffab4a00149a02a9,152,3,2024-02-27T11:07:41.963Z,english_75.wav,0,peel,754,27,4,5,Français,f,2,0.2,-12.90623207,1.2183621
