subj,trial,block,date,stim,stim_order,response,rt,age,english,french,language,sex,param_index,segment,pitch,stretch
5d726b8a0c3f0f0017cdfcf7,0,0,2024-02-27T11:10:38.779Z,english_83.wav,0,pill,22437,33,4,5,Français,m,0,0.0,98.86804112,0.82381457
5d726b8a0c3f0f0017cdfcf7,0,0,2024-02-27T11:10:38.779Z,english_83.wav,0,pill,22437,33,4,5,Français,m,1,0.1,-37.42051535,1.26275754
5d726b8a0c3f0f0017cdfcf7,0,0,2024-02-27T11:10:38.779Z,english_83.wav,0,pill,22437,33,4,5,Français,m,2,0.2,23.85234946,0.74836396
5d726b8a0c3f0f0017cdfcf7,0,0,2024-02-27T11:10:38.779Z,english_83.wav,0,pill,22437,33,4,5,Français,m,3,0.3,28.05435803,0.41584898
5d726b8a0c3f0f0017cdfcf7,0,0,2024-02-27T11:10:38.779Z,english_83.wav,0,pill,22437,33,4,5,Français,m,4,0.32341667,2.44147447,1.88336536
5d726b8a0c3f0f0017cdfcf7,1,0,2024-02-27T11:10:38.779Z,english_855.wav,0,pill,2075,33,4,5,Français,m,0,0.0,27.89321206,0.30262259
5d726b8a0c3f0f0017cdfcf7,1,0,2024-02-27T11:10:38.779Z,english_855.wav,0,pill,2075,33,4,5,Français,m,1,0.1,-46.00582393,1.40968126
5d726b8a0c3f0f0017cdfcf7,1,0,2024-02-27T11:10:38.779Z,english_855.wav,0,pill,2075,33,4,5,Français,m,2,0.2,35.37102385,0.80904714
5d726b8a0c3f0f0017cdfcf7,1,0,2024-02-27T11:10:38.779Z,english_855.wav,0,pill,2075,33,4,5,Français,m,3,0.3,-58.73762704,1.48943687
5d726b8a0c3f0f0017cdfcf7,1,0,2024-02-27T11:10:38.779Z,english_855.wav,0,pill,2075,33,4,5,Français,m,4,0.32341667,-46.78314799,1.29572868
5d726b8a0c3f0f0017cdfcf7,2,0,2024-02-27T11:10:38.779Z,english_430.wav,0,pill,1412,33,4,5,Français,m,0,0.0,72.23510535,0.8682214
5d726b8a0c3f0f0017cdfcf7,2,0,2024-02-27T11:10:38.779Z,english_430.wav,0,pill,1412,33,4,5,Français,m,1,0.1,-9.56156918,0.26781202
5d726b8a0c3f0f0017cdfcf7,2,0,2024-02-27T11:10:38.779Z,english_430.wav,0,pill,1412,33,4,5,Français,m,2,0.2,36.71559936,1.38873793
5d726b8a0c3f0f0017cdfcf7,2,0,2024-02-27T11:10:38.779Z,english_430.wav,0,pill,1412,33,4,5,Français,m,3,0.3,-33.55254317,0.29076709
5d726b8a0c3f0f0017cdfcf7,2,0,2024-02-27T11:10:38.779Z,english_430.wav,0,pill,1412,33,4,5,Français,m,4,0.32341667,-25.71861109,0.30869259
5d726b8a0c3f0f0017cdfcf7,3,0,2024-02-27T11:10:38.779Z,english_678.wav,0,pill,3570,33,4,5,Français,m,0,0.0,87.86222938,1.6760541
5d726b8a0c3f0f0017cdfcf7,3,0,2024-02-27T11:10:38.779Z,english_678.wav,0,pill,3570,33,4,5,Français,m,1,0.1,-47.14792626,0.22369522
5d726b8a0c3f0f0017cdfcf7,3,0,2024-02-27T11:10:38.779Z,english_678.wav,0,pill,3570,33,4,5,Français,m,2,0.2,-6.84659798,1.1260271
5d726b8a0c3f0f0017cdfcf7,3,0,2024-02-27T11:10:38.779Z,english_678.wav,0,pill,3570,33,4,5,Français,m,3,0.3,87.67045201,1.53941447
5d726b8a0c3f0f0017cdfcf7,3,0,2024-02-27T11:10:38.779Z,english_678.wav,0,pill,3570,33,4,5,Français,m,4,0.32341667,-51.71213936,1.37136581
5d726b8a0c3f0f0017cdfcf7,4,0,2024-02-27T11:10:38.779Z,english_802.wav,0,peel,544,33,4,5,Français,m,0,0.0,44.11448731,1.89082481
5d726b8a0c3f0f0017cdfcf7,4,0,2024-02-27T11:10:38.779Z,english_802.wav,0,peel,544,33,4,5,Français,m,1,0.1,27.89646601,1.73386287
5d726b8a0c3f0f0017cdfcf7,4,0,2024-02-27T11:10:38.779Z,english_802.wav,0,peel,544,33,4,5,Français,m,2,0.2,-19.36127415,0.34468699
5d726b8a0c3f0f0017cdfcf7,4,0,2024-02-27T11:10:38.779Z,english_802.wav,0,peel,544,33,4,5,Français,m,3,0.3,15.17899174,0.39328876
5d726b8a0c3f0f0017cdfcf7,4,0,2024-02-27T11:10:38.779Z,english_802.wav,0,peel,544,33,4,5,Français,m,4,0.32341667,-18.70870555,1.25778986
5d726b8a0c3f0f0017cdfcf7,5,0,2024-02-27T11:10:38.779Z,english_782.wav,0,pill,1045,33,4,5,Français,m,0,0.0,-98.70381677,1.47488053
5d726b8a0c3f0f0017cdfcf7,5,0,2024-02-27T11:10:38.779Z,english_782.wav,0,pill,1045,33,4,5,Français,m,1,0.1,-69.82387258,0.7270016
5d726b8a0c3f0f0017cdfcf7,5,0,2024-02-27T11:10:38.779Z,english_782.wav,0,pill,1045,33,4,5,Français,m,2,0.2,35.26613747,0.08778447
5d726b8a0c3f0f0017cdfcf7,5,0,2024-02-27T11:10:38.779Z,english_782.wav,0,pill,1045,33,4,5,Français,m,3,0.3,-81.38004879,1.16903228
5d726b8a0c3f0f0017cdfcf7,5,0,2024-02-27T11:10:38.779Z,english_782.wav,0,pill,1045,33,4,5,Français,m,4,0.32341667,-61.83067014,0.92727902
5d726b8a0c3f0f0017cdfcf7,6,0,2024-02-27T11:10:38.779Z,english_547.wav,0,peel,679,33,4,5,Français,m,0,0.0,30.48969685,1.04682874
5d726b8a0c3f0f0017cdfcf7,6,0,2024-02-27T11:10:38.779Z,english_547.wav,0,peel,679,33,4,5,Français,m,1,0.1,-38.27442703,0.75017858
5d726b8a0c3f0f0017cdfcf7,6,0,2024-02-27T11:10:38.779Z,english_547.wav,0,peel,679,33,4,5,Français,m,2,0.2,29.58442849,0.7996645
5d726b8a0c3f0f0017cdfcf7,6,0,2024-02-27T11:10:38.779Z,english_547.wav,0,peel,679,33,4,5,Français,m,3,0.3,-4.27268154,1.92102789
5d726b8a0c3f0f0017cdfcf7,6,0,2024-02-27T11:10:38.779Z,english_547.wav,0,peel,679,33,4,5,Français,m,4,0.32341667,58.02076364,1.77056707
5d726b8a0c3f0f0017cdfcf7,7,0,2024-02-27T11:10:38.779Z,english_55.wav,0,peel,484,33,4,5,Français,m,0,0.0,71.89255128,0.24931264
5d726b8a0c3f0f0017cdfcf7,7,0,2024-02-27T11:10:38.779Z,english_55.wav,0,peel,484,33,4,5,Français,m,1,0.1,0.20692224,1.79813092
5d726b8a0c3f0f0017cdfcf7,7,0,2024-02-27T11:10:38.779Z,english_55.wav,0,peel,484,33,4,5,Français,m,2,0.2,-68.61006599,0.71729895
5d726b8a0c3f0f0017cdfcf7,7,0,2024-02-27T11:10:38.779Z,english_55.wav,0,peel,484,33,4,5,Français,m,3,0.3,-5.20952515,1.28733782
5d726b8a0c3f0f0017cdfcf7,7,0,2024-02-27T11:10:38.779Z,english_55.wav,0,peel,484,33,4,5,Français,m,4,0.32341667,28.45991968,1.77061752
5d726b8a0c3f0f0017cdfcf7,8,0,2024-02-27T11:10:38.779Z,english_767.wav,0,pill,361,33,4,5,Français,m,0,0.0,29.63321135,0.17563718
5d726b8a0c3f0f0017cdfcf7,8,0,2024-02-27T11:10:38.779Z,english_767.wav,0,pill,361,33,4,5,Français,m,1,0.1,-31.63783795,0.61981002
5d726b8a0c3f0f0017cdfcf7,8,0,2024-02-27T11:10:38.779Z,english_767.wav,0,pill,361,33,4,5,Français,m,2,0.2,56.53254366,1.38773128
5d726b8a0c3f0f0017cdfcf7,8,0,2024-02-27T11:10:38.779Z,english_767.wav,0,pill,361,33,4,5,Français,m,3,0.3,52.69149806,1.37795514
5d726b8a0c3f0f0017cdfcf7,8,0,2024-02-27T11:10:38.779Z,english_767.wav,0,pill,361,33,4,5,Français,m,4,0.32341667,-0.8536295,1.97315338
5d726b8a0c3f0f0017cdfcf7,9,0,2024-02-27T11:10:38.779Z,english_983.wav,0,peel,606,33,4,5,Français,m,0,0.0,32.38711768,0.79408654
5d726b8a0c3f0f0017cdfcf7,9,0,2024-02-27T11:10:38.779Z,english_983.wav,0,peel,606,33,4,5,Français,m,1,0.1,-65.51600844,1.57845546
5d726b8a0c3f0f0017cdfcf7,9,0,2024-02-27T11:10:38.779Z,english_983.wav,0,peel,606,33,4,5,Français,m,2,0.2,12.03576385,1.23356187
5d726b8a0c3f0f0017cdfcf7,9,0,2024-02-27T11:10:38.779Z,english_983.wav,0,peel,606,33,4,5,Français,m,3,0.3,-64.14785636,0.65581831
5d726b8a0c3f0f0017cdfcf7,9,0,2024-02-27T11:10:38.779Z,english_983.wav,0,peel,606,33,4,5,Français,m,4,0.32341667,-72.48499617,0.27936162
5d726b8a0c3f0f0017cdfcf7,10,0,2024-02-27T11:10:38.779Z,english_535.wav,0,peel,2407,33,4,5,Français,m,0,0.0,-5.32882057,0.21055966
5d726b8a0c3f0f0017cdfcf7,10,0,2024-02-27T11:10:38.779Z,english_535.wav,0,peel,2407,33,4,5,Français,m,1,0.1,-34.98045039,0.89683134
5d726b8a0c3f0f0017cdfcf7,10,0,2024-02-27T11:10:38.779Z,english_535.wav,0,peel,2407,33,4,5,Français,m,2,0.2,30.10834221,1.11178172
5d726b8a0c3f0f0017cdfcf7,10,0,2024-02-27T11:10:38.779Z,english_535.wav,0,peel,2407,33,4,5,Français,m,3,0.3,-70.22542568,0.20123235
5d726b8a0c3f0f0017cdfcf7,10,0,2024-02-27T11:10:38.779Z,english_535.wav,0,peel,2407,33,4,5,Français,m,4,0.32341667,-73.0016054,0.99564794
5d726b8a0c3f0f0017cdfcf7,11,0,2024-02-27T11:10:38.779Z,english_858.wav,0,pill,932,33,4,5,Français,m,0,0.0,45.12570132,0.50395823
5d726b8a0c3f0f0017cdfcf7,11,0,2024-02-27T11:10:38.779Z,english_858.wav,0,pill,932,33,4,5,Français,m,1,0.1,-46.71359417,1.50658612
5d726b8a0c3f0f0017cdfcf7,11,0,2024-02-27T11:10:38.779Z,english_858.wav,0,pill,932,33,4,5,Français,m,2,0.2,-60.32464978,0.86887416
5d726b8a0c3f0f0017cdfcf7,11,0,2024-02-27T11:10:38.779Z,english_858.wav,0,pill,932,33,4,5,Français,m,3,0.3,-70.46241098,0.20520469
5d726b8a0c3f0f0017cdfcf7,11,0,2024-02-27T11:10:38.779Z,english_858.wav,0,pill,932,33,4,5,Français,m,4,0.32341667,76.51169453,1.05885662
5d726b8a0c3f0f0017cdfcf7,12,0,2024-02-27T11:10:38.779Z,english_901.wav,0,peel,321,33,4,5,Français,m,0,0.0,-14.81770559,1.5194741
5d726b8a0c3f0f0017cdfcf7,12,0,2024-02-27T11:10:38.779Z,english_901.wav,0,peel,321,33,4,5,Français,m,1,0.1,-27.73561163,1.98674938
5d726b8a0c3f0f0017cdfcf7,12,0,2024-02-27T11:10:38.779Z,english_901.wav,0,peel,321,33,4,5,Français,m,2,0.2,-22.44015454,0.54356598
5d726b8a0c3f0f0017cdfcf7,12,0,2024-02-27T11:10:38.779Z,english_901.wav,0,peel,321,33,4,5,Français,m,3,0.3,-41.34815185,1.30497628
5d726b8a0c3f0f0017cdfcf7,12,0,2024-02-27T11:10:38.779Z,english_901.wav,0,peel,321,33,4,5,Français,m,4,0.32341667,10.13492358,0.61526789
5d726b8a0c3f0f0017cdfcf7,13,0,2024-02-27T11:10:38.779Z,english_864.wav,0,pill,247,33,4,5,Français,m,0,0.0,-41.66547405,0.15536101
5d726b8a0c3f0f0017cdfcf7,13,0,2024-02-27T11:10:38.779Z,english_864.wav,0,pill,247,33,4,5,Français,m,1,0.1,47.36949562,1.78739046
5d726b8a0c3f0f0017cdfcf7,13,0,2024-02-27T11:10:38.779Z,english_864.wav,0,pill,247,33,4,5,Français,m,2,0.2,87.97635609,1.48310956
5d726b8a0c3f0f0017cdfcf7,13,0,2024-02-27T11:10:38.779Z,english_864.wav,0,pill,247,33,4,5,Français,m,3,0.3,-18.88921291,0.35838492
5d726b8a0c3f0f0017cdfcf7,13,0,2024-02-27T11:10:38.779Z,english_864.wav,0,pill,247,33,4,5,Français,m,4,0.32341667,13.88839096,0.21709894
5d726b8a0c3f0f0017cdfcf7,14,0,2024-02-27T11:10:38.779Z,english_528.wav,0,pill,352,33,4,5,Français,m,0,0.0,34.31610554,1.55529168
5d726b8a0c3f0f0017cdfcf7,14,0,2024-02-27T11:10:38.779Z,english_528.wav,0,pill,352,33,4,5,Français,m,1,0.1,28.08911917,0.29936297
5d726b8a0c3f0f0017cdfcf7,14,0,2024-02-27T11:10:38.779Z,english_528.wav,0,pill,352,33,4,5,Français,m,2,0.2,-86.77613696,0.95155831
5d726b8a0c3f0f0017cdfcf7,14,0,2024-02-27T11:10:38.779Z,english_528.wav,0,pill,352,33,4,5,Français,m,3,0.3,-45.45420678,1.46511459
5d726b8a0c3f0f0017cdfcf7,14,0,2024-02-27T11:10:38.779Z,english_528.wav,0,pill,352,33,4,5,Français,m,4,0.32341667,-58.86275596,0.63923396
5d726b8a0c3f0f0017cdfcf7,15,0,2024-02-27T11:10:38.779Z,english_613.wav,0,pill,481,33,4,5,Français,m,0,0.0,-12.80235787,0.8409713
5d726b8a0c3f0f0017cdfcf7,15,0,2024-02-27T11:10:38.779Z,english_613.wav,0,pill,481,33,4,5,Français,m,1,0.1,38.67858639,0.30410002
5d726b8a0c3f0f0017cdfcf7,15,0,2024-02-27T11:10:38.779Z,english_613.wav,0,pill,481,33,4,5,Français,m,2,0.2,21.08834288,0.031636
5d726b8a0c3f0f0017cdfcf7,15,0,2024-02-27T11:10:38.779Z,english_613.wav,0,pill,481,33,4,5,Français,m,3,0.3,94.81469787,1.79222997
5d726b8a0c3f0f0017cdfcf7,15,0,2024-02-27T11:10:38.779Z,english_613.wav,0,pill,481,33,4,5,Français,m,4,0.32341667,18.45506868,1.98455664
5d726b8a0c3f0f0017cdfcf7,16,0,2024-02-27T11:10:38.779Z,english_869.wav,0,peel,436,33,4,5,Français,m,0,0.0,31.82870938,0.91730192
5d726b8a0c3f0f0017cdfcf7,16,0,2024-02-27T11:10:38.779Z,english_869.wav,0,peel,436,33,4,5,Français,m,1,0.1,55.69153841,1.54634356
5d726b8a0c3f0f0017cdfcf7,16,0,2024-02-27T11:10:38.779Z,english_869.wav,0,peel,436,33,4,5,Français,m,2,0.2,44.83997999,0.32401745
5d726b8a0c3f0f0017cdfcf7,16,0,2024-02-27T11:10:38.779Z,english_869.wav,0,peel,436,33,4,5,Français,m,3,0.3,-64.6596515,1.34292926
5d726b8a0c3f0f0017cdfcf7,16,0,2024-02-27T11:10:38.779Z,english_869.wav,0,peel,436,33,4,5,Français,m,4,0.32341667,-51.58434075,0.99771643
5d726b8a0c3f0f0017cdfcf7,17,0,2024-02-27T11:10:38.779Z,english_486.wav,0,peel,796,33,4,5,Français,m,0,0.0,31.41997184,1.22599644
5d726b8a0c3f0f0017cdfcf7,17,0,2024-02-27T11:10:38.779Z,english_486.wav,0,peel,796,33,4,5,Français,m,1,0.1,58.03480486,1.4547445
5d726b8a0c3f0f0017cdfcf7,17,0,2024-02-27T11:10:38.779Z,english_486.wav,0,peel,796,33,4,5,Français,m,2,0.2,-62.84801238,0.27967606
5d726b8a0c3f0f0017cdfcf7,17,0,2024-02-27T11:10:38.779Z,english_486.wav,0,peel,796,33,4,5,Français,m,3,0.3,10.62451678,0.02065399
5d726b8a0c3f0f0017cdfcf7,17,0,2024-02-27T11:10:38.779Z,english_486.wav,0,peel,796,33,4,5,Français,m,4,0.32341667,10.31835057,0.3128479
5d726b8a0c3f0f0017cdfcf7,18,0,2024-02-27T11:10:38.779Z,english_572.wav,0,pill,1588,33,4,5,Français,m,0,0.0,-16.16189062,1.82210005
5d726b8a0c3f0f0017cdfcf7,18,0,2024-02-27T11:10:38.779Z,english_572.wav,0,pill,1588,33,4,5,Français,m,1,0.1,-40.8511413,0.80249033
5d726b8a0c3f0f0017cdfcf7,18,0,2024-02-27T11:10:38.779Z,english_572.wav,0,pill,1588,33,4,5,Français,m,2,0.2,-77.3747243,0.69959732
5d726b8a0c3f0f0017cdfcf7,18,0,2024-02-27T11:10:38.779Z,english_572.wav,0,pill,1588,33,4,5,Français,m,3,0.3,87.62803369,0.43311894
5d726b8a0c3f0f0017cdfcf7,18,0,2024-02-27T11:10:38.779Z,english_572.wav,0,pill,1588,33,4,5,Français,m,4,0.32341667,81.6005998,1.25204325
5d726b8a0c3f0f0017cdfcf7,19,0,2024-02-27T11:10:38.779Z,english_234.wav,0,pill,547,33,4,5,Français,m,0,0.0,-96.19421376,0.0948498
5d726b8a0c3f0f0017cdfcf7,19,0,2024-02-27T11:10:38.779Z,english_234.wav,0,pill,547,33,4,5,Français,m,1,0.1,96.13097212,1.36649532
5d726b8a0c3f0f0017cdfcf7,19,0,2024-02-27T11:10:38.779Z,english_234.wav,0,pill,547,33,4,5,Français,m,2,0.2,-68.61115628,0.00312314
5d726b8a0c3f0f0017cdfcf7,19,0,2024-02-27T11:10:38.779Z,english_234.wav,0,pill,547,33,4,5,Français,m,3,0.3,58.3624958,0.01269103
5d726b8a0c3f0f0017cdfcf7,19,0,2024-02-27T11:10:38.779Z,english_234.wav,0,pill,547,33,4,5,Français,m,4,0.32341667,60.51337125,1.76377265
5d726b8a0c3f0f0017cdfcf7,20,0,2024-02-27T11:10:38.779Z,english_894.wav,0,peel,765,33,4,5,Français,m,0,0.0,55.36181915,0.37154348
5d726b8a0c3f0f0017cdfcf7,20,0,2024-02-27T11:10:38.779Z,english_894.wav,0,peel,765,33,4,5,Français,m,1,0.1,1.74798824,0.78809476
5d726b8a0c3f0f0017cdfcf7,20,0,2024-02-27T11:10:38.779Z,english_894.wav,0,peel,765,33,4,5,Français,m,2,0.2,53.5320483,0.08099688
5d726b8a0c3f0f0017cdfcf7,20,0,2024-02-27T11:10:38.779Z,english_894.wav,0,peel,765,33,4,5,Français,m,3,0.3,-10.60196251,1.90254096
5d726b8a0c3f0f0017cdfcf7,20,0,2024-02-27T11:10:38.779Z,english_894.wav,0,peel,765,33,4,5,Français,m,4,0.32341667,46.95013059,0.68783971
5d726b8a0c3f0f0017cdfcf7,21,0,2024-02-27T11:10:38.779Z,english_813.wav,0,peel,464,33,4,5,Français,m,0,0.0,55.66932548,1.32885027
5d726b8a0c3f0f0017cdfcf7,21,0,2024-02-27T11:10:38.779Z,english_813.wav,0,peel,464,33,4,5,Français,m,1,0.1,81.68960615,1.76450173
5d726b8a0c3f0f0017cdfcf7,21,0,2024-02-27T11:10:38.779Z,english_813.wav,0,peel,464,33,4,5,Français,m,2,0.2,55.75765178,0.71046445
5d726b8a0c3f0f0017cdfcf7,21,0,2024-02-27T11:10:38.779Z,english_813.wav,0,peel,464,33,4,5,Français,m,3,0.3,-1.25572602,1.00431818
5d726b8a0c3f0f0017cdfcf7,21,0,2024-02-27T11:10:38.779Z,english_813.wav,0,peel,464,33,4,5,Français,m,4,0.32341667,95.15429199,0.60962601
5d726b8a0c3f0f0017cdfcf7,22,0,2024-02-27T11:10:38.779Z,english_951.wav,0,peel,412,33,4,5,Français,m,0,0.0,-0.1209724,0.19208806
5d726b8a0c3f0f0017cdfcf7,22,0,2024-02-27T11:10:38.779Z,english_951.wav,0,peel,412,33,4,5,Français,m,1,0.1,-14.6507611,1.44795721
5d726b8a0c3f0f0017cdfcf7,22,0,2024-02-27T11:10:38.779Z,english_951.wav,0,peel,412,33,4,5,Français,m,2,0.2,-2.36153686,0.88209985
5d726b8a0c3f0f0017cdfcf7,22,0,2024-02-27T11:10:38.779Z,english_951.wav,0,peel,412,33,4,5,Français,m,3,0.3,15.28547447,1.97099669
5d726b8a0c3f0f0017cdfcf7,22,0,2024-02-27T11:10:38.779Z,english_951.wav,0,peel,412,33,4,5,Français,m,4,0.32341667,-0.16445922,0.158195
5d726b8a0c3f0f0017cdfcf7,23,0,2024-02-27T11:10:38.779Z,english_236.wav,0,pill,2317,33,4,5,Français,m,0,0.0,14.26564849,0.89253674
5d726b8a0c3f0f0017cdfcf7,23,0,2024-02-27T11:10:38.779Z,english_236.wav,0,pill,2317,33,4,5,Français,m,1,0.1,60.97219358,0.38957934
5d726b8a0c3f0f0017cdfcf7,23,0,2024-02-27T11:10:38.779Z,english_236.wav,0,pill,2317,33,4,5,Français,m,2,0.2,-12.39626346,1.55558051
5d726b8a0c3f0f0017cdfcf7,23,0,2024-02-27T11:10:38.779Z,english_236.wav,0,pill,2317,33,4,5,Français,m,3,0.3,-62.87774076,0.2682718
5d726b8a0c3f0f0017cdfcf7,23,0,2024-02-27T11:10:38.779Z,english_236.wav,0,pill,2317,33,4,5,Français,m,4,0.32341667,-75.97684705,1.92182597
5d726b8a0c3f0f0017cdfcf7,24,0,2024-02-27T11:10:38.779Z,english_349.wav,0,peel,293,33,4,5,Français,m,0,0.0,-10.00495534,0.36915768
5d726b8a0c3f0f0017cdfcf7,24,0,2024-02-27T11:10:38.779Z,english_349.wav,0,peel,293,33,4,5,Français,m,1,0.1,54.31199814,0.83111041
5d726b8a0c3f0f0017cdfcf7,24,0,2024-02-27T11:10:38.779Z,english_349.wav,0,peel,293,33,4,5,Français,m,2,0.2,48.17968705,1.70147194
5d726b8a0c3f0f0017cdfcf7,24,0,2024-02-27T11:10:38.779Z,english_349.wav,0,peel,293,33,4,5,Français,m,3,0.3,8.48926652,1.08588898
5d726b8a0c3f0f0017cdfcf7,24,0,2024-02-27T11:10:38.779Z,english_349.wav,0,peel,293,33,4,5,Français,m,4,0.32341667,42.05620052,0.02584958
5d726b8a0c3f0f0017cdfcf7,25,0,2024-02-27T11:10:38.779Z,english_653.wav,0,peel,373,33,4,5,Français,m,0,0.0,8.14815906,1.27061672
5d726b8a0c3f0f0017cdfcf7,25,0,2024-02-27T11:10:38.779Z,english_653.wav,0,peel,373,33,4,5,Français,m,1,0.1,4.49815435,1.37470465
5d726b8a0c3f0f0017cdfcf7,25,0,2024-02-27T11:10:38.779Z,english_653.wav,0,peel,373,33,4,5,Français,m,2,0.2,-96.80954485,1.57421691
5d726b8a0c3f0f0017cdfcf7,25,0,2024-02-27T11:10:38.779Z,english_653.wav,0,peel,373,33,4,5,Français,m,3,0.3,-0.49075979,1.39011427
5d726b8a0c3f0f0017cdfcf7,25,0,2024-02-27T11:10:38.779Z,english_653.wav,0,peel,373,33,4,5,Français,m,4,0.32341667,98.12577208,0.75484601
5d726b8a0c3f0f0017cdfcf7,26,0,2024-02-27T11:10:38.779Z,english_735.wav,0,pill,373,33,4,5,Français,m,0,0.0,51.40973306,0.29099813
5d726b8a0c3f0f0017cdfcf7,26,0,2024-02-27T11:10:38.779Z,english_735.wav,0,pill,373,33,4,5,Français,m,1,0.1,-5.42867159,1.62833375
5d726b8a0c3f0f0017cdfcf7,26,0,2024-02-27T11:10:38.779Z,english_735.wav,0,pill,373,33,4,5,Français,m,2,0.2,13.71146629,0.32849247
5d726b8a0c3f0f0017cdfcf7,26,0,2024-02-27T11:10:38.779Z,english_735.wav,0,pill,373,33,4,5,Français,m,3,0.3,-14.17202169,0.46991549
5d726b8a0c3f0f0017cdfcf7,26,0,2024-02-27T11:10:38.779Z,english_735.wav,0,pill,373,33,4,5,Français,m,4,0.32341667,14.98699592,0.51625305
5d726b8a0c3f0f0017cdfcf7,27,0,2024-02-27T11:10:38.779Z,english_4.wav,0,peel,258,33,4,5,Français,m,0,0.0,97.57442054,1.3122383
5d726b8a0c3f0f0017cdfcf7,27,0,2024-02-27T11:10:38.779Z,english_4.wav,0,peel,258,33,4,5,Français,m,1,0.1,57.41970729,1.27661748
5d726b8a0c3f0f0017cdfcf7,27,0,2024-02-27T11:10:38.779Z,english_4.wav,0,peel,258,33,4,5,Français,m,2,0.2,32.67065062,1.16138222
5d726b8a0c3f0f0017cdfcf7,27,0,2024-02-27T11:10:38.779Z,english_4.wav,0,peel,258,33,4,5,Français,m,3,0.3,34.06011343,0.34510216
5d726b8a0c3f0f0017cdfcf7,27,0,2024-02-27T11:10:38.779Z,english_4.wav,0,peel,258,33,4,5,Français,m,4,0.32341667,83.59797788,1.84938224
5d726b8a0c3f0f0017cdfcf7,28,0,2024-02-27T11:10:38.779Z,english_498.wav,0,pill,459,33,4,5,Français,m,0,0.0,2.49020902,0.78964515
5d726b8a0c3f0f0017cdfcf7,28,0,2024-02-27T11:10:38.779Z,english_498.wav,0,pill,459,33,4,5,Français,m,1,0.1,-20.55300452,0.24391593
5d726b8a0c3f0f0017cdfcf7,28,0,2024-02-27T11:10:38.779Z,english_498.wav,0,pill,459,33,4,5,Français,m,2,0.2,-34.14985779,0.11401041
5d726b8a0c3f0f0017cdfcf7,28,0,2024-02-27T11:10:38.779Z,english_498.wav,0,pill,459,33,4,5,Français,m,3,0.3,79.54997135,1.52582154
5d726b8a0c3f0f0017cdfcf7,28,0,2024-02-27T11:10:38.779Z,english_498.wav,0,pill,459,33,4,5,Français,m,4,0.32341667,20.54695207,0.62547878
5d726b8a0c3f0f0017cdfcf7,29,0,2024-02-27T11:10:38.779Z,english_72.wav,0,pill,1235,33,4,5,Français,m,0,0.0,3.79788214,1.04175162
5d726b8a0c3f0f0017cdfcf7,29,0,2024-02-27T11:10:38.779Z,english_72.wav,0,pill,1235,33,4,5,Français,m,1,0.1,-35.73428138,0.91099175
5d726b8a0c3f0f0017cdfcf7,29,0,2024-02-27T11:10:38.779Z,english_72.wav,0,pill,1235,33,4,5,Français,m,2,0.2,-30.83181688,0.34322307
5d726b8a0c3f0f0017cdfcf7,29,0,2024-02-27T11:10:38.779Z,english_72.wav,0,pill,1235,33,4,5,Français,m,3,0.3,-68.4260973,1.39599539
5d726b8a0c3f0f0017cdfcf7,29,0,2024-02-27T11:10:38.779Z,english_72.wav,0,pill,1235,33,4,5,Français,m,4,0.32341667,-10.87667298,0.78322702
5d726b8a0c3f0f0017cdfcf7,30,0,2024-02-27T11:10:38.779Z,english_191.wav,0,pill,2633,33,4,5,Français,m,0,0.0,5.22709543,0.24693927
5d726b8a0c3f0f0017cdfcf7,30,0,2024-02-27T11:10:38.779Z,english_191.wav,0,pill,2633,33,4,5,Français,m,1,0.1,-51.29785688,1.61528443
5d726b8a0c3f0f0017cdfcf7,30,0,2024-02-27T11:10:38.779Z,english_191.wav,0,pill,2633,33,4,5,Français,m,2,0.2,14.39503603,0.10158113
5d726b8a0c3f0f0017cdfcf7,30,0,2024-02-27T11:10:38.779Z,english_191.wav,0,pill,2633,33,4,5,Français,m,3,0.3,60.50312404,1.02883866
5d726b8a0c3f0f0017cdfcf7,30,0,2024-02-27T11:10:38.779Z,english_191.wav,0,pill,2633,33,4,5,Français,m,4,0.32341667,68.15927452,0.69870432
5d726b8a0c3f0f0017cdfcf7,31,0,2024-02-27T11:10:38.779Z,english_882.wav,0,pill,1008,33,4,5,Français,m,0,0.0,-42.93700265,1.06489748
5d726b8a0c3f0f0017cdfcf7,31,0,2024-02-27T11:10:38.779Z,english_882.wav,0,pill,1008,33,4,5,Français,m,1,0.1,-62.35786663,1.38883859
5d726b8a0c3f0f0017cdfcf7,31,0,2024-02-27T11:10:38.779Z,english_882.wav,0,pill,1008,33,4,5,Français,m,2,0.2,-16.20482572,0.28843799
5d726b8a0c3f0f0017cdfcf7,31,0,2024-02-27T11:10:38.779Z,english_882.wav,0,pill,1008,33,4,5,Français,m,3,0.3,-46.49020195,1.05408179
5d726b8a0c3f0f0017cdfcf7,31,0,2024-02-27T11:10:38.779Z,english_882.wav,0,pill,1008,33,4,5,Français,m,4,0.32341667,-64.89408339,1.78517837
5d726b8a0c3f0f0017cdfcf7,32,0,2024-02-27T11:10:38.779Z,english_750.wav,0,pill,305,33,4,5,Français,m,0,0.0,54.68497377,0.76623701
5d726b8a0c3f0f0017cdfcf7,32,0,2024-02-27T11:10:38.779Z,english_750.wav,0,pill,305,33,4,5,Français,m,1,0.1,0.91792919,1.58478782
5d726b8a0c3f0f0017cdfcf7,32,0,2024-02-27T11:10:38.779Z,english_750.wav,0,pill,305,33,4,5,Français,m,2,0.2,-67.69423006,0.74884996
5d726b8a0c3f0f0017cdfcf7,32,0,2024-02-27T11:10:38.779Z,english_750.wav,0,pill,305,33,4,5,Français,m,3,0.3,20.92985273,0.15814923
5d726b8a0c3f0f0017cdfcf7,32,0,2024-02-27T11:10:38.779Z,english_750.wav,0,pill,305,33,4,5,Français,m,4,0.32341667,-39.60032316,1.58320499
5d726b8a0c3f0f0017cdfcf7,33,0,2024-02-27T11:10:38.779Z,english_404.wav,0,peel,446,33,4,5,Français,m,0,0.0,32.93077195,0.80618862
5d726b8a0c3f0f0017cdfcf7,33,0,2024-02-27T11:10:38.779Z,english_404.wav,0,peel,446,33,4,5,Français,m,1,0.1,51.79107477,1.03327995
5d726b8a0c3f0f0017cdfcf7,33,0,2024-02-27T11:10:38.779Z,english_404.wav,0,peel,446,33,4,5,Français,m,2,0.2,-61.91466198,1.39590152
5d726b8a0c3f0f0017cdfcf7,33,0,2024-02-27T11:10:38.779Z,english_404.wav,0,peel,446,33,4,5,Français,m,3,0.3,33.45957754,1.8615638
5d726b8a0c3f0f0017cdfcf7,33,0,2024-02-27T11:10:38.779Z,english_404.wav,0,peel,446,33,4,5,Français,m,4,0.32341667,-82.23793256,0.80137687
5d726b8a0c3f0f0017cdfcf7,34,0,2024-02-27T11:10:38.779Z,english_471.wav,0,peel,270,33,4,5,Français,m,0,0.0,47.42131089,0.58869392
5d726b8a0c3f0f0017cdfcf7,34,0,2024-02-27T11:10:38.779Z,english_471.wav,0,peel,270,33,4,5,Français,m,1,0.1,-63.95282256,1.74739294
5d726b8a0c3f0f0017cdfcf7,34,0,2024-02-27T11:10:38.779Z,english_471.wav,0,peel,270,33,4,5,Français,m,2,0.2,31.67244378,1.10105994
5d726b8a0c3f0f0017cdfcf7,34,0,2024-02-27T11:10:38.779Z,english_471.wav,0,peel,270,33,4,5,Français,m,3,0.3,40.6572625,0.54790015
5d726b8a0c3f0f0017cdfcf7,34,0,2024-02-27T11:10:38.779Z,english_471.wav,0,peel,270,33,4,5,Français,m,4,0.32341667,-18.6332399,1.33029013
5d726b8a0c3f0f0017cdfcf7,35,0,2024-02-27T11:10:38.779Z,english_893.wav,0,pill,1277,33,4,5,Français,m,0,0.0,17.19699967,0.82427167
5d726b8a0c3f0f0017cdfcf7,35,0,2024-02-27T11:10:38.779Z,english_893.wav,0,pill,1277,33,4,5,Français,m,1,0.1,57.52525856,1.49866988
5d726b8a0c3f0f0017cdfcf7,35,0,2024-02-27T11:10:38.779Z,english_893.wav,0,pill,1277,33,4,5,Français,m,2,0.2,13.30661706,0.84536161
5d726b8a0c3f0f0017cdfcf7,35,0,2024-02-27T11:10:38.779Z,english_893.wav,0,pill,1277,33,4,5,Français,m,3,0.3,33.02687073,0.10168024
5d726b8a0c3f0f0017cdfcf7,35,0,2024-02-27T11:10:38.779Z,english_893.wav,0,pill,1277,33,4,5,Français,m,4,0.32341667,-64.43392463,0.7117056
5d726b8a0c3f0f0017cdfcf7,36,0,2024-02-27T11:10:38.779Z,english_593.wav,0,peel,282,33,4,5,Français,m,0,0.0,0.23295982,1.83954553
5d726b8a0c3f0f0017cdfcf7,36,0,2024-02-27T11:10:38.779Z,english_593.wav,0,peel,282,33,4,5,Français,m,1,0.1,-0.52832444,1.77820403
5d726b8a0c3f0f0017cdfcf7,36,0,2024-02-27T11:10:38.779Z,english_593.wav,0,peel,282,33,4,5,Français,m,2,0.2,18.28609946,0.36770598
5d726b8a0c3f0f0017cdfcf7,36,0,2024-02-27T11:10:38.779Z,english_593.wav,0,peel,282,33,4,5,Français,m,3,0.3,21.25816485,0.42189114
5d726b8a0c3f0f0017cdfcf7,36,0,2024-02-27T11:10:38.779Z,english_593.wav,0,peel,282,33,4,5,Français,m,4,0.32341667,60.44039038,0.07588974
5d726b8a0c3f0f0017cdfcf7,37,0,2024-02-27T11:10:38.779Z,english_529.wav,0,pill,508,33,4,5,Français,m,0,0.0,13.90759343,0.83001961
5d726b8a0c3f0f0017cdfcf7,37,0,2024-02-27T11:10:38.779Z,english_529.wav,0,pill,508,33,4,5,Français,m,1,0.1,-33.526088,0.02518437
5d726b8a0c3f0f0017cdfcf7,37,0,2024-02-27T11:10:38.779Z,english_529.wav,0,pill,508,33,4,5,Français,m,2,0.2,-34.32120589,1.61112877
5d726b8a0c3f0f0017cdfcf7,37,0,2024-02-27T11:10:38.779Z,english_529.wav,0,pill,508,33,4,5,Français,m,3,0.3,-18.30112723,0.91948239
5d726b8a0c3f0f0017cdfcf7,37,0,2024-02-27T11:10:38.779Z,english_529.wav,0,pill,508,33,4,5,Français,m,4,0.32341667,16.4796061,0.33204613
5d726b8a0c3f0f0017cdfcf7,38,0,2024-02-27T11:10:38.779Z,english_433.wav,0,peel,234,33,4,5,Français,m,0,0.0,-74.58178472,0.69852952
5d726b8a0c3f0f0017cdfcf7,38,0,2024-02-27T11:10:38.779Z,english_433.wav,0,peel,234,33,4,5,Français,m,1,0.1,-50.00917691,1.92405883
5d726b8a0c3f0f0017cdfcf7,38,0,2024-02-27T11:10:38.779Z,english_433.wav,0,peel,234,33,4,5,Français,m,2,0.2,48.18572343,0.3905825
5d726b8a0c3f0f0017cdfcf7,38,0,2024-02-27T11:10:38.779Z,english_433.wav,0,peel,234,33,4,5,Français,m,3,0.3,-63.95387597,0.31453116
5d726b8a0c3f0f0017cdfcf7,38,0,2024-02-27T11:10:38.779Z,english_433.wav,0,peel,234,33,4,5,Français,m,4,0.32341667,-68.91859183,1.4953114
5d726b8a0c3f0f0017cdfcf7,39,0,2024-02-27T11:10:38.779Z,english_181.wav,0,pill,553,33,4,5,Français,m,0,0.0,-20.89133039,0.39550568
5d726b8a0c3f0f0017cdfcf7,39,0,2024-02-27T11:10:38.779Z,english_181.wav,0,pill,553,33,4,5,Français,m,1,0.1,-68.36112581,0.87114476
5d726b8a0c3f0f0017cdfcf7,39,0,2024-02-27T11:10:38.779Z,english_181.wav,0,pill,553,33,4,5,Français,m,2,0.2,-21.7912093,0.0214418
5d726b8a0c3f0f0017cdfcf7,39,0,2024-02-27T11:10:38.779Z,english_181.wav,0,pill,553,33,4,5,Français,m,3,0.3,7.62752627,1.98777716
5d726b8a0c3f0f0017cdfcf7,39,0,2024-02-27T11:10:38.779Z,english_181.wav,0,pill,553,33,4,5,Français,m,4,0.32341667,53.94324841,0.40706026
5d726b8a0c3f0f0017cdfcf7,40,0,2024-02-27T11:10:38.779Z,english_477.wav,0,pill,419,33,4,5,Français,m,0,0.0,9.7496965,0.26828956
5d726b8a0c3f0f0017cdfcf7,40,0,2024-02-27T11:10:38.779Z,english_477.wav,0,pill,419,33,4,5,Français,m,1,0.1,70.56003184,0.51901368
5d726b8a0c3f0f0017cdfcf7,40,0,2024-02-27T11:10:38.779Z,english_477.wav,0,pill,419,33,4,5,Français,m,2,0.2,34.49551211,0.35677294
5d726b8a0c3f0f0017cdfcf7,40,0,2024-02-27T11:10:38.779Z,english_477.wav,0,pill,419,33,4,5,Français,m,3,0.3,-75.0597055,1.39462812
5d726b8a0c3f0f0017cdfcf7,40,0,2024-02-27T11:10:38.779Z,english_477.wav,0,pill,419,33,4,5,Français,m,4,0.32341667,-82.15638008,0.55199483
5d726b8a0c3f0f0017cdfcf7,41,0,2024-02-27T11:10:38.779Z,english_736.wav,0,peel,292,33,4,5,Français,m,0,0.0,44.94907169,1.40223879
5d726b8a0c3f0f0017cdfcf7,41,0,2024-02-27T11:10:38.779Z,english_736.wav,0,peel,292,33,4,5,Français,m,1,0.1,-89.05982676,1.76358699
5d726b8a0c3f0f0017cdfcf7,41,0,2024-02-27T11:10:38.779Z,english_736.wav,0,peel,292,33,4,5,Français,m,2,0.2,27.88925208,0.99111008
5d726b8a0c3f0f0017cdfcf7,41,0,2024-02-27T11:10:38.779Z,english_736.wav,0,peel,292,33,4,5,Français,m,3,0.3,77.01163693,1.90426439
5d726b8a0c3f0f0017cdfcf7,41,0,2024-02-27T11:10:38.779Z,english_736.wav,0,peel,292,33,4,5,Français,m,4,0.32341667,-28.23601136,1.97036362
5d726b8a0c3f0f0017cdfcf7,42,0,2024-02-27T11:10:38.779Z,english_363.wav,0,peel,763,33,4,5,Français,m,0,0.0,-8.62246293,0.22304778
5d726b8a0c3f0f0017cdfcf7,42,0,2024-02-27T11:10:38.779Z,english_363.wav,0,peel,763,33,4,5,Français,m,1,0.1,-37.95317313,0.51009023
5d726b8a0c3f0f0017cdfcf7,42,0,2024-02-27T11:10:38.779Z,english_363.wav,0,peel,763,33,4,5,Français,m,2,0.2,-98.56362786,1.67320701
5d726b8a0c3f0f0017cdfcf7,42,0,2024-02-27T11:10:38.779Z,english_363.wav,0,peel,763,33,4,5,Français,m,3,0.3,79.4101663,0.32318158
5d726b8a0c3f0f0017cdfcf7,42,0,2024-02-27T11:10:38.779Z,english_363.wav,0,peel,763,33,4,5,Français,m,4,0.32341667,-19.01593507,1.23606141
5d726b8a0c3f0f0017cdfcf7,43,0,2024-02-27T11:10:38.779Z,english_574.wav,0,peel,814,33,4,5,Français,m,0,0.0,53.128433,0.28349694
5d726b8a0c3f0f0017cdfcf7,43,0,2024-02-27T11:10:38.779Z,english_574.wav,0,peel,814,33,4,5,Français,m,1,0.1,70.24248151,0.66519348
5d726b8a0c3f0f0017cdfcf7,43,0,2024-02-27T11:10:38.779Z,english_574.wav,0,peel,814,33,4,5,Français,m,2,0.2,47.13290739,1.25768036
5d726b8a0c3f0f0017cdfcf7,43,0,2024-02-27T11:10:38.779Z,english_574.wav,0,peel,814,33,4,5,Français,m,3,0.3,52.31480293,1.43482954
5d726b8a0c3f0f0017cdfcf7,43,0,2024-02-27T11:10:38.779Z,english_574.wav,0,peel,814,33,4,5,Français,m,4,0.32341667,-33.06438127,1.23350688
5d726b8a0c3f0f0017cdfcf7,44,0,2024-02-27T11:10:38.779Z,english_364.wav,0,peel,401,33,4,5,Français,m,0,0.0,19.50953027,1.75500584
5d726b8a0c3f0f0017cdfcf7,44,0,2024-02-27T11:10:38.779Z,english_364.wav,0,peel,401,33,4,5,Français,m,1,0.1,48.44847612,1.3553812
5d726b8a0c3f0f0017cdfcf7,44,0,2024-02-27T11:10:38.779Z,english_364.wav,0,peel,401,33,4,5,Français,m,2,0.2,-85.20645473,0.86672295
5d726b8a0c3f0f0017cdfcf7,44,0,2024-02-27T11:10:38.779Z,english_364.wav,0,peel,401,33,4,5,Français,m,3,0.3,97.47454191,1.42489128
5d726b8a0c3f0f0017cdfcf7,44,0,2024-02-27T11:10:38.779Z,english_364.wav,0,peel,401,33,4,5,Français,m,4,0.32341667,-45.42958463,1.19673805
5d726b8a0c3f0f0017cdfcf7,45,0,2024-02-27T11:10:38.779Z,english_890.wav,0,peel,350,33,4,5,Français,m,0,0.0,-68.21158685,0.82535308
5d726b8a0c3f0f0017cdfcf7,45,0,2024-02-27T11:10:38.779Z,english_890.wav,0,peel,350,33,4,5,Français,m,1,0.1,-83.19360642,1.79167423
5d726b8a0c3f0f0017cdfcf7,45,0,2024-02-27T11:10:38.779Z,english_890.wav,0,peel,350,33,4,5,Français,m,2,0.2,79.13343252,0.78297904
5d726b8a0c3f0f0017cdfcf7,45,0,2024-02-27T11:10:38.779Z,english_890.wav,0,peel,350,33,4,5,Français,m,3,0.3,80.54326003,0.23441015
5d726b8a0c3f0f0017cdfcf7,45,0,2024-02-27T11:10:38.779Z,english_890.wav,0,peel,350,33,4,5,Français,m,4,0.32341667,-30.48737523,1.41044901
5d726b8a0c3f0f0017cdfcf7,46,0,2024-02-27T11:10:38.779Z,english_163.wav,0,peel,140,33,4,5,Français,m,0,0.0,-28.85321754,1.43434597
5d726b8a0c3f0f0017cdfcf7,46,0,2024-02-27T11:10:38.779Z,english_163.wav,0,peel,140,33,4,5,Français,m,1,0.1,9.37410395,1.75766865
5d726b8a0c3f0f0017cdfcf7,46,0,2024-02-27T11:10:38.779Z,english_163.wav,0,peel,140,33,4,5,Français,m,2,0.2,-43.22266742,0.90391943
5d726b8a0c3f0f0017cdfcf7,46,0,2024-02-27T11:10:38.779Z,english_163.wav,0,peel,140,33,4,5,Français,m,3,0.3,48.63715122,1.21743426
5d726b8a0c3f0f0017cdfcf7,46,0,2024-02-27T11:10:38.779Z,english_163.wav,0,peel,140,33,4,5,Français,m,4,0.32341667,-94.22333204,1.8516503
5d726b8a0c3f0f0017cdfcf7,47,0,2024-02-27T11:10:38.779Z,english_495.wav,0,pill,477,33,4,5,Français,m,0,0.0,-5.58861003,1.32978923
5d726b8a0c3f0f0017cdfcf7,47,0,2024-02-27T11:10:38.779Z,english_495.wav,0,pill,477,33,4,5,Français,m,1,0.1,8.95176437,0.81778757
5d726b8a0c3f0f0017cdfcf7,47,0,2024-02-27T11:10:38.779Z,english_495.wav,0,pill,477,33,4,5,Français,m,2,0.2,39.42206983,0.66481361
5d726b8a0c3f0f0017cdfcf7,47,0,2024-02-27T11:10:38.779Z,english_495.wav,0,pill,477,33,4,5,Français,m,3,0.3,-84.38976819,0.35850052
5d726b8a0c3f0f0017cdfcf7,47,0,2024-02-27T11:10:38.779Z,english_495.wav,0,pill,477,33,4,5,Français,m,4,0.32341667,-2.90431636,0.23899864
5d726b8a0c3f0f0017cdfcf7,48,0,2024-02-27T11:10:38.779Z,english_339.wav,0,pill,337,33,4,5,Français,m,0,0.0,-58.67599578,0.13141934
5d726b8a0c3f0f0017cdfcf7,48,0,2024-02-27T11:10:38.779Z,english_339.wav,0,pill,337,33,4,5,Français,m,1,0.1,-13.30258388,0.16133177
5d726b8a0c3f0f0017cdfcf7,48,0,2024-02-27T11:10:38.779Z,english_339.wav,0,pill,337,33,4,5,Français,m,2,0.2,-52.40820381,1.13500643
5d726b8a0c3f0f0017cdfcf7,48,0,2024-02-27T11:10:38.779Z,english_339.wav,0,pill,337,33,4,5,Français,m,3,0.3,11.33062491,0.98717522
5d726b8a0c3f0f0017cdfcf7,48,0,2024-02-27T11:10:38.779Z,english_339.wav,0,pill,337,33,4,5,Français,m,4,0.32341667,9.6385593,0.10332776
5d726b8a0c3f0f0017cdfcf7,49,0,2024-02-27T11:10:38.779Z,english_987.wav,0,peel,196,33,4,5,Français,m,0,0.0,91.33137772,1.82656395
5d726b8a0c3f0f0017cdfcf7,49,0,2024-02-27T11:10:38.779Z,english_987.wav,0,peel,196,33,4,5,Français,m,1,0.1,-39.20299527,1.12122948
5d726b8a0c3f0f0017cdfcf7,49,0,2024-02-27T11:10:38.779Z,english_987.wav,0,peel,196,33,4,5,Français,m,2,0.2,78.9852337,1.12025045
5d726b8a0c3f0f0017cdfcf7,49,0,2024-02-27T11:10:38.779Z,english_987.wav,0,peel,196,33,4,5,Français,m,3,0.3,-94.66209845,1.02557261
5d726b8a0c3f0f0017cdfcf7,49,0,2024-02-27T11:10:38.779Z,english_987.wav,0,peel,196,33,4,5,Français,m,4,0.32341667,-71.76730894,1.06580695
5d726b8a0c3f0f0017cdfcf7,50,1,2024-02-27T11:10:38.779Z,english_3.wav,0,peel,546,33,4,5,Français,m,0,0.0,-57.66547148,1.73485112
5d726b8a0c3f0f0017cdfcf7,50,1,2024-02-27T11:10:38.779Z,english_3.wav,0,peel,546,33,4,5,Français,m,1,0.1,-70.60568286,1.4226462
5d726b8a0c3f0f0017cdfcf7,50,1,2024-02-27T11:10:38.779Z,english_3.wav,0,peel,546,33,4,5,Français,m,2,0.2,70.86912423,1.06235888
5d726b8a0c3f0f0017cdfcf7,50,1,2024-02-27T11:10:38.779Z,english_3.wav,0,peel,546,33,4,5,Français,m,3,0.3,-17.39285893,1.05619652
5d726b8a0c3f0f0017cdfcf7,50,1,2024-02-27T11:10:38.779Z,english_3.wav,0,peel,546,33,4,5,Français,m,4,0.32341667,-60.61780379,1.35606233
5d726b8a0c3f0f0017cdfcf7,51,1,2024-02-27T11:10:38.779Z,english_852.wav,0,pill,550,33,4,5,Français,m,0,0.0,-59.21906832,1.76087743
5d726b8a0c3f0f0017cdfcf7,51,1,2024-02-27T11:10:38.779Z,english_852.wav,0,pill,550,33,4,5,Français,m,1,0.1,5.96662808,0.85304022
5d726b8a0c3f0f0017cdfcf7,51,1,2024-02-27T11:10:38.779Z,english_852.wav,0,pill,550,33,4,5,Français,m,2,0.2,12.29830648,0.5029047
5d726b8a0c3f0f0017cdfcf7,51,1,2024-02-27T11:10:38.779Z,english_852.wav,0,pill,550,33,4,5,Français,m,3,0.3,-98.20735767,0.66544939
5d726b8a0c3f0f0017cdfcf7,51,1,2024-02-27T11:10:38.779Z,english_852.wav,0,pill,550,33,4,5,Français,m,4,0.32341667,-0.5186354,0.26669214
5d726b8a0c3f0f0017cdfcf7,52,1,2024-02-27T11:10:38.779Z,english_189.wav,0,pill,678,33,4,5,Français,m,0,0.0,-22.70456848,0.82906961
5d726b8a0c3f0f0017cdfcf7,52,1,2024-02-27T11:10:38.779Z,english_189.wav,0,pill,678,33,4,5,Français,m,1,0.1,-12.00888723,0.58408113
5d726b8a0c3f0f0017cdfcf7,52,1,2024-02-27T11:10:38.779Z,english_189.wav,0,pill,678,33,4,5,Français,m,2,0.2,15.14046376,0.19058783
5d726b8a0c3f0f0017cdfcf7,52,1,2024-02-27T11:10:38.779Z,english_189.wav,0,pill,678,33,4,5,Français,m,3,0.3,-19.30106293,0.57788611
5d726b8a0c3f0f0017cdfcf7,52,1,2024-02-27T11:10:38.779Z,english_189.wav,0,pill,678,33,4,5,Français,m,4,0.32341667,-20.57313834,0.32577637
5d726b8a0c3f0f0017cdfcf7,53,1,2024-02-27T11:10:38.779Z,english_492.wav,0,peel,204,33,4,5,Français,m,0,0.0,-66.2832746,0.52930651
5d726b8a0c3f0f0017cdfcf7,53,1,2024-02-27T11:10:38.779Z,english_492.wav,0,peel,204,33,4,5,Français,m,1,0.1,-19.36008054,1.11739795
5d726b8a0c3f0f0017cdfcf7,53,1,2024-02-27T11:10:38.779Z,english_492.wav,0,peel,204,33,4,5,Français,m,2,0.2,95.25769545,1.86018292
5d726b8a0c3f0f0017cdfcf7,53,1,2024-02-27T11:10:38.779Z,english_492.wav,0,peel,204,33,4,5,Français,m,3,0.3,-42.69351484,0.07313262
5d726b8a0c3f0f0017cdfcf7,53,1,2024-02-27T11:10:38.779Z,english_492.wav,0,peel,204,33,4,5,Français,m,4,0.32341667,48.13359561,0.30480454
5d726b8a0c3f0f0017cdfcf7,54,1,2024-02-27T11:10:38.779Z,english_503.wav,0,peel,296,33,4,5,Français,m,0,0.0,-62.81458057,1.15988152
5d726b8a0c3f0f0017cdfcf7,54,1,2024-02-27T11:10:38.779Z,english_503.wav,0,peel,296,33,4,5,Français,m,1,0.1,17.97702429,0.58853345
5d726b8a0c3f0f0017cdfcf7,54,1,2024-02-27T11:10:38.779Z,english_503.wav,0,peel,296,33,4,5,Français,m,2,0.2,-8.2980926,1.29983279
5d726b8a0c3f0f0017cdfcf7,54,1,2024-02-27T11:10:38.779Z,english_503.wav,0,peel,296,33,4,5,Français,m,3,0.3,-62.4217389,1.42406205
5d726b8a0c3f0f0017cdfcf7,54,1,2024-02-27T11:10:38.779Z,english_503.wav,0,peel,296,33,4,5,Français,m,4,0.32341667,18.11027086,0.84018378
5d726b8a0c3f0f0017cdfcf7,55,1,2024-02-27T11:10:38.779Z,english_114.wav,0,peel,1907,33,4,5,Français,m,0,0.0,32.66189176,0.56529239
5d726b8a0c3f0f0017cdfcf7,55,1,2024-02-27T11:10:38.779Z,english_114.wav,0,peel,1907,33,4,5,Français,m,1,0.1,11.50533392,1.79520186
5d726b8a0c3f0f0017cdfcf7,55,1,2024-02-27T11:10:38.779Z,english_114.wav,0,peel,1907,33,4,5,Français,m,2,0.2,-73.58201401,1.4619954
5d726b8a0c3f0f0017cdfcf7,55,1,2024-02-27T11:10:38.779Z,english_114.wav,0,peel,1907,33,4,5,Français,m,3,0.3,-8.93644113,0.78288211
5d726b8a0c3f0f0017cdfcf7,55,1,2024-02-27T11:10:38.779Z,english_114.wav,0,peel,1907,33,4,5,Français,m,4,0.32341667,-2.4794064,0.66376764
5d726b8a0c3f0f0017cdfcf7,56,1,2024-02-27T11:10:38.779Z,english_619.wav,0,peel,351,33,4,5,Français,m,0,0.0,38.53351318,1.25542912
5d726b8a0c3f0f0017cdfcf7,56,1,2024-02-27T11:10:38.779Z,english_619.wav,0,peel,351,33,4,5,Français,m,1,0.1,-11.21157995,0.83005785
5d726b8a0c3f0f0017cdfcf7,56,1,2024-02-27T11:10:38.779Z,english_619.wav,0,peel,351,33,4,5,Français,m,2,0.2,29.79887689,1.51254928
5d726b8a0c3f0f0017cdfcf7,56,1,2024-02-27T11:10:38.779Z,english_619.wav,0,peel,351,33,4,5,Français,m,3,0.3,48.6384615,0.37972577
5d726b8a0c3f0f0017cdfcf7,56,1,2024-02-27T11:10:38.779Z,english_619.wav,0,peel,351,33,4,5,Français,m,4,0.32341667,-66.5905708,0.44889873
5d726b8a0c3f0f0017cdfcf7,57,1,2024-02-27T11:10:38.779Z,english_136.wav,0,pill,6518,33,4,5,Français,m,0,0.0,12.04186247,0.70846626
5d726b8a0c3f0f0017cdfcf7,57,1,2024-02-27T11:10:38.779Z,english_136.wav,0,pill,6518,33,4,5,Français,m,1,0.1,-56.97950323,1.3229906
5d726b8a0c3f0f0017cdfcf7,57,1,2024-02-27T11:10:38.779Z,english_136.wav,0,pill,6518,33,4,5,Français,m,2,0.2,32.29793995,0.25119571
5d726b8a0c3f0f0017cdfcf7,57,1,2024-02-27T11:10:38.779Z,english_136.wav,0,pill,6518,33,4,5,Français,m,3,0.3,40.05814767,1.28510755
5d726b8a0c3f0f0017cdfcf7,57,1,2024-02-27T11:10:38.779Z,english_136.wav,0,pill,6518,33,4,5,Français,m,4,0.32341667,61.40693937,1.20697433
5d726b8a0c3f0f0017cdfcf7,58,1,2024-02-27T11:10:38.779Z,english_9.wav,0,pill,3663,33,4,5,Français,m,0,0.0,24.77706225,1.13145128
5d726b8a0c3f0f0017cdfcf7,58,1,2024-02-27T11:10:38.779Z,english_9.wav,0,pill,3663,33,4,5,Français,m,1,0.1,91.05524194,1.19326311
5d726b8a0c3f0f0017cdfcf7,58,1,2024-02-27T11:10:38.779Z,english_9.wav,0,pill,3663,33,4,5,Français,m,2,0.2,30.20964975,1.50029029
5d726b8a0c3f0f0017cdfcf7,58,1,2024-02-27T11:10:38.779Z,english_9.wav,0,pill,3663,33,4,5,Français,m,3,0.3,-69.66301283,1.4622179
5d726b8a0c3f0f0017cdfcf7,58,1,2024-02-27T11:10:38.779Z,english_9.wav,0,pill,3663,33,4,5,Français,m,4,0.32341667,-3.83240646,1.9316504
5d726b8a0c3f0f0017cdfcf7,59,1,2024-02-27T11:10:38.779Z,english_795.wav,0,peel,467,33,4,5,Français,m,0,0.0,39.36518311,1.47453336
5d726b8a0c3f0f0017cdfcf7,59,1,2024-02-27T11:10:38.779Z,english_795.wav,0,peel,467,33,4,5,Français,m,1,0.1,16.50141431,0.29075574
5d726b8a0c3f0f0017cdfcf7,59,1,2024-02-27T11:10:38.779Z,english_795.wav,0,peel,467,33,4,5,Français,m,2,0.2,54.87860026,1.88174141
5d726b8a0c3f0f0017cdfcf7,59,1,2024-02-27T11:10:38.779Z,english_795.wav,0,peel,467,33,4,5,Français,m,3,0.3,61.09971909,0.27471403
5d726b8a0c3f0f0017cdfcf7,59,1,2024-02-27T11:10:38.779Z,english_795.wav,0,peel,467,33,4,5,Français,m,4,0.32341667,4.28490532,0.11399574
5d726b8a0c3f0f0017cdfcf7,60,1,2024-02-27T11:10:38.779Z,english_536.wav,0,peel,324,33,4,5,Français,m,0,0.0,19.16157828,1.0914138
5d726b8a0c3f0f0017cdfcf7,60,1,2024-02-27T11:10:38.779Z,english_536.wav,0,peel,324,33,4,5,Français,m,1,0.1,-70.44875328,1.55996729
5d726b8a0c3f0f0017cdfcf7,60,1,2024-02-27T11:10:38.779Z,english_536.wav,0,peel,324,33,4,5,Français,m,2,0.2,9.3844651,1.22014226
5d726b8a0c3f0f0017cdfcf7,60,1,2024-02-27T11:10:38.779Z,english_536.wav,0,peel,324,33,4,5,Français,m,3,0.3,54.79833109,0.24268308
5d726b8a0c3f0f0017cdfcf7,60,1,2024-02-27T11:10:38.779Z,english_536.wav,0,peel,324,33,4,5,Français,m,4,0.32341667,-43.58683919,1.12643869
5d726b8a0c3f0f0017cdfcf7,61,1,2024-02-27T11:10:38.779Z,english_38.wav,0,peel,225,33,4,5,Français,m,0,0.0,-2.78484508,0.45448836
5d726b8a0c3f0f0017cdfcf7,61,1,2024-02-27T11:10:38.779Z,english_38.wav,0,peel,225,33,4,5,Français,m,1,0.1,-57.68912839,0.86252605
5d726b8a0c3f0f0017cdfcf7,61,1,2024-02-27T11:10:38.779Z,english_38.wav,0,peel,225,33,4,5,Français,m,2,0.2,-17.27242754,1.61904865
5d726b8a0c3f0f0017cdfcf7,61,1,2024-02-27T11:10:38.779Z,english_38.wav,0,peel,225,33,4,5,Français,m,3,0.3,-2.64514482,1.39130822
5d726b8a0c3f0f0017cdfcf7,61,1,2024-02-27T11:10:38.779Z,english_38.wav,0,peel,225,33,4,5,Français,m,4,0.32341667,55.14373267,1.59066599
5d726b8a0c3f0f0017cdfcf7,62,1,2024-02-27T11:10:38.779Z,english_96.wav,0,pill,364,33,4,5,Français,m,0,0.0,-2.60251168,1.33849038
5d726b8a0c3f0f0017cdfcf7,62,1,2024-02-27T11:10:38.779Z,english_96.wav,0,pill,364,33,4,5,Français,m,1,0.1,3.1808695,1.03790095
5d726b8a0c3f0f0017cdfcf7,62,1,2024-02-27T11:10:38.779Z,english_96.wav,0,pill,364,33,4,5,Français,m,2,0.2,-93.89625608,0.32730996
5d726b8a0c3f0f0017cdfcf7,62,1,2024-02-27T11:10:38.779Z,english_96.wav,0,pill,364,33,4,5,Français,m,3,0.3,22.03695444,1.15118519
5d726b8a0c3f0f0017cdfcf7,62,1,2024-02-27T11:10:38.779Z,english_96.wav,0,pill,364,33,4,5,Français,m,4,0.32341667,89.13776591,1.37996061
5d726b8a0c3f0f0017cdfcf7,63,1,2024-02-27T11:10:38.779Z,english_533.wav,0,peel,403,33,4,5,Français,m,0,0.0,-10.36570298,0.10013008
5d726b8a0c3f0f0017cdfcf7,63,1,2024-02-27T11:10:38.779Z,english_533.wav,0,peel,403,33,4,5,Français,m,1,0.1,-67.04420928,1.73583104
5d726b8a0c3f0f0017cdfcf7,63,1,2024-02-27T11:10:38.779Z,english_533.wav,0,peel,403,33,4,5,Français,m,2,0.2,-31.24691396,1.00550506
5d726b8a0c3f0f0017cdfcf7,63,1,2024-02-27T11:10:38.779Z,english_533.wav,0,peel,403,33,4,5,Français,m,3,0.3,-22.73912087,1.21009828
5d726b8a0c3f0f0017cdfcf7,63,1,2024-02-27T11:10:38.779Z,english_533.wav,0,peel,403,33,4,5,Français,m,4,0.32341667,-4.63915005,1.69946188
5d726b8a0c3f0f0017cdfcf7,64,1,2024-02-27T11:10:38.779Z,english_77.wav,0,pill,686,33,4,5,Français,m,0,0.0,-72.40491727,0.02183184
5d726b8a0c3f0f0017cdfcf7,64,1,2024-02-27T11:10:38.779Z,english_77.wav,0,pill,686,33,4,5,Français,m,1,0.1,8.82020558,1.36505393
5d726b8a0c3f0f0017cdfcf7,64,1,2024-02-27T11:10:38.779Z,english_77.wav,0,pill,686,33,4,5,Français,m,2,0.2,89.28229375,1.34112472
5d726b8a0c3f0f0017cdfcf7,64,1,2024-02-27T11:10:38.779Z,english_77.wav,0,pill,686,33,4,5,Français,m,3,0.3,-14.39120814,0.45737201
5d726b8a0c3f0f0017cdfcf7,64,1,2024-02-27T11:10:38.779Z,english_77.wav,0,pill,686,33,4,5,Français,m,4,0.32341667,0.18022976,1.1673494
5d726b8a0c3f0f0017cdfcf7,65,1,2024-02-27T11:10:38.779Z,english_439.wav,0,peel,260,33,4,5,Français,m,0,0.0,-34.98153375,0.51703437
5d726b8a0c3f0f0017cdfcf7,65,1,2024-02-27T11:10:38.779Z,english_439.wav,0,peel,260,33,4,5,Français,m,1,0.1,58.81829455,0.92552513
5d726b8a0c3f0f0017cdfcf7,65,1,2024-02-27T11:10:38.779Z,english_439.wav,0,peel,260,33,4,5,Français,m,2,0.2,-39.64168408,1.94754337
5d726b8a0c3f0f0017cdfcf7,65,1,2024-02-27T11:10:38.779Z,english_439.wav,0,peel,260,33,4,5,Français,m,3,0.3,-65.89684329,0.19153473
5d726b8a0c3f0f0017cdfcf7,65,1,2024-02-27T11:10:38.779Z,english_439.wav,0,peel,260,33,4,5,Français,m,4,0.32341667,-18.09409032,1.29438445
5d726b8a0c3f0f0017cdfcf7,66,1,2024-02-27T11:10:38.779Z,english_144.wav,0,pill,397,33,4,5,Français,m,0,0.0,-68.95587174,0.23806678
5d726b8a0c3f0f0017cdfcf7,66,1,2024-02-27T11:10:38.779Z,english_144.wav,0,pill,397,33,4,5,Français,m,1,0.1,-74.16141139,0.77020267
5d726b8a0c3f0f0017cdfcf7,66,1,2024-02-27T11:10:38.779Z,english_144.wav,0,pill,397,33,4,5,Français,m,2,0.2,-19.31034794,0.33858197
5d726b8a0c3f0f0017cdfcf7,66,1,2024-02-27T11:10:38.779Z,english_144.wav,0,pill,397,33,4,5,Français,m,3,0.3,-77.96768175,1.42512122
5d726b8a0c3f0f0017cdfcf7,66,1,2024-02-27T11:10:38.779Z,english_144.wav,0,pill,397,33,4,5,Français,m,4,0.32341667,3.46911061,0.57629619
5d726b8a0c3f0f0017cdfcf7,67,1,2024-02-27T11:10:38.779Z,english_960.wav,0,peel,1037,33,4,5,Français,m,0,0.0,35.80457434,0.79357899
5d726b8a0c3f0f0017cdfcf7,67,1,2024-02-27T11:10:38.779Z,english_960.wav,0,peel,1037,33,4,5,Français,m,1,0.1,-19.98469691,0.63900775
5d726b8a0c3f0f0017cdfcf7,67,1,2024-02-27T11:10:38.779Z,english_960.wav,0,peel,1037,33,4,5,Français,m,2,0.2,-8.88025322,1.83966222
5d726b8a0c3f0f0017cdfcf7,67,1,2024-02-27T11:10:38.779Z,english_960.wav,0,peel,1037,33,4,5,Français,m,3,0.3,6.59365348,1.05168668
5d726b8a0c3f0f0017cdfcf7,67,1,2024-02-27T11:10:38.779Z,english_960.wav,0,peel,1037,33,4,5,Français,m,4,0.32341667,64.0885905,1.66020449
5d726b8a0c3f0f0017cdfcf7,68,1,2024-02-27T11:10:38.779Z,english_920.wav,0,peel,151,33,4,5,Français,m,0,0.0,95.7501832,1.54313256
5d726b8a0c3f0f0017cdfcf7,68,1,2024-02-27T11:10:38.779Z,english_920.wav,0,peel,151,33,4,5,Français,m,1,0.1,-3.19831823,1.33500472
5d726b8a0c3f0f0017cdfcf7,68,1,2024-02-27T11:10:38.779Z,english_920.wav,0,peel,151,33,4,5,Français,m,2,0.2,-16.96134457,1.12819963
5d726b8a0c3f0f0017cdfcf7,68,1,2024-02-27T11:10:38.779Z,english_920.wav,0,peel,151,33,4,5,Français,m,3,0.3,-28.81747413,1.72147256
5d726b8a0c3f0f0017cdfcf7,68,1,2024-02-27T11:10:38.779Z,english_920.wav,0,peel,151,33,4,5,Français,m,4,0.32341667,42.63505928,0.57593815
5d726b8a0c3f0f0017cdfcf7,69,1,2024-02-27T11:10:38.779Z,english_830.wav,0,peel,326,33,4,5,Français,m,0,0.0,2.63258607,0.89301132
5d726b8a0c3f0f0017cdfcf7,69,1,2024-02-27T11:10:38.779Z,english_830.wav,0,peel,326,33,4,5,Français,m,1,0.1,-31.8387274,1.32560067
5d726b8a0c3f0f0017cdfcf7,69,1,2024-02-27T11:10:38.779Z,english_830.wav,0,peel,326,33,4,5,Français,m,2,0.2,-6.78563658,1.08718884
5d726b8a0c3f0f0017cdfcf7,69,1,2024-02-27T11:10:38.779Z,english_830.wav,0,peel,326,33,4,5,Français,m,3,0.3,-57.52390495,0.53430446
5d726b8a0c3f0f0017cdfcf7,69,1,2024-02-27T11:10:38.779Z,english_830.wav,0,peel,326,33,4,5,Français,m,4,0.32341667,51.13575953,0.53816607
5d726b8a0c3f0f0017cdfcf7,70,1,2024-02-27T11:10:38.779Z,english_860.wav,0,peel,282,33,4,5,Français,m,0,0.0,10.25066679,1.47817545
5d726b8a0c3f0f0017cdfcf7,70,1,2024-02-27T11:10:38.779Z,english_860.wav,0,peel,282,33,4,5,Français,m,1,0.1,55.87909831,1.32859058
5d726b8a0c3f0f0017cdfcf7,70,1,2024-02-27T11:10:38.779Z,english_860.wav,0,peel,282,33,4,5,Français,m,2,0.2,81.09373959,0.99201561
5d726b8a0c3f0f0017cdfcf7,70,1,2024-02-27T11:10:38.779Z,english_860.wav,0,peel,282,33,4,5,Français,m,3,0.3,15.52286826,0.3312489
5d726b8a0c3f0f0017cdfcf7,70,1,2024-02-27T11:10:38.779Z,english_860.wav,0,peel,282,33,4,5,Français,m,4,0.32341667,58.18702512,0.66001743
5d726b8a0c3f0f0017cdfcf7,71,1,2024-02-27T11:10:38.779Z,english_474.wav,0,peel,319,33,4,5,Français,m,0,0.0,42.88606971,0.87351765
5d726b8a0c3f0f0017cdfcf7,71,1,2024-02-27T11:10:38.779Z,english_474.wav,0,peel,319,33,4,5,Français,m,1,0.1,6.82691085,1.08551449
5d726b8a0c3f0f0017cdfcf7,71,1,2024-02-27T11:10:38.779Z,english_474.wav,0,peel,319,33,4,5,Français,m,2,0.2,-33.80031927,1.99847166
5d726b8a0c3f0f0017cdfcf7,71,1,2024-02-27T11:10:38.779Z,english_474.wav,0,peel,319,33,4,5,Français,m,3,0.3,-97.18672796,0.27470298
5d726b8a0c3f0f0017cdfcf7,71,1,2024-02-27T11:10:38.779Z,english_474.wav,0,peel,319,33,4,5,Français,m,4,0.32341667,-4.7462475,0.02962094
5d726b8a0c3f0f0017cdfcf7,72,1,2024-02-27T11:10:38.779Z,english_18.wav,0,peel,325,33,4,5,Français,m,0,0.0,-61.9567004,0.45038722
5d726b8a0c3f0f0017cdfcf7,72,1,2024-02-27T11:10:38.779Z,english_18.wav,0,peel,325,33,4,5,Français,m,1,0.1,39.2027204,1.56185221
5d726b8a0c3f0f0017cdfcf7,72,1,2024-02-27T11:10:38.779Z,english_18.wav,0,peel,325,33,4,5,Français,m,2,0.2,-0.0626834214,0.80652275
5d726b8a0c3f0f0017cdfcf7,72,1,2024-02-27T11:10:38.779Z,english_18.wav,0,peel,325,33,4,5,Français,m,3,0.3,-72.2820301,0.39505163
5d726b8a0c3f0f0017cdfcf7,72,1,2024-02-27T11:10:38.779Z,english_18.wav,0,peel,325,33,4,5,Français,m,4,0.323416667,-52.9459242,0.50402069
5d726b8a0c3f0f0017cdfcf7,73,1,2024-02-27T11:10:38.779Z,english_945.wav,0,peel,3821,33,4,5,Français,m,0,0.0,63.16075011,1.8314946
5d726b8a0c3f0f0017cdfcf7,73,1,2024-02-27T11:10:38.779Z,english_945.wav,0,peel,3821,33,4,5,Français,m,1,0.1,87.55520176,1.3737613
5d726b8a0c3f0f0017cdfcf7,73,1,2024-02-27T11:10:38.779Z,english_945.wav,0,peel,3821,33,4,5,Français,m,2,0.2,-69.60467193,0.61639792
5d726b8a0c3f0f0017cdfcf7,73,1,2024-02-27T11:10:38.779Z,english_945.wav,0,peel,3821,33,4,5,Français,m,3,0.3,-69.25530384,1.67239747
5d726b8a0c3f0f0017cdfcf7,73,1,2024-02-27T11:10:38.779Z,english_945.wav,0,peel,3821,33,4,5,Français,m,4,0.32341667,-47.64160087,1.88344595
5d726b8a0c3f0f0017cdfcf7,74,1,2024-02-27T11:10:38.779Z,english_655.wav,0,pill,434,33,4,5,Français,m,0,0.0,84.9811401,1.09123398
5d726b8a0c3f0f0017cdfcf7,74,1,2024-02-27T11:10:38.779Z,english_655.wav,0,pill,434,33,4,5,Français,m,1,0.1,70.1996811,0.51840547
5d726b8a0c3f0f0017cdfcf7,74,1,2024-02-27T11:10:38.779Z,english_655.wav,0,pill,434,33,4,5,Français,m,2,0.2,-5.60681941,0.58569322
5d726b8a0c3f0f0017cdfcf7,74,1,2024-02-27T11:10:38.779Z,english_655.wav,0,pill,434,33,4,5,Français,m,3,0.3,-33.00324328,1.11132849
5d726b8a0c3f0f0017cdfcf7,74,1,2024-02-27T11:10:38.779Z,english_655.wav,0,pill,434,33,4,5,Français,m,4,0.32341667,24.65490624,0.28465301
5d726b8a0c3f0f0017cdfcf7,75,1,2024-02-27T11:10:38.779Z,english_769.wav,0,pill,545,33,4,5,Français,m,0,0.0,-12.68288087,1.59358978
5d726b8a0c3f0f0017cdfcf7,75,1,2024-02-27T11:10:38.779Z,english_769.wav,0,pill,545,33,4,5,Français,m,1,0.1,13.58895245,0.16681031
5d726b8a0c3f0f0017cdfcf7,75,1,2024-02-27T11:10:38.779Z,english_769.wav,0,pill,545,33,4,5,Français,m,2,0.2,-5.57429841,0.74292099
5d726b8a0c3f0f0017cdfcf7,75,1,2024-02-27T11:10:38.779Z,english_769.wav,0,pill,545,33,4,5,Français,m,3,0.3,-26.44516544,0.17250104
5d726b8a0c3f0f0017cdfcf7,75,1,2024-02-27T11:10:38.779Z,english_769.wav,0,pill,545,33,4,5,Français,m,4,0.32341667,85.93285426,0.16730253
5d726b8a0c3f0f0017cdfcf7,76,1,2024-02-27T11:10:38.779Z,english_79.wav,0,pill,425,33,4,5,Français,m,0,0.0,-69.52518262,0.23164561
5d726b8a0c3f0f0017cdfcf7,76,1,2024-02-27T11:10:38.779Z,english_79.wav,0,pill,425,33,4,5,Français,m,1,0.1,56.533406,1.01948637
5d726b8a0c3f0f0017cdfcf7,76,1,2024-02-27T11:10:38.779Z,english_79.wav,0,pill,425,33,4,5,Français,m,2,0.2,25.92051761,0.17653141
5d726b8a0c3f0f0017cdfcf7,76,1,2024-02-27T11:10:38.779Z,english_79.wav,0,pill,425,33,4,5,Français,m,3,0.3,81.58880491,0.14868702
5d726b8a0c3f0f0017cdfcf7,76,1,2024-02-27T11:10:38.779Z,english_79.wav,0,pill,425,33,4,5,Français,m,4,0.32341667,-19.75719301,0.33345335
5d726b8a0c3f0f0017cdfcf7,77,1,2024-02-27T11:10:38.779Z,english_763.wav,0,peel,523,33,4,5,Français,m,0,0.0,64.63144232,0.7800836
5d726b8a0c3f0f0017cdfcf7,77,1,2024-02-27T11:10:38.779Z,english_763.wav,0,peel,523,33,4,5,Français,m,1,0.1,8.86346429,1.26656169
5d726b8a0c3f0f0017cdfcf7,77,1,2024-02-27T11:10:38.779Z,english_763.wav,0,peel,523,33,4,5,Français,m,2,0.2,32.79569159,1.93170043
5d726b8a0c3f0f0017cdfcf7,77,1,2024-02-27T11:10:38.779Z,english_763.wav,0,peel,523,33,4,5,Français,m,3,0.3,10.55051177,0.29422641
5d726b8a0c3f0f0017cdfcf7,77,1,2024-02-27T11:10:38.779Z,english_763.wav,0,peel,523,33,4,5,Français,m,4,0.32341667,6.38738619,1.43860225
5d726b8a0c3f0f0017cdfcf7,78,1,2024-02-27T11:10:38.779Z,english_789.wav,0,peel,367,33,4,5,Français,m,0,0.0,70.69388181,1.62690516
5d726b8a0c3f0f0017cdfcf7,78,1,2024-02-27T11:10:38.779Z,english_789.wav,0,peel,367,33,4,5,Français,m,1,0.1,-91.45782136,1.02092359
5d726b8a0c3f0f0017cdfcf7,78,1,2024-02-27T11:10:38.779Z,english_789.wav,0,peel,367,33,4,5,Français,m,2,0.2,-94.67801392,0.93437639
5d726b8a0c3f0f0017cdfcf7,78,1,2024-02-27T11:10:38.779Z,english_789.wav,0,peel,367,33,4,5,Français,m,3,0.3,83.76501612,1.8239896
5d726b8a0c3f0f0017cdfcf7,78,1,2024-02-27T11:10:38.779Z,english_789.wav,0,peel,367,33,4,5,Français,m,4,0.32341667,-4.60584958,1.29596798
5d726b8a0c3f0f0017cdfcf7,79,1,2024-02-27T11:10:38.779Z,english_442.wav,0,peel,235,33,4,5,Français,m,0,0.0,-5.21319176,1.35819452
5d726b8a0c3f0f0017cdfcf7,79,1,2024-02-27T11:10:38.779Z,english_442.wav,0,peel,235,33,4,5,Français,m,1,0.1,-16.23989513,1.66019663
5d726b8a0c3f0f0017cdfcf7,79,1,2024-02-27T11:10:38.779Z,english_442.wav,0,peel,235,33,4,5,Français,m,2,0.2,-36.77315909,0.51170704
5d726b8a0c3f0f0017cdfcf7,79,1,2024-02-27T11:10:38.779Z,english_442.wav,0,peel,235,33,4,5,Français,m,3,0.3,-33.51446291,1.6590932
5d726b8a0c3f0f0017cdfcf7,79,1,2024-02-27T11:10:38.779Z,english_442.wav,0,peel,235,33,4,5,Français,m,4,0.32341667,-25.07447919,0.97998973
5d726b8a0c3f0f0017cdfcf7,80,1,2024-02-27T11:10:38.779Z,english_732.wav,0,peel,380,33,4,5,Français,m,0,0.0,-12.49530298,1.28394154
5d726b8a0c3f0f0017cdfcf7,80,1,2024-02-27T11:10:38.779Z,english_732.wav,0,peel,380,33,4,5,Français,m,1,0.1,77.35683448,1.95772399
5d726b8a0c3f0f0017cdfcf7,80,1,2024-02-27T11:10:38.779Z,english_732.wav,0,peel,380,33,4,5,Français,m,2,0.2,46.14200593,1.14408971
5d726b8a0c3f0f0017cdfcf7,80,1,2024-02-27T11:10:38.779Z,english_732.wav,0,peel,380,33,4,5,Français,m,3,0.3,-17.19403126,0.21034957
5d726b8a0c3f0f0017cdfcf7,80,1,2024-02-27T11:10:38.779Z,english_732.wav,0,peel,380,33,4,5,Français,m,4,0.32341667,-81.60069167,0.50538316
5d726b8a0c3f0f0017cdfcf7,81,1,2024-02-27T11:10:38.779Z,english_226.wav,0,peel,335,33,4,5,Français,m,0,0.0,-56.53605181,0.51185795
5d726b8a0c3f0f0017cdfcf7,81,1,2024-02-27T11:10:38.779Z,english_226.wav,0,peel,335,33,4,5,Français,m,1,0.1,-5.93547338,0.73377568
5d726b8a0c3f0f0017cdfcf7,81,1,2024-02-27T11:10:38.779Z,english_226.wav,0,peel,335,33,4,5,Français,m,2,0.2,-81.0596442,1.62034912
5d726b8a0c3f0f0017cdfcf7,81,1,2024-02-27T11:10:38.779Z,english_226.wav,0,peel,335,33,4,5,Français,m,3,0.3,-12.14261426,0.19474782
5d726b8a0c3f0f0017cdfcf7,81,1,2024-02-27T11:10:38.779Z,english_226.wav,0,peel,335,33,4,5,Français,m,4,0.32341667,40.67667876,0.1395898
5d726b8a0c3f0f0017cdfcf7,82,1,2024-02-27T11:10:38.779Z,english_704.wav,0,peel,279,33,4,5,Français,m,0,0.0,-24.48288207,0.92043902
5d726b8a0c3f0f0017cdfcf7,82,1,2024-02-27T11:10:38.779Z,english_704.wav,0,peel,279,33,4,5,Français,m,1,0.1,-9.94163531,0.96595902
5d726b8a0c3f0f0017cdfcf7,82,1,2024-02-27T11:10:38.779Z,english_704.wav,0,peel,279,33,4,5,Français,m,2,0.2,74.85271107,1.40327859
5d726b8a0c3f0f0017cdfcf7,82,1,2024-02-27T11:10:38.779Z,english_704.wav,0,peel,279,33,4,5,Français,m,3,0.3,-38.44921803,1.07325586
5d726b8a0c3f0f0017cdfcf7,82,1,2024-02-27T11:10:38.779Z,english_704.wav,0,peel,279,33,4,5,Français,m,4,0.32341667,-21.20994959,1.87555588
5d726b8a0c3f0f0017cdfcf7,83,1,2024-02-27T11:10:38.779Z,english_81.wav,0,pill,2767,33,4,5,Français,m,0,0.0,-8.99652005,1.6890162
5d726b8a0c3f0f0017cdfcf7,83,1,2024-02-27T11:10:38.779Z,english_81.wav,0,pill,2767,33,4,5,Français,m,1,0.1,37.2959996,1.86826101
5d726b8a0c3f0f0017cdfcf7,83,1,2024-02-27T11:10:38.779Z,english_81.wav,0,pill,2767,33,4,5,Français,m,2,0.2,56.49217416,0.68929954
5d726b8a0c3f0f0017cdfcf7,83,1,2024-02-27T11:10:38.779Z,english_81.wav,0,pill,2767,33,4,5,Français,m,3,0.3,99.31521879,0.22383451
5d726b8a0c3f0f0017cdfcf7,83,1,2024-02-27T11:10:38.779Z,english_81.wav,0,pill,2767,33,4,5,Français,m,4,0.32341667,-25.36881215,0.930773
5d726b8a0c3f0f0017cdfcf7,84,1,2024-02-27T11:10:38.779Z,english_561.wav,0,peel,1154,33,4,5,Français,m,0,0.0,62.21065415,1.32725493
5d726b8a0c3f0f0017cdfcf7,84,1,2024-02-27T11:10:38.779Z,english_561.wav,0,peel,1154,33,4,5,Français,m,1,0.1,-9.84770717,1.15871491
5d726b8a0c3f0f0017cdfcf7,84,1,2024-02-27T11:10:38.779Z,english_561.wav,0,peel,1154,33,4,5,Français,m,2,0.2,-12.92274306,0.82816789
5d726b8a0c3f0f0017cdfcf7,84,1,2024-02-27T11:10:38.779Z,english_561.wav,0,peel,1154,33,4,5,Français,m,3,0.3,16.08334811,1.72308293
5d726b8a0c3f0f0017cdfcf7,84,1,2024-02-27T11:10:38.779Z,english_561.wav,0,peel,1154,33,4,5,Français,m,4,0.32341667,-22.38830035,0.72943893
5d726b8a0c3f0f0017cdfcf7,85,1,2024-02-27T11:10:38.779Z,english_408.wav,0,pill,423,33,4,5,Français,m,0,0.0,-0.16211679,1.52185603
5d726b8a0c3f0f0017cdfcf7,85,1,2024-02-27T11:10:38.779Z,english_408.wav,0,pill,423,33,4,5,Français,m,1,0.1,16.68246491,0.27925492
5d726b8a0c3f0f0017cdfcf7,85,1,2024-02-27T11:10:38.779Z,english_408.wav,0,pill,423,33,4,5,Français,m,2,0.2,-84.31504289,0.96179544
5d726b8a0c3f0f0017cdfcf7,85,1,2024-02-27T11:10:38.779Z,english_408.wav,0,pill,423,33,4,5,Français,m,3,0.3,20.95362966,1.64669203
5d726b8a0c3f0f0017cdfcf7,85,1,2024-02-27T11:10:38.779Z,english_408.wav,0,pill,423,33,4,5,Français,m,4,0.32341667,15.25079186,1.54793764
5d726b8a0c3f0f0017cdfcf7,86,1,2024-02-27T11:10:38.779Z,english_792.wav,0,peel,400,33,4,5,Français,m,0,0.0,-56.39949456,1.32676777
5d726b8a0c3f0f0017cdfcf7,86,1,2024-02-27T11:10:38.779Z,english_792.wav,0,peel,400,33,4,5,Français,m,1,0.1,-76.36067248,1.08004851
5d726b8a0c3f0f0017cdfcf7,86,1,2024-02-27T11:10:38.779Z,english_792.wav,0,peel,400,33,4,5,Français,m,2,0.2,-58.44160547,1.5809308
5d726b8a0c3f0f0017cdfcf7,86,1,2024-02-27T11:10:38.779Z,english_792.wav,0,peel,400,33,4,5,Français,m,3,0.3,25.29086486,0.16508433
5d726b8a0c3f0f0017cdfcf7,86,1,2024-02-27T11:10:38.779Z,english_792.wav,0,peel,400,33,4,5,Français,m,4,0.32341667,-6.58788169,1.18870574
5d726b8a0c3f0f0017cdfcf7,87,1,2024-02-27T11:10:38.779Z,english_687.wav,0,pill,429,33,4,5,Français,m,0,0.0,86.90300909,0.475784
5d726b8a0c3f0f0017cdfcf7,87,1,2024-02-27T11:10:38.779Z,english_687.wav,0,pill,429,33,4,5,Français,m,1,0.1,79.71843279,0.40603367
5d726b8a0c3f0f0017cdfcf7,87,1,2024-02-27T11:10:38.779Z,english_687.wav,0,pill,429,33,4,5,Français,m,2,0.2,34.94433723,0.97706088
5d726b8a0c3f0f0017cdfcf7,87,1,2024-02-27T11:10:38.779Z,english_687.wav,0,pill,429,33,4,5,Français,m,3,0.3,-45.53952821,0.65075382
5d726b8a0c3f0f0017cdfcf7,87,1,2024-02-27T11:10:38.779Z,english_687.wav,0,pill,429,33,4,5,Français,m,4,0.32341667,63.0204093,0.93918167
5d726b8a0c3f0f0017cdfcf7,88,1,2024-02-27T11:10:38.779Z,english_463.wav,0,peel,298,33,4,5,Français,m,0,0.0,-17.89775534,1.84132871
5d726b8a0c3f0f0017cdfcf7,88,1,2024-02-27T11:10:38.779Z,english_463.wav,0,peel,298,33,4,5,Français,m,1,0.1,-21.51631701,1.66361617
5d726b8a0c3f0f0017cdfcf7,88,1,2024-02-27T11:10:38.779Z,english_463.wav,0,peel,298,33,4,5,Français,m,2,0.2,-12.53951077,0.64060514
5d726b8a0c3f0f0017cdfcf7,88,1,2024-02-27T11:10:38.779Z,english_463.wav,0,peel,298,33,4,5,Français,m,3,0.3,33.47501925,1.01091097
5d726b8a0c3f0f0017cdfcf7,88,1,2024-02-27T11:10:38.779Z,english_463.wav,0,peel,298,33,4,5,Français,m,4,0.32341667,-93.09525534,0.69499506
5d726b8a0c3f0f0017cdfcf7,89,1,2024-02-27T11:10:38.779Z,english_356.wav,0,peel,982,33,4,5,Français,m,0,0.0,87.74309864,0.22820547
5d726b8a0c3f0f0017cdfcf7,89,1,2024-02-27T11:10:38.779Z,english_356.wav,0,peel,982,33,4,5,Français,m,1,0.1,-4.48264388,1.49009691
5d726b8a0c3f0f0017cdfcf7,89,1,2024-02-27T11:10:38.779Z,english_356.wav,0,peel,982,33,4,5,Français,m,2,0.2,90.19031952,1.39023362
5d726b8a0c3f0f0017cdfcf7,89,1,2024-02-27T11:10:38.779Z,english_356.wav,0,peel,982,33,4,5,Français,m,3,0.3,-69.40540064,1.78473098
5d726b8a0c3f0f0017cdfcf7,89,1,2024-02-27T11:10:38.779Z,english_356.wav,0,peel,982,33,4,5,Français,m,4,0.32341667,65.10278108,0.80628385
5d726b8a0c3f0f0017cdfcf7,90,1,2024-02-27T11:10:38.779Z,english_86.wav,0,peel,2759,33,4,5,Français,m,0,0.0,-48.59393833,1.45450552
5d726b8a0c3f0f0017cdfcf7,90,1,2024-02-27T11:10:38.779Z,english_86.wav,0,peel,2759,33,4,5,Français,m,1,0.1,77.37095157,1.8635573
5d726b8a0c3f0f0017cdfcf7,90,1,2024-02-27T11:10:38.779Z,english_86.wav,0,peel,2759,33,4,5,Français,m,2,0.2,44.19816726,1.174515
5d726b8a0c3f0f0017cdfcf7,90,1,2024-02-27T11:10:38.779Z,english_86.wav,0,peel,2759,33,4,5,Français,m,3,0.3,-99.780271,1.46785746
5d726b8a0c3f0f0017cdfcf7,90,1,2024-02-27T11:10:38.779Z,english_86.wav,0,peel,2759,33,4,5,Français,m,4,0.32341667,38.96545556,0.99607158
5d726b8a0c3f0f0017cdfcf7,91,1,2024-02-27T11:10:38.779Z,english_381.wav,0,pill,373,33,4,5,Français,m,0,0.0,-64.83599525,0.77808766
5d726b8a0c3f0f0017cdfcf7,91,1,2024-02-27T11:10:38.779Z,english_381.wav,0,pill,373,33,4,5,Français,m,1,0.1,97.61236857,1.62635576
5d726b8a0c3f0f0017cdfcf7,91,1,2024-02-27T11:10:38.779Z,english_381.wav,0,pill,373,33,4,5,Français,m,2,0.2,-60.27157178,0.65298664
5d726b8a0c3f0f0017cdfcf7,91,1,2024-02-27T11:10:38.779Z,english_381.wav,0,pill,373,33,4,5,Français,m,3,0.3,84.45732791,0.46881793
5d726b8a0c3f0f0017cdfcf7,91,1,2024-02-27T11:10:38.779Z,english_381.wav,0,pill,373,33,4,5,Français,m,4,0.32341667,-87.53832291,1.22836965
5d726b8a0c3f0f0017cdfcf7,92,1,2024-02-27T11:10:38.779Z,english_410.wav,0,pill,445,33,4,5,Français,m,0,0.0,-74.64506245,0.42358098
5d726b8a0c3f0f0017cdfcf7,92,1,2024-02-27T11:10:38.779Z,english_410.wav,0,pill,445,33,4,5,Français,m,1,0.1,65.24401488,0.42526697
5d726b8a0c3f0f0017cdfcf7,92,1,2024-02-27T11:10:38.779Z,english_410.wav,0,pill,445,33,4,5,Français,m,2,0.2,-65.86471953,1.12385183
5d726b8a0c3f0f0017cdfcf7,92,1,2024-02-27T11:10:38.779Z,english_410.wav,0,pill,445,33,4,5,Français,m,3,0.3,98.79489106,0.33588109
5d726b8a0c3f0f0017cdfcf7,92,1,2024-02-27T11:10:38.779Z,english_410.wav,0,pill,445,33,4,5,Français,m,4,0.32341667,14.95451541,1.7246864
5d726b8a0c3f0f0017cdfcf7,93,1,2024-02-27T11:10:38.779Z,english_199.wav,0,pill,388,33,4,5,Français,m,0,0.0,-24.89956817,0.07306367
5d726b8a0c3f0f0017cdfcf7,93,1,2024-02-27T11:10:38.779Z,english_199.wav,0,pill,388,33,4,5,Français,m,1,0.1,-48.49200931,0.10334581
5d726b8a0c3f0f0017cdfcf7,93,1,2024-02-27T11:10:38.779Z,english_199.wav,0,pill,388,33,4,5,Français,m,2,0.2,-89.66548778,1.49062114
5d726b8a0c3f0f0017cdfcf7,93,1,2024-02-27T11:10:38.779Z,english_199.wav,0,pill,388,33,4,5,Français,m,3,0.3,29.20785813,0.36717513
5d726b8a0c3f0f0017cdfcf7,93,1,2024-02-27T11:10:38.779Z,english_199.wav,0,pill,388,33,4,5,Français,m,4,0.32341667,-88.68286362,1.33179809
5d726b8a0c3f0f0017cdfcf7,94,1,2024-02-27T11:10:38.779Z,english_16.wav,0,peel,445,33,4,5,Français,m,0,0.0,-86.84797814,0.47796166
5d726b8a0c3f0f0017cdfcf7,94,1,2024-02-27T11:10:38.779Z,english_16.wav,0,peel,445,33,4,5,Français,m,1,0.1,29.78439304,1.82902446
5d726b8a0c3f0f0017cdfcf7,94,1,2024-02-27T11:10:38.779Z,english_16.wav,0,peel,445,33,4,5,Français,m,2,0.2,93.37667148,1.57835565
5d726b8a0c3f0f0017cdfcf7,94,1,2024-02-27T11:10:38.779Z,english_16.wav,0,peel,445,33,4,5,Français,m,3,0.3,-84.28086854,0.98546729
5d726b8a0c3f0f0017cdfcf7,94,1,2024-02-27T11:10:38.779Z,english_16.wav,0,peel,445,33,4,5,Français,m,4,0.32341667,-8.77302982,0.88950072
5d726b8a0c3f0f0017cdfcf7,95,1,2024-02-27T11:10:38.779Z,english_414.wav,0,pill,308,33,4,5,Français,m,0,0.0,19.47839865,0.9434816
5d726b8a0c3f0f0017cdfcf7,95,1,2024-02-27T11:10:38.779Z,english_414.wav,0,pill,308,33,4,5,Français,m,1,0.1,59.9490877,1.1146936
5d726b8a0c3f0f0017cdfcf7,95,1,2024-02-27T11:10:38.779Z,english_414.wav,0,pill,308,33,4,5,Français,m,2,0.2,22.33981162,0.48476454
5d726b8a0c3f0f0017cdfcf7,95,1,2024-02-27T11:10:38.779Z,english_414.wav,0,pill,308,33,4,5,Français,m,3,0.3,18.97426154,0.23554241
5d726b8a0c3f0f0017cdfcf7,95,1,2024-02-27T11:10:38.779Z,english_414.wav,0,pill,308,33,4,5,Français,m,4,0.32341667,15.16306506,1.13007685
5d726b8a0c3f0f0017cdfcf7,96,1,2024-02-27T11:10:38.779Z,english_221.wav,0,pill,2411,33,4,5,Français,m,0,0.0,85.84184869,1.38100565
5d726b8a0c3f0f0017cdfcf7,96,1,2024-02-27T11:10:38.779Z,english_221.wav,0,pill,2411,33,4,5,Français,m,1,0.1,-20.37513589,0.79531516
5d726b8a0c3f0f0017cdfcf7,96,1,2024-02-27T11:10:38.779Z,english_221.wav,0,pill,2411,33,4,5,Français,m,2,0.2,-89.75984637,0.9538446
5d726b8a0c3f0f0017cdfcf7,96,1,2024-02-27T11:10:38.779Z,english_221.wav,0,pill,2411,33,4,5,Français,m,3,0.3,50.66879934,1.56492426
5d726b8a0c3f0f0017cdfcf7,96,1,2024-02-27T11:10:38.779Z,english_221.wav,0,pill,2411,33,4,5,Français,m,4,0.32341667,20.92538743,1.60855456
5d726b8a0c3f0f0017cdfcf7,97,1,2024-02-27T11:10:38.779Z,english_58.wav,0,peel,491,33,4,5,Français,m,0,0.0,20.12478601,1.19415515
5d726b8a0c3f0f0017cdfcf7,97,1,2024-02-27T11:10:38.779Z,english_58.wav,0,peel,491,33,4,5,Français,m,1,0.1,-22.60038942,0.26098942
5d726b8a0c3f0f0017cdfcf7,97,1,2024-02-27T11:10:38.779Z,english_58.wav,0,peel,491,33,4,5,Français,m,2,0.2,34.38627512,1.99195241
5d726b8a0c3f0f0017cdfcf7,97,1,2024-02-27T11:10:38.779Z,english_58.wav,0,peel,491,33,4,5,Français,m,3,0.3,30.90369434,0.42925074
5d726b8a0c3f0f0017cdfcf7,97,1,2024-02-27T11:10:38.779Z,english_58.wav,0,peel,491,33,4,5,Français,m,4,0.32341667,11.39971337,0.50368767
5d726b8a0c3f0f0017cdfcf7,98,1,2024-02-27T11:10:38.779Z,english_440.wav,0,pill,302,33,4,5,Français,m,0,0.0,44.70308901,1.51497438
5d726b8a0c3f0f0017cdfcf7,98,1,2024-02-27T11:10:38.779Z,english_440.wav,0,pill,302,33,4,5,Français,m,1,0.1,-88.0257567,1.05972447
5d726b8a0c3f0f0017cdfcf7,98,1,2024-02-27T11:10:38.779Z,english_440.wav,0,pill,302,33,4,5,Français,m,2,0.2,1.19893433,0.590820378
5d726b8a0c3f0f0017cdfcf7,98,1,2024-02-27T11:10:38.779Z,english_440.wav,0,pill,302,33,4,5,Français,m,3,0.3,19.45485395,0.680586803
5d726b8a0c3f0f0017cdfcf7,98,1,2024-02-27T11:10:38.779Z,english_440.wav,0,pill,302,33,4,5,Français,m,4,0.32341667,13.00088222,0.000618341324
5d726b8a0c3f0f0017cdfcf7,99,1,2024-02-27T11:10:38.779Z,english_197.wav,0,peel,177,33,4,5,Français,m,0,0.0,-60.72223742,1.8449777
5d726b8a0c3f0f0017cdfcf7,99,1,2024-02-27T11:10:38.779Z,english_197.wav,0,peel,177,33,4,5,Français,m,1,0.1,-88.93421142,1.74693134
5d726b8a0c3f0f0017cdfcf7,99,1,2024-02-27T11:10:38.779Z,english_197.wav,0,peel,177,33,4,5,Français,m,2,0.2,51.43827126,1.11057597
5d726b8a0c3f0f0017cdfcf7,99,1,2024-02-27T11:10:38.779Z,english_197.wav,0,peel,177,33,4,5,Français,m,3,0.3,7.80125839,1.67371275
5d726b8a0c3f0f0017cdfcf7,99,1,2024-02-27T11:10:38.779Z,english_197.wav,0,peel,177,33,4,5,Français,m,4,0.32341667,-53.06876459,1.16077516
5d726b8a0c3f0f0017cdfcf7,100,2,2024-02-27T11:10:38.779Z,english_401.wav,0,peel,2191,33,4,5,Français,m,0,0.0,-70.37998858,1.11338134
5d726b8a0c3f0f0017cdfcf7,100,2,2024-02-27T11:10:38.779Z,english_401.wav,0,peel,2191,33,4,5,Français,m,1,0.1,49.27188779,1.59691292
5d726b8a0c3f0f0017cdfcf7,100,2,2024-02-27T11:10:38.779Z,english_401.wav,0,peel,2191,33,4,5,Français,m,2,0.2,5.09566389,0.88679935
5d726b8a0c3f0f0017cdfcf7,100,2,2024-02-27T11:10:38.779Z,english_401.wav,0,peel,2191,33,4,5,Français,m,3,0.3,58.42368176,1.89749174
5d726b8a0c3f0f0017cdfcf7,100,2,2024-02-27T11:10:38.779Z,english_401.wav,0,peel,2191,33,4,5,Français,m,4,0.32341667,-43.06407799,1.35831765
5d726b8a0c3f0f0017cdfcf7,101,2,2024-02-27T11:10:38.779Z,english_370.wav,0,pill,401,33,4,5,Français,m,0,0.0,-90.17078727,0.17796458
5d726b8a0c3f0f0017cdfcf7,101,2,2024-02-27T11:10:38.779Z,english_370.wav,0,pill,401,33,4,5,Français,m,1,0.1,-71.99280791,1.08934715
5d726b8a0c3f0f0017cdfcf7,101,2,2024-02-27T11:10:38.779Z,english_370.wav,0,pill,401,33,4,5,Français,m,2,0.2,-13.60727202,1.05914244
5d726b8a0c3f0f0017cdfcf7,101,2,2024-02-27T11:10:38.779Z,english_370.wav,0,pill,401,33,4,5,Français,m,3,0.3,-0.93192742,1.87852505
5d726b8a0c3f0f0017cdfcf7,101,2,2024-02-27T11:10:38.779Z,english_370.wav,0,pill,401,33,4,5,Français,m,4,0.32341667,33.27852394,1.24161401
5d726b8a0c3f0f0017cdfcf7,102,2,2024-02-27T11:10:38.779Z,english_629.wav,0,pill,484,33,4,5,Français,m,0,0.0,76.68747977,0.56482572
5d726b8a0c3f0f0017cdfcf7,102,2,2024-02-27T11:10:38.779Z,english_629.wav,0,pill,484,33,4,5,Français,m,1,0.1,72.0676039,0.14075004
5d726b8a0c3f0f0017cdfcf7,102,2,2024-02-27T11:10:38.779Z,english_629.wav,0,pill,484,33,4,5,Français,m,2,0.2,-3.42071834,0.80885654
5d726b8a0c3f0f0017cdfcf7,102,2,2024-02-27T11:10:38.779Z,english_629.wav,0,pill,484,33,4,5,Français,m,3,0.3,-75.36993348,1.43133267
5d726b8a0c3f0f0017cdfcf7,102,2,2024-02-27T11:10:38.779Z,english_629.wav,0,pill,484,33,4,5,Français,m,4,0.32341667,-15.4233884,0.14234351
5d726b8a0c3f0f0017cdfcf7,103,2,2024-02-27T11:10:38.779Z,english_460.wav,0,peel,1734,33,4,5,Français,m,0,0.0,-93.21492338,1.97422145
5d726b8a0c3f0f0017cdfcf7,103,2,2024-02-27T11:10:38.779Z,english_460.wav,0,peel,1734,33,4,5,Français,m,1,0.1,-65.59669931,0.48313428
5d726b8a0c3f0f0017cdfcf7,103,2,2024-02-27T11:10:38.779Z,english_460.wav,0,peel,1734,33,4,5,Français,m,2,0.2,76.47030005,0.91916034
5d726b8a0c3f0f0017cdfcf7,103,2,2024-02-27T11:10:38.779Z,english_460.wav,0,peel,1734,33,4,5,Français,m,3,0.3,-24.62267943,0.34121923
5d726b8a0c3f0f0017cdfcf7,103,2,2024-02-27T11:10:38.779Z,english_460.wav,0,peel,1734,33,4,5,Français,m,4,0.32341667,17.6428759,0.75894887
5d726b8a0c3f0f0017cdfcf7,104,2,2024-02-27T11:10:38.779Z,english_341.wav,0,pill,935,33,4,5,Français,m,0,0.0,-3.29192029,0.92007635
5d726b8a0c3f0f0017cdfcf7,104,2,2024-02-27T11:10:38.779Z,english_341.wav,0,pill,935,33,4,5,Français,m,1,0.1,-63.07334109,0.76766635
5d726b8a0c3f0f0017cdfcf7,104,2,2024-02-27T11:10:38.779Z,english_341.wav,0,pill,935,33,4,5,Français,m,2,0.2,-52.81319379,0.00478881
5d726b8a0c3f0f0017cdfcf7,104,2,2024-02-27T11:10:38.779Z,english_341.wav,0,pill,935,33,4,5,Français,m,3,0.3,47.65296252,0.69804387
5d726b8a0c3f0f0017cdfcf7,104,2,2024-02-27T11:10:38.779Z,english_341.wav,0,pill,935,33,4,5,Français,m,4,0.32341667,-2.67842738,0.15231077
5d726b8a0c3f0f0017cdfcf7,105,2,2024-02-27T11:10:38.779Z,english_542.wav,0,peel,523,33,4,5,Français,m,0,0.0,-75.53633957,0.40538048
5d726b8a0c3f0f0017cdfcf7,105,2,2024-02-27T11:10:38.779Z,english_542.wav,0,peel,523,33,4,5,Français,m,1,0.1,-65.83593262,1.98560632
5d726b8a0c3f0f0017cdfcf7,105,2,2024-02-27T11:10:38.779Z,english_542.wav,0,peel,523,33,4,5,Français,m,2,0.2,-66.8010443,1.18970355
5d726b8a0c3f0f0017cdfcf7,105,2,2024-02-27T11:10:38.779Z,english_542.wav,0,peel,523,33,4,5,Français,m,3,0.3,89.94318033,1.00543009
5d726b8a0c3f0f0017cdfcf7,105,2,2024-02-27T11:10:38.779Z,english_542.wav,0,peel,523,33,4,5,Français,m,4,0.32341667,-28.80984484,1.15995836
5d726b8a0c3f0f0017cdfcf7,106,2,2024-02-27T11:10:38.779Z,english_540.wav,0,pill,592,33,4,5,Français,m,0,0.0,-46.6752609,1.16352469
5d726b8a0c3f0f0017cdfcf7,106,2,2024-02-27T11:10:38.779Z,english_540.wav,0,pill,592,33,4,5,Français,m,1,0.1,-93.20209644,0.0234781
5d726b8a0c3f0f0017cdfcf7,106,2,2024-02-27T11:10:38.779Z,english_540.wav,0,pill,592,33,4,5,Français,m,2,0.2,64.96419662,0.05926191
5d726b8a0c3f0f0017cdfcf7,106,2,2024-02-27T11:10:38.779Z,english_540.wav,0,pill,592,33,4,5,Français,m,3,0.3,-12.16484387,1.47406284
5d726b8a0c3f0f0017cdfcf7,106,2,2024-02-27T11:10:38.779Z,english_540.wav,0,pill,592,33,4,5,Français,m,4,0.32341667,-44.34688232,0.60104864
5d726b8a0c3f0f0017cdfcf7,107,2,2024-02-27T11:10:38.779Z,english_76.wav,0,pill,3072,33,4,5,Français,m,0,0.0,24.78743387,1.26829138
5d726b8a0c3f0f0017cdfcf7,107,2,2024-02-27T11:10:38.779Z,english_76.wav,0,pill,3072,33,4,5,Français,m,1,0.1,-7.95135802,1.4446717
5d726b8a0c3f0f0017cdfcf7,107,2,2024-02-27T11:10:38.779Z,english_76.wav,0,pill,3072,33,4,5,Français,m,2,0.2,-9.56689875,0.88177173
5d726b8a0c3f0f0017cdfcf7,107,2,2024-02-27T11:10:38.779Z,english_76.wav,0,pill,3072,33,4,5,Français,m,3,0.3,-78.25819759,1.63003096
5d726b8a0c3f0f0017cdfcf7,107,2,2024-02-27T11:10:38.779Z,english_76.wav,0,pill,3072,33,4,5,Français,m,4,0.32341667,26.4311908,1.97074408
5d726b8a0c3f0f0017cdfcf7,108,2,2024-02-27T11:10:38.779Z,english_276.wav,0,peel,1458,33,4,5,Français,m,0,0.0,-87.25523595,1.1918401
5d726b8a0c3f0f0017cdfcf7,108,2,2024-02-27T11:10:38.779Z,english_276.wav,0,peel,1458,33,4,5,Français,m,1,0.1,16.91650801,0.89399115
5d726b8a0c3f0f0017cdfcf7,108,2,2024-02-27T11:10:38.779Z,english_276.wav,0,peel,1458,33,4,5,Français,m,2,0.2,-40.09372932,0.89701806
5d726b8a0c3f0f0017cdfcf7,108,2,2024-02-27T11:10:38.779Z,english_276.wav,0,peel,1458,33,4,5,Français,m,3,0.3,3.19229046,1.98333504
5d726b8a0c3f0f0017cdfcf7,108,2,2024-02-27T11:10:38.779Z,english_276.wav,0,peel,1458,33,4,5,Français,m,4,0.32341667,18.84785296,1.85350493
5d726b8a0c3f0f0017cdfcf7,109,2,2024-02-27T11:10:38.779Z,english_159.wav,0,pill,1437,33,4,5,Français,m,0,0.0,-83.7072706,0.09138871
5d726b8a0c3f0f0017cdfcf7,109,2,2024-02-27T11:10:38.779Z,english_159.wav,0,pill,1437,33,4,5,Français,m,1,0.1,-62.69238784,0.63335487
5d726b8a0c3f0f0017cdfcf7,109,2,2024-02-27T11:10:38.779Z,english_159.wav,0,pill,1437,33,4,5,Français,m,2,0.2,22.09248507,1.23550763
5d726b8a0c3f0f0017cdfcf7,109,2,2024-02-27T11:10:38.779Z,english_159.wav,0,pill,1437,33,4,5,Français,m,3,0.3,-80.94681782,1.83356136
5d726b8a0c3f0f0017cdfcf7,109,2,2024-02-27T11:10:38.779Z,english_159.wav,0,pill,1437,33,4,5,Français,m,4,0.32341667,-55.76861956,0.76796393
5d726b8a0c3f0f0017cdfcf7,110,2,2024-02-27T11:10:38.779Z,english_986.wav,0,peel,1057,33,4,5,Français,m,0,0.0,36.93997263,1.7539978
5d726b8a0c3f0f0017cdfcf7,110,2,2024-02-27T11:10:38.779Z,english_986.wav,0,peel,1057,33,4,5,Français,m,1,0.1,-76.80061303,1.40735445
5d726b8a0c3f0f0017cdfcf7,110,2,2024-02-27T11:10:38.779Z,english_986.wav,0,peel,1057,33,4,5,Français,m,2,0.2,60.8418497,0.62226098
5d726b8a0c3f0f0017cdfcf7,110,2,2024-02-27T11:10:38.779Z,english_986.wav,0,peel,1057,33,4,5,Français,m,3,0.3,-27.90828951,0.48175931
5d726b8a0c3f0f0017cdfcf7,110,2,2024-02-27T11:10:38.779Z,english_986.wav,0,peel,1057,33,4,5,Français,m,4,0.32341667,99.51838141,1.5918282
5d726b8a0c3f0f0017cdfcf7,111,2,2024-02-27T11:10:38.779Z,english_104.wav,0,peel,1710,33,4,5,Français,m,0,0.0,42.44693926,0.1741435
5d726b8a0c3f0f0017cdfcf7,111,2,2024-02-27T11:10:38.779Z,english_104.wav,0,peel,1710,33,4,5,Français,m,1,0.1,82.22484934,0.11379641
5d726b8a0c3f0f0017cdfcf7,111,2,2024-02-27T11:10:38.779Z,english_104.wav,0,peel,1710,33,4,5,Français,m,2,0.2,7.21737924,1.60376175
5d726b8a0c3f0f0017cdfcf7,111,2,2024-02-27T11:10:38.779Z,english_104.wav,0,peel,1710,33,4,5,Français,m,3,0.3,26.54640215,1.08059257
5d726b8a0c3f0f0017cdfcf7,111,2,2024-02-27T11:10:38.779Z,english_104.wav,0,peel,1710,33,4,5,Français,m,4,0.32341667,-33.4974026,1.8061622
5d726b8a0c3f0f0017cdfcf7,112,2,2024-02-27T11:10:38.779Z,english_150.wav,0,pill,1467,33,4,5,Français,m,0,0.0,-51.77489255,0.6625495
5d726b8a0c3f0f0017cdfcf7,112,2,2024-02-27T11:10:38.779Z,english_150.wav,0,pill,1467,33,4,5,Français,m,1,0.1,16.7322824,1.26353984
5d726b8a0c3f0f0017cdfcf7,112,2,2024-02-27T11:10:38.779Z,english_150.wav,0,pill,1467,33,4,5,Français,m,2,0.2,-56.19561079,0.38378194
5d726b8a0c3f0f0017cdfcf7,112,2,2024-02-27T11:10:38.779Z,english_150.wav,0,pill,1467,33,4,5,Français,m,3,0.3,36.81691324,1.59154348
5d726b8a0c3f0f0017cdfcf7,112,2,2024-02-27T11:10:38.779Z,english_150.wav,0,pill,1467,33,4,5,Français,m,4,0.32341667,-97.11243964,0.94821753
5d726b8a0c3f0f0017cdfcf7,113,2,2024-02-27T11:10:38.779Z,english_652.wav,0,pill,675,33,4,5,Français,m,0,0.0,4.27736911,0.30427218
5d726b8a0c3f0f0017cdfcf7,113,2,2024-02-27T11:10:38.779Z,english_652.wav,0,pill,675,33,4,5,Français,m,1,0.1,18.79087972,0.67520162
5d726b8a0c3f0f0017cdfcf7,113,2,2024-02-27T11:10:38.779Z,english_652.wav,0,pill,675,33,4,5,Français,m,2,0.2,61.32163128,0.66270689
5d726b8a0c3f0f0017cdfcf7,113,2,2024-02-27T11:10:38.779Z,english_652.wav,0,pill,675,33,4,5,Français,m,3,0.3,45.76092148,0.93987847
5d726b8a0c3f0f0017cdfcf7,113,2,2024-02-27T11:10:38.779Z,english_652.wav,0,pill,675,33,4,5,Français,m,4,0.32341667,-45.08671386,1.10617978
5d726b8a0c3f0f0017cdfcf7,114,2,2024-02-27T11:10:38.779Z,english_835.wav,0,peel,1420,33,4,5,Français,m,0,0.0,-14.38506183,1.1584592
5d726b8a0c3f0f0017cdfcf7,114,2,2024-02-27T11:10:38.779Z,english_835.wav,0,peel,1420,33,4,5,Français,m,1,0.1,-85.63264453,0.74788643
5d726b8a0c3f0f0017cdfcf7,114,2,2024-02-27T11:10:38.779Z,english_835.wav,0,peel,1420,33,4,5,Français,m,2,0.2,-9.08737486,0.99645811
5d726b8a0c3f0f0017cdfcf7,114,2,2024-02-27T11:10:38.779Z,english_835.wav,0,peel,1420,33,4,5,Français,m,3,0.3,-52.4382226,1.13057998
5d726b8a0c3f0f0017cdfcf7,114,2,2024-02-27T11:10:38.779Z,english_835.wav,0,peel,1420,33,4,5,Français,m,4,0.32341667,30.89255677,0.17868889
5d726b8a0c3f0f0017cdfcf7,115,2,2024-02-27T11:10:38.779Z,english_702.wav,0,pill,1440,33,4,5,Français,m,0,0.0,-19.6614881,1.13820402
5d726b8a0c3f0f0017cdfcf7,115,2,2024-02-27T11:10:38.779Z,english_702.wav,0,pill,1440,33,4,5,Français,m,1,0.1,-92.60133235,1.47755069
5d726b8a0c3f0f0017cdfcf7,115,2,2024-02-27T11:10:38.779Z,english_702.wav,0,pill,1440,33,4,5,Français,m,2,0.2,-18.01071493,1.33705675
5d726b8a0c3f0f0017cdfcf7,115,2,2024-02-27T11:10:38.779Z,english_702.wav,0,pill,1440,33,4,5,Français,m,3,0.3,91.54675011,0.59768286
5d726b8a0c3f0f0017cdfcf7,115,2,2024-02-27T11:10:38.779Z,english_702.wav,0,pill,1440,33,4,5,Français,m,4,0.32341667,23.09112348,0.82103567
5d726b8a0c3f0f0017cdfcf7,116,2,2024-02-27T11:10:38.779Z,english_462.wav,0,peel,526,33,4,5,Français,m,0,0.0,-35.73318704,1.53267708
5d726b8a0c3f0f0017cdfcf7,116,2,2024-02-27T11:10:38.779Z,english_462.wav,0,peel,526,33,4,5,Français,m,1,0.1,-5.65949109,1.98369384
5d726b8a0c3f0f0017cdfcf7,116,2,2024-02-27T11:10:38.779Z,english_462.wav,0,peel,526,33,4,5,Français,m,2,0.2,-49.47542688,1.31270994
5d726b8a0c3f0f0017cdfcf7,116,2,2024-02-27T11:10:38.779Z,english_462.wav,0,peel,526,33,4,5,Français,m,3,0.3,-98.18570674,1.26289606
5d726b8a0c3f0f0017cdfcf7,116,2,2024-02-27T11:10:38.779Z,english_462.wav,0,peel,526,33,4,5,Français,m,4,0.32341667,-16.34927785,1.36496903
5d726b8a0c3f0f0017cdfcf7,117,2,2024-02-27T11:10:38.779Z,english_190.wav,0,pill,2583,33,4,5,Français,m,0,0.0,81.66607819,0.126715216
5d726b8a0c3f0f0017cdfcf7,117,2,2024-02-27T11:10:38.779Z,english_190.wav,0,pill,2583,33,4,5,Français,m,1,0.1,-14.16938067,0.000178349903
5d726b8a0c3f0f0017cdfcf7,117,2,2024-02-27T11:10:38.779Z,english_190.wav,0,pill,2583,33,4,5,Français,m,2,0.2,15.7443745,1.35192229
5d726b8a0c3f0f0017cdfcf7,117,2,2024-02-27T11:10:38.779Z,english_190.wav,0,pill,2583,33,4,5,Français,m,3,0.3,85.77694093,1.08905811
5d726b8a0c3f0f0017cdfcf7,117,2,2024-02-27T11:10:38.779Z,english_190.wav,0,pill,2583,33,4,5,Français,m,4,0.32341667,33.21115004,1.75580408
5d726b8a0c3f0f0017cdfcf7,118,2,2024-02-27T11:10:38.779Z,english_115.wav,0,pill,1319,33,4,5,Français,m,0,0.0,-6.4126324,0.37361158
5d726b8a0c3f0f0017cdfcf7,118,2,2024-02-27T11:10:38.779Z,english_115.wav,0,pill,1319,33,4,5,Français,m,1,0.1,-78.70213007,1.5865766
5d726b8a0c3f0f0017cdfcf7,118,2,2024-02-27T11:10:38.779Z,english_115.wav,0,pill,1319,33,4,5,Français,m,2,0.2,-0.36204046,1.00360432
5d726b8a0c3f0f0017cdfcf7,118,2,2024-02-27T11:10:38.779Z,english_115.wav,0,pill,1319,33,4,5,Français,m,3,0.3,-47.97210547,1.3933449
5d726b8a0c3f0f0017cdfcf7,118,2,2024-02-27T11:10:38.779Z,english_115.wav,0,pill,1319,33,4,5,Français,m,4,0.32341667,3.06964689,1.1205092
5d726b8a0c3f0f0017cdfcf7,119,2,2024-02-27T11:10:38.779Z,english_546.wav,0,pill,1520,33,4,5,Français,m,0,0.0,81.21590514,1.56657823
5d726b8a0c3f0f0017cdfcf7,119,2,2024-02-27T11:10:38.779Z,english_546.wav,0,pill,1520,33,4,5,Français,m,1,0.1,75.01018689,0.84038259
5d726b8a0c3f0f0017cdfcf7,119,2,2024-02-27T11:10:38.779Z,english_546.wav,0,pill,1520,33,4,5,Français,m,2,0.2,15.56226302,0.00684501
5d726b8a0c3f0f0017cdfcf7,119,2,2024-02-27T11:10:38.779Z,english_546.wav,0,pill,1520,33,4,5,Français,m,3,0.3,48.30886192,1.68157273
5d726b8a0c3f0f0017cdfcf7,119,2,2024-02-27T11:10:38.779Z,english_546.wav,0,pill,1520,33,4,5,Français,m,4,0.32341667,18.80923499,1.09409739
5d726b8a0c3f0f0017cdfcf7,120,2,2024-02-27T11:10:38.779Z,english_526.wav,0,pill,1314,33,4,5,Français,m,0,0.0,-32.34532461,0.924261
5d726b8a0c3f0f0017cdfcf7,120,2,2024-02-27T11:10:38.779Z,english_526.wav,0,pill,1314,33,4,5,Français,m,1,0.1,-46.6208459,0.25414499
5d726b8a0c3f0f0017cdfcf7,120,2,2024-02-27T11:10:38.779Z,english_526.wav,0,pill,1314,33,4,5,Français,m,2,0.2,-42.84927068,1.01925886
5d726b8a0c3f0f0017cdfcf7,120,2,2024-02-27T11:10:38.779Z,english_526.wav,0,pill,1314,33,4,5,Français,m,3,0.3,3.47643827,0.65966822
5d726b8a0c3f0f0017cdfcf7,120,2,2024-02-27T11:10:38.779Z,english_526.wav,0,pill,1314,33,4,5,Français,m,4,0.32341667,52.79087598,1.50872035
5d726b8a0c3f0f0017cdfcf7,121,2,2024-02-27T11:10:38.779Z,english_423.wav,0,peel,482,33,4,5,Français,m,0,0.0,48.83941012,1.35290702
5d726b8a0c3f0f0017cdfcf7,121,2,2024-02-27T11:10:38.779Z,english_423.wav,0,peel,482,33,4,5,Français,m,1,0.1,26.57948938,1.33919202
5d726b8a0c3f0f0017cdfcf7,121,2,2024-02-27T11:10:38.779Z,english_423.wav,0,peel,482,33,4,5,Français,m,2,0.2,56.70545245,1.37149513
5d726b8a0c3f0f0017cdfcf7,121,2,2024-02-27T11:10:38.779Z,english_423.wav,0,peel,482,33,4,5,Français,m,3,0.3,-62.41131033,1.11357765
5d726b8a0c3f0f0017cdfcf7,121,2,2024-02-27T11:10:38.779Z,english_423.wav,0,peel,482,33,4,5,Français,m,4,0.32341667,78.49803502,1.20699722
5d726b8a0c3f0f0017cdfcf7,122,2,2024-02-27T11:10:38.779Z,english_193.wav,0,peel,708,33,4,5,Français,m,0,0.0,98.63199606,1.10219899
5d726b8a0c3f0f0017cdfcf7,122,2,2024-02-27T11:10:38.779Z,english_193.wav,0,peel,708,33,4,5,Français,m,1,0.1,38.06859183,1.75752318
5d726b8a0c3f0f0017cdfcf7,122,2,2024-02-27T11:10:38.779Z,english_193.wav,0,peel,708,33,4,5,Français,m,2,0.2,58.19309996,1.8701857
5d726b8a0c3f0f0017cdfcf7,122,2,2024-02-27T11:10:38.779Z,english_193.wav,0,peel,708,33,4,5,Français,m,3,0.3,70.68425501,1.90449871
5d726b8a0c3f0f0017cdfcf7,122,2,2024-02-27T11:10:38.779Z,english_193.wav,0,peel,708,33,4,5,Français,m,4,0.32341667,89.06926868,1.70479661
5d726b8a0c3f0f0017cdfcf7,123,2,2024-02-27T11:10:38.779Z,english_411.wav,0,pill,817,33,4,5,Français,m,0,0.0,75.357241,0.83773649
5d726b8a0c3f0f0017cdfcf7,123,2,2024-02-27T11:10:38.779Z,english_411.wav,0,pill,817,33,4,5,Français,m,1,0.1,-55.75688593,0.80885485
5d726b8a0c3f0f0017cdfcf7,123,2,2024-02-27T11:10:38.779Z,english_411.wav,0,pill,817,33,4,5,Français,m,2,0.2,61.10111178,0.61144368
5d726b8a0c3f0f0017cdfcf7,123,2,2024-02-27T11:10:38.779Z,english_411.wav,0,pill,817,33,4,5,Français,m,3,0.3,90.25367142,0.73863407
5d726b8a0c3f0f0017cdfcf7,123,2,2024-02-27T11:10:38.779Z,english_411.wav,0,pill,817,33,4,5,Français,m,4,0.32341667,26.85831553,0.4624235
5d726b8a0c3f0f0017cdfcf7,124,2,2024-02-27T11:10:38.779Z,english_622.wav,0,pill,3235,33,4,5,Français,m,0,0.0,-46.49267806,1.425187
5d726b8a0c3f0f0017cdfcf7,124,2,2024-02-27T11:10:38.779Z,english_622.wav,0,pill,3235,33,4,5,Français,m,1,0.1,-80.07623079,0.61910367
5d726b8a0c3f0f0017cdfcf7,124,2,2024-02-27T11:10:38.779Z,english_622.wav,0,pill,3235,33,4,5,Français,m,2,0.2,-28.70131311,1.30297951
5d726b8a0c3f0f0017cdfcf7,124,2,2024-02-27T11:10:38.779Z,english_622.wav,0,pill,3235,33,4,5,Français,m,3,0.3,-26.89352847,1.73248838
5d726b8a0c3f0f0017cdfcf7,124,2,2024-02-27T11:10:38.779Z,english_622.wav,0,pill,3235,33,4,5,Français,m,4,0.32341667,-24.31243398,0.85523545
5d726b8a0c3f0f0017cdfcf7,125,2,2024-02-27T11:10:38.779Z,english_565.wav,0,peel,1429,33,4,5,Français,m,0,0.0,-89.95965492,1.93181176
5d726b8a0c3f0f0017cdfcf7,125,2,2024-02-27T11:10:38.779Z,english_565.wav,0,peel,1429,33,4,5,Français,m,1,0.1,67.55938023,1.29027557
5d726b8a0c3f0f0017cdfcf7,125,2,2024-02-27T11:10:38.779Z,english_565.wav,0,peel,1429,33,4,5,Français,m,2,0.2,26.6208604,0.36054668
5d726b8a0c3f0f0017cdfcf7,125,2,2024-02-27T11:10:38.779Z,english_565.wav,0,peel,1429,33,4,5,Français,m,3,0.3,-54.20230035,1.25973455
5d726b8a0c3f0f0017cdfcf7,125,2,2024-02-27T11:10:38.779Z,english_565.wav,0,peel,1429,33,4,5,Français,m,4,0.32341667,-98.16020256,0.92743077
5d726b8a0c3f0f0017cdfcf7,126,2,2024-02-27T11:10:38.779Z,english_119.wav,0,pill,967,33,4,5,Français,m,0,0.0,-72.13623542,1.33116293
5d726b8a0c3f0f0017cdfcf7,126,2,2024-02-27T11:10:38.779Z,english_119.wav,0,pill,967,33,4,5,Français,m,1,0.1,-47.93500709,0.14257244
5d726b8a0c3f0f0017cdfcf7,126,2,2024-02-27T11:10:38.779Z,english_119.wav,0,pill,967,33,4,5,Français,m,2,0.2,91.39212861,1.10285667
5d726b8a0c3f0f0017cdfcf7,126,2,2024-02-27T11:10:38.779Z,english_119.wav,0,pill,967,33,4,5,Français,m,3,0.3,-4.62561099,0.57572872
5d726b8a0c3f0f0017cdfcf7,126,2,2024-02-27T11:10:38.779Z,english_119.wav,0,pill,967,33,4,5,Français,m,4,0.32341667,-33.86599352,1.36512269
5d726b8a0c3f0f0017cdfcf7,127,2,2024-02-27T11:10:38.779Z,english_172.wav,0,pill,856,33,4,5,Français,m,0,0.0,8.59493981,0.93080222
5d726b8a0c3f0f0017cdfcf7,127,2,2024-02-27T11:10:38.779Z,english_172.wav,0,pill,856,33,4,5,Français,m,1,0.1,-56.34346079,0.53387901
5d726b8a0c3f0f0017cdfcf7,127,2,2024-02-27T11:10:38.779Z,english_172.wav,0,pill,856,33,4,5,Français,m,2,0.2,-95.76423912,0.34406097
5d726b8a0c3f0f0017cdfcf7,127,2,2024-02-27T11:10:38.779Z,english_172.wav,0,pill,856,33,4,5,Français,m,3,0.3,11.69646411,0.74935371
5d726b8a0c3f0f0017cdfcf7,127,2,2024-02-27T11:10:38.779Z,english_172.wav,0,pill,856,33,4,5,Français,m,4,0.32341667,-55.10661496,0.42041327
5d726b8a0c3f0f0017cdfcf7,128,2,2024-02-27T11:10:38.779Z,english_453.wav,0,pill,2533,33,4,5,Français,m,0,0.0,-60.23429987,1.87756573
5d726b8a0c3f0f0017cdfcf7,128,2,2024-02-27T11:10:38.779Z,english_453.wav,0,pill,2533,33,4,5,Français,m,1,0.1,80.38725697,0.94070469
5d726b8a0c3f0f0017cdfcf7,128,2,2024-02-27T11:10:38.779Z,english_453.wav,0,pill,2533,33,4,5,Français,m,2,0.2,66.16689695,1.71191258
5d726b8a0c3f0f0017cdfcf7,128,2,2024-02-27T11:10:38.779Z,english_453.wav,0,pill,2533,33,4,5,Français,m,3,0.3,-59.46214637,0.56012011
5d726b8a0c3f0f0017cdfcf7,128,2,2024-02-27T11:10:38.779Z,english_453.wav,0,pill,2533,33,4,5,Français,m,4,0.32341667,-39.76201882,0.35119419
5d726b8a0c3f0f0017cdfcf7,129,2,2024-02-27T11:10:38.779Z,english_467.wav,0,pill,907,33,4,5,Français,m,0,0.0,-0.54983343,1.824027
5d726b8a0c3f0f0017cdfcf7,129,2,2024-02-27T11:10:38.779Z,english_467.wav,0,pill,907,33,4,5,Français,m,1,0.1,-84.54516502,1.06295632
5d726b8a0c3f0f0017cdfcf7,129,2,2024-02-27T11:10:38.779Z,english_467.wav,0,pill,907,33,4,5,Français,m,2,0.2,54.30123894,1.09976952
5d726b8a0c3f0f0017cdfcf7,129,2,2024-02-27T11:10:38.779Z,english_467.wav,0,pill,907,33,4,5,Français,m,3,0.3,-82.00368026,1.11766566
5d726b8a0c3f0f0017cdfcf7,129,2,2024-02-27T11:10:38.779Z,english_467.wav,0,pill,907,33,4,5,Français,m,4,0.32341667,-54.10816942,0.44824559
5d726b8a0c3f0f0017cdfcf7,130,2,2024-02-27T11:10:38.779Z,english_760.wav,0,pill,2261,33,4,5,Français,m,0,0.0,24.3902693,0.67210823
5d726b8a0c3f0f0017cdfcf7,130,2,2024-02-27T11:10:38.779Z,english_760.wav,0,pill,2261,33,4,5,Français,m,1,0.1,-0.0247174936,1.89588113
5d726b8a0c3f0f0017cdfcf7,130,2,2024-02-27T11:10:38.779Z,english_760.wav,0,pill,2261,33,4,5,Français,m,2,0.2,82.8662613,0.23432987
5d726b8a0c3f0f0017cdfcf7,130,2,2024-02-27T11:10:38.779Z,english_760.wav,0,pill,2261,33,4,5,Français,m,3,0.3,-7.97314524,1.20797246
5d726b8a0c3f0f0017cdfcf7,130,2,2024-02-27T11:10:38.779Z,english_760.wav,0,pill,2261,33,4,5,Français,m,4,0.323416667,-6.32438983,1.72866971
5d726b8a0c3f0f0017cdfcf7,131,2,2024-02-27T11:10:38.779Z,english_319.wav,0,peel,3587,33,4,5,Français,m,0,0.0,-84.37928886,1.17141126
5d726b8a0c3f0f0017cdfcf7,131,2,2024-02-27T11:10:38.779Z,english_319.wav,0,peel,3587,33,4,5,Français,m,1,0.1,-52.76931383,1.13741792
5d726b8a0c3f0f0017cdfcf7,131,2,2024-02-27T11:10:38.779Z,english_319.wav,0,peel,3587,33,4,5,Français,m,2,0.2,56.06390533,0.91618882
5d726b8a0c3f0f0017cdfcf7,131,2,2024-02-27T11:10:38.779Z,english_319.wav,0,peel,3587,33,4,5,Français,m,3,0.3,-69.46438111,0.7080153
5d726b8a0c3f0f0017cdfcf7,131,2,2024-02-27T11:10:38.779Z,english_319.wav,0,peel,3587,33,4,5,Français,m,4,0.32341667,91.86152445,0.5910213
5d726b8a0c3f0f0017cdfcf7,132,2,2024-02-27T11:10:38.779Z,english_406.wav,0,pill,4795,33,4,5,Français,m,0,0.0,28.09923375,1.43312072
5d726b8a0c3f0f0017cdfcf7,132,2,2024-02-27T11:10:38.779Z,english_406.wav,0,pill,4795,33,4,5,Français,m,1,0.1,-15.10813675,0.8890381
5d726b8a0c3f0f0017cdfcf7,132,2,2024-02-27T11:10:38.779Z,english_406.wav,0,pill,4795,33,4,5,Français,m,2,0.2,-12.43931725,0.60560557
5d726b8a0c3f0f0017cdfcf7,132,2,2024-02-27T11:10:38.779Z,english_406.wav,0,pill,4795,33,4,5,Français,m,3,0.3,-27.33468297,1.13565345
5d726b8a0c3f0f0017cdfcf7,132,2,2024-02-27T11:10:38.779Z,english_406.wav,0,pill,4795,33,4,5,Français,m,4,0.32341667,-62.66931892,1.8467177
5d726b8a0c3f0f0017cdfcf7,133,2,2024-02-27T11:10:38.779Z,english_274.wav,0,peel,1852,33,4,5,Français,m,0,0.0,-30.61452779,0.78021116
5d726b8a0c3f0f0017cdfcf7,133,2,2024-02-27T11:10:38.779Z,english_274.wav,0,peel,1852,33,4,5,Français,m,1,0.1,-42.14612233,1.93993358
5d726b8a0c3f0f0017cdfcf7,133,2,2024-02-27T11:10:38.779Z,english_274.wav,0,peel,1852,33,4,5,Français,m,2,0.2,32.00602795,0.32963606
5d726b8a0c3f0f0017cdfcf7,133,2,2024-02-27T11:10:38.779Z,english_274.wav,0,peel,1852,33,4,5,Français,m,3,0.3,-37.74375581,1.46133782
5d726b8a0c3f0f0017cdfcf7,133,2,2024-02-27T11:10:38.779Z,english_274.wav,0,peel,1852,33,4,5,Français,m,4,0.32341667,-54.5397802,1.53178785
5d726b8a0c3f0f0017cdfcf7,134,2,2024-02-27T11:10:38.779Z,english_964.wav,0,pill,411,33,4,5,Français,m,0,0.0,11.04708611,0.74384055
5d726b8a0c3f0f0017cdfcf7,134,2,2024-02-27T11:10:38.779Z,english_964.wav,0,pill,411,33,4,5,Français,m,1,0.1,-10.67848967,0.46038505
5d726b8a0c3f0f0017cdfcf7,134,2,2024-02-27T11:10:38.779Z,english_964.wav,0,pill,411,33,4,5,Français,m,2,0.2,64.95328634,0.80934661
5d726b8a0c3f0f0017cdfcf7,134,2,2024-02-27T11:10:38.779Z,english_964.wav,0,pill,411,33,4,5,Français,m,3,0.3,-78.10341524,1.94282647
5d726b8a0c3f0f0017cdfcf7,134,2,2024-02-27T11:10:38.779Z,english_964.wav,0,pill,411,33,4,5,Français,m,4,0.32341667,-48.61651995,1.99482071
5d726b8a0c3f0f0017cdfcf7,135,2,2024-02-27T11:10:38.779Z,english_454.wav,0,peel,3507,33,4,5,Français,m,0,0.0,-98.00335762,0.93958317
5d726b8a0c3f0f0017cdfcf7,135,2,2024-02-27T11:10:38.779Z,english_454.wav,0,peel,3507,33,4,5,Français,m,1,0.1,-44.25936911,1.42755355
5d726b8a0c3f0f0017cdfcf7,135,2,2024-02-27T11:10:38.779Z,english_454.wav,0,peel,3507,33,4,5,Français,m,2,0.2,-49.70952942,0.6160235
5d726b8a0c3f0f0017cdfcf7,135,2,2024-02-27T11:10:38.779Z,english_454.wav,0,peel,3507,33,4,5,Français,m,3,0.3,-16.66945989,1.95370106
5d726b8a0c3f0f0017cdfcf7,135,2,2024-02-27T11:10:38.779Z,english_454.wav,0,peel,3507,33,4,5,Français,m,4,0.32341667,16.63176458,0.26107778
5d726b8a0c3f0f0017cdfcf7,136,2,2024-02-27T11:10:38.779Z,english_499.wav,0,peel,477,33,4,5,Français,m,0,0.0,-62.75547094,0.4212983
5d726b8a0c3f0f0017cdfcf7,136,2,2024-02-27T11:10:38.779Z,english_499.wav,0,peel,477,33,4,5,Français,m,1,0.1,28.73361796,1.54082224
5d726b8a0c3f0f0017cdfcf7,136,2,2024-02-27T11:10:38.779Z,english_499.wav,0,peel,477,33,4,5,Français,m,2,0.2,-71.86053711,1.07919976
5d726b8a0c3f0f0017cdfcf7,136,2,2024-02-27T11:10:38.779Z,english_499.wav,0,peel,477,33,4,5,Français,m,3,0.3,-44.40399931,1.20425095
5d726b8a0c3f0f0017cdfcf7,136,2,2024-02-27T11:10:38.779Z,english_499.wav,0,peel,477,33,4,5,Français,m,4,0.32341667,-2.72335033,0.4618338
5d726b8a0c3f0f0017cdfcf7,137,2,2024-02-27T11:10:38.779Z,english_566.wav,0,peel,427,33,4,5,Français,m,0,0.0,70.56000247,1.04698608
5d726b8a0c3f0f0017cdfcf7,137,2,2024-02-27T11:10:38.779Z,english_566.wav,0,peel,427,33,4,5,Français,m,1,0.1,-0.18246418,1.13826263
5d726b8a0c3f0f0017cdfcf7,137,2,2024-02-27T11:10:38.779Z,english_566.wav,0,peel,427,33,4,5,Français,m,2,0.2,-23.7188651,1.91259561
5d726b8a0c3f0f0017cdfcf7,137,2,2024-02-27T11:10:38.779Z,english_566.wav,0,peel,427,33,4,5,Français,m,3,0.3,12.5469797,1.08561121
5d726b8a0c3f0f0017cdfcf7,137,2,2024-02-27T11:10:38.779Z,english_566.wav,0,peel,427,33,4,5,Français,m,4,0.32341667,-84.37997634,1.98926692
5d726b8a0c3f0f0017cdfcf7,138,2,2024-02-27T11:10:38.779Z,english_602.wav,0,peel,1274,33,4,5,Français,m,0,0.0,-53.18857274,1.95117352
5d726b8a0c3f0f0017cdfcf7,138,2,2024-02-27T11:10:38.779Z,english_602.wav,0,peel,1274,33,4,5,Français,m,1,0.1,-52.96167371,1.1427253
5d726b8a0c3f0f0017cdfcf7,138,2,2024-02-27T11:10:38.779Z,english_602.wav,0,peel,1274,33,4,5,Français,m,2,0.2,38.20784676,1.10694813
5d726b8a0c3f0f0017cdfcf7,138,2,2024-02-27T11:10:38.779Z,english_602.wav,0,peel,1274,33,4,5,Français,m,3,0.3,46.0178344,0.8717932
5d726b8a0c3f0f0017cdfcf7,138,2,2024-02-27T11:10:38.779Z,english_602.wav,0,peel,1274,33,4,5,Français,m,4,0.32341667,78.11630752,0.71626065
5d726b8a0c3f0f0017cdfcf7,139,2,2024-02-27T11:10:38.779Z,english_213.wav,0,pill,478,33,4,5,Français,m,0,0.0,-29.91874444,1.42031243
5d726b8a0c3f0f0017cdfcf7,139,2,2024-02-27T11:10:38.779Z,english_213.wav,0,pill,478,33,4,5,Français,m,1,0.1,41.64704809,0.59218852
5d726b8a0c3f0f0017cdfcf7,139,2,2024-02-27T11:10:38.779Z,english_213.wav,0,pill,478,33,4,5,Français,m,2,0.2,-87.11075848,1.10576613
5d726b8a0c3f0f0017cdfcf7,139,2,2024-02-27T11:10:38.779Z,english_213.wav,0,pill,478,33,4,5,Français,m,3,0.3,-61.54877495,0.09529021
5d726b8a0c3f0f0017cdfcf7,139,2,2024-02-27T11:10:38.779Z,english_213.wav,0,pill,478,33,4,5,Français,m,4,0.32341667,-34.29429643,1.15583312
5d726b8a0c3f0f0017cdfcf7,140,2,2024-02-27T11:10:38.779Z,english_196.wav,0,peel,360,33,4,5,Français,m,0,0.0,-86.38202104,1.63362226
5d726b8a0c3f0f0017cdfcf7,140,2,2024-02-27T11:10:38.779Z,english_196.wav,0,peel,360,33,4,5,Français,m,1,0.1,0.95731439,1.36148231
5d726b8a0c3f0f0017cdfcf7,140,2,2024-02-27T11:10:38.779Z,english_196.wav,0,peel,360,33,4,5,Français,m,2,0.2,-48.4797064,0.68683683
5d726b8a0c3f0f0017cdfcf7,140,2,2024-02-27T11:10:38.779Z,english_196.wav,0,peel,360,33,4,5,Français,m,3,0.3,50.57477866,1.59869277
5d726b8a0c3f0f0017cdfcf7,140,2,2024-02-27T11:10:38.779Z,english_196.wav,0,peel,360,33,4,5,Français,m,4,0.32341667,-52.07184875,0.40963154
5d726b8a0c3f0f0017cdfcf7,141,2,2024-02-27T11:10:38.779Z,english_877.wav,0,pill,1014,33,4,5,Français,m,0,0.0,49.36401037,1.25510861
5d726b8a0c3f0f0017cdfcf7,141,2,2024-02-27T11:10:38.779Z,english_877.wav,0,pill,1014,33,4,5,Français,m,1,0.1,15.17280231,0.84700305
5d726b8a0c3f0f0017cdfcf7,141,2,2024-02-27T11:10:38.779Z,english_877.wav,0,pill,1014,33,4,5,Français,m,2,0.2,22.36436744,0.32703774
5d726b8a0c3f0f0017cdfcf7,141,2,2024-02-27T11:10:38.779Z,english_877.wav,0,pill,1014,33,4,5,Français,m,3,0.3,-25.51979868,1.72637958
5d726b8a0c3f0f0017cdfcf7,141,2,2024-02-27T11:10:38.779Z,english_877.wav,0,pill,1014,33,4,5,Français,m,4,0.32341667,-55.72443313,0.52117686
5d726b8a0c3f0f0017cdfcf7,142,2,2024-02-27T11:10:38.779Z,english_967.wav,0,pill,2011,33,4,5,Français,m,0,0.0,-33.19777689,0.76720641
5d726b8a0c3f0f0017cdfcf7,142,2,2024-02-27T11:10:38.779Z,english_967.wav,0,pill,2011,33,4,5,Français,m,1,0.1,83.84847924,1.4094361
5d726b8a0c3f0f0017cdfcf7,142,2,2024-02-27T11:10:38.779Z,english_967.wav,0,pill,2011,33,4,5,Français,m,2,0.2,81.27362124,0.74435637
5d726b8a0c3f0f0017cdfcf7,142,2,2024-02-27T11:10:38.779Z,english_967.wav,0,pill,2011,33,4,5,Français,m,3,0.3,22.78466805,0.29904584
5d726b8a0c3f0f0017cdfcf7,142,2,2024-02-27T11:10:38.779Z,english_967.wav,0,pill,2011,33,4,5,Français,m,4,0.32341667,16.56894366,0.47687807
5d726b8a0c3f0f0017cdfcf7,143,2,2024-02-27T11:10:38.779Z,english_909.wav,0,pill,1983,33,4,5,Français,m,0,0.0,-19.4205152,0.17681169
5d726b8a0c3f0f0017cdfcf7,143,2,2024-02-27T11:10:38.779Z,english_909.wav,0,pill,1983,33,4,5,Français,m,1,0.1,-31.830868,1.02014656
5d726b8a0c3f0f0017cdfcf7,143,2,2024-02-27T11:10:38.779Z,english_909.wav,0,pill,1983,33,4,5,Français,m,2,0.2,71.05598051,1.59945112
5d726b8a0c3f0f0017cdfcf7,143,2,2024-02-27T11:10:38.779Z,english_909.wav,0,pill,1983,33,4,5,Français,m,3,0.3,-13.09259164,1.33685121
5d726b8a0c3f0f0017cdfcf7,143,2,2024-02-27T11:10:38.779Z,english_909.wav,0,pill,1983,33,4,5,Français,m,4,0.32341667,-99.47743822,0.41114962
5d726b8a0c3f0f0017cdfcf7,144,2,2024-02-27T11:10:38.779Z,english_711.wav,0,peel,1220,33,4,5,Français,m,0,0.0,40.88671478,0.99029016
5d726b8a0c3f0f0017cdfcf7,144,2,2024-02-27T11:10:38.779Z,english_711.wav,0,peel,1220,33,4,5,Français,m,1,0.1,9.07407961,0.54320223
5d726b8a0c3f0f0017cdfcf7,144,2,2024-02-27T11:10:38.779Z,english_711.wav,0,peel,1220,33,4,5,Français,m,2,0.2,-23.01321115,1.60107
5d726b8a0c3f0f0017cdfcf7,144,2,2024-02-27T11:10:38.779Z,english_711.wav,0,peel,1220,33,4,5,Français,m,3,0.3,-10.85681813,1.574764
5d726b8a0c3f0f0017cdfcf7,144,2,2024-02-27T11:10:38.779Z,english_711.wav,0,peel,1220,33,4,5,Français,m,4,0.32341667,87.87195083,1.34863725
5d726b8a0c3f0f0017cdfcf7,145,2,2024-02-27T11:10:38.779Z,english_376.wav,0,peel,367,33,4,5,Français,m,0,0.0,-10.66231765,0.83936518
5d726b8a0c3f0f0017cdfcf7,145,2,2024-02-27T11:10:38.779Z,english_376.wav,0,peel,367,33,4,5,Français,m,1,0.1,-53.95799634,1.7265478
5d726b8a0c3f0f0017cdfcf7,145,2,2024-02-27T11:10:38.779Z,english_376.wav,0,peel,367,33,4,5,Français,m,2,0.2,-44.60014177,0.44309389
5d726b8a0c3f0f0017cdfcf7,145,2,2024-02-27T11:10:38.779Z,english_376.wav,0,peel,367,33,4,5,Français,m,3,0.3,-84.32777745,1.91772458
5d726b8a0c3f0f0017cdfcf7,145,2,2024-02-27T11:10:38.779Z,english_376.wav,0,peel,367,33,4,5,Français,m,4,0.32341667,-2.76179289,0.76255227
5d726b8a0c3f0f0017cdfcf7,146,2,2024-02-27T11:10:38.779Z,english_674.wav,0,peel,277,33,4,5,Français,m,0,0.0,-38.60253285,0.25488683
5d726b8a0c3f0f0017cdfcf7,146,2,2024-02-27T11:10:38.779Z,english_674.wav,0,peel,277,33,4,5,Français,m,1,0.1,46.14948962,1.80679583
5d726b8a0c3f0f0017cdfcf7,146,2,2024-02-27T11:10:38.779Z,english_674.wav,0,peel,277,33,4,5,Français,m,2,0.2,-49.76414787,1.59420413
5d726b8a0c3f0f0017cdfcf7,146,2,2024-02-27T11:10:38.779Z,english_674.wav,0,peel,277,33,4,5,Français,m,3,0.3,-66.16492387,1.25714797
5d726b8a0c3f0f0017cdfcf7,146,2,2024-02-27T11:10:38.779Z,english_674.wav,0,peel,277,33,4,5,Français,m,4,0.32341667,28.37583826,1.20557216
5d726b8a0c3f0f0017cdfcf7,147,2,2024-02-27T11:10:38.779Z,english_543.wav,0,pill,441,33,4,5,Français,m,0,0.0,13.74009622,0.63900578
5d726b8a0c3f0f0017cdfcf7,147,2,2024-02-27T11:10:38.779Z,english_543.wav,0,pill,441,33,4,5,Français,m,1,0.1,51.80972721,1.6206981
5d726b8a0c3f0f0017cdfcf7,147,2,2024-02-27T11:10:38.779Z,english_543.wav,0,pill,441,33,4,5,Français,m,2,0.2,86.3964352,0.03304675
5d726b8a0c3f0f0017cdfcf7,147,2,2024-02-27T11:10:38.779Z,english_543.wav,0,pill,441,33,4,5,Français,m,3,0.3,-66.39783761,1.7049324
5d726b8a0c3f0f0017cdfcf7,147,2,2024-02-27T11:10:38.779Z,english_543.wav,0,pill,441,33,4,5,Français,m,4,0.32341667,31.11863834,1.46507556
5d726b8a0c3f0f0017cdfcf7,148,2,2024-02-27T11:10:38.779Z,english_691.wav,0,pill,597,33,4,5,Français,m,0,0.0,28.79078449,1.07683297
5d726b8a0c3f0f0017cdfcf7,148,2,2024-02-27T11:10:38.779Z,english_691.wav,0,pill,597,33,4,5,Français,m,1,0.1,99.1184909,1.07376069
5d726b8a0c3f0f0017cdfcf7,148,2,2024-02-27T11:10:38.779Z,english_691.wav,0,pill,597,33,4,5,Français,m,2,0.2,-54.13985733,0.28522735
5d726b8a0c3f0f0017cdfcf7,148,2,2024-02-27T11:10:38.779Z,english_691.wav,0,pill,597,33,4,5,Français,m,3,0.3,-85.36319246,0.85701066
5d726b8a0c3f0f0017cdfcf7,148,2,2024-02-27T11:10:38.779Z,english_691.wav,0,pill,597,33,4,5,Français,m,4,0.32341667,-73.61621094,1.71165398
5d726b8a0c3f0f0017cdfcf7,149,2,2024-02-27T11:10:38.779Z,english_560.wav,0,peel,304,33,4,5,Français,m,0,0.0,6.26341837,1.61909233
5d726b8a0c3f0f0017cdfcf7,149,2,2024-02-27T11:10:38.779Z,english_560.wav,0,peel,304,33,4,5,Français,m,1,0.1,-94.10474965,0.93851614
5d726b8a0c3f0f0017cdfcf7,149,2,2024-02-27T11:10:38.779Z,english_560.wav,0,peel,304,33,4,5,Français,m,2,0.2,-43.88069215,1.37910144
5d726b8a0c3f0f0017cdfcf7,149,2,2024-02-27T11:10:38.779Z,english_560.wav,0,peel,304,33,4,5,Français,m,3,0.3,-26.3559156,1.10578935
5d726b8a0c3f0f0017cdfcf7,149,2,2024-02-27T11:10:38.779Z,english_560.wav,0,peel,304,33,4,5,Français,m,4,0.32341667,-91.38105747,0.02070647
5d726b8a0c3f0f0017cdfcf7,150,3,2024-02-27T11:10:38.779Z,english_785.wav,0,peel,1800,33,4,5,Français,m,0,0.0,41.51350967,0.93543931
5d726b8a0c3f0f0017cdfcf7,150,3,2024-02-27T11:10:38.779Z,english_785.wav,0,peel,1800,33,4,5,Français,m,1,0.1,26.23517368,1.17819894
5d726b8a0c3f0f0017cdfcf7,150,3,2024-02-27T11:10:38.779Z,english_785.wav,0,peel,1800,33,4,5,Français,m,2,0.2,-12.63822228,1.98833146
5d726b8a0c3f0f0017cdfcf7,150,3,2024-02-27T11:10:38.779Z,english_785.wav,0,peel,1800,33,4,5,Français,m,3,0.3,-30.66588474,0.80021218
5d726b8a0c3f0f0017cdfcf7,150,3,2024-02-27T11:10:38.779Z,english_785.wav,0,peel,1800,33,4,5,Français,m,4,0.32341667,26.08399401,1.2737519
5d726b8a0c3f0f0017cdfcf7,151,3,2024-02-27T11:10:38.779Z,english_390.wav,0,peel,506,33,4,5,Français,m,0,0.0,-50.40750922,1.41643644
5d726b8a0c3f0f0017cdfcf7,151,3,2024-02-27T11:10:38.779Z,english_390.wav,0,peel,506,33,4,5,Français,m,1,0.1,-38.67641955,0.84399933
5d726b8a0c3f0f0017cdfcf7,151,3,2024-02-27T11:10:38.779Z,english_390.wav,0,peel,506,33,4,5,Français,m,2,0.2,-37.03459725,1.67796426
5d726b8a0c3f0f0017cdfcf7,151,3,2024-02-27T11:10:38.779Z,english_390.wav,0,peel,506,33,4,5,Français,m,3,0.3,-24.07335547,0.43781117
5d726b8a0c3f0f0017cdfcf7,151,3,2024-02-27T11:10:38.779Z,english_390.wav,0,peel,506,33,4,5,Français,m,4,0.32341667,75.09366884,0.01225463
5d726b8a0c3f0f0017cdfcf7,152,3,2024-02-27T11:10:38.779Z,english_820.wav,0,pill,573,33,4,5,Français,m,0,0.0,-46.83321603,0.84618107
5d726b8a0c3f0f0017cdfcf7,152,3,2024-02-27T11:10:38.779Z,english_820.wav,0,pill,573,33,4,5,Français,m,1,0.1,41.6487922,0.98544532
