subj,trial,block,date,stim,stim_order,response,rt,age,english,french,language,sex,param_index,segment,pitch,stretch
5ec454e23d68ea32ee554d12,0,0,2024-02-27T12:14:00.900Z,english_401.wav,0,pill,2251,38,4,5,Français,f,0,0.0,-70.37998858,1.11338134
5ec454e23d68ea32ee554d12,0,0,2024-02-27T12:14:00.900Z,english_401.wav,0,pill,2251,38,4,5,Français,f,1,0.1,49.27188779,1.59691292
5ec454e23d68ea32ee554d12,0,0,2024-02-27T12:14:00.900Z,english_401.wav,0,pill,2251,38,4,5,Français,f,2,0.2,5.09566389,0.88679935
5ec454e23d68ea32ee554d12,0,0,2024-02-27T12:14:00.900Z,english_401.wav,0,pill,2251,38,4,5,Français,f,3,0.3,58.42368176,1.89749174
5ec454e23d68ea32ee554d12,0,0,2024-02-27T12:14:00.900Z,english_401.wav,0,pill,2251,38,4,5,Français,f,4,0.32341667,-43.06407799,1.35831765
5ec454e23d68ea32ee554d12,1,0,2024-02-27T12:14:00.900Z,english_766.wav,0,pill,678,38,4,5,Français,f,0,0.0,-86.57417509,1.21737292
5ec454e23d68ea32ee554d12,1,0,2024-02-27T12:14:00.900Z,english_766.wav,0,pill,678,38,4,5,Français,f,1,0.1,-67.75686223,1.61484435
5ec454e23d68ea32ee554d12,1,0,2024-02-27T12:14:00.900Z,english_766.wav,0,pill,678,38,4,5,Français,f,2,0.2,74.21258041,1.47872362
5ec454e23d68ea32ee554d12,1,0,2024-02-27T12:14:00.900Z,english_766.wav,0,pill,678,38,4,5,Français,f,3,0.3,65.20164426,1.81064247
5ec454e23d68ea32ee554d12,1,0,2024-02-27T12:14:00.900Z,english_766.wav,0,pill,678,38,4,5,Français,f,4,0.32341667,-26.41371036,1.37776493
5ec454e23d68ea32ee554d12,2,0,2024-02-27T12:14:00.900Z,english_927.wav,0,pill,1225,38,4,5,Français,f,0,0.0,81.66311017,1.3783001
5ec454e23d68ea32ee554d12,2,0,2024-02-27T12:14:00.900Z,english_927.wav,0,pill,1225,38,4,5,Français,f,1,0.1,0.87570902,0.51323502
5ec454e23d68ea32ee554d12,2,0,2024-02-27T12:14:00.900Z,english_927.wav,0,pill,1225,38,4,5,Français,f,2,0.2,-59.21619647,0.98265958
5ec454e23d68ea32ee554d12,2,0,2024-02-27T12:14:00.900Z,english_927.wav,0,pill,1225,38,4,5,Français,f,3,0.3,-57.6787773,0.30790993
5ec454e23d68ea32ee554d12,2,0,2024-02-27T12:14:00.900Z,english_927.wav,0,pill,1225,38,4,5,Français,f,4,0.32341667,-30.87043146,1.17222751
5ec454e23d68ea32ee554d12,3,0,2024-02-27T12:14:00.900Z,english_292.wav,0,pill,557,38,4,5,Français,f,0,0.0,-39.45275529,0.85174507
5ec454e23d68ea32ee554d12,3,0,2024-02-27T12:14:00.900Z,english_292.wav,0,pill,557,38,4,5,Français,f,1,0.1,-35.03464337,0.73996191
5ec454e23d68ea32ee554d12,3,0,2024-02-27T12:14:00.900Z,english_292.wav,0,pill,557,38,4,5,Français,f,2,0.2,31.68370279,1.42892595
5ec454e23d68ea32ee554d12,3,0,2024-02-27T12:14:00.900Z,english_292.wav,0,pill,557,38,4,5,Français,f,3,0.3,-53.75991965,0.04968332
5ec454e23d68ea32ee554d12,3,0,2024-02-27T12:14:00.900Z,english_292.wav,0,pill,557,38,4,5,Français,f,4,0.32341667,12.49992629,0.58931553
5ec454e23d68ea32ee554d12,4,0,2024-02-27T12:14:00.900Z,english_213.wav,0,peel,451,38,4,5,Français,f,0,0.0,-29.91874444,1.42031243
5ec454e23d68ea32ee554d12,4,0,2024-02-27T12:14:00.900Z,english_213.wav,0,peel,451,38,4,5,Français,f,1,0.1,41.64704809,0.59218852
5ec454e23d68ea32ee554d12,4,0,2024-02-27T12:14:00.900Z,english_213.wav,0,peel,451,38,4,5,Français,f,2,0.2,-87.11075848,1.10576613
5ec454e23d68ea32ee554d12,4,0,2024-02-27T12:14:00.900Z,english_213.wav,0,peel,451,38,4,5,Français,f,3,0.3,-61.54877495,0.09529021
5ec454e23d68ea32ee554d12,4,0,2024-02-27T12:14:00.900Z,english_213.wav,0,peel,451,38,4,5,Français,f,4,0.32341667,-34.29429643,1.15583312
5ec454e23d68ea32ee554d12,5,0,2024-02-27T12:14:00.900Z,english_418.wav,0,peel,576,38,4,5,Français,f,0,0.0,-7.92859899,0.20369216
5ec454e23d68ea32ee554d12,5,0,2024-02-27T12:14:00.900Z,english_418.wav,0,peel,576,38,4,5,Français,f,1,0.1,10.19863107,0.15242613
5ec454e23d68ea32ee554d12,5,0,2024-02-27T12:14:00.900Z,english_418.wav,0,peel,576,38,4,5,Français,f,2,0.2,-44.82770696,0.77695319
5ec454e23d68ea32ee554d12,5,0,2024-02-27T12:14:00.900Z,english_418.wav,0,peel,576,38,4,5,Français,f,3,0.3,-80.4141896,0.71786342
5ec454e23d68ea32ee554d12,5,0,2024-02-27T12:14:00.900Z,english_418.wav,0,peel,576,38,4,5,Français,f,4,0.32341667,32.43674468,1.20494416
5ec454e23d68ea32ee554d12,6,0,2024-02-27T12:14:00.900Z,english_938.wav,0,pill,644,38,4,5,Français,f,0,0.0,55.68553541,1.13527087
5ec454e23d68ea32ee554d12,6,0,2024-02-27T12:14:00.900Z,english_938.wav,0,pill,644,38,4,5,Français,f,1,0.1,19.57508628,0.57526943
5ec454e23d68ea32ee554d12,6,0,2024-02-27T12:14:00.900Z,english_938.wav,0,pill,644,38,4,5,Français,f,2,0.2,99.59707332,0.71873046
5ec454e23d68ea32ee554d12,6,0,2024-02-27T12:14:00.900Z,english_938.wav,0,pill,644,38,4,5,Français,f,3,0.3,-43.3789335,0.88566698
5ec454e23d68ea32ee554d12,6,0,2024-02-27T12:14:00.900Z,english_938.wav,0,pill,644,38,4,5,Français,f,4,0.32341667,90.00594125,0.39461425
5ec454e23d68ea32ee554d12,7,0,2024-02-27T12:14:00.900Z,english_896.wav,0,pill,961,38,4,5,Français,f,0,0.0,-76.63716622,1.08893336
5ec454e23d68ea32ee554d12,7,0,2024-02-27T12:14:00.900Z,english_896.wav,0,pill,961,38,4,5,Français,f,1,0.1,-73.11298951,0.41748987
5ec454e23d68ea32ee554d12,7,0,2024-02-27T12:14:00.900Z,english_896.wav,0,pill,961,38,4,5,Français,f,2,0.2,48.53347054,0.32012442
5ec454e23d68ea32ee554d12,7,0,2024-02-27T12:14:00.900Z,english_896.wav,0,pill,961,38,4,5,Français,f,3,0.3,-4.46661278,0.63387312
5ec454e23d68ea32ee554d12,7,0,2024-02-27T12:14:00.900Z,english_896.wav,0,pill,961,38,4,5,Français,f,4,0.32341667,-44.69533701,1.27766005
5ec454e23d68ea32ee554d12,8,0,2024-02-27T12:14:00.900Z,english_884.wav,0,peel,1231,38,4,5,Français,f,0,0.0,77.1498115,1.83268558
5ec454e23d68ea32ee554d12,8,0,2024-02-27T12:14:00.900Z,english_884.wav,0,peel,1231,38,4,5,Français,f,1,0.1,10.32602389,0.76817862
5ec454e23d68ea32ee554d12,8,0,2024-02-27T12:14:00.900Z,english_884.wav,0,peel,1231,38,4,5,Français,f,2,0.2,4.15464736,1.59331573
5ec454e23d68ea32ee554d12,8,0,2024-02-27T12:14:00.900Z,english_884.wav,0,peel,1231,38,4,5,Français,f,3,0.3,21.19252889,0.58913169
5ec454e23d68ea32ee554d12,8,0,2024-02-27T12:14:00.900Z,english_884.wav,0,peel,1231,38,4,5,Français,f,4,0.32341667,-7.11336122,0.81393531
5ec454e23d68ea32ee554d12,9,0,2024-02-27T12:14:00.900Z,english_891.wav,0,pill,946,38,4,5,Français,f,0,0.0,21.29241244,0.7419472
5ec454e23d68ea32ee554d12,9,0,2024-02-27T12:14:00.900Z,english_891.wav,0,pill,946,38,4,5,Français,f,1,0.1,-1.23713702,1.09270952
5ec454e23d68ea32ee554d12,9,0,2024-02-27T12:14:00.900Z,english_891.wav,0,pill,946,38,4,5,Français,f,2,0.2,-74.86460599,0.8129571
5ec454e23d68ea32ee554d12,9,0,2024-02-27T12:14:00.900Z,english_891.wav,0,pill,946,38,4,5,Français,f,3,0.3,18.81587233,0.16019775
5ec454e23d68ea32ee554d12,9,0,2024-02-27T12:14:00.900Z,english_891.wav,0,pill,946,38,4,5,Français,f,4,0.32341667,35.3489582,1.17476401
5ec454e23d68ea32ee554d12,10,0,2024-02-27T12:14:00.900Z,english_450.wav,0,pill,720,38,4,5,Français,f,0,0.0,32.75253923,1.28767958
5ec454e23d68ea32ee554d12,10,0,2024-02-27T12:14:00.900Z,english_450.wav,0,pill,720,38,4,5,Français,f,1,0.1,-95.51335644,1.7262356
5ec454e23d68ea32ee554d12,10,0,2024-02-27T12:14:00.900Z,english_450.wav,0,pill,720,38,4,5,Français,f,2,0.2,34.87485597,0.97567272
5ec454e23d68ea32ee554d12,10,0,2024-02-27T12:14:00.900Z,english_450.wav,0,pill,720,38,4,5,Français,f,3,0.3,-23.91285283,1.94639387
5ec454e23d68ea32ee554d12,10,0,2024-02-27T12:14:00.900Z,english_450.wav,0,pill,720,38,4,5,Français,f,4,0.32341667,-8.67870007,1.78958339
5ec454e23d68ea32ee554d12,11,0,2024-02-27T12:14:00.900Z,english_164.wav,0,pill,1864,38,4,5,Français,f,0,0.0,-18.99376005,1.91320144
5ec454e23d68ea32ee554d12,11,0,2024-02-27T12:14:00.900Z,english_164.wav,0,pill,1864,38,4,5,Français,f,1,0.1,-38.65269109,0.23857652
5ec454e23d68ea32ee554d12,11,0,2024-02-27T12:14:00.900Z,english_164.wav,0,pill,1864,38,4,5,Français,f,2,0.2,64.75288033,1.41883879
5ec454e23d68ea32ee554d12,11,0,2024-02-27T12:14:00.900Z,english_164.wav,0,pill,1864,38,4,5,Français,f,3,0.3,-33.8407164,1.34667564
5ec454e23d68ea32ee554d12,11,0,2024-02-27T12:14:00.900Z,english_164.wav,0,pill,1864,38,4,5,Français,f,4,0.32341667,27.96502681,0.04602263
5ec454e23d68ea32ee554d12,12,0,2024-02-27T12:14:00.900Z,english_997.wav,0,peel,1521,38,4,5,Français,f,0,0.0,93.4252615,0.4603395
5ec454e23d68ea32ee554d12,12,0,2024-02-27T12:14:00.900Z,english_997.wav,0,peel,1521,38,4,5,Français,f,1,0.1,62.16088314,0.21654412
5ec454e23d68ea32ee554d12,12,0,2024-02-27T12:14:00.900Z,english_997.wav,0,peel,1521,38,4,5,Français,f,2,0.2,-26.38638022,1.36234896
5ec454e23d68ea32ee554d12,12,0,2024-02-27T12:14:00.900Z,english_997.wav,0,peel,1521,38,4,5,Français,f,3,0.3,89.15363163,1.07462804
5ec454e23d68ea32ee554d12,12,0,2024-02-27T12:14:00.900Z,english_997.wav,0,peel,1521,38,4,5,Français,f,4,0.32341667,-25.83137337,0.84007196
5ec454e23d68ea32ee554d12,13,0,2024-02-27T12:14:00.900Z,english_779.wav,0,peel,807,38,4,5,Français,f,0,0.0,-66.48303018,1.22216448
5ec454e23d68ea32ee554d12,13,0,2024-02-27T12:14:00.900Z,english_779.wav,0,peel,807,38,4,5,Français,f,1,0.1,55.33592885,1.30288261
5ec454e23d68ea32ee554d12,13,0,2024-02-27T12:14:00.900Z,english_779.wav,0,peel,807,38,4,5,Français,f,2,0.2,67.38671669,0.25409759
5ec454e23d68ea32ee554d12,13,0,2024-02-27T12:14:00.900Z,english_779.wav,0,peel,807,38,4,5,Français,f,3,0.3,65.49052189,1.76174581
5ec454e23d68ea32ee554d12,13,0,2024-02-27T12:14:00.900Z,english_779.wav,0,peel,807,38,4,5,Français,f,4,0.32341667,-12.12955258,0.12280057
5ec454e23d68ea32ee554d12,14,0,2024-02-27T12:14:00.900Z,english_275.wav,0,peel,477,38,4,5,Français,f,0,0.0,-1.14725012,0.71691039
5ec454e23d68ea32ee554d12,14,0,2024-02-27T12:14:00.900Z,english_275.wav,0,peel,477,38,4,5,Français,f,1,0.1,-90.43848863,0.74614953
5ec454e23d68ea32ee554d12,14,0,2024-02-27T12:14:00.900Z,english_275.wav,0,peel,477,38,4,5,Français,f,2,0.2,-40.03711279,1.94843862
5ec454e23d68ea32ee554d12,14,0,2024-02-27T12:14:00.900Z,english_275.wav,0,peel,477,38,4,5,Français,f,3,0.3,-29.12549604,0.32495742
5ec454e23d68ea32ee554d12,14,0,2024-02-27T12:14:00.900Z,english_275.wav,0,peel,477,38,4,5,Français,f,4,0.32341667,77.33253221,0.61649877
5ec454e23d68ea32ee554d12,15,0,2024-02-27T12:14:00.900Z,english_230.wav,0,pill,1167,38,4,5,Français,f,0,0.0,59.01519707,0.66464778
5ec454e23d68ea32ee554d12,15,0,2024-02-27T12:14:00.900Z,english_230.wav,0,pill,1167,38,4,5,Français,f,1,0.1,-74.67447784,1.09498554
5ec454e23d68ea32ee554d12,15,0,2024-02-27T12:14:00.900Z,english_230.wav,0,pill,1167,38,4,5,Français,f,2,0.2,78.11378701,0.24708562
5ec454e23d68ea32ee554d12,15,0,2024-02-27T12:14:00.900Z,english_230.wav,0,pill,1167,38,4,5,Français,f,3,0.3,26.79367619,1.40152246
5ec454e23d68ea32ee554d12,15,0,2024-02-27T12:14:00.900Z,english_230.wav,0,pill,1167,38,4,5,Français,f,4,0.32341667,29.92451654,1.02203861
5ec454e23d68ea32ee554d12,16,0,2024-02-27T12:14:00.900Z,english_33.wav,0,peel,3019,38,4,5,Français,f,0,0.0,13.53683954,1.37746345
5ec454e23d68ea32ee554d12,16,0,2024-02-27T12:14:00.900Z,english_33.wav,0,peel,3019,38,4,5,Français,f,1,0.1,-23.61599557,1.14776292
5ec454e23d68ea32ee554d12,16,0,2024-02-27T12:14:00.900Z,english_33.wav,0,peel,3019,38,4,5,Français,f,2,0.2,60.58241295,1.15899553
5ec454e23d68ea32ee554d12,16,0,2024-02-27T12:14:00.900Z,english_33.wav,0,peel,3019,38,4,5,Français,f,3,0.3,-2.03686091,0.64766031
5ec454e23d68ea32ee554d12,16,0,2024-02-27T12:14:00.900Z,english_33.wav,0,peel,3019,38,4,5,Français,f,4,0.32341667,79.90239576,1.69768968
5ec454e23d68ea32ee554d12,17,0,2024-02-27T12:14:00.900Z,english_960.wav,0,pill,581,38,4,5,Français,f,0,0.0,35.80457434,0.79357899
5ec454e23d68ea32ee554d12,17,0,2024-02-27T12:14:00.900Z,english_960.wav,0,pill,581,38,4,5,Français,f,1,0.1,-19.98469691,0.63900775
5ec454e23d68ea32ee554d12,17,0,2024-02-27T12:14:00.900Z,english_960.wav,0,pill,581,38,4,5,Français,f,2,0.2,-8.88025322,1.83966222
5ec454e23d68ea32ee554d12,17,0,2024-02-27T12:14:00.900Z,english_960.wav,0,pill,581,38,4,5,Français,f,3,0.3,6.59365348,1.05168668
5ec454e23d68ea32ee554d12,17,0,2024-02-27T12:14:00.900Z,english_960.wav,0,pill,581,38,4,5,Français,f,4,0.32341667,64.0885905,1.66020449
5ec454e23d68ea32ee554d12,18,0,2024-02-27T12:14:00.900Z,english_387.wav,0,peel,1049,38,4,5,Français,f,0,0.0,14.25538659,0.59610882
5ec454e23d68ea32ee554d12,18,0,2024-02-27T12:14:00.900Z,english_387.wav,0,peel,1049,38,4,5,Français,f,1,0.1,-5.8057983,0.93453474
5ec454e23d68ea32ee554d12,18,0,2024-02-27T12:14:00.900Z,english_387.wav,0,peel,1049,38,4,5,Français,f,2,0.2,-2.59288607,1.87880123
5ec454e23d68ea32ee554d12,18,0,2024-02-27T12:14:00.900Z,english_387.wav,0,peel,1049,38,4,5,Français,f,3,0.3,19.33055559,0.79709693
5ec454e23d68ea32ee554d12,18,0,2024-02-27T12:14:00.900Z,english_387.wav,0,peel,1049,38,4,5,Français,f,4,0.32341667,-85.57173801,0.90161027
5ec454e23d68ea32ee554d12,19,0,2024-02-27T12:14:00.900Z,english_309.wav,0,peel,1138,38,4,5,Français,f,0,0.0,59.8258624,0.58100331
5ec454e23d68ea32ee554d12,19,0,2024-02-27T12:14:00.900Z,english_309.wav,0,peel,1138,38,4,5,Français,f,1,0.1,73.70427758,0.81024997
5ec454e23d68ea32ee554d12,19,0,2024-02-27T12:14:00.900Z,english_309.wav,0,peel,1138,38,4,5,Français,f,2,0.2,-8.71125849,0.10827203
5ec454e23d68ea32ee554d12,19,0,2024-02-27T12:14:00.900Z,english_309.wav,0,peel,1138,38,4,5,Français,f,3,0.3,-86.6882155,0.09670208
5ec454e23d68ea32ee554d12,19,0,2024-02-27T12:14:00.900Z,english_309.wav,0,peel,1138,38,4,5,Français,f,4,0.32341667,-90.77340978,1.53063904
5ec454e23d68ea32ee554d12,20,0,2024-02-27T12:14:00.900Z,english_507.wav,0,pill,812,38,4,5,Français,f,0,0.0,-61.1842488,1.97653192
5ec454e23d68ea32ee554d12,20,0,2024-02-27T12:14:00.900Z,english_507.wav,0,pill,812,38,4,5,Français,f,1,0.1,-67.40048172,1.52355847
5ec454e23d68ea32ee554d12,20,0,2024-02-27T12:14:00.900Z,english_507.wav,0,pill,812,38,4,5,Français,f,2,0.2,12.41471853,0.98006415
5ec454e23d68ea32ee554d12,20,0,2024-02-27T12:14:00.900Z,english_507.wav,0,pill,812,38,4,5,Français,f,3,0.3,-23.82579329,0.44372312
5ec454e23d68ea32ee554d12,20,0,2024-02-27T12:14:00.900Z,english_507.wav,0,pill,812,38,4,5,Français,f,4,0.32341667,9.53005369,0.65281453
5ec454e23d68ea32ee554d12,21,0,2024-02-27T12:14:00.900Z,english_186.wav,0,pill,121,38,4,5,Français,f,0,0.0,-54.7664391,1.87021502
5ec454e23d68ea32ee554d12,21,0,2024-02-27T12:14:00.900Z,english_186.wav,0,pill,121,38,4,5,Français,f,1,0.1,-8.4263529,1.36390049
5ec454e23d68ea32ee554d12,21,0,2024-02-27T12:14:00.900Z,english_186.wav,0,pill,121,38,4,5,Français,f,2,0.2,6.22451559,1.69942617
5ec454e23d68ea32ee554d12,21,0,2024-02-27T12:14:00.900Z,english_186.wav,0,pill,121,38,4,5,Français,f,3,0.3,-12.35671223,1.8066537
5ec454e23d68ea32ee554d12,21,0,2024-02-27T12:14:00.900Z,english_186.wav,0,pill,121,38,4,5,Français,f,4,0.32341667,86.21839615,1.2511354
5ec454e23d68ea32ee554d12,22,0,2024-02-27T12:14:00.900Z,english_587.wav,0,pill,271,38,4,5,Français,f,0,0.0,-33.32102811,0.7972352
5ec454e23d68ea32ee554d12,22,0,2024-02-27T12:14:00.900Z,english_587.wav,0,pill,271,38,4,5,Français,f,1,0.1,46.1287001,1.97425238
5ec454e23d68ea32ee554d12,22,0,2024-02-27T12:14:00.900Z,english_587.wav,0,pill,271,38,4,5,Français,f,2,0.2,-62.23894368,0.99609006
5ec454e23d68ea32ee554d12,22,0,2024-02-27T12:14:00.900Z,english_587.wav,0,pill,271,38,4,5,Français,f,3,0.3,36.67711132,1.18577707
5ec454e23d68ea32ee554d12,22,0,2024-02-27T12:14:00.900Z,english_587.wav,0,pill,271,38,4,5,Français,f,4,0.32341667,-11.53320103,1.64089558
5ec454e23d68ea32ee554d12,23,0,2024-02-27T12:14:00.900Z,english_265.wav,0,pill,523,38,4,5,Français,f,0,0.0,-30.2287418,1.31067296
5ec454e23d68ea32ee554d12,23,0,2024-02-27T12:14:00.900Z,english_265.wav,0,pill,523,38,4,5,Français,f,1,0.1,86.62283936,0.87427745
5ec454e23d68ea32ee554d12,23,0,2024-02-27T12:14:00.900Z,english_265.wav,0,pill,523,38,4,5,Français,f,2,0.2,-21.47577863,1.37620008
5ec454e23d68ea32ee554d12,23,0,2024-02-27T12:14:00.900Z,english_265.wav,0,pill,523,38,4,5,Français,f,3,0.3,84.9300577,0.45825557
5ec454e23d68ea32ee554d12,23,0,2024-02-27T12:14:00.900Z,english_265.wav,0,pill,523,38,4,5,Français,f,4,0.32341667,59.52250756,1.13518739
5ec454e23d68ea32ee554d12,24,0,2024-02-27T12:14:00.900Z,english_437.wav,0,peel,381,38,4,5,Français,f,0,0.0,61.91803223,0.36516876
5ec454e23d68ea32ee554d12,24,0,2024-02-27T12:14:00.900Z,english_437.wav,0,peel,381,38,4,5,Français,f,1,0.1,0.99543568,0.43500315
5ec454e23d68ea32ee554d12,24,0,2024-02-27T12:14:00.900Z,english_437.wav,0,peel,381,38,4,5,Français,f,2,0.2,-50.96874522,1.25398366
5ec454e23d68ea32ee554d12,24,0,2024-02-27T12:14:00.900Z,english_437.wav,0,peel,381,38,4,5,Français,f,3,0.3,-47.73319396,0.60570222
5ec454e23d68ea32ee554d12,24,0,2024-02-27T12:14:00.900Z,english_437.wav,0,peel,381,38,4,5,Français,f,4,0.32341667,15.35939938,0.97208355
5ec454e23d68ea32ee554d12,25,0,2024-02-27T12:14:00.900Z,english_770.wav,0,pill,250,38,4,5,Français,f,0,0.0,-33.21947329,1.48551245
5ec454e23d68ea32ee554d12,25,0,2024-02-27T12:14:00.900Z,english_770.wav,0,pill,250,38,4,5,Français,f,1,0.1,63.53746239,1.21485607
5ec454e23d68ea32ee554d12,25,0,2024-02-27T12:14:00.900Z,english_770.wav,0,pill,250,38,4,5,Français,f,2,0.2,-62.38231874,1.11129762
5ec454e23d68ea32ee554d12,25,0,2024-02-27T12:14:00.900Z,english_770.wav,0,pill,250,38,4,5,Français,f,3,0.3,57.5515188,1.59702794
5ec454e23d68ea32ee554d12,25,0,2024-02-27T12:14:00.900Z,english_770.wav,0,pill,250,38,4,5,Français,f,4,0.32341667,-11.94001254,1.16110171
5ec454e23d68ea32ee554d12,26,0,2024-02-27T12:14:00.900Z,english_438.wav,0,peel,652,38,4,5,Français,f,0,0.0,31.75305261,1.38451981
5ec454e23d68ea32ee554d12,26,0,2024-02-27T12:14:00.900Z,english_438.wav,0,peel,652,38,4,5,Français,f,1,0.1,20.27112767,1.99020027
5ec454e23d68ea32ee554d12,26,0,2024-02-27T12:14:00.900Z,english_438.wav,0,peel,652,38,4,5,Français,f,2,0.2,66.65258945,0.15645945
5ec454e23d68ea32ee554d12,26,0,2024-02-27T12:14:00.900Z,english_438.wav,0,peel,652,38,4,5,Français,f,3,0.3,70.72003494,1.37678514
5ec454e23d68ea32ee554d12,26,0,2024-02-27T12:14:00.900Z,english_438.wav,0,peel,652,38,4,5,Français,f,4,0.32341667,59.11013505,0.82730153
5ec454e23d68ea32ee554d12,27,0,2024-02-27T12:14:00.900Z,english_808.wav,0,peel,935,38,4,5,Français,f,0,0.0,23.02589628,1.07384277
5ec454e23d68ea32ee554d12,27,0,2024-02-27T12:14:00.900Z,english_808.wav,0,peel,935,38,4,5,Français,f,1,0.1,10.58817829,1.3919179
5ec454e23d68ea32ee554d12,27,0,2024-02-27T12:14:00.900Z,english_808.wav,0,peel,935,38,4,5,Français,f,2,0.2,36.77134597,0.54960524
5ec454e23d68ea32ee554d12,27,0,2024-02-27T12:14:00.900Z,english_808.wav,0,peel,935,38,4,5,Français,f,3,0.3,-30.31603221,1.95871365
5ec454e23d68ea32ee554d12,27,0,2024-02-27T12:14:00.900Z,english_808.wav,0,peel,935,38,4,5,Français,f,4,0.32341667,9.74764343,0.79150541
5ec454e23d68ea32ee554d12,28,0,2024-02-27T12:14:00.900Z,english_665.wav,0,peel,506,38,4,5,Français,f,0,0.0,-25.08423312,1.80265724
5ec454e23d68ea32ee554d12,28,0,2024-02-27T12:14:00.900Z,english_665.wav,0,peel,506,38,4,5,Français,f,1,0.1,-88.66042782,0.10063576
5ec454e23d68ea32ee554d12,28,0,2024-02-27T12:14:00.900Z,english_665.wav,0,peel,506,38,4,5,Français,f,2,0.2,-73.67467666,0.92910111
5ec454e23d68ea32ee554d12,28,0,2024-02-27T12:14:00.900Z,english_665.wav,0,peel,506,38,4,5,Français,f,3,0.3,66.53606028,0.83814709
5ec454e23d68ea32ee554d12,28,0,2024-02-27T12:14:00.900Z,english_665.wav,0,peel,506,38,4,5,Français,f,4,0.32341667,-75.03630793,0.77033789
5ec454e23d68ea32ee554d12,29,0,2024-02-27T12:14:00.900Z,english_651.wav,0,pill,982,38,4,5,Français,f,0,0.0,94.66063372,0.16277223
5ec454e23d68ea32ee554d12,29,0,2024-02-27T12:14:00.900Z,english_651.wav,0,pill,982,38,4,5,Français,f,1,0.1,53.93234837,1.71236475
5ec454e23d68ea32ee554d12,29,0,2024-02-27T12:14:00.900Z,english_651.wav,0,pill,982,38,4,5,Français,f,2,0.2,-71.35755131,0.37376336
5ec454e23d68ea32ee554d12,29,0,2024-02-27T12:14:00.900Z,english_651.wav,0,pill,982,38,4,5,Français,f,3,0.3,50.84025958,0.80998932
5ec454e23d68ea32ee554d12,29,0,2024-02-27T12:14:00.900Z,english_651.wav,0,pill,982,38,4,5,Français,f,4,0.32341667,-24.67252949,0.23835763
5ec454e23d68ea32ee554d12,30,0,2024-02-27T12:14:00.900Z,english_24.wav,0,pill,222,38,4,5,Français,f,0,0.0,83.82729659,0.31203725
5ec454e23d68ea32ee554d12,30,0,2024-02-27T12:14:00.900Z,english_24.wav,0,pill,222,38,4,5,Français,f,1,0.1,-2.54724082,1.56948954
5ec454e23d68ea32ee554d12,30,0,2024-02-27T12:14:00.900Z,english_24.wav,0,pill,222,38,4,5,Français,f,2,0.2,88.70909739,0.87333864
5ec454e23d68ea32ee554d12,30,0,2024-02-27T12:14:00.900Z,english_24.wav,0,pill,222,38,4,5,Français,f,3,0.3,48.93770926,0.88535019
5ec454e23d68ea32ee554d12,30,0,2024-02-27T12:14:00.900Z,english_24.wav,0,pill,222,38,4,5,Français,f,4,0.32341667,53.25190048,0.66112496
5ec454e23d68ea32ee554d12,31,0,2024-02-27T12:14:00.900Z,english_968.wav,0,peel,859,38,4,5,Français,f,0,0.0,-36.76350372,0.52322451
5ec454e23d68ea32ee554d12,31,0,2024-02-27T12:14:00.900Z,english_968.wav,0,peel,859,38,4,5,Français,f,1,0.1,-99.8991193,0.66419732
5ec454e23d68ea32ee554d12,31,0,2024-02-27T12:14:00.900Z,english_968.wav,0,peel,859,38,4,5,Français,f,2,0.2,27.503089,0.44232096
5ec454e23d68ea32ee554d12,31,0,2024-02-27T12:14:00.900Z,english_968.wav,0,peel,859,38,4,5,Français,f,3,0.3,-34.85106147,1.90778707
5ec454e23d68ea32ee554d12,31,0,2024-02-27T12:14:00.900Z,english_968.wav,0,peel,859,38,4,5,Français,f,4,0.32341667,68.2869663,0.59652698
5ec454e23d68ea32ee554d12,32,0,2024-02-27T12:14:00.900Z,english_216.wav,0,pill,192,38,4,5,Français,f,0,0.0,-62.2888105,1.07577895
5ec454e23d68ea32ee554d12,32,0,2024-02-27T12:14:00.900Z,english_216.wav,0,pill,192,38,4,5,Français,f,1,0.1,-52.19325919,1.07125686
5ec454e23d68ea32ee554d12,32,0,2024-02-27T12:14:00.900Z,english_216.wav,0,pill,192,38,4,5,Français,f,2,0.2,-77.81566322,1.51342084
5ec454e23d68ea32ee554d12,32,0,2024-02-27T12:14:00.900Z,english_216.wav,0,pill,192,38,4,5,Français,f,3,0.3,73.5246301,1.37714716
5ec454e23d68ea32ee554d12,32,0,2024-02-27T12:14:00.900Z,english_216.wav,0,pill,192,38,4,5,Français,f,4,0.32341667,73.4409389,1.55456291
5ec454e23d68ea32ee554d12,33,0,2024-02-27T12:14:00.900Z,english_326.wav,0,pill,318,38,4,5,Français,f,0,0.0,-13.70476372,1.64570887
5ec454e23d68ea32ee554d12,33,0,2024-02-27T12:14:00.900Z,english_326.wav,0,pill,318,38,4,5,Français,f,1,0.1,47.7156259,0.91266102
5ec454e23d68ea32ee554d12,33,0,2024-02-27T12:14:00.900Z,english_326.wav,0,pill,318,38,4,5,Français,f,2,0.2,23.24839736,0.36997562
5ec454e23d68ea32ee554d12,33,0,2024-02-27T12:14:00.900Z,english_326.wav,0,pill,318,38,4,5,Français,f,3,0.3,67.08212267,1.96258237
5ec454e23d68ea32ee554d12,33,0,2024-02-27T12:14:00.900Z,english_326.wav,0,pill,318,38,4,5,Français,f,4,0.32341667,78.79356023,1.01334204
5ec454e23d68ea32ee554d12,34,0,2024-02-27T12:14:00.900Z,english_101.wav,0,peel,875,38,4,5,Français,f,0,0.0,60.77829508,0.77962125
5ec454e23d68ea32ee554d12,34,0,2024-02-27T12:14:00.900Z,english_101.wav,0,peel,875,38,4,5,Français,f,1,0.1,43.41373716,0.02040908
5ec454e23d68ea32ee554d12,34,0,2024-02-27T12:14:00.900Z,english_101.wav,0,peel,875,38,4,5,Français,f,2,0.2,56.16195873,0.79248433
5ec454e23d68ea32ee554d12,34,0,2024-02-27T12:14:00.900Z,english_101.wav,0,peel,875,38,4,5,Français,f,3,0.3,-99.94719329,1.74003505
5ec454e23d68ea32ee554d12,34,0,2024-02-27T12:14:00.900Z,english_101.wav,0,peel,875,38,4,5,Français,f,4,0.32341667,-1.35074094,1.66206156
5ec454e23d68ea32ee554d12,35,0,2024-02-27T12:14:00.900Z,english_232.wav,0,peel,569,38,4,5,Français,f,0,0.0,15.13134779,0.53160298
5ec454e23d68ea32ee554d12,35,0,2024-02-27T12:14:00.900Z,english_232.wav,0,peel,569,38,4,5,Français,f,1,0.1,-49.29605083,0.4519978
5ec454e23d68ea32ee554d12,35,0,2024-02-27T12:14:00.900Z,english_232.wav,0,peel,569,38,4,5,Français,f,2,0.2,59.10606455,0.39260156
5ec454e23d68ea32ee554d12,35,0,2024-02-27T12:14:00.900Z,english_232.wav,0,peel,569,38,4,5,Français,f,3,0.3,48.81708847,0.4692084
5ec454e23d68ea32ee554d12,35,0,2024-02-27T12:14:00.900Z,english_232.wav,0,peel,569,38,4,5,Français,f,4,0.32341667,14.83590121,0.46233459
5ec454e23d68ea32ee554d12,36,0,2024-02-27T12:14:00.900Z,english_691.wav,0,pill,648,38,4,5,Français,f,0,0.0,28.79078449,1.07683297
5ec454e23d68ea32ee554d12,36,0,2024-02-27T12:14:00.900Z,english_691.wav,0,pill,648,38,4,5,Français,f,1,0.1,99.1184909,1.07376069
5ec454e23d68ea32ee554d12,36,0,2024-02-27T12:14:00.900Z,english_691.wav,0,pill,648,38,4,5,Français,f,2,0.2,-54.13985733,0.28522735
5ec454e23d68ea32ee554d12,36,0,2024-02-27T12:14:00.900Z,english_691.wav,0,pill,648,38,4,5,Français,f,3,0.3,-85.36319246,0.85701066
5ec454e23d68ea32ee554d12,36,0,2024-02-27T12:14:00.900Z,english_691.wav,0,pill,648,38,4,5,Français,f,4,0.32341667,-73.61621094,1.71165398
5ec454e23d68ea32ee554d12,37,0,2024-02-27T12:14:00.900Z,english_147.wav,0,pill,515,38,4,5,Français,f,0,0.0,-14.37625717,1.08714974
5ec454e23d68ea32ee554d12,37,0,2024-02-27T12:14:00.900Z,english_147.wav,0,pill,515,38,4,5,Français,f,1,0.1,-48.99147792,1.05600262
5ec454e23d68ea32ee554d12,37,0,2024-02-27T12:14:00.900Z,english_147.wav,0,pill,515,38,4,5,Français,f,2,0.2,-76.025031,0.62193731
5ec454e23d68ea32ee554d12,37,0,2024-02-27T12:14:00.900Z,english_147.wav,0,pill,515,38,4,5,Français,f,3,0.3,-4.271985,1.23272935
5ec454e23d68ea32ee554d12,37,0,2024-02-27T12:14:00.900Z,english_147.wav,0,pill,515,38,4,5,Français,f,4,0.32341667,90.36670579,0.90867663
5ec454e23d68ea32ee554d12,38,0,2024-02-27T12:14:00.900Z,english_820.wav,0,pill,1283,38,4,5,Français,f,0,0.0,-46.83321603,0.84618107
5ec454e23d68ea32ee554d12,38,0,2024-02-27T12:14:00.900Z,english_820.wav,0,pill,1283,38,4,5,Français,f,1,0.1,41.6487922,0.98544532
5ec454e23d68ea32ee554d12,38,0,2024-02-27T12:14:00.900Z,english_820.wav,0,pill,1283,38,4,5,Français,f,2,0.2,8.4156442,0.7701051
5ec454e23d68ea32ee554d12,38,0,2024-02-27T12:14:00.900Z,english_820.wav,0,pill,1283,38,4,5,Français,f,3,0.3,-54.82963666,1.20043732
5ec454e23d68ea32ee554d12,38,0,2024-02-27T12:14:00.900Z,english_820.wav,0,pill,1283,38,4,5,Français,f,4,0.32341667,30.43602938,1.85489027
5ec454e23d68ea32ee554d12,39,0,2024-02-27T12:14:00.900Z,english_364.wav,0,pill,318,38,4,5,Français,f,0,0.0,19.50953027,1.75500584
5ec454e23d68ea32ee554d12,39,0,2024-02-27T12:14:00.900Z,english_364.wav,0,pill,318,38,4,5,Français,f,1,0.1,48.44847612,1.3553812
5ec454e23d68ea32ee554d12,39,0,2024-02-27T12:14:00.900Z,english_364.wav,0,pill,318,38,4,5,Français,f,2,0.2,-85.20645473,0.86672295
5ec454e23d68ea32ee554d12,39,0,2024-02-27T12:14:00.900Z,english_364.wav,0,pill,318,38,4,5,Français,f,3,0.3,97.47454191,1.42489128
5ec454e23d68ea32ee554d12,39,0,2024-02-27T12:14:00.900Z,english_364.wav,0,pill,318,38,4,5,Français,f,4,0.32341667,-45.42958463,1.19673805
5ec454e23d68ea32ee554d12,40,0,2024-02-27T12:14:00.900Z,english_924.wav,0,peel,573,38,4,5,Français,f,0,0.0,63.64154058,1.83477076
5ec454e23d68ea32ee554d12,40,0,2024-02-27T12:14:00.900Z,english_924.wav,0,peel,573,38,4,5,Français,f,1,0.1,-60.55254199,0.21366754
5ec454e23d68ea32ee554d12,40,0,2024-02-27T12:14:00.900Z,english_924.wav,0,peel,573,38,4,5,Français,f,2,0.2,-47.94670646,1.07859551
5ec454e23d68ea32ee554d12,40,0,2024-02-27T12:14:00.900Z,english_924.wav,0,peel,573,38,4,5,Français,f,3,0.3,-76.50696127,1.9507375
5ec454e23d68ea32ee554d12,40,0,2024-02-27T12:14:00.900Z,english_924.wav,0,peel,573,38,4,5,Français,f,4,0.32341667,44.23103111,1.33476666
5ec454e23d68ea32ee554d12,41,0,2024-02-27T12:14:00.900Z,english_6.wav,0,peel,787,38,4,5,Français,f,0,0.0,-8.2116192,1.24832701
5ec454e23d68ea32ee554d12,41,0,2024-02-27T12:14:00.900Z,english_6.wav,0,peel,787,38,4,5,Français,f,1,0.1,-28.50933877,0.74984456
5ec454e23d68ea32ee554d12,41,0,2024-02-27T12:14:00.900Z,english_6.wav,0,peel,787,38,4,5,Français,f,2,0.2,-90.20174912,1.37568362
5ec454e23d68ea32ee554d12,41,0,2024-02-27T12:14:00.900Z,english_6.wav,0,peel,787,38,4,5,Français,f,3,0.3,-7.18062469,0.47637706
5ec454e23d68ea32ee554d12,41,0,2024-02-27T12:14:00.900Z,english_6.wav,0,peel,787,38,4,5,Français,f,4,0.32341667,-36.83558467,0.68255954
5ec454e23d68ea32ee554d12,42,0,2024-02-27T12:14:00.900Z,english_350.wav,0,pill,348,38,4,5,Français,f,0,0.0,97.64268741,0.61487918
5ec454e23d68ea32ee554d12,42,0,2024-02-27T12:14:00.900Z,english_350.wav,0,pill,348,38,4,5,Français,f,1,0.1,23.96704837,0.40988424
5ec454e23d68ea32ee554d12,42,0,2024-02-27T12:14:00.900Z,english_350.wav,0,pill,348,38,4,5,Français,f,2,0.2,50.30792237,0.86872158
5ec454e23d68ea32ee554d12,42,0,2024-02-27T12:14:00.900Z,english_350.wav,0,pill,348,38,4,5,Français,f,3,0.3,71.77937185,1.01783109
5ec454e23d68ea32ee554d12,42,0,2024-02-27T12:14:00.900Z,english_350.wav,0,pill,348,38,4,5,Français,f,4,0.32341667,-64.81416361,0.68761283
5ec454e23d68ea32ee554d12,43,0,2024-02-27T12:14:00.900Z,english_331.wav,0,peel,322,38,4,5,Français,f,0,0.0,12.66323204,1.93220763
5ec454e23d68ea32ee554d12,43,0,2024-02-27T12:14:00.900Z,english_331.wav,0,peel,322,38,4,5,Français,f,1,0.1,-81.78605138,1.48237299
5ec454e23d68ea32ee554d12,43,0,2024-02-27T12:14:00.900Z,english_331.wav,0,peel,322,38,4,5,Français,f,2,0.2,59.07546792,1.15413743
5ec454e23d68ea32ee554d12,43,0,2024-02-27T12:14:00.900Z,english_331.wav,0,peel,322,38,4,5,Français,f,3,0.3,-83.73170191,1.02182823
5ec454e23d68ea32ee554d12,43,0,2024-02-27T12:14:00.900Z,english_331.wav,0,peel,322,38,4,5,Français,f,4,0.32341667,3.10587362,0.81670354
5ec454e23d68ea32ee554d12,44,0,2024-02-27T12:14:00.900Z,english_838.wav,0,pill,872,38,4,5,Français,f,0,0.0,-46.43239877,0.57293762
5ec454e23d68ea32ee554d12,44,0,2024-02-27T12:14:00.900Z,english_838.wav,0,pill,872,38,4,5,Français,f,1,0.1,-0.77549132,1.65450135
5ec454e23d68ea32ee554d12,44,0,2024-02-27T12:14:00.900Z,english_838.wav,0,pill,872,38,4,5,Français,f,2,0.2,-47.56158581,0.30574951
5ec454e23d68ea32ee554d12,44,0,2024-02-27T12:14:00.900Z,english_838.wav,0,pill,872,38,4,5,Français,f,3,0.3,7.18116474,0.96315644
5ec454e23d68ea32ee554d12,44,0,2024-02-27T12:14:00.900Z,english_838.wav,0,pill,872,38,4,5,Français,f,4,0.32341667,-87.38880816,0.83017899
5ec454e23d68ea32ee554d12,45,0,2024-02-27T12:14:00.900Z,english_618.wav,0,pill,602,38,4,5,Français,f,0,0.0,58.31579708,1.46895394
5ec454e23d68ea32ee554d12,45,0,2024-02-27T12:14:00.900Z,english_618.wav,0,pill,602,38,4,5,Français,f,1,0.1,6.96253647,0.48660613
5ec454e23d68ea32ee554d12,45,0,2024-02-27T12:14:00.900Z,english_618.wav,0,pill,602,38,4,5,Français,f,2,0.2,-4.41581756,1.00963977
5ec454e23d68ea32ee554d12,45,0,2024-02-27T12:14:00.900Z,english_618.wav,0,pill,602,38,4,5,Français,f,3,0.3,-63.5775247,1.29399549
5ec454e23d68ea32ee554d12,45,0,2024-02-27T12:14:00.900Z,english_618.wav,0,pill,602,38,4,5,Français,f,4,0.32341667,97.77631762,0.84060701
5ec454e23d68ea32ee554d12,46,0,2024-02-27T12:14:00.900Z,english_388.wav,0,peel,834,38,4,5,Français,f,0,0.0,17.9760939,0.95494184
5ec454e23d68ea32ee554d12,46,0,2024-02-27T12:14:00.900Z,english_388.wav,0,peel,834,38,4,5,Français,f,1,0.1,-43.00340989,0.10281418
5ec454e23d68ea32ee554d12,46,0,2024-02-27T12:14:00.900Z,english_388.wav,0,peel,834,38,4,5,Français,f,2,0.2,-30.55059063,1.52164503
5ec454e23d68ea32ee554d12,46,0,2024-02-27T12:14:00.900Z,english_388.wav,0,peel,834,38,4,5,Français,f,3,0.3,-92.55876504,1.24827519
5ec454e23d68ea32ee554d12,46,0,2024-02-27T12:14:00.900Z,english_388.wav,0,peel,834,38,4,5,Français,f,4,0.32341667,-64.21175873,0.08180338
5ec454e23d68ea32ee554d12,47,0,2024-02-27T12:14:00.900Z,english_348.wav,0,pill,900,38,4,5,Français,f,0,0.0,21.35215111,0.19799702
5ec454e23d68ea32ee554d12,47,0,2024-02-27T12:14:00.900Z,english_348.wav,0,pill,900,38,4,5,Français,f,1,0.1,14.79849269,0.60931017
5ec454e23d68ea32ee554d12,47,0,2024-02-27T12:14:00.900Z,english_348.wav,0,pill,900,38,4,5,Français,f,2,0.2,53.1788992,0.16102666
5ec454e23d68ea32ee554d12,47,0,2024-02-27T12:14:00.900Z,english_348.wav,0,pill,900,38,4,5,Français,f,3,0.3,-95.85723561,1.54818605
5ec454e23d68ea32ee554d12,47,0,2024-02-27T12:14:00.900Z,english_348.wav,0,pill,900,38,4,5,Français,f,4,0.32341667,5.27283499,0.26552753
5ec454e23d68ea32ee554d12,48,0,2024-02-27T12:14:00.900Z,english_610.wav,0,pill,599,38,4,5,Français,f,0,0.0,-14.96432812,0.5672697
5ec454e23d68ea32ee554d12,48,0,2024-02-27T12:14:00.900Z,english_610.wav,0,pill,599,38,4,5,Français,f,1,0.1,48.51886955,0.75156182
5ec454e23d68ea32ee554d12,48,0,2024-02-27T12:14:00.900Z,english_610.wav,0,pill,599,38,4,5,Français,f,2,0.2,47.07358548,0.38846335
5ec454e23d68ea32ee554d12,48,0,2024-02-27T12:14:00.900Z,english_610.wav,0,pill,599,38,4,5,Français,f,3,0.3,17.30383174,1.52072292
5ec454e23d68ea32ee554d12,48,0,2024-02-27T12:14:00.900Z,english_610.wav,0,pill,599,38,4,5,Français,f,4,0.32341667,1.51764356,1.56024836
5ec454e23d68ea32ee554d12,49,0,2024-02-27T12:14:00.900Z,english_763.wav,0,peel,541,38,4,5,Français,f,0,0.0,64.63144232,0.7800836
5ec454e23d68ea32ee554d12,49,0,2024-02-27T12:14:00.900Z,english_763.wav,0,peel,541,38,4,5,Français,f,1,0.1,8.86346429,1.26656169
5ec454e23d68ea32ee554d12,49,0,2024-02-27T12:14:00.900Z,english_763.wav,0,peel,541,38,4,5,Français,f,2,0.2,32.79569159,1.93170043
5ec454e23d68ea32ee554d12,49,0,2024-02-27T12:14:00.900Z,english_763.wav,0,peel,541,38,4,5,Français,f,3,0.3,10.55051177,0.29422641
5ec454e23d68ea32ee554d12,49,0,2024-02-27T12:14:00.900Z,english_763.wav,0,peel,541,38,4,5,Français,f,4,0.32341667,6.38738619,1.43860225
5ec454e23d68ea32ee554d12,50,1,2024-02-27T12:14:00.900Z,english_56.wav,0,peel,427,38,4,5,Français,f,0,0.0,47.39262259,1.7837475
5ec454e23d68ea32ee554d12,50,1,2024-02-27T12:14:00.900Z,english_56.wav,0,peel,427,38,4,5,Français,f,1,0.1,8.89686315,1.39740624
5ec454e23d68ea32ee554d12,50,1,2024-02-27T12:14:00.900Z,english_56.wav,0,peel,427,38,4,5,Français,f,2,0.2,-49.65570225,0.11209095
5ec454e23d68ea32ee554d12,50,1,2024-02-27T12:14:00.900Z,english_56.wav,0,peel,427,38,4,5,Français,f,3,0.3,44.77904805,1.4946119
5ec454e23d68ea32ee554d12,50,1,2024-02-27T12:14:00.900Z,english_56.wav,0,peel,427,38,4,5,Français,f,4,0.32341667,-94.65832844,1.03498606
5ec454e23d68ea32ee554d12,51,1,2024-02-27T12:14:00.900Z,english_219.wav,0,pill,1147,38,4,5,Français,f,0,0.0,38.40040381,1.09142553
5ec454e23d68ea32ee554d12,51,1,2024-02-27T12:14:00.900Z,english_219.wav,0,pill,1147,38,4,5,Français,f,1,0.1,-26.23926727,0.5740428
5ec454e23d68ea32ee554d12,51,1,2024-02-27T12:14:00.900Z,english_219.wav,0,pill,1147,38,4,5,Français,f,2,0.2,-57.67558578,1.19056911
5ec454e23d68ea32ee554d12,51,1,2024-02-27T12:14:00.900Z,english_219.wav,0,pill,1147,38,4,5,Français,f,3,0.3,50.56926795,1.87089358
5ec454e23d68ea32ee554d12,51,1,2024-02-27T12:14:00.900Z,english_219.wav,0,pill,1147,38,4,5,Français,f,4,0.32341667,64.39220397,1.06933149
5ec454e23d68ea32ee554d12,52,1,2024-02-27T12:14:00.900Z,english_980.wav,0,peel,600,38,4,5,Français,f,0,0.0,-32.33629208,1.21290567
5ec454e23d68ea32ee554d12,52,1,2024-02-27T12:14:00.900Z,english_980.wav,0,peel,600,38,4,5,Français,f,1,0.1,-4.4140807,0.22350007
5ec454e23d68ea32ee554d12,52,1,2024-02-27T12:14:00.900Z,english_980.wav,0,peel,600,38,4,5,Français,f,2,0.2,76.81412515,1.68078519
5ec454e23d68ea32ee554d12,52,1,2024-02-27T12:14:00.900Z,english_980.wav,0,peel,600,38,4,5,Français,f,3,0.3,-16.24877133,0.16816052
5ec454e23d68ea32ee554d12,52,1,2024-02-27T12:14:00.900Z,english_980.wav,0,peel,600,38,4,5,Français,f,4,0.32341667,-26.44128118,1.48722631
5ec454e23d68ea32ee554d12,53,1,2024-02-27T12:14:00.900Z,english_757.wav,0,peel,1038,38,4,5,Français,f,0,0.0,-71.37581006,0.57944866
5ec454e23d68ea32ee554d12,53,1,2024-02-27T12:14:00.900Z,english_757.wav,0,peel,1038,38,4,5,Français,f,1,0.1,-34.89028362,1.76833087
5ec454e23d68ea32ee554d12,53,1,2024-02-27T12:14:00.900Z,english_757.wav,0,peel,1038,38,4,5,Français,f,2,0.2,97.72444176,0.43040584
5ec454e23d68ea32ee554d12,53,1,2024-02-27T12:14:00.900Z,english_757.wav,0,peel,1038,38,4,5,Français,f,3,0.3,8.64322444,1.84780211
5ec454e23d68ea32ee554d12,53,1,2024-02-27T12:14:00.900Z,english_757.wav,0,peel,1038,38,4,5,Français,f,4,0.32341667,-59.15215987,0.21714226
5ec454e23d68ea32ee554d12,54,1,2024-02-27T12:14:00.900Z,english_9.wav,0,peel,352,38,4,5,Français,f,0,0.0,24.77706225,1.13145128
5ec454e23d68ea32ee554d12,54,1,2024-02-27T12:14:00.900Z,english_9.wav,0,peel,352,38,4,5,Français,f,1,0.1,91.05524194,1.19326311
5ec454e23d68ea32ee554d12,54,1,2024-02-27T12:14:00.900Z,english_9.wav,0,peel,352,38,4,5,Français,f,2,0.2,30.20964975,1.50029029
5ec454e23d68ea32ee554d12,54,1,2024-02-27T12:14:00.900Z,english_9.wav,0,peel,352,38,4,5,Français,f,3,0.3,-69.66301283,1.4622179
5ec454e23d68ea32ee554d12,54,1,2024-02-27T12:14:00.900Z,english_9.wav,0,peel,352,38,4,5,Français,f,4,0.32341667,-3.83240646,1.9316504
5ec454e23d68ea32ee554d12,55,1,2024-02-27T12:14:00.900Z,english_62.wav,0,pill,704,38,4,5,Français,f,0,0.0,17.28527913,1.12530616
5ec454e23d68ea32ee554d12,55,1,2024-02-27T12:14:00.900Z,english_62.wav,0,pill,704,38,4,5,Français,f,1,0.1,8.63936001,1.09357984
5ec454e23d68ea32ee554d12,55,1,2024-02-27T12:14:00.900Z,english_62.wav,0,pill,704,38,4,5,Français,f,2,0.2,-69.0074729,1.07648496
5ec454e23d68ea32ee554d12,55,1,2024-02-27T12:14:00.900Z,english_62.wav,0,pill,704,38,4,5,Français,f,3,0.3,-18.85502465,0.36768209
5ec454e23d68ea32ee554d12,55,1,2024-02-27T12:14:00.900Z,english_62.wav,0,pill,704,38,4,5,Français,f,4,0.32341667,59.46739627,0.39033463
5ec454e23d68ea32ee554d12,56,1,2024-02-27T12:14:00.900Z,english_439.wav,0,peel,525,38,4,5,Français,f,0,0.0,-34.98153375,0.51703437
5ec454e23d68ea32ee554d12,56,1,2024-02-27T12:14:00.900Z,english_439.wav,0,peel,525,38,4,5,Français,f,1,0.1,58.81829455,0.92552513
5ec454e23d68ea32ee554d12,56,1,2024-02-27T12:14:00.900Z,english_439.wav,0,peel,525,38,4,5,Français,f,2,0.2,-39.64168408,1.94754337
5ec454e23d68ea32ee554d12,56,1,2024-02-27T12:14:00.900Z,english_439.wav,0,peel,525,38,4,5,Français,f,3,0.3,-65.89684329,0.19153473
5ec454e23d68ea32ee554d12,56,1,2024-02-27T12:14:00.900Z,english_439.wav,0,peel,525,38,4,5,Français,f,4,0.32341667,-18.09409032,1.29438445
5ec454e23d68ea32ee554d12,57,1,2024-02-27T12:14:00.900Z,english_148.wav,0,pill,538,38,4,5,Français,f,0,0.0,-15.87588743,0.13468567
5ec454e23d68ea32ee554d12,57,1,2024-02-27T12:14:00.900Z,english_148.wav,0,pill,538,38,4,5,Français,f,1,0.1,66.05332506,1.11017862
5ec454e23d68ea32ee554d12,57,1,2024-02-27T12:14:00.900Z,english_148.wav,0,pill,538,38,4,5,Français,f,2,0.2,50.59551539,0.42983488
5ec454e23d68ea32ee554d12,57,1,2024-02-27T12:14:00.900Z,english_148.wav,0,pill,538,38,4,5,Français,f,3,0.3,-59.45276716,0.2729575
5ec454e23d68ea32ee554d12,57,1,2024-02-27T12:14:00.900Z,english_148.wav,0,pill,538,38,4,5,Français,f,4,0.32341667,58.4155276,0.65396017
5ec454e23d68ea32ee554d12,58,1,2024-02-27T12:14:00.900Z,english_449.wav,0,peel,850,38,4,5,Français,f,0,0.0,-46.54576765,0.60085197
5ec454e23d68ea32ee554d12,58,1,2024-02-27T12:14:00.900Z,english_449.wav,0,peel,850,38,4,5,Français,f,1,0.1,20.05422573,1.74901032
5ec454e23d68ea32ee554d12,58,1,2024-02-27T12:14:00.900Z,english_449.wav,0,peel,850,38,4,5,Français,f,2,0.2,54.52400621,1.9506545
5ec454e23d68ea32ee554d12,58,1,2024-02-27T12:14:00.900Z,english_449.wav,0,peel,850,38,4,5,Français,f,3,0.3,73.66855139,1.81044704
5ec454e23d68ea32ee554d12,58,1,2024-02-27T12:14:00.900Z,english_449.wav,0,peel,850,38,4,5,Français,f,4,0.32341667,-1.88675615,0.93562966
5ec454e23d68ea32ee554d12,59,1,2024-02-27T12:14:00.900Z,english_31.wav,0,pill,388,38,4,5,Français,f,0,0.0,21.28810337,1.2057056
5ec454e23d68ea32ee554d12,59,1,2024-02-27T12:14:00.900Z,english_31.wav,0,pill,388,38,4,5,Français,f,1,0.1,68.821868,0.99381392
5ec454e23d68ea32ee554d12,59,1,2024-02-27T12:14:00.900Z,english_31.wav,0,pill,388,38,4,5,Français,f,2,0.2,-73.02143346,0.87600828
5ec454e23d68ea32ee554d12,59,1,2024-02-27T12:14:00.900Z,english_31.wav,0,pill,388,38,4,5,Français,f,3,0.3,68.60173581,1.15844697
5ec454e23d68ea32ee554d12,59,1,2024-02-27T12:14:00.900Z,english_31.wav,0,pill,388,38,4,5,Français,f,4,0.32341667,51.47999234,1.3722803
5ec454e23d68ea32ee554d12,60,1,2024-02-27T12:14:00.900Z,english_986.wav,0,peel,554,38,4,5,Français,f,0,0.0,36.93997263,1.7539978
5ec454e23d68ea32ee554d12,60,1,2024-02-27T12:14:00.900Z,english_986.wav,0,peel,554,38,4,5,Français,f,1,0.1,-76.80061303,1.40735445
5ec454e23d68ea32ee554d12,60,1,2024-02-27T12:14:00.900Z,english_986.wav,0,peel,554,38,4,5,Français,f,2,0.2,60.8418497,0.62226098
5ec454e23d68ea32ee554d12,60,1,2024-02-27T12:14:00.900Z,english_986.wav,0,peel,554,38,4,5,Français,f,3,0.3,-27.90828951,0.48175931
5ec454e23d68ea32ee554d12,60,1,2024-02-27T12:14:00.900Z,english_986.wav,0,peel,554,38,4,5,Français,f,4,0.32341667,99.51838141,1.5918282
5ec454e23d68ea32ee554d12,61,1,2024-02-27T12:14:00.900Z,english_231.wav,0,peel,414,38,4,5,Français,f,0,0.0,-57.04299033,1.30850831
5ec454e23d68ea32ee554d12,61,1,2024-02-27T12:14:00.900Z,english_231.wav,0,peel,414,38,4,5,Français,f,1,0.1,-61.30294243,1.06317761
5ec454e23d68ea32ee554d12,61,1,2024-02-27T12:14:00.900Z,english_231.wav,0,peel,414,38,4,5,Français,f,2,0.2,11.10207427,1.86768436
5ec454e23d68ea32ee554d12,61,1,2024-02-27T12:14:00.900Z,english_231.wav,0,peel,414,38,4,5,Français,f,3,0.3,-1.38864911,1.42169342
5ec454e23d68ea32ee554d12,61,1,2024-02-27T12:14:00.900Z,english_231.wav,0,peel,414,38,4,5,Français,f,4,0.32341667,-40.37897369,0.58634772
5ec454e23d68ea32ee554d12,62,1,2024-02-27T12:14:00.900Z,english_66.wav,0,pill,533,38,4,5,Français,f,0,0.0,16.07147303,1.75051971
5ec454e23d68ea32ee554d12,62,1,2024-02-27T12:14:00.900Z,english_66.wav,0,pill,533,38,4,5,Français,f,1,0.1,50.76577123,0.02971233
5ec454e23d68ea32ee554d12,62,1,2024-02-27T12:14:00.900Z,english_66.wav,0,pill,533,38,4,5,Français,f,2,0.2,-29.1595681,0.63583886
5ec454e23d68ea32ee554d12,62,1,2024-02-27T12:14:00.900Z,english_66.wav,0,pill,533,38,4,5,Français,f,3,0.3,-80.89120138,1.46734397
5ec454e23d68ea32ee554d12,62,1,2024-02-27T12:14:00.900Z,english_66.wav,0,pill,533,38,4,5,Français,f,4,0.32341667,-8.46229461,1.61280944
5ec454e23d68ea32ee554d12,63,1,2024-02-27T12:14:00.900Z,english_473.wav,0,peel,690,38,4,5,Français,f,0,0.0,2.94536382,1.14273616
5ec454e23d68ea32ee554d12,63,1,2024-02-27T12:14:00.900Z,english_473.wav,0,peel,690,38,4,5,Français,f,1,0.1,67.15962,0.71228689
5ec454e23d68ea32ee554d12,63,1,2024-02-27T12:14:00.900Z,english_473.wav,0,peel,690,38,4,5,Français,f,2,0.2,-20.48190634,1.20280034
5ec454e23d68ea32ee554d12,63,1,2024-02-27T12:14:00.900Z,english_473.wav,0,peel,690,38,4,5,Français,f,3,0.3,20.58811131,0.94325649
5ec454e23d68ea32ee554d12,63,1,2024-02-27T12:14:00.900Z,english_473.wav,0,peel,690,38,4,5,Français,f,4,0.32341667,-71.10919795,1.82149668
5ec454e23d68ea32ee554d12,64,1,2024-02-27T12:14:00.900Z,english_740.wav,0,pill,665,38,4,5,Français,f,0,0.0,17.63845752,0.65519257
5ec454e23d68ea32ee554d12,64,1,2024-02-27T12:14:00.900Z,english_740.wav,0,pill,665,38,4,5,Français,f,1,0.1,36.88289119,0.996231
5ec454e23d68ea32ee554d12,64,1,2024-02-27T12:14:00.900Z,english_740.wav,0,pill,665,38,4,5,Français,f,2,0.2,-63.85348159,0.85360158
5ec454e23d68ea32ee554d12,64,1,2024-02-27T12:14:00.900Z,english_740.wav,0,pill,665,38,4,5,Français,f,3,0.3,-97.96670479,1.42654033
5ec454e23d68ea32ee554d12,64,1,2024-02-27T12:14:00.900Z,english_740.wav,0,pill,665,38,4,5,Français,f,4,0.32341667,43.035587,1.01691569
5ec454e23d68ea32ee554d12,65,1,2024-02-27T12:14:00.900Z,english_955.wav,0,pill,1154,38,4,5,Français,f,0,0.0,-93.58498903,1.26703381
5ec454e23d68ea32ee554d12,65,1,2024-02-27T12:14:00.900Z,english_955.wav,0,pill,1154,38,4,5,Français,f,1,0.1,-11.56731864,0.51967441
5ec454e23d68ea32ee554d12,65,1,2024-02-27T12:14:00.900Z,english_955.wav,0,pill,1154,38,4,5,Français,f,2,0.2,60.37787928,1.0313906
5ec454e23d68ea32ee554d12,65,1,2024-02-27T12:14:00.900Z,english_955.wav,0,pill,1154,38,4,5,Français,f,3,0.3,83.42366765,1.58878747
5ec454e23d68ea32ee554d12,65,1,2024-02-27T12:14:00.900Z,english_955.wav,0,pill,1154,38,4,5,Français,f,4,0.32341667,-60.32056418,1.0025339
5ec454e23d68ea32ee554d12,66,1,2024-02-27T12:14:00.900Z,english_795.wav,0,pill,564,38,4,5,Français,f,0,0.0,39.36518311,1.47453336
5ec454e23d68ea32ee554d12,66,1,2024-02-27T12:14:00.900Z,english_795.wav,0,pill,564,38,4,5,Français,f,1,0.1,16.50141431,0.29075574
5ec454e23d68ea32ee554d12,66,1,2024-02-27T12:14:00.900Z,english_795.wav,0,pill,564,38,4,5,Français,f,2,0.2,54.87860026,1.88174141
5ec454e23d68ea32ee554d12,66,1,2024-02-27T12:14:00.900Z,english_795.wav,0,pill,564,38,4,5,Français,f,3,0.3,61.09971909,0.27471403
5ec454e23d68ea32ee554d12,66,1,2024-02-27T12:14:00.900Z,english_795.wav,0,pill,564,38,4,5,Français,f,4,0.32341667,4.28490532,0.11399574
5ec454e23d68ea32ee554d12,67,1,2024-02-27T12:14:00.900Z,english_648.wav,0,pill,488,38,4,5,Français,f,0,0.0,-36.17742204,0.57576188
5ec454e23d68ea32ee554d12,67,1,2024-02-27T12:14:00.900Z,english_648.wav,0,pill,488,38,4,5,Français,f,1,0.1,30.10697278,1.1310908
5ec454e23d68ea32ee554d12,67,1,2024-02-27T12:14:00.900Z,english_648.wav,0,pill,488,38,4,5,Français,f,2,0.2,-67.31320052,1.67112441
5ec454e23d68ea32ee554d12,67,1,2024-02-27T12:14:00.900Z,english_648.wav,0,pill,488,38,4,5,Français,f,3,0.3,-10.94597212,0.39641968
5ec454e23d68ea32ee554d12,67,1,2024-02-27T12:14:00.900Z,english_648.wav,0,pill,488,38,4,5,Français,f,4,0.32341667,72.59648235,1.93789316
5ec454e23d68ea32ee554d12,68,1,2024-02-27T12:14:00.900Z,english_930.wav,0,pill,493,38,4,5,Français,f,0,0.0,-52.65701122,0.60066533
5ec454e23d68ea32ee554d12,68,1,2024-02-27T12:14:00.900Z,english_930.wav,0,pill,493,38,4,5,Français,f,1,0.1,-24.36484499,1.33650528
5ec454e23d68ea32ee554d12,68,1,2024-02-27T12:14:00.900Z,english_930.wav,0,pill,493,38,4,5,Français,f,2,0.2,4.10813066,0.15979886
5ec454e23d68ea32ee554d12,68,1,2024-02-27T12:14:00.900Z,english_930.wav,0,pill,493,38,4,5,Français,f,3,0.3,93.74919515,1.46288505
5ec454e23d68ea32ee554d12,68,1,2024-02-27T12:14:00.900Z,english_930.wav,0,pill,493,38,4,5,Français,f,4,0.32341667,66.31726896,0.93993915
5ec454e23d68ea32ee554d12,69,1,2024-02-27T12:14:00.900Z,english_755.wav,0,peel,1321,38,4,5,Français,f,0,0.0,-15.85533995,0.06987403
5ec454e23d68ea32ee554d12,69,1,2024-02-27T12:14:00.900Z,english_755.wav,0,peel,1321,38,4,5,Français,f,1,0.1,-97.95934782,0.83204773
5ec454e23d68ea32ee554d12,69,1,2024-02-27T12:14:00.900Z,english_755.wav,0,peel,1321,38,4,5,Français,f,2,0.2,-5.14559719,1.06816443
5ec454e23d68ea32ee554d12,69,1,2024-02-27T12:14:00.900Z,english_755.wav,0,peel,1321,38,4,5,Français,f,3,0.3,32.74087849,1.42856986
5ec454e23d68ea32ee554d12,69,1,2024-02-27T12:14:00.900Z,english_755.wav,0,peel,1321,38,4,5,Français,f,4,0.32341667,-56.93437429,0.58130438
5ec454e23d68ea32ee554d12,70,1,2024-02-27T12:14:00.900Z,english_379.wav,0,peel,533,38,4,5,Français,f,0,0.0,30.14616912,1.43961489
5ec454e23d68ea32ee554d12,70,1,2024-02-27T12:14:00.900Z,english_379.wav,0,peel,533,38,4,5,Français,f,1,0.1,-79.51193423,1.4219763
5ec454e23d68ea32ee554d12,70,1,2024-02-27T12:14:00.900Z,english_379.wav,0,peel,533,38,4,5,Français,f,2,0.2,7.34860539,0.62633101
5ec454e23d68ea32ee554d12,70,1,2024-02-27T12:14:00.900Z,english_379.wav,0,peel,533,38,4,5,Français,f,3,0.3,-43.99342265,1.13621958
5ec454e23d68ea32ee554d12,70,1,2024-02-27T12:14:00.900Z,english_379.wav,0,peel,533,38,4,5,Français,f,4,0.32341667,37.72881761,1.35387794
5ec454e23d68ea32ee554d12,71,1,2024-02-27T12:14:00.900Z,english_36.wav,0,peel,1115,38,4,5,Français,f,0,0.0,8.79498818,0.0614271
5ec454e23d68ea32ee554d12,71,1,2024-02-27T12:14:00.900Z,english_36.wav,0,peel,1115,38,4,5,Français,f,1,0.1,-18.99628775,0.22652961
5ec454e23d68ea32ee554d12,71,1,2024-02-27T12:14:00.900Z,english_36.wav,0,peel,1115,38,4,5,Français,f,2,0.2,-17.40156662,0.46484299
5ec454e23d68ea32ee554d12,71,1,2024-02-27T12:14:00.900Z,english_36.wav,0,peel,1115,38,4,5,Français,f,3,0.3,-85.73958234,0.81464033
5ec454e23d68ea32ee554d12,71,1,2024-02-27T12:14:00.900Z,english_36.wav,0,peel,1115,38,4,5,Français,f,4,0.32341667,45.44069908,0.21843777
5ec454e23d68ea32ee554d12,72,1,2024-02-27T12:14:00.900Z,english_638.wav,0,peel,1135,38,4,5,Français,f,0,0.0,6.92468799,1.1702122
5ec454e23d68ea32ee554d12,72,1,2024-02-27T12:14:00.900Z,english_638.wav,0,peel,1135,38,4,5,Français,f,1,0.1,52.10042521,0.51269982
5ec454e23d68ea32ee554d12,72,1,2024-02-27T12:14:00.900Z,english_638.wav,0,peel,1135,38,4,5,Français,f,2,0.2,-39.07293948,0.1912204
5ec454e23d68ea32ee554d12,72,1,2024-02-27T12:14:00.900Z,english_638.wav,0,peel,1135,38,4,5,Français,f,3,0.3,38.46029754,0.91406415
5ec454e23d68ea32ee554d12,72,1,2024-02-27T12:14:00.900Z,english_638.wav,0,peel,1135,38,4,5,Français,f,4,0.32341667,-16.6630855,1.67689755
5ec454e23d68ea32ee554d12,73,1,2024-02-27T12:14:00.900Z,english_126.wav,0,peel,467,38,4,5,Français,f,0,0.0,-71.89060105,0.84485729
5ec454e23d68ea32ee554d12,73,1,2024-02-27T12:14:00.900Z,english_126.wav,0,peel,467,38,4,5,Français,f,1,0.1,-54.28004149,1.61340521
5ec454e23d68ea32ee554d12,73,1,2024-02-27T12:14:00.900Z,english_126.wav,0,peel,467,38,4,5,Français,f,2,0.2,67.0997098,1.10892805
5ec454e23d68ea32ee554d12,73,1,2024-02-27T12:14:00.900Z,english_126.wav,0,peel,467,38,4,5,Français,f,3,0.3,-96.31741745,1.20133652
5ec454e23d68ea32ee554d12,73,1,2024-02-27T12:14:00.900Z,english_126.wav,0,peel,467,38,4,5,Français,f,4,0.32341667,22.67293764,0.33470898
5ec454e23d68ea32ee554d12,74,1,2024-02-27T12:14:00.900Z,english_104.wav,0,peel,1222,38,4,5,Français,f,0,0.0,42.44693926,0.1741435
5ec454e23d68ea32ee554d12,74,1,2024-02-27T12:14:00.900Z,english_104.wav,0,peel,1222,38,4,5,Français,f,1,0.1,82.22484934,0.11379641
5ec454e23d68ea32ee554d12,74,1,2024-02-27T12:14:00.900Z,english_104.wav,0,peel,1222,38,4,5,Français,f,2,0.2,7.21737924,1.60376175
5ec454e23d68ea32ee554d12,74,1,2024-02-27T12:14:00.900Z,english_104.wav,0,peel,1222,38,4,5,Français,f,3,0.3,26.54640215,1.08059257
5ec454e23d68ea32ee554d12,74,1,2024-02-27T12:14:00.900Z,english_104.wav,0,peel,1222,38,4,5,Français,f,4,0.32341667,-33.4974026,1.8061622
5ec454e23d68ea32ee554d12,75,1,2024-02-27T12:14:00.900Z,english_829.wav,0,peel,488,38,4,5,Français,f,0,0.0,60.30417439,0.94286345
5ec454e23d68ea32ee554d12,75,1,2024-02-27T12:14:00.900Z,english_829.wav,0,peel,488,38,4,5,Français,f,1,0.1,-26.87459656,0.76756767
5ec454e23d68ea32ee554d12,75,1,2024-02-27T12:14:00.900Z,english_829.wav,0,peel,488,38,4,5,Français,f,2,0.2,59.05286014,1.50609211
5ec454e23d68ea32ee554d12,75,1,2024-02-27T12:14:00.900Z,english_829.wav,0,peel,488,38,4,5,Français,f,3,0.3,-38.64739237,0.33518122
5ec454e23d68ea32ee554d12,75,1,2024-02-27T12:14:00.900Z,english_829.wav,0,peel,488,38,4,5,Français,f,4,0.32341667,68.61732932,1.40687349
5ec454e23d68ea32ee554d12,76,1,2024-02-27T12:14:00.900Z,english_486.wav,0,pill,568,38,4,5,Français,f,0,0.0,31.41997184,1.22599644
5ec454e23d68ea32ee554d12,76,1,2024-02-27T12:14:00.900Z,english_486.wav,0,pill,568,38,4,5,Français,f,1,0.1,58.03480486,1.4547445
5ec454e23d68ea32ee554d12,76,1,2024-02-27T12:14:00.900Z,english_486.wav,0,pill,568,38,4,5,Français,f,2,0.2,-62.84801238,0.27967606
5ec454e23d68ea32ee554d12,76,1,2024-02-27T12:14:00.900Z,english_486.wav,0,pill,568,38,4,5,Français,f,3,0.3,10.62451678,0.02065399
5ec454e23d68ea32ee554d12,76,1,2024-02-27T12:14:00.900Z,english_486.wav,0,pill,568,38,4,5,Français,f,4,0.32341667,10.31835057,0.3128479
5ec454e23d68ea32ee554d12,77,1,2024-02-27T12:14:00.900Z,english_570.wav,0,peel,451,38,4,5,Français,f,0,0.0,79.72420881,1.67561776
5ec454e23d68ea32ee554d12,77,1,2024-02-27T12:14:00.900Z,english_570.wav,0,peel,451,38,4,5,Français,f,1,0.1,-10.34227762,1.50139893
5ec454e23d68ea32ee554d12,77,1,2024-02-27T12:14:00.900Z,english_570.wav,0,peel,451,38,4,5,Français,f,2,0.2,18.32754659,1.41834695
5ec454e23d68ea32ee554d12,77,1,2024-02-27T12:14:00.900Z,english_570.wav,0,peel,451,38,4,5,Français,f,3,0.3,15.23919529,1.12876239
5ec454e23d68ea32ee554d12,77,1,2024-02-27T12:14:00.900Z,english_570.wav,0,peel,451,38,4,5,Français,f,4,0.32341667,-28.05357781,0.72546523
5ec454e23d68ea32ee554d12,78,1,2024-02-27T12:14:00.900Z,english_128.wav,0,pill,642,38,4,5,Français,f,0,0.0,-84.07301703,0.96445051
5ec454e23d68ea32ee554d12,78,1,2024-02-27T12:14:00.900Z,english_128.wav,0,pill,642,38,4,5,Français,f,1,0.1,0.2051398,0.77165422
5ec454e23d68ea32ee554d12,78,1,2024-02-27T12:14:00.900Z,english_128.wav,0,pill,642,38,4,5,Français,f,2,0.2,50.77588291,0.60279997
5ec454e23d68ea32ee554d12,78,1,2024-02-27T12:14:00.900Z,english_128.wav,0,pill,642,38,4,5,Français,f,3,0.3,3.27834455,0.59915485
5ec454e23d68ea32ee554d12,78,1,2024-02-27T12:14:00.900Z,english_128.wav,0,pill,642,38,4,5,Français,f,4,0.32341667,59.5943459,0.43521132
5ec454e23d68ea32ee554d12,79,1,2024-02-27T12:14:00.900Z,english_901.wav,0,peel,456,38,4,5,Français,f,0,0.0,-14.81770559,1.5194741
5ec454e23d68ea32ee554d12,79,1,2024-02-27T12:14:00.900Z,english_901.wav,0,peel,456,38,4,5,Français,f,1,0.1,-27.73561163,1.98674938
5ec454e23d68ea32ee554d12,79,1,2024-02-27T12:14:00.900Z,english_901.wav,0,peel,456,38,4,5,Français,f,2,0.2,-22.44015454,0.54356598
5ec454e23d68ea32ee554d12,79,1,2024-02-27T12:14:00.900Z,english_901.wav,0,peel,456,38,4,5,Français,f,3,0.3,-41.34815185,1.30497628
5ec454e23d68ea32ee554d12,79,1,2024-02-27T12:14:00.900Z,english_901.wav,0,peel,456,38,4,5,Français,f,4,0.32341667,10.13492358,0.61526789
5ec454e23d68ea32ee554d12,80,1,2024-02-27T12:14:00.900Z,english_493.wav,0,peel,742,38,4,5,Français,f,0,0.0,42.62366846,0.72879325
5ec454e23d68ea32ee554d12,80,1,2024-02-27T12:14:00.900Z,english_493.wav,0,peel,742,38,4,5,Français,f,1,0.1,-24.95330968,1.87742997
5ec454e23d68ea32ee554d12,80,1,2024-02-27T12:14:00.900Z,english_493.wav,0,peel,742,38,4,5,Français,f,2,0.2,82.3526737,1.69463318
5ec454e23d68ea32ee554d12,80,1,2024-02-27T12:14:00.900Z,english_493.wav,0,peel,742,38,4,5,Français,f,3,0.3,53.78370402,0.82529142
5ec454e23d68ea32ee554d12,80,1,2024-02-27T12:14:00.900Z,english_493.wav,0,peel,742,38,4,5,Français,f,4,0.32341667,-52.5410085,0.10126548
5ec454e23d68ea32ee554d12,81,1,2024-02-27T12:14:00.900Z,english_612.wav,0,pill,484,38,4,5,Français,f,0,0.0,-84.32217164,1.34068621
5ec454e23d68ea32ee554d12,81,1,2024-02-27T12:14:00.900Z,english_612.wav,0,pill,484,38,4,5,Français,f,1,0.1,36.55311424,0.03443149
5ec454e23d68ea32ee554d12,81,1,2024-02-27T12:14:00.900Z,english_612.wav,0,pill,484,38,4,5,Français,f,2,0.2,92.38334081,0.45903509
5ec454e23d68ea32ee554d12,81,1,2024-02-27T12:14:00.900Z,english_612.wav,0,pill,484,38,4,5,Français,f,3,0.3,11.68953794,0.60209198
5ec454e23d68ea32ee554d12,81,1,2024-02-27T12:14:00.900Z,english_612.wav,0,pill,484,38,4,5,Français,f,4,0.32341667,43.3279226,0.29533154
5ec454e23d68ea32ee554d12,82,1,2024-02-27T12:14:00.900Z,english_145.wav,0,pill,376,38,4,5,Français,f,0,0.0,-29.75830226,1.9441914
5ec454e23d68ea32ee554d12,82,1,2024-02-27T12:14:00.900Z,english_145.wav,0,pill,376,38,4,5,Français,f,1,0.1,0.94664025,0.04744273
5ec454e23d68ea32ee554d12,82,1,2024-02-27T12:14:00.900Z,english_145.wav,0,pill,376,38,4,5,Français,f,2,0.2,-55.39340023,1.27144901
5ec454e23d68ea32ee554d12,82,1,2024-02-27T12:14:00.900Z,english_145.wav,0,pill,376,38,4,5,Français,f,3,0.3,-49.58722608,0.20842421
5ec454e23d68ea32ee554d12,82,1,2024-02-27T12:14:00.900Z,english_145.wav,0,pill,376,38,4,5,Français,f,4,0.32341667,-83.35110665,0.85478836
5ec454e23d68ea32ee554d12,83,1,2024-02-27T12:14:00.900Z,english_442.wav,0,peel,355,38,4,5,Français,f,0,0.0,-5.21319176,1.35819452
5ec454e23d68ea32ee554d12,83,1,2024-02-27T12:14:00.900Z,english_442.wav,0,peel,355,38,4,5,Français,f,1,0.1,-16.23989513,1.66019663
5ec454e23d68ea32ee554d12,83,1,2024-02-27T12:14:00.900Z,english_442.wav,0,peel,355,38,4,5,Français,f,2,0.2,-36.77315909,0.51170704
5ec454e23d68ea32ee554d12,83,1,2024-02-27T12:14:00.900Z,english_442.wav,0,peel,355,38,4,5,Français,f,3,0.3,-33.51446291,1.6590932
5ec454e23d68ea32ee554d12,83,1,2024-02-27T12:14:00.900Z,english_442.wav,0,peel,355,38,4,5,Français,f,4,0.32341667,-25.07447919,0.97998973
5ec454e23d68ea32ee554d12,84,1,2024-02-27T12:14:00.900Z,english_540.wav,0,pill,1031,38,4,5,Français,f,0,0.0,-46.6752609,1.16352469
5ec454e23d68ea32ee554d12,84,1,2024-02-27T12:14:00.900Z,english_540.wav,0,pill,1031,38,4,5,Français,f,1,0.1,-93.20209644,0.0234781
5ec454e23d68ea32ee554d12,84,1,2024-02-27T12:14:00.900Z,english_540.wav,0,pill,1031,38,4,5,Français,f,2,0.2,64.96419662,0.05926191
5ec454e23d68ea32ee554d12,84,1,2024-02-27T12:14:00.900Z,english_540.wav,0,pill,1031,38,4,5,Français,f,3,0.3,-12.16484387,1.47406284
5ec454e23d68ea32ee554d12,84,1,2024-02-27T12:14:00.900Z,english_540.wav,0,pill,1031,38,4,5,Français,f,4,0.32341667,-44.34688232,0.60104864
5ec454e23d68ea32ee554d12,85,1,2024-02-27T12:14:00.900Z,english_842.wav,0,pill,1546,38,4,5,Français,f,0,0.0,-48.5952207,0.12382156
5ec454e23d68ea32ee554d12,85,1,2024-02-27T12:14:00.900Z,english_842.wav,0,pill,1546,38,4,5,Français,f,1,0.1,29.19485822,1.75564688
5ec454e23d68ea32ee554d12,85,1,2024-02-27T12:14:00.900Z,english_842.wav,0,pill,1546,38,4,5,Français,f,2,0.2,84.54328152,0.24815543
5ec454e23d68ea32ee554d12,85,1,2024-02-27T12:14:00.900Z,english_842.wav,0,pill,1546,38,4,5,Français,f,3,0.3,69.99994667,1.2885643
5ec454e23d68ea32ee554d12,85,1,2024-02-27T12:14:00.900Z,english_842.wav,0,pill,1546,38,4,5,Français,f,4,0.32341667,56.72069463,0.70518165
5ec454e23d68ea32ee554d12,86,1,2024-02-27T12:14:00.900Z,english_965.wav,0,peel,265,38,4,5,Français,f,0,0.0,-19.49526798,1.71910172
5ec454e23d68ea32ee554d12,86,1,2024-02-27T12:14:00.900Z,english_965.wav,0,peel,265,38,4,5,Français,f,1,0.1,-33.46093545,1.16323176
5ec454e23d68ea32ee554d12,86,1,2024-02-27T12:14:00.900Z,english_965.wav,0,peel,265,38,4,5,Français,f,2,0.2,95.24809114,0.56514201
5ec454e23d68ea32ee554d12,86,1,2024-02-27T12:14:00.900Z,english_965.wav,0,peel,265,38,4,5,Français,f,3,0.3,26.23968625,1.82539978
5ec454e23d68ea32ee554d12,86,1,2024-02-27T12:14:00.900Z,english_965.wav,0,peel,265,38,4,5,Français,f,4,0.32341667,15.70217089,1.7659451
5ec454e23d68ea32ee554d12,87,1,2024-02-27T12:14:00.900Z,english_870.wav,0,peel,464,38,4,5,Français,f,0,0.0,-85.66751388,1.70746054
5ec454e23d68ea32ee554d12,87,1,2024-02-27T12:14:00.900Z,english_870.wav,0,peel,464,38,4,5,Français,f,1,0.1,30.55194498,0.68953906
5ec454e23d68ea32ee554d12,87,1,2024-02-27T12:14:00.900Z,english_870.wav,0,peel,464,38,4,5,Français,f,2,0.2,-98.28008273,1.62274852
5ec454e23d68ea32ee554d12,87,1,2024-02-27T12:14:00.900Z,english_870.wav,0,peel,464,38,4,5,Français,f,3,0.3,-58.1418371,0.74531017
5ec454e23d68ea32ee554d12,87,1,2024-02-27T12:14:00.900Z,english_870.wav,0,peel,464,38,4,5,Français,f,4,0.32341667,81.20200135,1.06596266
5ec454e23d68ea32ee554d12,88,1,2024-02-27T12:14:00.900Z,english_694.wav,0,pill,507,38,4,5,Français,f,0,0.0,-79.88370205,0.99496101
5ec454e23d68ea32ee554d12,88,1,2024-02-27T12:14:00.900Z,english_694.wav,0,pill,507,38,4,5,Français,f,1,0.1,-58.02841319,0.06406007
5ec454e23d68ea32ee554d12,88,1,2024-02-27T12:14:00.900Z,english_694.wav,0,pill,507,38,4,5,Français,f,2,0.2,-50.54988317,0.5055253
5ec454e23d68ea32ee554d12,88,1,2024-02-27T12:14:00.900Z,english_694.wav,0,pill,507,38,4,5,Français,f,3,0.3,-20.79864769,0.19498426
5ec454e23d68ea32ee554d12,88,1,2024-02-27T12:14:00.900Z,english_694.wav,0,pill,507,38,4,5,Français,f,4,0.32341667,-73.64916114,0.36410653
5ec454e23d68ea32ee554d12,89,1,2024-02-27T12:14:00.900Z,english_751.wav,0,peel,467,38,4,5,Français,f,0,0.0,45.03630887,0.43450625
5ec454e23d68ea32ee554d12,89,1,2024-02-27T12:14:00.900Z,english_751.wav,0,peel,467,38,4,5,Français,f,1,0.1,46.59103402,1.30072592
5ec454e23d68ea32ee554d12,89,1,2024-02-27T12:14:00.900Z,english_751.wav,0,peel,467,38,4,5,Français,f,2,0.2,-30.90440374,1.20093797
5ec454e23d68ea32ee554d12,89,1,2024-02-27T12:14:00.900Z,english_751.wav,0,peel,467,38,4,5,Français,f,3,0.3,-61.26470289,0.81911259
5ec454e23d68ea32ee554d12,89,1,2024-02-27T12:14:00.900Z,english_751.wav,0,peel,467,38,4,5,Français,f,4,0.32341667,34.91384756,0.19140491
5ec454e23d68ea32ee554d12,90,1,2024-02-27T12:14:00.900Z,english_249.wav,0,pill,555,38,4,5,Français,f,0,0.0,78.40227579,1.91339694
5ec454e23d68ea32ee554d12,90,1,2024-02-27T12:14:00.900Z,english_249.wav,0,pill,555,38,4,5,Français,f,1,0.1,-55.1129652,1.00834957
5ec454e23d68ea32ee554d12,90,1,2024-02-27T12:14:00.900Z,english_249.wav,0,pill,555,38,4,5,Français,f,2,0.2,6.74447168,0.29418026
5ec454e23d68ea32ee554d12,90,1,2024-02-27T12:14:00.900Z,english_249.wav,0,pill,555,38,4,5,Français,f,3,0.3,27.3376716,1.53256547
5ec454e23d68ea32ee554d12,90,1,2024-02-27T12:14:00.900Z,english_249.wav,0,pill,555,38,4,5,Français,f,4,0.32341667,-97.08031886,0.99264532
5ec454e23d68ea32ee554d12,91,1,2024-02-27T12:14:00.900Z,english_525.wav,0,pill,644,38,4,5,Français,f,0,0.0,-21.23223701,1.69398532
5ec454e23d68ea32ee554d12,91,1,2024-02-27T12:14:00.900Z,english_525.wav,0,pill,644,38,4,5,Français,f,1,0.1,3.49974992,0.25491439
5ec454e23d68ea32ee554d12,91,1,2024-02-27T12:14:00.900Z,english_525.wav,0,pill,644,38,4,5,Français,f,2,0.2,-75.71526263,0.17370365
5ec454e23d68ea32ee554d12,91,1,2024-02-27T12:14:00.900Z,english_525.wav,0,pill,644,38,4,5,Français,f,3,0.3,-52.87512147,0.81797459
5ec454e23d68ea32ee554d12,91,1,2024-02-27T12:14:00.900Z,english_525.wav,0,pill,644,38,4,5,Français,f,4,0.32341667,17.79573657,0.70176203
5ec454e23d68ea32ee554d12,92,1,2024-02-27T12:14:00.900Z,english_335.wav,0,pill,649,38,4,5,Français,f,0,0.0,2.73277154,0.73564724
5ec454e23d68ea32ee554d12,92,1,2024-02-27T12:14:00.900Z,english_335.wav,0,pill,649,38,4,5,Français,f,1,0.1,-7.1950175,0.15546095
5ec454e23d68ea32ee554d12,92,1,2024-02-27T12:14:00.900Z,english_335.wav,0,pill,649,38,4,5,Français,f,2,0.2,60.45920583,0.90435367
5ec454e23d68ea32ee554d12,92,1,2024-02-27T12:14:00.900Z,english_335.wav,0,pill,649,38,4,5,Français,f,3,0.3,-26.91989021,0.56661996
5ec454e23d68ea32ee554d12,92,1,2024-02-27T12:14:00.900Z,english_335.wav,0,pill,649,38,4,5,Français,f,4,0.32341667,-2.30142169,1.21763394
5ec454e23d68ea32ee554d12,93,1,2024-02-27T12:14:00.900Z,english_195.wav,0,pill,1005,38,4,5,Français,f,0,0.0,88.76446124,0.85936173
5ec454e23d68ea32ee554d12,93,1,2024-02-27T12:14:00.900Z,english_195.wav,0,pill,1005,38,4,5,Français,f,1,0.1,56.50909504,1.06337161
5ec454e23d68ea32ee554d12,93,1,2024-02-27T12:14:00.900Z,english_195.wav,0,pill,1005,38,4,5,Français,f,2,0.2,-5.11157055,1.01766647
5ec454e23d68ea32ee554d12,93,1,2024-02-27T12:14:00.900Z,english_195.wav,0,pill,1005,38,4,5,Français,f,3,0.3,14.19517065,1.03928052
5ec454e23d68ea32ee554d12,93,1,2024-02-27T12:14:00.900Z,english_195.wav,0,pill,1005,38,4,5,Français,f,4,0.32341667,67.19148892,1.18131313
5ec454e23d68ea32ee554d12,94,1,2024-02-27T12:14:00.900Z,english_711.wav,0,peel,891,38,4,5,Français,f,0,0.0,40.88671478,0.99029016
5ec454e23d68ea32ee554d12,94,1,2024-02-27T12:14:00.900Z,english_711.wav,0,peel,891,38,4,5,Français,f,1,0.1,9.07407961,0.54320223
5ec454e23d68ea32ee554d12,94,1,2024-02-27T12:14:00.900Z,english_711.wav,0,peel,891,38,4,5,Français,f,2,0.2,-23.01321115,1.60107
5ec454e23d68ea32ee554d12,94,1,2024-02-27T12:14:00.900Z,english_711.wav,0,peel,891,38,4,5,Français,f,3,0.3,-10.85681813,1.574764
5ec454e23d68ea32ee554d12,94,1,2024-02-27T12:14:00.900Z,english_711.wav,0,peel,891,38,4,5,Français,f,4,0.32341667,87.87195083,1.34863725
5ec454e23d68ea32ee554d12,95,1,2024-02-27T12:14:00.900Z,english_85.wav,0,peel,655,38,4,5,Français,f,0,0.0,69.91092253,1.07696769
5ec454e23d68ea32ee554d12,95,1,2024-02-27T12:14:00.900Z,english_85.wav,0,peel,655,38,4,5,Français,f,1,0.1,90.04885235,1.65675227
5ec454e23d68ea32ee554d12,95,1,2024-02-27T12:14:00.900Z,english_85.wav,0,peel,655,38,4,5,Français,f,2,0.2,-54.471964,1.18566865
5ec454e23d68ea32ee554d12,95,1,2024-02-27T12:14:00.900Z,english_85.wav,0,peel,655,38,4,5,Français,f,3,0.3,-32.42862041,0.43131811
5ec454e23d68ea32ee554d12,95,1,2024-02-27T12:14:00.900Z,english_85.wav,0,peel,655,38,4,5,Français,f,4,0.32341667,-26.25094384,1.88641509
5ec454e23d68ea32ee554d12,96,1,2024-02-27T12:14:00.900Z,english_621.wav,0,pill,798,38,4,5,Français,f,0,0.0,-58.25251841,1.01186344
5ec454e23d68ea32ee554d12,96,1,2024-02-27T12:14:00.900Z,english_621.wav,0,pill,798,38,4,5,Français,f,1,0.1,21.8974524,1.03560921
5ec454e23d68ea32ee554d12,96,1,2024-02-27T12:14:00.900Z,english_621.wav,0,pill,798,38,4,5,Français,f,2,0.2,-22.03552483,0.97057504
5ec454e23d68ea32ee554d12,96,1,2024-02-27T12:14:00.900Z,english_621.wav,0,pill,798,38,4,5,Français,f,3,0.3,-56.80446909,1.33131235
5ec454e23d68ea32ee554d12,96,1,2024-02-27T12:14:00.900Z,english_621.wav,0,pill,798,38,4,5,Français,f,4,0.32341667,-23.41760562,0.49151525
5ec454e23d68ea32ee554d12,97,1,2024-02-27T12:14:00.900Z,english_643.wav,0,peel,596,38,4,5,Français,f,0,0.0,-40.15003434,1.60262153
5ec454e23d68ea32ee554d12,97,1,2024-02-27T12:14:00.900Z,english_643.wav,0,peel,596,38,4,5,Français,f,1,0.1,-24.12893917,1.7682358
5ec454e23d68ea32ee554d12,97,1,2024-02-27T12:14:00.900Z,english_643.wav,0,peel,596,38,4,5,Français,f,2,0.2,-40.66556796,0.31725537
5ec454e23d68ea32ee554d12,97,1,2024-02-27T12:14:00.900Z,english_643.wav,0,peel,596,38,4,5,Français,f,3,0.3,75.01987067,0.56722121
5ec454e23d68ea32ee554d12,97,1,2024-02-27T12:14:00.900Z,english_643.wav,0,peel,596,38,4,5,Français,f,4,0.32341667,29.71481383,1.87277365
5ec454e23d68ea32ee554d12,98,1,2024-02-27T12:14:00.900Z,english_172.wav,0,pill,463,38,4,5,Français,f,0,0.0,8.59493981,0.93080222
5ec454e23d68ea32ee554d12,98,1,2024-02-27T12:14:00.900Z,english_172.wav,0,pill,463,38,4,5,Français,f,1,0.1,-56.34346079,0.53387901
5ec454e23d68ea32ee554d12,98,1,2024-02-27T12:14:00.900Z,english_172.wav,0,pill,463,38,4,5,Français,f,2,0.2,-95.76423912,0.34406097
5ec454e23d68ea32ee554d12,98,1,2024-02-27T12:14:00.900Z,english_172.wav,0,pill,463,38,4,5,Français,f,3,0.3,11.69646411,0.74935371
5ec454e23d68ea32ee554d12,98,1,2024-02-27T12:14:00.900Z,english_172.wav,0,pill,463,38,4,5,Français,f,4,0.32341667,-55.10661496,0.42041327
5ec454e23d68ea32ee554d12,99,1,2024-02-27T12:14:00.900Z,english_79.wav,0,peel,543,38,4,5,Français,f,0,0.0,-69.52518262,0.23164561
5ec454e23d68ea32ee554d12,99,1,2024-02-27T12:14:00.900Z,english_79.wav,0,peel,543,38,4,5,Français,f,1,0.1,56.533406,1.01948637
5ec454e23d68ea32ee554d12,99,1,2024-02-27T12:14:00.900Z,english_79.wav,0,peel,543,38,4,5,Français,f,2,0.2,25.92051761,0.17653141
5ec454e23d68ea32ee554d12,99,1,2024-02-27T12:14:00.900Z,english_79.wav,0,peel,543,38,4,5,Français,f,3,0.3,81.58880491,0.14868702
5ec454e23d68ea32ee554d12,99,1,2024-02-27T12:14:00.900Z,english_79.wav,0,peel,543,38,4,5,Français,f,4,0.32341667,-19.75719301,0.33345335
5ec454e23d68ea32ee554d12,100,2,2024-02-27T12:14:00.900Z,english_877.wav,0,pill,270,38,4,5,Français,f,0,0.0,49.36401037,1.25510861
5ec454e23d68ea32ee554d12,100,2,2024-02-27T12:14:00.900Z,english_877.wav,0,pill,270,38,4,5,Français,f,1,0.1,15.17280231,0.84700305
5ec454e23d68ea32ee554d12,100,2,2024-02-27T12:14:00.900Z,english_877.wav,0,pill,270,38,4,5,Français,f,2,0.2,22.36436744,0.32703774
5ec454e23d68ea32ee554d12,100,2,2024-02-27T12:14:00.900Z,english_877.wav,0,pill,270,38,4,5,Français,f,3,0.3,-25.51979868,1.72637958
5ec454e23d68ea32ee554d12,100,2,2024-02-27T12:14:00.900Z,english_877.wav,0,pill,270,38,4,5,Français,f,4,0.32341667,-55.72443313,0.52117686
5ec454e23d68ea32ee554d12,101,2,2024-02-27T12:14:00.900Z,english_120.wav,0,pill,687,38,4,5,Français,f,0,0.0,55.2306484,0.43658612
5ec454e23d68ea32ee554d12,101,2,2024-02-27T12:14:00.900Z,english_120.wav,0,pill,687,38,4,5,Français,f,1,0.1,82.00530973,0.03999251
5ec454e23d68ea32ee554d12,101,2,2024-02-27T12:14:00.900Z,english_120.wav,0,pill,687,38,4,5,Français,f,2,0.2,-5.84837635,0.80827096
5ec454e23d68ea32ee554d12,101,2,2024-02-27T12:14:00.900Z,english_120.wav,0,pill,687,38,4,5,Français,f,3,0.3,66.20489525,1.78669421
5ec454e23d68ea32ee554d12,101,2,2024-02-27T12:14:00.900Z,english_120.wav,0,pill,687,38,4,5,Français,f,4,0.32341667,-73.22302923,1.04341795
5ec454e23d68ea32ee554d12,102,2,2024-02-27T12:14:00.900Z,english_917.wav,0,peel,1016,38,4,5,Français,f,0,0.0,-2.28432431,0.51220006
5ec454e23d68ea32ee554d12,102,2,2024-02-27T12:14:00.900Z,english_917.wav,0,peel,1016,38,4,5,Français,f,1,0.1,-50.4941454,0.3783057
5ec454e23d68ea32ee554d12,102,2,2024-02-27T12:14:00.900Z,english_917.wav,0,peel,1016,38,4,5,Français,f,2,0.2,86.41176613,0.52629226
5ec454e23d68ea32ee554d12,102,2,2024-02-27T12:14:00.900Z,english_917.wav,0,peel,1016,38,4,5,Français,f,3,0.3,-50.97734163,0.68389314
5ec454e23d68ea32ee554d12,102,2,2024-02-27T12:14:00.900Z,english_917.wav,0,peel,1016,38,4,5,Français,f,4,0.32341667,97.13453513,1.73708117
5ec454e23d68ea32ee554d12,103,2,2024-02-27T12:14:00.900Z,english_23.wav,0,peel,376,38,4,5,Français,f,0,0.0,-50.80982819,0.58244855
5ec454e23d68ea32ee554d12,103,2,2024-02-27T12:14:00.900Z,english_23.wav,0,peel,376,38,4,5,Français,f,1,0.1,76.10516215,1.77510268
5ec454e23d68ea32ee554d12,103,2,2024-02-27T12:14:00.900Z,english_23.wav,0,peel,376,38,4,5,Français,f,2,0.2,-90.32463898,0.60847707
5ec454e23d68ea32ee554d12,103,2,2024-02-27T12:14:00.900Z,english_23.wav,0,peel,376,38,4,5,Français,f,3,0.3,15.76928166,0.62114149
5ec454e23d68ea32ee554d12,103,2,2024-02-27T12:14:00.900Z,english_23.wav,0,peel,376,38,4,5,Français,f,4,0.32341667,-7.56392806,1.60162938
5ec454e23d68ea32ee554d12,104,2,2024-02-27T12:14:00.900Z,english_909.wav,0,peel,358,38,4,5,Français,f,0,0.0,-19.4205152,0.17681169
5ec454e23d68ea32ee554d12,104,2,2024-02-27T12:14:00.900Z,english_909.wav,0,peel,358,38,4,5,Français,f,1,0.1,-31.830868,1.02014656
5ec454e23d68ea32ee554d12,104,2,2024-02-27T12:14:00.900Z,english_909.wav,0,peel,358,38,4,5,Français,f,2,0.2,71.05598051,1.59945112
5ec454e23d68ea32ee554d12,104,2,2024-02-27T12:14:00.900Z,english_909.wav,0,peel,358,38,4,5,Français,f,3,0.3,-13.09259164,1.33685121
5ec454e23d68ea32ee554d12,104,2,2024-02-27T12:14:00.900Z,english_909.wav,0,peel,358,38,4,5,Français,f,4,0.32341667,-99.47743822,0.41114962
5ec454e23d68ea32ee554d12,105,2,2024-02-27T12:14:00.900Z,english_77.wav,0,peel,827,38,4,5,Français,f,0,0.0,-72.40491727,0.02183184
5ec454e23d68ea32ee554d12,105,2,2024-02-27T12:14:00.900Z,english_77.wav,0,peel,827,38,4,5,Français,f,1,0.1,8.82020558,1.36505393
5ec454e23d68ea32ee554d12,105,2,2024-02-27T12:14:00.900Z,english_77.wav,0,peel,827,38,4,5,Français,f,2,0.2,89.28229375,1.34112472
5ec454e23d68ea32ee554d12,105,2,2024-02-27T12:14:00.900Z,english_77.wav,0,peel,827,38,4,5,Français,f,3,0.3,-14.39120814,0.45737201
5ec454e23d68ea32ee554d12,105,2,2024-02-27T12:14:00.900Z,english_77.wav,0,peel,827,38,4,5,Français,f,4,0.32341667,0.18022976,1.1673494
5ec454e23d68ea32ee554d12,106,2,2024-02-27T12:14:00.900Z,english_170.wav,0,peel,585,38,4,5,Français,f,0,0.0,6.45066022,1.58910722
5ec454e23d68ea32ee554d12,106,2,2024-02-27T12:14:00.900Z,english_170.wav,0,peel,585,38,4,5,Français,f,1,0.1,-4.11198278,0.3365331
5ec454e23d68ea32ee554d12,106,2,2024-02-27T12:14:00.900Z,english_170.wav,0,peel,585,38,4,5,Français,f,2,0.2,96.59136675,0.38643451
5ec454e23d68ea32ee554d12,106,2,2024-02-27T12:14:00.900Z,english_170.wav,0,peel,585,38,4,5,Français,f,3,0.3,21.57070742,1.58623933
5ec454e23d68ea32ee554d12,106,2,2024-02-27T12:14:00.900Z,english_170.wav,0,peel,585,38,4,5,Français,f,4,0.32341667,94.47980818,1.61968164
5ec454e23d68ea32ee554d12,107,2,2024-02-27T12:14:00.900Z,english_661.wav,0,peel,372,38,4,5,Français,f,0,0.0,14.15805194,1.06290545
5ec454e23d68ea32ee554d12,107,2,2024-02-27T12:14:00.900Z,english_661.wav,0,peel,372,38,4,5,Français,f,1,0.1,-77.97020538,1.12952287
5ec454e23d68ea32ee554d12,107,2,2024-02-27T12:14:00.900Z,english_661.wav,0,peel,372,38,4,5,Français,f,2,0.2,-31.78835068,1.47556517
5ec454e23d68ea32ee554d12,107,2,2024-02-27T12:14:00.900Z,english_661.wav,0,peel,372,38,4,5,Français,f,3,0.3,1.84085651,0.41137052
5ec454e23d68ea32ee554d12,107,2,2024-02-27T12:14:00.900Z,english_661.wav,0,peel,372,38,4,5,Français,f,4,0.32341667,31.49677972,1.48872703
5ec454e23d68ea32ee554d12,108,2,2024-02-27T12:14:00.900Z,english_157.wav,0,peel,150,38,4,5,Français,f,0,0.0,-74.01864956,1.10168906
5ec454e23d68ea32ee554d12,108,2,2024-02-27T12:14:00.900Z,english_157.wav,0,peel,150,38,4,5,Français,f,1,0.1,1.44529667,1.71225259
5ec454e23d68ea32ee554d12,108,2,2024-02-27T12:14:00.900Z,english_157.wav,0,peel,150,38,4,5,Français,f,2,0.2,-42.76251303,1.71884561
5ec454e23d68ea32ee554d12,108,2,2024-02-27T12:14:00.900Z,english_157.wav,0,peel,150,38,4,5,Français,f,3,0.3,-49.01483239,1.47822148
5ec454e23d68ea32ee554d12,108,2,2024-02-27T12:14:00.900Z,english_157.wav,0,peel,150,38,4,5,Français,f,4,0.32341667,-96.85595697,1.36273156
5ec454e23d68ea32ee554d12,109,2,2024-02-27T12:14:00.900Z,english_17.wav,0,pill,528,38,4,5,Français,f,0,0.0,54.20763778,0.24306789
5ec454e23d68ea32ee554d12,109,2,2024-02-27T12:14:00.900Z,english_17.wav,0,pill,528,38,4,5,Français,f,1,0.1,56.90002318,0.93194053
5ec454e23d68ea32ee554d12,109,2,2024-02-27T12:14:00.900Z,english_17.wav,0,pill,528,38,4,5,Français,f,2,0.2,53.34795505,0.70954885
5ec454e23d68ea32ee554d12,109,2,2024-02-27T12:14:00.900Z,english_17.wav,0,pill,528,38,4,5,Français,f,3,0.3,-49.04179277,1.57385934
5ec454e23d68ea32ee554d12,109,2,2024-02-27T12:14:00.900Z,english_17.wav,0,pill,528,38,4,5,Français,f,4,0.32341667,-46.12718147,1.28258365
5ec454e23d68ea32ee554d12,110,2,2024-02-27T12:14:00.900Z,english_403.wav,0,peel,1290,38,4,5,Français,f,0,0.0,-92.65414009,1.93574734
5ec454e23d68ea32ee554d12,110,2,2024-02-27T12:14:00.900Z,english_403.wav,0,peel,1290,38,4,5,Français,f,1,0.1,75.99659731,0.36447309
5ec454e23d68ea32ee554d12,110,2,2024-02-27T12:14:00.900Z,english_403.wav,0,peel,1290,38,4,5,Français,f,2,0.2,-27.37801557,1.02888701
5ec454e23d68ea32ee554d12,110,2,2024-02-27T12:14:00.900Z,english_403.wav,0,peel,1290,38,4,5,Français,f,3,0.3,-80.04540334,0.02385722
5ec454e23d68ea32ee554d12,110,2,2024-02-27T12:14:00.900Z,english_403.wav,0,peel,1290,38,4,5,Français,f,4,0.32341667,30.50648557,1.40553938
5ec454e23d68ea32ee554d12,111,2,2024-02-27T12:14:00.900Z,english_993.wav,0,pill,1387,38,4,5,Français,f,0,0.0,-66.15449332,1.17508471
5ec454e23d68ea32ee554d12,111,2,2024-02-27T12:14:00.900Z,english_993.wav,0,pill,1387,38,4,5,Français,f,1,0.1,33.08083728,0.94744004
5ec454e23d68ea32ee554d12,111,2,2024-02-27T12:14:00.900Z,english_993.wav,0,pill,1387,38,4,5,Français,f,2,0.2,51.46479562,0.74931244
5ec454e23d68ea32ee554d12,111,2,2024-02-27T12:14:00.900Z,english_993.wav,0,pill,1387,38,4,5,Français,f,3,0.3,-80.58676237,0.35628979
5ec454e23d68ea32ee554d12,111,2,2024-02-27T12:14:00.900Z,english_993.wav,0,pill,1387,38,4,5,Français,f,4,0.32341667,81.97884737,1.25416847
5ec454e23d68ea32ee554d12,112,2,2024-02-27T12:14:00.900Z,english_818.wav,0,peel,347,38,4,5,Français,f,0,0.0,88.49542613,1.4873036
5ec454e23d68ea32ee554d12,112,2,2024-02-27T12:14:00.900Z,english_818.wav,0,peel,347,38,4,5,Français,f,1,0.1,-7.37005163,1.25102077
5ec454e23d68ea32ee554d12,112,2,2024-02-27T12:14:00.900Z,english_818.wav,0,peel,347,38,4,5,Français,f,2,0.2,-1.58613611,0.80764036
5ec454e23d68ea32ee554d12,112,2,2024-02-27T12:14:00.900Z,english_818.wav,0,peel,347,38,4,5,Français,f,3,0.3,-69.41222379,0.80656775
5ec454e23d68ea32ee554d12,112,2,2024-02-27T12:14:00.900Z,english_818.wav,0,peel,347,38,4,5,Français,f,4,0.32341667,14.01707612,1.41859799
5ec454e23d68ea32ee554d12,113,2,2024-02-27T12:14:00.900Z,english_737.wav,0,pill,1404,38,4,5,Français,f,0,0.0,21.35751723,1.17499048
5ec454e23d68ea32ee554d12,113,2,2024-02-27T12:14:00.900Z,english_737.wav,0,pill,1404,38,4,5,Français,f,1,0.1,61.52152077,1.09581395
5ec454e23d68ea32ee554d12,113,2,2024-02-27T12:14:00.900Z,english_737.wav,0,pill,1404,38,4,5,Français,f,2,0.2,-29.75610596,0.62940412
5ec454e23d68ea32ee554d12,113,2,2024-02-27T12:14:00.900Z,english_737.wav,0,pill,1404,38,4,5,Français,f,3,0.3,-39.80249708,0.11793022
5ec454e23d68ea32ee554d12,113,2,2024-02-27T12:14:00.900Z,english_737.wav,0,pill,1404,38,4,5,Français,f,4,0.32341667,-14.64937497,0.62377861
5ec454e23d68ea32ee554d12,114,2,2024-02-27T12:14:00.900Z,english_447.wav,0,pill,490,38,4,5,Français,f,0,0.0,38.77193801,0.52212734
5ec454e23d68ea32ee554d12,114,2,2024-02-27T12:14:00.900Z,english_447.wav,0,pill,490,38,4,5,Français,f,1,0.1,-3.53992528,0.58948567
5ec454e23d68ea32ee554d12,114,2,2024-02-27T12:14:00.900Z,english_447.wav,0,pill,490,38,4,5,Français,f,2,0.2,54.1888363,0.60662966
5ec454e23d68ea32ee554d12,114,2,2024-02-27T12:14:00.900Z,english_447.wav,0,pill,490,38,4,5,Français,f,3,0.3,-95.90180003,0.73195254
5ec454e23d68ea32ee554d12,114,2,2024-02-27T12:14:00.900Z,english_447.wav,0,pill,490,38,4,5,Français,f,4,0.32341667,48.32118178,0.21856551
5ec454e23d68ea32ee554d12,115,2,2024-02-27T12:14:00.900Z,english_937.wav,0,peel,323,38,4,5,Français,f,0,0.0,76.77394395,1.55370699
5ec454e23d68ea32ee554d12,115,2,2024-02-27T12:14:00.900Z,english_937.wav,0,peel,323,38,4,5,Français,f,1,0.1,49.33576264,1.82028848
5ec454e23d68ea32ee554d12,115,2,2024-02-27T12:14:00.900Z,english_937.wav,0,peel,323,38,4,5,Français,f,2,0.2,-87.39935237,1.42487505
5ec454e23d68ea32ee554d12,115,2,2024-02-27T12:14:00.900Z,english_937.wav,0,peel,323,38,4,5,Français,f,3,0.3,11.02170053,0.87896062
5ec454e23d68ea32ee554d12,115,2,2024-02-27T12:14:00.900Z,english_937.wav,0,peel,323,38,4,5,Français,f,4,0.32341667,91.99381322,0.96516852
5ec454e23d68ea32ee554d12,116,2,2024-02-27T12:14:00.900Z,english_601.wav,0,peel,462,38,4,5,Français,f,0,0.0,54.32401431,0.08668951
5ec454e23d68ea32ee554d12,116,2,2024-02-27T12:14:00.900Z,english_601.wav,0,peel,462,38,4,5,Français,f,1,0.1,-6.72935942,1.16468766
5ec454e23d68ea32ee554d12,116,2,2024-02-27T12:14:00.900Z,english_601.wav,0,peel,462,38,4,5,Français,f,2,0.2,39.12079493,1.8612572
5ec454e23d68ea32ee554d12,116,2,2024-02-27T12:14:00.900Z,english_601.wav,0,peel,462,38,4,5,Français,f,3,0.3,39.92141387,0.92171433
5ec454e23d68ea32ee554d12,116,2,2024-02-27T12:14:00.900Z,english_601.wav,0,peel,462,38,4,5,Français,f,4,0.32341667,-27.14681087,0.50419734
5ec454e23d68ea32ee554d12,117,2,2024-02-27T12:14:00.900Z,english_849.wav,0,pill,462,38,4,5,Français,f,0,0.0,-24.45439181,1.62147024
5ec454e23d68ea32ee554d12,117,2,2024-02-27T12:14:00.900Z,english_849.wav,0,pill,462,38,4,5,Français,f,1,0.1,-64.97605389,1.28655358
5ec454e23d68ea32ee554d12,117,2,2024-02-27T12:14:00.900Z,english_849.wav,0,pill,462,38,4,5,Français,f,2,0.2,-67.78874915,0.154454
5ec454e23d68ea32ee554d12,117,2,2024-02-27T12:14:00.900Z,english_849.wav,0,pill,462,38,4,5,Français,f,3,0.3,-6.53184928,1.49227138
5ec454e23d68ea32ee554d12,117,2,2024-02-27T12:14:00.900Z,english_849.wav,0,pill,462,38,4,5,Français,f,4,0.32341667,59.1884023,1.08662162
5ec454e23d68ea32ee554d12,118,2,2024-02-27T12:14:00.900Z,english_563.wav,0,peel,354,38,4,5,Français,f,0,0.0,19.758909,0.0609285
5ec454e23d68ea32ee554d12,118,2,2024-02-27T12:14:00.900Z,english_563.wav,0,peel,354,38,4,5,Français,f,1,0.1,33.70416131,1.63852294
5ec454e23d68ea32ee554d12,118,2,2024-02-27T12:14:00.900Z,english_563.wav,0,peel,354,38,4,5,Français,f,2,0.2,-28.26228599,0.53834051
5ec454e23d68ea32ee554d12,118,2,2024-02-27T12:14:00.900Z,english_563.wav,0,peel,354,38,4,5,Français,f,3,0.3,77.25360299,0.54558093
5ec454e23d68ea32ee554d12,118,2,2024-02-27T12:14:00.900Z,english_563.wav,0,peel,354,38,4,5,Français,f,4,0.32341667,-40.65982077,0.29994173
5ec454e23d68ea32ee554d12,119,2,2024-02-27T12:14:00.900Z,english_166.wav,0,pill,171,38,4,5,Français,f,0,0.0,37.27670025,1.42766663
5ec454e23d68ea32ee554d12,119,2,2024-02-27T12:14:00.900Z,english_166.wav,0,pill,171,38,4,5,Français,f,1,0.1,34.38847046,0.72731767
5ec454e23d68ea32ee554d12,119,2,2024-02-27T12:14:00.900Z,english_166.wav,0,pill,171,38,4,5,Français,f,2,0.2,49.91842175,1.80608275
5ec454e23d68ea32ee554d12,119,2,2024-02-27T12:14:00.900Z,english_166.wav,0,pill,171,38,4,5,Français,f,3,0.3,56.9541748,1.91598421
5ec454e23d68ea32ee554d12,119,2,2024-02-27T12:14:00.900Z,english_166.wav,0,pill,171,38,4,5,Français,f,4,0.32341667,10.97290623,1.21084105
5ec454e23d68ea32ee554d12,120,2,2024-02-27T12:14:00.900Z,english_478.wav,0,peel,238,38,4,5,Français,f,0,0.0,-70.9954821,0.91489342
5ec454e23d68ea32ee554d12,120,2,2024-02-27T12:14:00.900Z,english_478.wav,0,peel,238,38,4,5,Français,f,1,0.1,18.763036,1.0325944
5ec454e23d68ea32ee554d12,120,2,2024-02-27T12:14:00.900Z,english_478.wav,0,peel,238,38,4,5,Français,f,2,0.2,84.30682023,1.47139294
5ec454e23d68ea32ee554d12,120,2,2024-02-27T12:14:00.900Z,english_478.wav,0,peel,238,38,4,5,Français,f,3,0.3,96.70790152,0.31719256
5ec454e23d68ea32ee554d12,120,2,2024-02-27T12:14:00.900Z,english_478.wav,0,peel,238,38,4,5,Français,f,4,0.32341667,-65.75430749,1.1469235
5ec454e23d68ea32ee554d12,121,2,2024-02-27T12:14:00.900Z,english_244.wav,0,peel,558,38,4,5,Français,f,0,0.0,-70.20374383,1.65134166
5ec454e23d68ea32ee554d12,121,2,2024-02-27T12:14:00.900Z,english_244.wav,0,peel,558,38,4,5,Français,f,1,0.1,67.84882107,1.23738837
5ec454e23d68ea32ee554d12,121,2,2024-02-27T12:14:00.900Z,english_244.wav,0,peel,558,38,4,5,Français,f,2,0.2,0.61676271,0.90147553
5ec454e23d68ea32ee554d12,121,2,2024-02-27T12:14:00.900Z,english_244.wav,0,peel,558,38,4,5,Français,f,3,0.3,-96.58934439,1.79293216
5ec454e23d68ea32ee554d12,121,2,2024-02-27T12:14:00.900Z,english_244.wav,0,peel,558,38,4,5,Français,f,4,0.32341667,-77.46985837,1.15013727
5ec454e23d68ea32ee554d12,122,2,2024-02-27T12:14:00.900Z,english_362.wav,0,peel,303,38,4,5,Français,f,0,0.0,12.71485551,1.44490364
5ec454e23d68ea32ee554d12,122,2,2024-02-27T12:14:00.900Z,english_362.wav,0,peel,303,38,4,5,Français,f,1,0.1,-18.83660308,1.3029027
5ec454e23d68ea32ee554d12,122,2,2024-02-27T12:14:00.900Z,english_362.wav,0,peel,303,38,4,5,Français,f,2,0.2,-52.07271323,1.10609828
5ec454e23d68ea32ee554d12,122,2,2024-02-27T12:14:00.900Z,english_362.wav,0,peel,303,38,4,5,Français,f,3,0.3,-29.96931661,1.18379787
5ec454e23d68ea32ee554d12,122,2,2024-02-27T12:14:00.900Z,english_362.wav,0,peel,303,38,4,5,Français,f,4,0.32341667,-9.99178163,1.80996789
5ec454e23d68ea32ee554d12,123,2,2024-02-27T12:14:00.900Z,english_358.wav,0,peel,819,38,4,5,Français,f,0,0.0,-24.40280242,0.64702298
5ec454e23d68ea32ee554d12,123,2,2024-02-27T12:14:00.900Z,english_358.wav,0,peel,819,38,4,5,Français,f,1,0.1,62.18566088,0.86836285
5ec454e23d68ea32ee554d12,123,2,2024-02-27T12:14:00.900Z,english_358.wav,0,peel,819,38,4,5,Français,f,2,0.2,5.26675109,1.05826104
5ec454e23d68ea32ee554d12,123,2,2024-02-27T12:14:00.900Z,english_358.wav,0,peel,819,38,4,5,Français,f,3,0.3,-31.91571391,1.98011631
5ec454e23d68ea32ee554d12,123,2,2024-02-27T12:14:00.900Z,english_358.wav,0,peel,819,38,4,5,Français,f,4,0.32341667,27.35112364,0.35058307
5ec454e23d68ea32ee554d12,124,2,2024-02-27T12:14:00.900Z,english_296.wav,0,pill,255,38,4,5,Français,f,0,0.0,-4.92142852,1.99305172
5ec454e23d68ea32ee554d12,124,2,2024-02-27T12:14:00.900Z,english_296.wav,0,pill,255,38,4,5,Français,f,1,0.1,-5.74196289,0.92633133
5ec454e23d68ea32ee554d12,124,2,2024-02-27T12:14:00.900Z,english_296.wav,0,pill,255,38,4,5,Français,f,2,0.2,76.26647078,0.44879969
5ec454e23d68ea32ee554d12,124,2,2024-02-27T12:14:00.900Z,english_296.wav,0,pill,255,38,4,5,Français,f,3,0.3,-62.74030654,1.47417428
5ec454e23d68ea32ee554d12,124,2,2024-02-27T12:14:00.900Z,english_296.wav,0,pill,255,38,4,5,Français,f,4,0.32341667,-60.661992,1.05571007
5ec454e23d68ea32ee554d12,125,2,2024-02-27T12:14:00.900Z,english_287.wav,0,peel,353,38,4,5,Français,f,0,0.0,-5.71925808,1.04112926
5ec454e23d68ea32ee554d12,125,2,2024-02-27T12:14:00.900Z,english_287.wav,0,peel,353,38,4,5,Français,f,1,0.1,-94.78041007,0.35149142
5ec454e23d68ea32ee554d12,125,2,2024-02-27T12:14:00.900Z,english_287.wav,0,peel,353,38,4,5,Français,f,2,0.2,8.34641368,0.86781598
5ec454e23d68ea32ee554d12,125,2,2024-02-27T12:14:00.900Z,english_287.wav,0,peel,353,38,4,5,Français,f,3,0.3,36.34893025,1.897904
5ec454e23d68ea32ee554d12,125,2,2024-02-27T12:14:00.900Z,english_287.wav,0,peel,353,38,4,5,Français,f,4,0.32341667,-22.47689594,0.5607403
5ec454e23d68ea32ee554d12,126,2,2024-02-27T12:14:00.900Z,english_72.wav,0,pill,482,38,4,5,Français,f,0,0.0,3.79788214,1.04175162
5ec454e23d68ea32ee554d12,126,2,2024-02-27T12:14:00.900Z,english_72.wav,0,pill,482,38,4,5,Français,f,1,0.1,-35.73428138,0.91099175
5ec454e23d68ea32ee554d12,126,2,2024-02-27T12:14:00.900Z,english_72.wav,0,pill,482,38,4,5,Français,f,2,0.2,-30.83181688,0.34322307
5ec454e23d68ea32ee554d12,126,2,2024-02-27T12:14:00.900Z,english_72.wav,0,pill,482,38,4,5,Français,f,3,0.3,-68.4260973,1.39599539
5ec454e23d68ea32ee554d12,126,2,2024-02-27T12:14:00.900Z,english_72.wav,0,pill,482,38,4,5,Français,f,4,0.32341667,-10.87667298,0.78322702
5ec454e23d68ea32ee554d12,127,2,2024-02-27T12:14:00.900Z,english_465.wav,0,peel,522,38,4,5,Français,f,0,0.0,40.04056426,1.33778995
5ec454e23d68ea32ee554d12,127,2,2024-02-27T12:14:00.900Z,english_465.wav,0,peel,522,38,4,5,Français,f,1,0.1,-97.28817369,0.1899685
5ec454e23d68ea32ee554d12,127,2,2024-02-27T12:14:00.900Z,english_465.wav,0,peel,522,38,4,5,Français,f,2,0.2,-58.72937184,1.35609136
5ec454e23d68ea32ee554d12,127,2,2024-02-27T12:14:00.900Z,english_465.wav,0,peel,522,38,4,5,Français,f,3,0.3,82.2448524,1.94032164
5ec454e23d68ea32ee554d12,127,2,2024-02-27T12:14:00.900Z,english_465.wav,0,peel,522,38,4,5,Français,f,4,0.32341667,-29.20233879,0.27858753
5ec454e23d68ea32ee554d12,128,2,2024-02-27T12:14:00.900Z,english_853.wav,0,pill,570,38,4,5,Français,f,0,0.0,87.83319324,0.81037323
5ec454e23d68ea32ee554d12,128,2,2024-02-27T12:14:00.900Z,english_853.wav,0,pill,570,38,4,5,Français,f,1,0.1,64.16710312,1.2495933
5ec454e23d68ea32ee554d12,128,2,2024-02-27T12:14:00.900Z,english_853.wav,0,pill,570,38,4,5,Français,f,2,0.2,12.98667351,0.22916278
5ec454e23d68ea32ee554d12,128,2,2024-02-27T12:14:00.900Z,english_853.wav,0,pill,570,38,4,5,Français,f,3,0.3,25.03434444,0.67764146
5ec454e23d68ea32ee554d12,128,2,2024-02-27T12:14:00.900Z,english_853.wav,0,pill,570,38,4,5,Français,f,4,0.32341667,98.3458188,0.13807639
5ec454e23d68ea32ee554d12,129,2,2024-02-27T12:14:00.900Z,english_593.wav,0,pill,529,38,4,5,Français,f,0,0.0,0.23295982,1.83954553
5ec454e23d68ea32ee554d12,129,2,2024-02-27T12:14:00.900Z,english_593.wav,0,pill,529,38,4,5,Français,f,1,0.1,-0.52832444,1.77820403
5ec454e23d68ea32ee554d12,129,2,2024-02-27T12:14:00.900Z,english_593.wav,0,pill,529,38,4,5,Français,f,2,0.2,18.28609946,0.36770598
5ec454e23d68ea32ee554d12,129,2,2024-02-27T12:14:00.900Z,english_593.wav,0,pill,529,38,4,5,Français,f,3,0.3,21.25816485,0.42189114
5ec454e23d68ea32ee554d12,129,2,2024-02-27T12:14:00.900Z,english_593.wav,0,pill,529,38,4,5,Français,f,4,0.32341667,60.44039038,0.07588974
5ec454e23d68ea32ee554d12,130,2,2024-02-27T12:14:00.900Z,english_673.wav,0,peel,240,38,4,5,Français,f,0,0.0,-57.74220233,1.16794182
5ec454e23d68ea32ee554d12,130,2,2024-02-27T12:14:00.900Z,english_673.wav,0,peel,240,38,4,5,Français,f,1,0.1,51.69168463,0.24005868
5ec454e23d68ea32ee554d12,130,2,2024-02-27T12:14:00.900Z,english_673.wav,0,peel,240,38,4,5,Français,f,2,0.2,32.71998218,1.1491536
5ec454e23d68ea32ee554d12,130,2,2024-02-27T12:14:00.900Z,english_673.wav,0,peel,240,38,4,5,Français,f,3,0.3,1.53841214,1.59180477
5ec454e23d68ea32ee554d12,130,2,2024-02-27T12:14:00.900Z,english_673.wav,0,peel,240,38,4,5,Français,f,4,0.32341667,-95.68622946,1.00634228
5ec454e23d68ea32ee554d12,131,2,2024-02-27T12:14:00.900Z,english_319.wav,0,peel,366,38,4,5,Français,f,0,0.0,-84.37928886,1.17141126
5ec454e23d68ea32ee554d12,131,2,2024-02-27T12:14:00.900Z,english_319.wav,0,peel,366,38,4,5,Français,f,1,0.1,-52.76931383,1.13741792
5ec454e23d68ea32ee554d12,131,2,2024-02-27T12:14:00.900Z,english_319.wav,0,peel,366,38,4,5,Français,f,2,0.2,56.06390533,0.91618882
5ec454e23d68ea32ee554d12,131,2,2024-02-27T12:14:00.900Z,english_319.wav,0,peel,366,38,4,5,Français,f,3,0.3,-69.46438111,0.7080153
5ec454e23d68ea32ee554d12,131,2,2024-02-27T12:14:00.900Z,english_319.wav,0,peel,366,38,4,5,Français,f,4,0.32341667,91.86152445,0.5910213
5ec454e23d68ea32ee554d12,132,2,2024-02-27T12:14:00.900Z,english_167.wav,0,pill,404,38,4,5,Français,f,0,0.0,57.26975159,0.44729063
5ec454e23d68ea32ee554d12,132,2,2024-02-27T12:14:00.900Z,english_167.wav,0,pill,404,38,4,5,Français,f,1,0.1,54.31010869,1.623568
5ec454e23d68ea32ee554d12,132,2,2024-02-27T12:14:00.900Z,english_167.wav,0,pill,404,38,4,5,Français,f,2,0.2,99.57020207,0.28743218
5ec454e23d68ea32ee554d12,132,2,2024-02-27T12:14:00.900Z,english_167.wav,0,pill,404,38,4,5,Français,f,3,0.3,27.92735821,0.71837494
5ec454e23d68ea32ee554d12,132,2,2024-02-27T12:14:00.900Z,english_167.wav,0,pill,404,38,4,5,Français,f,4,0.32341667,73.13424206,1.35815305
5ec454e23d68ea32ee554d12,133,2,2024-02-27T12:14:00.900Z,english_29.wav,0,pill,430,38,4,5,Français,f,0,0.0,-2.71310826,1.50712016
5ec454e23d68ea32ee554d12,133,2,2024-02-27T12:14:00.900Z,english_29.wav,0,pill,430,38,4,5,Français,f,1,0.1,17.7201972,0.83644439
5ec454e23d68ea32ee554d12,133,2,2024-02-27T12:14:00.900Z,english_29.wav,0,pill,430,38,4,5,Français,f,2,0.2,-20.17501418,0.76078741
5ec454e23d68ea32ee554d12,133,2,2024-02-27T12:14:00.900Z,english_29.wav,0,pill,430,38,4,5,Français,f,3,0.3,12.48271646,0.17009155
5ec454e23d68ea32ee554d12,133,2,2024-02-27T12:14:00.900Z,english_29.wav,0,pill,430,38,4,5,Français,f,4,0.32341667,29.42079391,1.26727983
5ec454e23d68ea32ee554d12,134,2,2024-02-27T12:14:00.900Z,english_508.wav,0,peel,287,38,4,5,Français,f,0,0.0,-21.23116318,1.79614382
5ec454e23d68ea32ee554d12,134,2,2024-02-27T12:14:00.900Z,english_508.wav,0,peel,287,38,4,5,Français,f,1,0.1,-27.56583205,0.60449395
5ec454e23d68ea32ee554d12,134,2,2024-02-27T12:14:00.900Z,english_508.wav,0,peel,287,38,4,5,Français,f,2,0.2,64.21774851,0.56582153
5ec454e23d68ea32ee554d12,134,2,2024-02-27T12:14:00.900Z,english_508.wav,0,peel,287,38,4,5,Français,f,3,0.3,-9.24056951,1.01665474
5ec454e23d68ea32ee554d12,134,2,2024-02-27T12:14:00.900Z,english_508.wav,0,peel,287,38,4,5,Français,f,4,0.32341667,-9.74670904,0.78905044
5ec454e23d68ea32ee554d12,135,2,2024-02-27T12:14:00.900Z,english_789.wav,0,peel,444,38,4,5,Français,f,0,0.0,70.69388181,1.62690516
5ec454e23d68ea32ee554d12,135,2,2024-02-27T12:14:00.900Z,english_789.wav,0,peel,444,38,4,5,Français,f,1,0.1,-91.45782136,1.02092359
5ec454e23d68ea32ee554d12,135,2,2024-02-27T12:14:00.900Z,english_789.wav,0,peel,444,38,4,5,Français,f,2,0.2,-94.67801392,0.93437639
5ec454e23d68ea32ee554d12,135,2,2024-02-27T12:14:00.900Z,english_789.wav,0,peel,444,38,4,5,Français,f,3,0.3,83.76501612,1.8239896
5ec454e23d68ea32ee554d12,135,2,2024-02-27T12:14:00.900Z,english_789.wav,0,peel,444,38,4,5,Français,f,4,0.32341667,-4.60584958,1.29596798
5ec454e23d68ea32ee554d12,136,2,2024-02-27T12:14:00.900Z,english_177.wav,0,pill,331,38,4,5,Français,f,0,0.0,87.98258728,1.54790065
5ec454e23d68ea32ee554d12,136,2,2024-02-27T12:14:00.900Z,english_177.wav,0,pill,331,38,4,5,Français,f,1,0.1,87.12011565,0.90861448
5ec454e23d68ea32ee554d12,136,2,2024-02-27T12:14:00.900Z,english_177.wav,0,pill,331,38,4,5,Français,f,2,0.2,-29.82518494,0.58649069
5ec454e23d68ea32ee554d12,136,2,2024-02-27T12:14:00.900Z,english_177.wav,0,pill,331,38,4,5,Français,f,3,0.3,54.38835911,0.51296238
5ec454e23d68ea32ee554d12,136,2,2024-02-27T12:14:00.900Z,english_177.wav,0,pill,331,38,4,5,Français,f,4,0.32341667,53.98423531,1.78492888
5ec454e23d68ea32ee554d12,137,2,2024-02-27T12:14:00.900Z,english_392.wav,0,pill,291,38,4,5,Français,f,0,0.0,-12.90562814,1.13144201
5ec454e23d68ea32ee554d12,137,2,2024-02-27T12:14:00.900Z,english_392.wav,0,pill,291,38,4,5,Français,f,1,0.1,-1.29416779,0.98893381
5ec454e23d68ea32ee554d12,137,2,2024-02-27T12:14:00.900Z,english_392.wav,0,pill,291,38,4,5,Français,f,2,0.2,-53.34155903,0.07204825
5ec454e23d68ea32ee554d12,137,2,2024-02-27T12:14:00.900Z,english_392.wav,0,pill,291,38,4,5,Français,f,3,0.3,-48.65153398,1.52779633
5ec454e23d68ea32ee554d12,137,2,2024-02-27T12:14:00.900Z,english_392.wav,0,pill,291,38,4,5,Français,f,4,0.32341667,-43.47653164,1.32355089
5ec454e23d68ea32ee554d12,138,2,2024-02-27T12:14:00.900Z,english_267.wav,0,peel,656,38,4,5,Français,f,0,0.0,-83.13365237,1.47105267
5ec454e23d68ea32ee554d12,138,2,2024-02-27T12:14:00.900Z,english_267.wav,0,peel,656,38,4,5,Français,f,1,0.1,76.30308178,0.87521108
5ec454e23d68ea32ee554d12,138,2,2024-02-27T12:14:00.900Z,english_267.wav,0,peel,656,38,4,5,Français,f,2,0.2,53.87961391,1.04060287
5ec454e23d68ea32ee554d12,138,2,2024-02-27T12:14:00.900Z,english_267.wav,0,peel,656,38,4,5,Français,f,3,0.3,62.72167491,0.25080793
5ec454e23d68ea32ee554d12,138,2,2024-02-27T12:14:00.900Z,english_267.wav,0,peel,656,38,4,5,Français,f,4,0.32341667,-33.79574379,1.11989054
5ec454e23d68ea32ee554d12,139,2,2024-02-27T12:14:00.900Z,english_713.wav,0,peel,1020,38,4,5,Français,f,0,0.0,18.77281956,1.04868626
5ec454e23d68ea32ee554d12,139,2,2024-02-27T12:14:00.900Z,english_713.wav,0,peel,1020,38,4,5,Français,f,1,0.1,40.78610286,0.48332939
5ec454e23d68ea32ee554d12,139,2,2024-02-27T12:14:00.900Z,english_713.wav,0,peel,1020,38,4,5,Français,f,2,0.2,84.18153491,0.83217717
5ec454e23d68ea32ee554d12,139,2,2024-02-27T12:14:00.900Z,english_713.wav,0,peel,1020,38,4,5,Français,f,3,0.3,47.00827256,1.90318663
5ec454e23d68ea32ee554d12,139,2,2024-02-27T12:14:00.900Z,english_713.wav,0,peel,1020,38,4,5,Français,f,4,0.32341667,66.01008384,0.50055362
5ec454e23d68ea32ee554d12,140,2,2024-02-27T12:14:00.900Z,english_190.wav,0,pill,399,38,4,5,Français,f,0,0.0,81.66607819,0.126715216
5ec454e23d68ea32ee554d12,140,2,2024-02-27T12:14:00.900Z,english_190.wav,0,pill,399,38,4,5,Français,f,1,0.1,-14.16938067,0.000178349903
5ec454e23d68ea32ee554d12,140,2,2024-02-27T12:14:00.900Z,english_190.wav,0,pill,399,38,4,5,Français,f,2,0.2,15.7443745,1.35192229
5ec454e23d68ea32ee554d12,140,2,2024-02-27T12:14:00.900Z,english_190.wav,0,pill,399,38,4,5,Français,f,3,0.3,85.77694093,1.08905811
5ec454e23d68ea32ee554d12,140,2,2024-02-27T12:14:00.900Z,english_190.wav,0,pill,399,38,4,5,Français,f,4,0.32341667,33.21115004,1.75580408
5ec454e23d68ea32ee554d12,141,2,2024-02-27T12:14:00.900Z,english_947.wav,0,peel,396,38,4,5,Français,f,0,0.0,73.13113362,0.1925557
5ec454e23d68ea32ee554d12,141,2,2024-02-27T12:14:00.900Z,english_947.wav,0,peel,396,38,4,5,Français,f,1,0.1,-55.13077299,1.89478059
5ec454e23d68ea32ee554d12,141,2,2024-02-27T12:14:00.900Z,english_947.wav,0,peel,396,38,4,5,Français,f,2,0.2,59.32217849,0.99662771
5ec454e23d68ea32ee554d12,141,2,2024-02-27T12:14:00.900Z,english_947.wav,0,peel,396,38,4,5,Français,f,3,0.3,-71.25946194,0.61263341
5ec454e23d68ea32ee554d12,141,2,2024-02-27T12:14:00.900Z,english_947.wav,0,peel,396,38,4,5,Français,f,4,0.32341667,39.2274254,0.46373334
5ec454e23d68ea32ee554d12,142,2,2024-02-27T12:14:00.900Z,english_700.wav,0,peel,878,38,4,5,Français,f,0,0.0,-76.89056698,0.13963816
5ec454e23d68ea32ee554d12,142,2,2024-02-27T12:14:00.900Z,english_700.wav,0,peel,878,38,4,5,Français,f,1,0.1,-93.17552037,0.76842729
5ec454e23d68ea32ee554d12,142,2,2024-02-27T12:14:00.900Z,english_700.wav,0,peel,878,38,4,5,Français,f,2,0.2,51.24439156,0.49149542
5ec454e23d68ea32ee554d12,142,2,2024-02-27T12:14:00.900Z,english_700.wav,0,peel,878,38,4,5,Français,f,3,0.3,89.4516499,1.08714417
5ec454e23d68ea32ee554d12,142,2,2024-02-27T12:14:00.900Z,english_700.wav,0,peel,878,38,4,5,Français,f,4,0.32341667,-68.48659069,1.35188588
5ec454e23d68ea32ee554d12,143,2,2024-02-27T12:14:00.900Z,english_1000.wav,0,pill,1407,38,4,5,Français,f,0,0.0,27.35321797,1.01803417
5ec454e23d68ea32ee554d12,143,2,2024-02-27T12:14:00.900Z,english_1000.wav,0,pill,1407,38,4,5,Français,f,1,0.1,42.13438871,0.4558176
5ec454e23d68ea32ee554d12,143,2,2024-02-27T12:14:00.900Z,english_1000.wav,0,pill,1407,38,4,5,Français,f,2,0.2,95.34760893,0.52251179
5ec454e23d68ea32ee554d12,143,2,2024-02-27T12:14:00.900Z,english_1000.wav,0,pill,1407,38,4,5,Français,f,3,0.3,-34.10168873,0.90165507
5ec454e23d68ea32ee554d12,143,2,2024-02-27T12:14:00.900Z,english_1000.wav,0,pill,1407,38,4,5,Français,f,4,0.32341667,64.49689477,0.38395199
5ec454e23d68ea32ee554d12,144,2,2024-02-27T12:14:00.900Z,english_828.wav,0,peel,1260,38,4,5,Français,f,0,0.0,51.6479082,0.4417702
5ec454e23d68ea32ee554d12,144,2,2024-02-27T12:14:00.900Z,english_828.wav,0,peel,1260,38,4,5,Français,f,1,0.1,37.62818293,1.22957458
5ec454e23d68ea32ee554d12,144,2,2024-02-27T12:14:00.900Z,english_828.wav,0,peel,1260,38,4,5,Français,f,2,0.2,55.79615955,0.69909727
5ec454e23d68ea32ee554d12,144,2,2024-02-27T12:14:00.900Z,english_828.wav,0,peel,1260,38,4,5,Français,f,3,0.3,31.91979646,1.572544
5ec454e23d68ea32ee554d12,144,2,2024-02-27T12:14:00.900Z,english_828.wav,0,peel,1260,38,4,5,Français,f,4,0.32341667,-22.21091203,0.87669833
5ec454e23d68ea32ee554d12,145,2,2024-02-27T12:14:00.900Z,english_619.wav,0,peel,1309,38,4,5,Français,f,0,0.0,38.53351318,1.25542912
5ec454e23d68ea32ee554d12,145,2,2024-02-27T12:14:00.900Z,english_619.wav,0,peel,1309,38,4,5,Français,f,1,0.1,-11.21157995,0.83005785
5ec454e23d68ea32ee554d12,145,2,2024-02-27T12:14:00.900Z,english_619.wav,0,peel,1309,38,4,5,Français,f,2,0.2,29.79887689,1.51254928
5ec454e23d68ea32ee554d12,145,2,2024-02-27T12:14:00.900Z,english_619.wav,0,peel,1309,38,4,5,Français,f,3,0.3,48.6384615,0.37972577
5ec454e23d68ea32ee554d12,145,2,2024-02-27T12:14:00.900Z,english_619.wav,0,peel,1309,38,4,5,Français,f,4,0.32341667,-66.5905708,0.44889873
5ec454e23d68ea32ee554d12,146,2,2024-02-27T12:14:00.900Z,english_272.wav,0,peel,819,38,4,5,Français,f,0,0.0,61.82030971,1.51341556
5ec454e23d68ea32ee554d12,146,2,2024-02-27T12:14:00.900Z,english_272.wav,0,peel,819,38,4,5,Français,f,1,0.1,4.16580657,0.43290826
5ec454e23d68ea32ee554d12,146,2,2024-02-27T12:14:00.900Z,english_272.wav,0,peel,819,38,4,5,Français,f,2,0.2,-53.2567432,1.82734584
5ec454e23d68ea32ee554d12,146,2,2024-02-27T12:14:00.900Z,english_272.wav,0,peel,819,38,4,5,Français,f,3,0.3,-52.99830768,0.22094446
5ec454e23d68ea32ee554d12,146,2,2024-02-27T12:14:00.900Z,english_272.wav,0,peel,819,38,4,5,Français,f,4,0.32341667,-92.9943793,1.88040337
5ec454e23d68ea32ee554d12,147,2,2024-02-27T12:14:00.900Z,english_945.wav,0,peel,345,38,4,5,Français,f,0,0.0,63.16075011,1.8314946
5ec454e23d68ea32ee554d12,147,2,2024-02-27T12:14:00.900Z,english_945.wav,0,peel,345,38,4,5,Français,f,1,0.1,87.55520176,1.3737613
5ec454e23d68ea32ee554d12,147,2,2024-02-27T12:14:00.900Z,english_945.wav,0,peel,345,38,4,5,Français,f,2,0.2,-69.60467193,0.61639792
5ec454e23d68ea32ee554d12,147,2,2024-02-27T12:14:00.900Z,english_945.wav,0,peel,345,38,4,5,Français,f,3,0.3,-69.25530384,1.67239747
5ec454e23d68ea32ee554d12,147,2,2024-02-27T12:14:00.900Z,english_945.wav,0,peel,345,38,4,5,Français,f,4,0.32341667,-47.64160087,1.88344595
5ec454e23d68ea32ee554d12,148,2,2024-02-27T12:14:00.900Z,english_100.wav,0,peel,519,38,4,5,Français,f,0,0.0,-66.86198445,0.79522553
5ec454e23d68ea32ee554d12,148,2,2024-02-27T12:14:00.900Z,english_100.wav,0,peel,519,38,4,5,Français,f,1,0.1,32.23990363,0.27784591
5ec454e23d68ea32ee554d12,148,2,2024-02-27T12:14:00.900Z,english_100.wav,0,peel,519,38,4,5,Français,f,2,0.2,-63.31896149,1.76330212
5ec454e23d68ea32ee554d12,148,2,2024-02-27T12:14:00.900Z,english_100.wav,0,peel,519,38,4,5,Français,f,3,0.3,-73.00038049,0.60946618
5ec454e23d68ea32ee554d12,148,2,2024-02-27T12:14:00.900Z,english_100.wav,0,peel,519,38,4,5,Français,f,4,0.32341667,32.15710315,0.42695433
5ec454e23d68ea32ee554d12,149,2,2024-02-27T12:14:00.900Z,english_271.wav,0,peel,1092,38,4,5,Français,f,0,0.0,24.41564841,0.25667552
5ec454e23d68ea32ee554d12,149,2,2024-02-27T12:14:00.900Z,english_271.wav,0,peel,1092,38,4,5,Français,f,1,0.1,-64.42577909,1.20221217
5ec454e23d68ea32ee554d12,149,2,2024-02-27T12:14:00.900Z,english_271.wav,0,peel,1092,38,4,5,Français,f,2,0.2,32.27025317,0.24658485
5ec454e23d68ea32ee554d12,149,2,2024-02-27T12:14:00.900Z,english_271.wav,0,peel,1092,38,4,5,Français,f,3,0.3,58.71212772,1.57844265
5ec454e23d68ea32ee554d12,149,2,2024-02-27T12:14:00.900Z,english_271.wav,0,peel,1092,38,4,5,Français,f,4,0.32341667,46.7300547,1.00400066
5ec454e23d68ea32ee554d12,150,3,2024-02-27T12:14:00.900Z,english_14.wav,0,pill,1973,38,4,5,Français,f,0,0.0,98.00979643,0.92494293
5ec454e23d68ea32ee554d12,150,3,2024-02-27T12:14:00.900Z,english_14.wav,0,pill,1973,38,4,5,Français,f,1,0.1,-39.90204919,0.80403915
5ec454e23d68ea32ee554d12,150,3,2024-02-27T12:14:00.900Z,english_14.wav,0,pill,1973,38,4,5,Français,f,2,0.2,51.0517473,0.29426005
5ec454e23d68ea32ee554d12,150,3,2024-02-27T12:14:00.900Z,english_14.wav,0,pill,1973,38,4,5,Français,f,3,0.3,-8.39716694,0.14957292
5ec454e23d68ea32ee554d12,150,3,2024-02-27T12:14:00.900Z,english_14.wav,0,pill,1973,38,4,5,Français,f,4,0.32341667,82.54419716,0.1717279
5ec454e23d68ea32ee554d12,151,3,2024-02-27T12:14:00.900Z,english_885.wav,0,pill,753,38,4,5,Français,f,0,0.0,36.3288655,0.78617108
5ec454e23d68ea32ee554d12,151,3,2024-02-27T12:14:00.900Z,english_885.wav,0,pill,753,38,4,5,Français,f,1,0.1,-33.4786966,0.96292114
5ec454e23d68ea32ee554d12,151,3,2024-02-27T12:14:00.900Z,english_885.wav,0,pill,753,38,4,5,Français,f,2,0.2,8.05827153,0.70266535
5ec454e23d68ea32ee554d12,151,3,2024-02-27T12:14:00.900Z,english_885.wav,0,pill,753,38,4,5,Français,f,3,0.3,84.98004341,0.45613544
5ec454e23d68ea32ee554d12,151,3,2024-02-27T12:14:00.900Z,english_885.wav,0,pill,753,38,4,5,Français,f,4,0.32341667,-34.65749493,0.81873504
5ec454e23d68ea32ee554d12,152,3,2024-02-27T12:14:00.900Z,english_7.wav,0,peel,582,38,4,5,Français,f,0,0.0,-21.06405819,1.08184232
5ec454e23d68ea32ee554d12,152,3,2024-02-27T12:14:00.900Z,english_7.wav,0,peel,582,38,4,5,Français,f,1,0.1,52.71042782,0.36719269
5ec454e23d68ea32ee554d12,152,3,2024-02-27T12:14:00.900Z,english_7.wav,0,peel,582,38,4,5,Français,f,2,0.2,-75.60464889,0.43185312
