subj,trial,block,date,stim,stim_order,response,rt,age,english,french,language,sex,param_index,segment,pitch,stretch
6131fce64995c75f73f6d46e,0,0,2024-02-27T12:46:54.785Z,english_499.wav,0,pill,11171,34,4,5,français,m,0,0.0,-62.75547094,0.4212983
6131fce64995c75f73f6d46e,0,0,2024-02-27T12:46:54.785Z,english_499.wav,0,pill,11171,34,4,5,français,m,1,0.1,28.73361796,1.54082224
6131fce64995c75f73f6d46e,0,0,2024-02-27T12:46:54.785Z,english_499.wav,0,pill,11171,34,4,5,français,m,2,0.2,-71.86053711,1.07919976
6131fce64995c75f73f6d46e,0,0,2024-02-27T12:46:54.785Z,english_499.wav,0,pill,11171,34,4,5,français,m,3,0.3,-44.40399931,1.20425095
6131fce64995c75f73f6d46e,0,0,2024-02-27T12:46:54.785Z,english_499.wav,0,pill,11171,34,4,5,français,m,4,0.32341667,-2.72335033,0.4618338
6131fce64995c75f73f6d46e,1,0,2024-02-27T12:46:54.785Z,english_886.wav,0,peel,1443,34,4,5,français,m,0,0.0,52.0334205,0.43451348
6131fce64995c75f73f6d46e,1,0,2024-02-27T12:46:54.785Z,english_886.wav,0,peel,1443,34,4,5,français,m,1,0.1,-34.60142464,1.57387994
6131fce64995c75f73f6d46e,1,0,2024-02-27T12:46:54.785Z,english_886.wav,0,peel,1443,34,4,5,français,m,2,0.2,77.69993065,1.05416836
6131fce64995c75f73f6d46e,1,0,2024-02-27T12:46:54.785Z,english_886.wav,0,peel,1443,34,4,5,français,m,3,0.3,29.08950905,0.32554246
6131fce64995c75f73f6d46e,1,0,2024-02-27T12:46:54.785Z,english_886.wav,0,peel,1443,34,4,5,français,m,4,0.32341667,-98.8324779,1.85669509
6131fce64995c75f73f6d46e,2,0,2024-02-27T12:46:54.785Z,english_751.wav,0,pill,547,34,4,5,français,m,0,0.0,45.03630887,0.43450625
6131fce64995c75f73f6d46e,2,0,2024-02-27T12:46:54.785Z,english_751.wav,0,pill,547,34,4,5,français,m,1,0.1,46.59103402,1.30072592
6131fce64995c75f73f6d46e,2,0,2024-02-27T12:46:54.785Z,english_751.wav,0,pill,547,34,4,5,français,m,2,0.2,-30.90440374,1.20093797
6131fce64995c75f73f6d46e,2,0,2024-02-27T12:46:54.785Z,english_751.wav,0,pill,547,34,4,5,français,m,3,0.3,-61.26470289,0.81911259
6131fce64995c75f73f6d46e,2,0,2024-02-27T12:46:54.785Z,english_751.wav,0,pill,547,34,4,5,français,m,4,0.32341667,34.91384756,0.19140491
6131fce64995c75f73f6d46e,3,0,2024-02-27T12:46:54.785Z,english_867.wav,0,peel,978,34,4,5,français,m,0,0.0,9.0283109,0.25019481
6131fce64995c75f73f6d46e,3,0,2024-02-27T12:46:54.785Z,english_867.wav,0,peel,978,34,4,5,français,m,1,0.1,6.96107974,0.62311927
6131fce64995c75f73f6d46e,3,0,2024-02-27T12:46:54.785Z,english_867.wav,0,peel,978,34,4,5,français,m,2,0.2,14.88339172,1.78918939
6131fce64995c75f73f6d46e,3,0,2024-02-27T12:46:54.785Z,english_867.wav,0,peel,978,34,4,5,français,m,3,0.3,-2.73093064,1.34945049
6131fce64995c75f73f6d46e,3,0,2024-02-27T12:46:54.785Z,english_867.wav,0,peel,978,34,4,5,français,m,4,0.32341667,-85.27526638,0.75720604
6131fce64995c75f73f6d46e,4,0,2024-02-27T12:46:54.785Z,english_32.wav,0,pill,641,34,4,5,français,m,0,0.0,89.50349963,1.73304916
6131fce64995c75f73f6d46e,4,0,2024-02-27T12:46:54.785Z,english_32.wav,0,pill,641,34,4,5,français,m,1,0.1,51.51128255,0.02192789
6131fce64995c75f73f6d46e,4,0,2024-02-27T12:46:54.785Z,english_32.wav,0,pill,641,34,4,5,français,m,2,0.2,-58.32910347,1.71493142
6131fce64995c75f73f6d46e,4,0,2024-02-27T12:46:54.785Z,english_32.wav,0,pill,641,34,4,5,français,m,3,0.3,15.96172744,1.28451373
6131fce64995c75f73f6d46e,4,0,2024-02-27T12:46:54.785Z,english_32.wav,0,pill,641,34,4,5,français,m,4,0.32341667,84.40449403,1.22971166
6131fce64995c75f73f6d46e,5,0,2024-02-27T12:46:54.785Z,english_834.wav,0,pill,622,34,4,5,français,m,0,0.0,-64.94927172,0.98752234
6131fce64995c75f73f6d46e,5,0,2024-02-27T12:46:54.785Z,english_834.wav,0,pill,622,34,4,5,français,m,1,0.1,49.61052881,1.31122352
6131fce64995c75f73f6d46e,5,0,2024-02-27T12:46:54.785Z,english_834.wav,0,pill,622,34,4,5,français,m,2,0.2,-25.04715585,0.09065599
6131fce64995c75f73f6d46e,5,0,2024-02-27T12:46:54.785Z,english_834.wav,0,pill,622,34,4,5,français,m,3,0.3,95.09819394,1.07854905
6131fce64995c75f73f6d46e,5,0,2024-02-27T12:46:54.785Z,english_834.wav,0,pill,622,34,4,5,français,m,4,0.32341667,84.16953653,1.76453498
6131fce64995c75f73f6d46e,6,0,2024-02-27T12:46:54.785Z,english_41.wav,0,peel,1386,34,4,5,français,m,0,0.0,42.21237724,0.98996482
6131fce64995c75f73f6d46e,6,0,2024-02-27T12:46:54.785Z,english_41.wav,0,peel,1386,34,4,5,français,m,1,0.1,33.8271633,0.77076848
6131fce64995c75f73f6d46e,6,0,2024-02-27T12:46:54.785Z,english_41.wav,0,peel,1386,34,4,5,français,m,2,0.2,20.96644351,0.37402384
6131fce64995c75f73f6d46e,6,0,2024-02-27T12:46:54.785Z,english_41.wav,0,peel,1386,34,4,5,français,m,3,0.3,-53.61985723,1.98545705
6131fce64995c75f73f6d46e,6,0,2024-02-27T12:46:54.785Z,english_41.wav,0,peel,1386,34,4,5,français,m,4,0.32341667,-55.68725705,1.53352273
6131fce64995c75f73f6d46e,7,0,2024-02-27T12:46:54.785Z,english_105.wav,0,peel,1240,34,4,5,français,m,0,0.0,15.80659439,1.08535851
6131fce64995c75f73f6d46e,7,0,2024-02-27T12:46:54.785Z,english_105.wav,0,peel,1240,34,4,5,français,m,1,0.1,42.66899606,0.24895576
6131fce64995c75f73f6d46e,7,0,2024-02-27T12:46:54.785Z,english_105.wav,0,peel,1240,34,4,5,français,m,2,0.2,70.76731416,1.16165898
6131fce64995c75f73f6d46e,7,0,2024-02-27T12:46:54.785Z,english_105.wav,0,peel,1240,34,4,5,français,m,3,0.3,70.45261783,1.37248151
6131fce64995c75f73f6d46e,7,0,2024-02-27T12:46:54.785Z,english_105.wav,0,peel,1240,34,4,5,français,m,4,0.32341667,38.01355443,0.81952348
6131fce64995c75f73f6d46e,8,0,2024-02-27T12:46:54.785Z,english_952.wav,0,peel,843,34,4,5,français,m,0,0.0,64.91746033,1.00586425
6131fce64995c75f73f6d46e,8,0,2024-02-27T12:46:54.785Z,english_952.wav,0,peel,843,34,4,5,français,m,1,0.1,-25.84234774,1.28790365
6131fce64995c75f73f6d46e,8,0,2024-02-27T12:46:54.785Z,english_952.wav,0,peel,843,34,4,5,français,m,2,0.2,60.30097417,1.6668124
6131fce64995c75f73f6d46e,8,0,2024-02-27T12:46:54.785Z,english_952.wav,0,peel,843,34,4,5,français,m,3,0.3,-98.0606555,1.44616756
6131fce64995c75f73f6d46e,8,0,2024-02-27T12:46:54.785Z,english_952.wav,0,peel,843,34,4,5,français,m,4,0.32341667,-77.98984902,0.15831209
6131fce64995c75f73f6d46e,9,0,2024-02-27T12:46:54.785Z,english_69.wav,0,pill,524,34,4,5,français,m,0,0.0,-57.18730239,0.11878381
6131fce64995c75f73f6d46e,9,0,2024-02-27T12:46:54.785Z,english_69.wav,0,pill,524,34,4,5,français,m,1,0.1,16.22212469,1.00797921
6131fce64995c75f73f6d46e,9,0,2024-02-27T12:46:54.785Z,english_69.wav,0,pill,524,34,4,5,français,m,2,0.2,-44.28071093,0.42082068
6131fce64995c75f73f6d46e,9,0,2024-02-27T12:46:54.785Z,english_69.wav,0,pill,524,34,4,5,français,m,3,0.3,-70.80378082,0.50205716
6131fce64995c75f73f6d46e,9,0,2024-02-27T12:46:54.785Z,english_69.wav,0,pill,524,34,4,5,français,m,4,0.32341667,-58.3439892,0.68985838
6131fce64995c75f73f6d46e,10,0,2024-02-27T12:46:54.785Z,english_225.wav,0,peel,1446,34,4,5,français,m,0,0.0,66.72796839,1.97535322
6131fce64995c75f73f6d46e,10,0,2024-02-27T12:46:54.785Z,english_225.wav,0,peel,1446,34,4,5,français,m,1,0.1,3.03768966,1.18784527
6131fce64995c75f73f6d46e,10,0,2024-02-27T12:46:54.785Z,english_225.wav,0,peel,1446,34,4,5,français,m,2,0.2,-45.96345052,1.58393351
6131fce64995c75f73f6d46e,10,0,2024-02-27T12:46:54.785Z,english_225.wav,0,peel,1446,34,4,5,français,m,3,0.3,-88.14676012,1.17885171
6131fce64995c75f73f6d46e,10,0,2024-02-27T12:46:54.785Z,english_225.wav,0,peel,1446,34,4,5,français,m,4,0.32341667,46.76760659,1.387907
6131fce64995c75f73f6d46e,11,0,2024-02-27T12:46:54.785Z,english_648.wav,0,pill,1122,34,4,5,français,m,0,0.0,-36.17742204,0.57576188
6131fce64995c75f73f6d46e,11,0,2024-02-27T12:46:54.785Z,english_648.wav,0,pill,1122,34,4,5,français,m,1,0.1,30.10697278,1.1310908
6131fce64995c75f73f6d46e,11,0,2024-02-27T12:46:54.785Z,english_648.wav,0,pill,1122,34,4,5,français,m,2,0.2,-67.31320052,1.67112441
6131fce64995c75f73f6d46e,11,0,2024-02-27T12:46:54.785Z,english_648.wav,0,pill,1122,34,4,5,français,m,3,0.3,-10.94597212,0.39641968
6131fce64995c75f73f6d46e,11,0,2024-02-27T12:46:54.785Z,english_648.wav,0,pill,1122,34,4,5,français,m,4,0.32341667,72.59648235,1.93789316
6131fce64995c75f73f6d46e,12,0,2024-02-27T12:46:54.785Z,english_818.wav,0,pill,595,34,4,5,français,m,0,0.0,88.49542613,1.4873036
6131fce64995c75f73f6d46e,12,0,2024-02-27T12:46:54.785Z,english_818.wav,0,pill,595,34,4,5,français,m,1,0.1,-7.37005163,1.25102077
6131fce64995c75f73f6d46e,12,0,2024-02-27T12:46:54.785Z,english_818.wav,0,pill,595,34,4,5,français,m,2,0.2,-1.58613611,0.80764036
6131fce64995c75f73f6d46e,12,0,2024-02-27T12:46:54.785Z,english_818.wav,0,pill,595,34,4,5,français,m,3,0.3,-69.41222379,0.80656775
6131fce64995c75f73f6d46e,12,0,2024-02-27T12:46:54.785Z,english_818.wav,0,pill,595,34,4,5,français,m,4,0.32341667,14.01707612,1.41859799
6131fce64995c75f73f6d46e,13,0,2024-02-27T12:46:54.785Z,english_779.wav,0,peel,926,34,4,5,français,m,0,0.0,-66.48303018,1.22216448
6131fce64995c75f73f6d46e,13,0,2024-02-27T12:46:54.785Z,english_779.wav,0,peel,926,34,4,5,français,m,1,0.1,55.33592885,1.30288261
6131fce64995c75f73f6d46e,13,0,2024-02-27T12:46:54.785Z,english_779.wav,0,peel,926,34,4,5,français,m,2,0.2,67.38671669,0.25409759
6131fce64995c75f73f6d46e,13,0,2024-02-27T12:46:54.785Z,english_779.wav,0,peel,926,34,4,5,français,m,3,0.3,65.49052189,1.76174581
6131fce64995c75f73f6d46e,13,0,2024-02-27T12:46:54.785Z,english_779.wav,0,peel,926,34,4,5,français,m,4,0.32341667,-12.12955258,0.12280057
6131fce64995c75f73f6d46e,14,0,2024-02-27T12:46:54.785Z,english_950.wav,0,peel,514,34,4,5,français,m,0,0.0,-21.9776243,0.20752278
6131fce64995c75f73f6d46e,14,0,2024-02-27T12:46:54.785Z,english_950.wav,0,peel,514,34,4,5,français,m,1,0.1,-41.40023943,1.93939622
6131fce64995c75f73f6d46e,14,0,2024-02-27T12:46:54.785Z,english_950.wav,0,peel,514,34,4,5,français,m,2,0.2,48.01515584,1.55608343
6131fce64995c75f73f6d46e,14,0,2024-02-27T12:46:54.785Z,english_950.wav,0,peel,514,34,4,5,français,m,3,0.3,-87.95551252,1.49634866
6131fce64995c75f73f6d46e,14,0,2024-02-27T12:46:54.785Z,english_950.wav,0,peel,514,34,4,5,français,m,4,0.32341667,-39.5252386,0.91783384
6131fce64995c75f73f6d46e,15,0,2024-02-27T12:46:54.785Z,english_274.wav,0,pill,494,34,4,5,français,m,0,0.0,-30.61452779,0.78021116
6131fce64995c75f73f6d46e,15,0,2024-02-27T12:46:54.785Z,english_274.wav,0,pill,494,34,4,5,français,m,1,0.1,-42.14612233,1.93993358
6131fce64995c75f73f6d46e,15,0,2024-02-27T12:46:54.785Z,english_274.wav,0,pill,494,34,4,5,français,m,2,0.2,32.00602795,0.32963606
6131fce64995c75f73f6d46e,15,0,2024-02-27T12:46:54.785Z,english_274.wav,0,pill,494,34,4,5,français,m,3,0.3,-37.74375581,1.46133782
6131fce64995c75f73f6d46e,15,0,2024-02-27T12:46:54.785Z,english_274.wav,0,pill,494,34,4,5,français,m,4,0.32341667,-54.5397802,1.53178785
6131fce64995c75f73f6d46e,16,0,2024-02-27T12:46:54.785Z,english_294.wav,0,peel,684,34,4,5,français,m,0,0.0,-92.15775888,0.74816787
6131fce64995c75f73f6d46e,16,0,2024-02-27T12:46:54.785Z,english_294.wav,0,peel,684,34,4,5,français,m,1,0.1,71.96645866,1.71916745
6131fce64995c75f73f6d46e,16,0,2024-02-27T12:46:54.785Z,english_294.wav,0,peel,684,34,4,5,français,m,2,0.2,-25.46852775,1.7524902
6131fce64995c75f73f6d46e,16,0,2024-02-27T12:46:54.785Z,english_294.wav,0,peel,684,34,4,5,français,m,3,0.3,17.21488016,0.9780509
6131fce64995c75f73f6d46e,16,0,2024-02-27T12:46:54.785Z,english_294.wav,0,peel,684,34,4,5,français,m,4,0.32341667,-10.41176069,1.21177262
6131fce64995c75f73f6d46e,17,0,2024-02-27T12:46:54.785Z,english_29.wav,0,peel,1389,34,4,5,français,m,0,0.0,-2.71310826,1.50712016
6131fce64995c75f73f6d46e,17,0,2024-02-27T12:46:54.785Z,english_29.wav,0,peel,1389,34,4,5,français,m,1,0.1,17.7201972,0.83644439
6131fce64995c75f73f6d46e,17,0,2024-02-27T12:46:54.785Z,english_29.wav,0,peel,1389,34,4,5,français,m,2,0.2,-20.17501418,0.76078741
6131fce64995c75f73f6d46e,17,0,2024-02-27T12:46:54.785Z,english_29.wav,0,peel,1389,34,4,5,français,m,3,0.3,12.48271646,0.17009155
6131fce64995c75f73f6d46e,17,0,2024-02-27T12:46:54.785Z,english_29.wav,0,peel,1389,34,4,5,français,m,4,0.32341667,29.42079391,1.26727983
6131fce64995c75f73f6d46e,18,0,2024-02-27T12:46:54.785Z,english_727.wav,0,pill,768,34,4,5,français,m,0,0.0,86.20347479,1.33530257
6131fce64995c75f73f6d46e,18,0,2024-02-27T12:46:54.785Z,english_727.wav,0,pill,768,34,4,5,français,m,1,0.1,12.26210304,1.85547333
6131fce64995c75f73f6d46e,18,0,2024-02-27T12:46:54.785Z,english_727.wav,0,pill,768,34,4,5,français,m,2,0.2,5.59218777,1.19683436
6131fce64995c75f73f6d46e,18,0,2024-02-27T12:46:54.785Z,english_727.wav,0,pill,768,34,4,5,français,m,3,0.3,-46.39280156,1.89207751
6131fce64995c75f73f6d46e,18,0,2024-02-27T12:46:54.785Z,english_727.wav,0,pill,768,34,4,5,français,m,4,0.32341667,21.79775503,1.05019022
6131fce64995c75f73f6d46e,19,0,2024-02-27T12:46:54.785Z,english_513.wav,0,pill,3674,34,4,5,français,m,0,0.0,76.78578212,0.02403043
6131fce64995c75f73f6d46e,19,0,2024-02-27T12:46:54.785Z,english_513.wav,0,pill,3674,34,4,5,français,m,1,0.1,20.42124481,0.85164369
6131fce64995c75f73f6d46e,19,0,2024-02-27T12:46:54.785Z,english_513.wav,0,pill,3674,34,4,5,français,m,2,0.2,83.32251122,1.08658436
6131fce64995c75f73f6d46e,19,0,2024-02-27T12:46:54.785Z,english_513.wav,0,pill,3674,34,4,5,français,m,3,0.3,47.28432413,0.40639055
6131fce64995c75f73f6d46e,19,0,2024-02-27T12:46:54.785Z,english_513.wav,0,pill,3674,34,4,5,français,m,4,0.32341667,-50.64117466,1.29336046
6131fce64995c75f73f6d46e,20,0,2024-02-27T12:46:54.785Z,english_924.wav,0,peel,943,34,4,5,français,m,0,0.0,63.64154058,1.83477076
6131fce64995c75f73f6d46e,20,0,2024-02-27T12:46:54.785Z,english_924.wav,0,peel,943,34,4,5,français,m,1,0.1,-60.55254199,0.21366754
6131fce64995c75f73f6d46e,20,0,2024-02-27T12:46:54.785Z,english_924.wav,0,peel,943,34,4,5,français,m,2,0.2,-47.94670646,1.07859551
6131fce64995c75f73f6d46e,20,0,2024-02-27T12:46:54.785Z,english_924.wav,0,peel,943,34,4,5,français,m,3,0.3,-76.50696127,1.9507375
6131fce64995c75f73f6d46e,20,0,2024-02-27T12:46:54.785Z,english_924.wav,0,peel,943,34,4,5,français,m,4,0.32341667,44.23103111,1.33476666
6131fce64995c75f73f6d46e,21,0,2024-02-27T12:46:54.785Z,english_68.wav,0,peel,682,34,4,5,français,m,0,0.0,-23.38152803,1.83565324
6131fce64995c75f73f6d46e,21,0,2024-02-27T12:46:54.785Z,english_68.wav,0,peel,682,34,4,5,français,m,1,0.1,-36.0918901,0.35162477
6131fce64995c75f73f6d46e,21,0,2024-02-27T12:46:54.785Z,english_68.wav,0,peel,682,34,4,5,français,m,2,0.2,65.46592862,1.10705723
6131fce64995c75f73f6d46e,21,0,2024-02-27T12:46:54.785Z,english_68.wav,0,peel,682,34,4,5,français,m,3,0.3,48.57602628,1.09550925
6131fce64995c75f73f6d46e,21,0,2024-02-27T12:46:54.785Z,english_68.wav,0,peel,682,34,4,5,français,m,4,0.32341667,-93.64245591,0.05753383
6131fce64995c75f73f6d46e,22,0,2024-02-27T12:46:54.785Z,english_971.wav,0,pill,1557,34,4,5,français,m,0,0.0,27.0641734,0.01013217
6131fce64995c75f73f6d46e,22,0,2024-02-27T12:46:54.785Z,english_971.wav,0,pill,1557,34,4,5,français,m,1,0.1,-43.13434162,0.95424486
6131fce64995c75f73f6d46e,22,0,2024-02-27T12:46:54.785Z,english_971.wav,0,pill,1557,34,4,5,français,m,2,0.2,83.45364082,1.16332163
6131fce64995c75f73f6d46e,22,0,2024-02-27T12:46:54.785Z,english_971.wav,0,pill,1557,34,4,5,français,m,3,0.3,46.6736971,0.56494555
6131fce64995c75f73f6d46e,22,0,2024-02-27T12:46:54.785Z,english_971.wav,0,pill,1557,34,4,5,français,m,4,0.32341667,-28.9166607,0.73596031
6131fce64995c75f73f6d46e,23,0,2024-02-27T12:46:54.785Z,english_683.wav,0,peel,1715,34,4,5,français,m,0,0.0,-73.37543508,1.70409633
6131fce64995c75f73f6d46e,23,0,2024-02-27T12:46:54.785Z,english_683.wav,0,peel,1715,34,4,5,français,m,1,0.1,66.4080647,1.25556383
6131fce64995c75f73f6d46e,23,0,2024-02-27T12:46:54.785Z,english_683.wav,0,peel,1715,34,4,5,français,m,2,0.2,46.46812351,0.87554738
6131fce64995c75f73f6d46e,23,0,2024-02-27T12:46:54.785Z,english_683.wav,0,peel,1715,34,4,5,français,m,3,0.3,71.67755016,1.32863005
6131fce64995c75f73f6d46e,23,0,2024-02-27T12:46:54.785Z,english_683.wav,0,peel,1715,34,4,5,français,m,4,0.32341667,2.86253031,0.20364682
6131fce64995c75f73f6d46e,24,0,2024-02-27T12:46:54.785Z,english_664.wav,0,peel,1472,34,4,5,français,m,0,0.0,-76.94516773,1.88823832
6131fce64995c75f73f6d46e,24,0,2024-02-27T12:46:54.785Z,english_664.wav,0,peel,1472,34,4,5,français,m,1,0.1,-6.4858311,1.41396893
6131fce64995c75f73f6d46e,24,0,2024-02-27T12:46:54.785Z,english_664.wav,0,peel,1472,34,4,5,français,m,2,0.2,46.60528691,0.11773869
6131fce64995c75f73f6d46e,24,0,2024-02-27T12:46:54.785Z,english_664.wav,0,peel,1472,34,4,5,français,m,3,0.3,9.48323043,1.80376032
6131fce64995c75f73f6d46e,24,0,2024-02-27T12:46:54.785Z,english_664.wav,0,peel,1472,34,4,5,français,m,4,0.32341667,89.85696022,1.43209877
6131fce64995c75f73f6d46e,25,0,2024-02-27T12:46:54.785Z,english_126.wav,0,pill,562,34,4,5,français,m,0,0.0,-71.89060105,0.84485729
6131fce64995c75f73f6d46e,25,0,2024-02-27T12:46:54.785Z,english_126.wav,0,pill,562,34,4,5,français,m,1,0.1,-54.28004149,1.61340521
6131fce64995c75f73f6d46e,25,0,2024-02-27T12:46:54.785Z,english_126.wav,0,pill,562,34,4,5,français,m,2,0.2,67.0997098,1.10892805
6131fce64995c75f73f6d46e,25,0,2024-02-27T12:46:54.785Z,english_126.wav,0,pill,562,34,4,5,français,m,3,0.3,-96.31741745,1.20133652
6131fce64995c75f73f6d46e,25,0,2024-02-27T12:46:54.785Z,english_126.wav,0,pill,562,34,4,5,français,m,4,0.32341667,22.67293764,0.33470898
6131fce64995c75f73f6d46e,26,0,2024-02-27T12:46:54.785Z,english_769.wav,0,pill,650,34,4,5,français,m,0,0.0,-12.68288087,1.59358978
6131fce64995c75f73f6d46e,26,0,2024-02-27T12:46:54.785Z,english_769.wav,0,pill,650,34,4,5,français,m,1,0.1,13.58895245,0.16681031
6131fce64995c75f73f6d46e,26,0,2024-02-27T12:46:54.785Z,english_769.wav,0,pill,650,34,4,5,français,m,2,0.2,-5.57429841,0.74292099
6131fce64995c75f73f6d46e,26,0,2024-02-27T12:46:54.785Z,english_769.wav,0,pill,650,34,4,5,français,m,3,0.3,-26.44516544,0.17250104
6131fce64995c75f73f6d46e,26,0,2024-02-27T12:46:54.785Z,english_769.wav,0,pill,650,34,4,5,français,m,4,0.32341667,85.93285426,0.16730253
6131fce64995c75f73f6d46e,27,0,2024-02-27T12:46:54.785Z,english_651.wav,0,pill,1292,34,4,5,français,m,0,0.0,94.66063372,0.16277223
6131fce64995c75f73f6d46e,27,0,2024-02-27T12:46:54.785Z,english_651.wav,0,pill,1292,34,4,5,français,m,1,0.1,53.93234837,1.71236475
6131fce64995c75f73f6d46e,27,0,2024-02-27T12:46:54.785Z,english_651.wav,0,pill,1292,34,4,5,français,m,2,0.2,-71.35755131,0.37376336
6131fce64995c75f73f6d46e,27,0,2024-02-27T12:46:54.785Z,english_651.wav,0,pill,1292,34,4,5,français,m,3,0.3,50.84025958,0.80998932
6131fce64995c75f73f6d46e,27,0,2024-02-27T12:46:54.785Z,english_651.wav,0,pill,1292,34,4,5,français,m,4,0.32341667,-24.67252949,0.23835763
6131fce64995c75f73f6d46e,28,0,2024-02-27T12:46:54.785Z,english_766.wav,0,peel,581,34,4,5,français,m,0,0.0,-86.57417509,1.21737292
6131fce64995c75f73f6d46e,28,0,2024-02-27T12:46:54.785Z,english_766.wav,0,peel,581,34,4,5,français,m,1,0.1,-67.75686223,1.61484435
6131fce64995c75f73f6d46e,28,0,2024-02-27T12:46:54.785Z,english_766.wav,0,peel,581,34,4,5,français,m,2,0.2,74.21258041,1.47872362
6131fce64995c75f73f6d46e,28,0,2024-02-27T12:46:54.785Z,english_766.wav,0,peel,581,34,4,5,français,m,3,0.3,65.20164426,1.81064247
6131fce64995c75f73f6d46e,28,0,2024-02-27T12:46:54.785Z,english_766.wav,0,peel,581,34,4,5,français,m,4,0.32341667,-26.41371036,1.37776493
6131fce64995c75f73f6d46e,29,0,2024-02-27T12:46:54.785Z,english_251.wav,0,peel,1428,34,4,5,français,m,0,0.0,-35.26640223,1.59441442
6131fce64995c75f73f6d46e,29,0,2024-02-27T12:46:54.785Z,english_251.wav,0,peel,1428,34,4,5,français,m,1,0.1,-82.14936791,1.21410308
6131fce64995c75f73f6d46e,29,0,2024-02-27T12:46:54.785Z,english_251.wav,0,peel,1428,34,4,5,français,m,2,0.2,39.53587687,0.89125894
6131fce64995c75f73f6d46e,29,0,2024-02-27T12:46:54.785Z,english_251.wav,0,peel,1428,34,4,5,français,m,3,0.3,-75.44024907,0.14763688
6131fce64995c75f73f6d46e,29,0,2024-02-27T12:46:54.785Z,english_251.wav,0,peel,1428,34,4,5,français,m,4,0.32341667,26.94148116,1.71797298
6131fce64995c75f73f6d46e,30,0,2024-02-27T12:46:54.785Z,english_167.wav,0,pill,654,34,4,5,français,m,0,0.0,57.26975159,0.44729063
6131fce64995c75f73f6d46e,30,0,2024-02-27T12:46:54.785Z,english_167.wav,0,pill,654,34,4,5,français,m,1,0.1,54.31010869,1.623568
6131fce64995c75f73f6d46e,30,0,2024-02-27T12:46:54.785Z,english_167.wav,0,pill,654,34,4,5,français,m,2,0.2,99.57020207,0.28743218
6131fce64995c75f73f6d46e,30,0,2024-02-27T12:46:54.785Z,english_167.wav,0,pill,654,34,4,5,français,m,3,0.3,27.92735821,0.71837494
6131fce64995c75f73f6d46e,30,0,2024-02-27T12:46:54.785Z,english_167.wav,0,pill,654,34,4,5,français,m,4,0.32341667,73.13424206,1.35815305
6131fce64995c75f73f6d46e,31,0,2024-02-27T12:46:54.785Z,english_636.wav,0,peel,763,34,4,5,français,m,0,0.0,-20.37295141,1.69276631
6131fce64995c75f73f6d46e,31,0,2024-02-27T12:46:54.785Z,english_636.wav,0,peel,763,34,4,5,français,m,1,0.1,-84.7288786,1.69908726
6131fce64995c75f73f6d46e,31,0,2024-02-27T12:46:54.785Z,english_636.wav,0,peel,763,34,4,5,français,m,2,0.2,24.84265136,1.44836333
6131fce64995c75f73f6d46e,31,0,2024-02-27T12:46:54.785Z,english_636.wav,0,peel,763,34,4,5,français,m,3,0.3,-9.2443485,1.36647816
6131fce64995c75f73f6d46e,31,0,2024-02-27T12:46:54.785Z,english_636.wav,0,peel,763,34,4,5,français,m,4,0.32341667,49.04875774,0.88112598
6131fce64995c75f73f6d46e,32,0,2024-02-27T12:46:54.785Z,english_38.wav,0,pill,552,34,4,5,français,m,0,0.0,-2.78484508,0.45448836
6131fce64995c75f73f6d46e,32,0,2024-02-27T12:46:54.785Z,english_38.wav,0,pill,552,34,4,5,français,m,1,0.1,-57.68912839,0.86252605
6131fce64995c75f73f6d46e,32,0,2024-02-27T12:46:54.785Z,english_38.wav,0,pill,552,34,4,5,français,m,2,0.2,-17.27242754,1.61904865
6131fce64995c75f73f6d46e,32,0,2024-02-27T12:46:54.785Z,english_38.wav,0,pill,552,34,4,5,français,m,3,0.3,-2.64514482,1.39130822
6131fce64995c75f73f6d46e,32,0,2024-02-27T12:46:54.785Z,english_38.wav,0,pill,552,34,4,5,français,m,4,0.32341667,55.14373267,1.59066599
6131fce64995c75f73f6d46e,33,0,2024-02-27T12:46:54.785Z,english_641.wav,0,pill,623,34,4,5,français,m,0,0.0,-90.88934322,1.28926835
6131fce64995c75f73f6d46e,33,0,2024-02-27T12:46:54.785Z,english_641.wav,0,pill,623,34,4,5,français,m,1,0.1,13.36673253,0.02464493
6131fce64995c75f73f6d46e,33,0,2024-02-27T12:46:54.785Z,english_641.wav,0,pill,623,34,4,5,français,m,2,0.2,-36.70414591,0.5505433
6131fce64995c75f73f6d46e,33,0,2024-02-27T12:46:54.785Z,english_641.wav,0,pill,623,34,4,5,français,m,3,0.3,-4.62417375,0.52188675
6131fce64995c75f73f6d46e,33,0,2024-02-27T12:46:54.785Z,english_641.wav,0,pill,623,34,4,5,français,m,4,0.32341667,15.34366305,0.01360039
6131fce64995c75f73f6d46e,34,0,2024-02-27T12:46:54.785Z,english_768.wav,0,pill,2227,34,4,5,français,m,0,0.0,-28.93145359,1.5002074
6131fce64995c75f73f6d46e,34,0,2024-02-27T12:46:54.785Z,english_768.wav,0,pill,2227,34,4,5,français,m,1,0.1,59.49166151,1.15432208
6131fce64995c75f73f6d46e,34,0,2024-02-27T12:46:54.785Z,english_768.wav,0,pill,2227,34,4,5,français,m,2,0.2,41.87955621,0.01731471
6131fce64995c75f73f6d46e,34,0,2024-02-27T12:46:54.785Z,english_768.wav,0,pill,2227,34,4,5,français,m,3,0.3,-92.17589111,0.98337229
6131fce64995c75f73f6d46e,34,0,2024-02-27T12:46:54.785Z,english_768.wav,0,pill,2227,34,4,5,français,m,4,0.32341667,15.2364545,0.4381055
6131fce64995c75f73f6d46e,35,0,2024-02-27T12:46:54.785Z,english_48.wav,0,peel,1490,34,4,5,français,m,0,0.0,73.79399561,0.74385981
6131fce64995c75f73f6d46e,35,0,2024-02-27T12:46:54.785Z,english_48.wav,0,peel,1490,34,4,5,français,m,1,0.1,-6.33056249,1.05457567
6131fce64995c75f73f6d46e,35,0,2024-02-27T12:46:54.785Z,english_48.wav,0,peel,1490,34,4,5,français,m,2,0.2,-25.55346814,0.45493163
6131fce64995c75f73f6d46e,35,0,2024-02-27T12:46:54.785Z,english_48.wav,0,peel,1490,34,4,5,français,m,3,0.3,46.43305776,0.06513279
6131fce64995c75f73f6d46e,35,0,2024-02-27T12:46:54.785Z,english_48.wav,0,peel,1490,34,4,5,français,m,4,0.32341667,-46.56414761,0.46755714
6131fce64995c75f73f6d46e,36,0,2024-02-27T12:46:54.785Z,english_816.wav,0,peel,1106,34,4,5,français,m,0,0.0,-5.39935373,0.27372013
6131fce64995c75f73f6d46e,36,0,2024-02-27T12:46:54.785Z,english_816.wav,0,peel,1106,34,4,5,français,m,1,0.1,-58.12348851,1.23542608
6131fce64995c75f73f6d46e,36,0,2024-02-27T12:46:54.785Z,english_816.wav,0,peel,1106,34,4,5,français,m,2,0.2,-97.19740724,1.6956732
6131fce64995c75f73f6d46e,36,0,2024-02-27T12:46:54.785Z,english_816.wav,0,peel,1106,34,4,5,français,m,3,0.3,4.60418864,0.17466083
6131fce64995c75f73f6d46e,36,0,2024-02-27T12:46:54.785Z,english_816.wav,0,peel,1106,34,4,5,français,m,4,0.32341667,57.92285533,0.69657013
6131fce64995c75f73f6d46e,37,0,2024-02-27T12:46:54.785Z,english_959.wav,0,peel,1166,34,4,5,français,m,0,0.0,-78.42285057,1.71892855
6131fce64995c75f73f6d46e,37,0,2024-02-27T12:46:54.785Z,english_959.wav,0,peel,1166,34,4,5,français,m,1,0.1,6.44734251,1.96402951
6131fce64995c75f73f6d46e,37,0,2024-02-27T12:46:54.785Z,english_959.wav,0,peel,1166,34,4,5,français,m,2,0.2,20.74966326,0.26247596
6131fce64995c75f73f6d46e,37,0,2024-02-27T12:46:54.785Z,english_959.wav,0,peel,1166,34,4,5,français,m,3,0.3,-29.69680039,1.29464598
6131fce64995c75f73f6d46e,37,0,2024-02-27T12:46:54.785Z,english_959.wav,0,peel,1166,34,4,5,français,m,4,0.32341667,34.2282551,1.77868038
6131fce64995c75f73f6d46e,38,0,2024-02-27T12:46:54.785Z,english_108.wav,0,peel,1033,34,4,5,français,m,0,0.0,-20.69942707,0.77052949
6131fce64995c75f73f6d46e,38,0,2024-02-27T12:46:54.785Z,english_108.wav,0,peel,1033,34,4,5,français,m,1,0.1,-59.42152954,1.01445352
6131fce64995c75f73f6d46e,38,0,2024-02-27T12:46:54.785Z,english_108.wav,0,peel,1033,34,4,5,français,m,2,0.2,-8.09170222,0.42363715
6131fce64995c75f73f6d46e,38,0,2024-02-27T12:46:54.785Z,english_108.wav,0,peel,1033,34,4,5,français,m,3,0.3,21.99826779,1.45799831
6131fce64995c75f73f6d46e,38,0,2024-02-27T12:46:54.785Z,english_108.wav,0,peel,1033,34,4,5,français,m,4,0.32341667,56.38973361,1.71498507
6131fce64995c75f73f6d46e,39,0,2024-02-27T12:46:54.785Z,english_46.wav,0,pill,1774,34,4,5,français,m,0,0.0,-29.32250151,0.64118776
6131fce64995c75f73f6d46e,39,0,2024-02-27T12:46:54.785Z,english_46.wav,0,pill,1774,34,4,5,français,m,1,0.1,-3.06808063,0.73649566
6131fce64995c75f73f6d46e,39,0,2024-02-27T12:46:54.785Z,english_46.wav,0,pill,1774,34,4,5,français,m,2,0.2,90.97923358,1.88790792
6131fce64995c75f73f6d46e,39,0,2024-02-27T12:46:54.785Z,english_46.wav,0,pill,1774,34,4,5,français,m,3,0.3,10.7462216,0.26788582
6131fce64995c75f73f6d46e,39,0,2024-02-27T12:46:54.785Z,english_46.wav,0,pill,1774,34,4,5,français,m,4,0.32341667,-76.74347892,0.543593
6131fce64995c75f73f6d46e,40,0,2024-02-27T12:46:54.785Z,english_538.wav,0,pill,748,34,4,5,français,m,0,0.0,2.36208538,1.54356298
6131fce64995c75f73f6d46e,40,0,2024-02-27T12:46:54.785Z,english_538.wav,0,pill,748,34,4,5,français,m,1,0.1,77.85923423,0.47597082
6131fce64995c75f73f6d46e,40,0,2024-02-27T12:46:54.785Z,english_538.wav,0,pill,748,34,4,5,français,m,2,0.2,-89.1271409,1.27977799
6131fce64995c75f73f6d46e,40,0,2024-02-27T12:46:54.785Z,english_538.wav,0,pill,748,34,4,5,français,m,3,0.3,-18.79772534,1.05516459
6131fce64995c75f73f6d46e,40,0,2024-02-27T12:46:54.785Z,english_538.wav,0,pill,748,34,4,5,français,m,4,0.32341667,87.62276495,1.20284762
6131fce64995c75f73f6d46e,41,0,2024-02-27T12:46:54.785Z,english_431.wav,0,peel,1324,34,4,5,français,m,0,0.0,-28.91437381,1.3282391
6131fce64995c75f73f6d46e,41,0,2024-02-27T12:46:54.785Z,english_431.wav,0,peel,1324,34,4,5,français,m,1,0.1,30.6479342,1.9405757
6131fce64995c75f73f6d46e,41,0,2024-02-27T12:46:54.785Z,english_431.wav,0,peel,1324,34,4,5,français,m,2,0.2,41.25713347,1.67607787
6131fce64995c75f73f6d46e,41,0,2024-02-27T12:46:54.785Z,english_431.wav,0,peel,1324,34,4,5,français,m,3,0.3,9.19018397,0.62213613
6131fce64995c75f73f6d46e,41,0,2024-02-27T12:46:54.785Z,english_431.wav,0,peel,1324,34,4,5,français,m,4,0.32341667,-61.77590044,0.50881411
6131fce64995c75f73f6d46e,42,0,2024-02-27T12:46:54.785Z,english_982.wav,0,pill,2342,34,4,5,français,m,0,0.0,12.44046596,0.81508625
6131fce64995c75f73f6d46e,42,0,2024-02-27T12:46:54.785Z,english_982.wav,0,pill,2342,34,4,5,français,m,1,0.1,-60.41666302,0.92712357
6131fce64995c75f73f6d46e,42,0,2024-02-27T12:46:54.785Z,english_982.wav,0,pill,2342,34,4,5,français,m,2,0.2,-35.31499742,0.77678916
6131fce64995c75f73f6d46e,42,0,2024-02-27T12:46:54.785Z,english_982.wav,0,pill,2342,34,4,5,français,m,3,0.3,-10.96739076,1.0294352
6131fce64995c75f73f6d46e,42,0,2024-02-27T12:46:54.785Z,english_982.wav,0,pill,2342,34,4,5,français,m,4,0.32341667,44.50624474,1.1322674
6131fce64995c75f73f6d46e,43,0,2024-02-27T12:46:54.785Z,english_271.wav,0,pill,672,34,4,5,français,m,0,0.0,24.41564841,0.25667552
6131fce64995c75f73f6d46e,43,0,2024-02-27T12:46:54.785Z,english_271.wav,0,pill,672,34,4,5,français,m,1,0.1,-64.42577909,1.20221217
6131fce64995c75f73f6d46e,43,0,2024-02-27T12:46:54.785Z,english_271.wav,0,pill,672,34,4,5,français,m,2,0.2,32.27025317,0.24658485
6131fce64995c75f73f6d46e,43,0,2024-02-27T12:46:54.785Z,english_271.wav,0,pill,672,34,4,5,français,m,3,0.3,58.71212772,1.57844265
6131fce64995c75f73f6d46e,43,0,2024-02-27T12:46:54.785Z,english_271.wav,0,pill,672,34,4,5,français,m,4,0.32341667,46.7300547,1.00400066
6131fce64995c75f73f6d46e,44,0,2024-02-27T12:46:54.785Z,english_730.wav,0,pill,1223,34,4,5,français,m,0,0.0,12.15035978,0.91227818
6131fce64995c75f73f6d46e,44,0,2024-02-27T12:46:54.785Z,english_730.wav,0,pill,1223,34,4,5,français,m,1,0.1,-56.22765555,1.17022701
6131fce64995c75f73f6d46e,44,0,2024-02-27T12:46:54.785Z,english_730.wav,0,pill,1223,34,4,5,français,m,2,0.2,-53.26534685,0.58034143
6131fce64995c75f73f6d46e,44,0,2024-02-27T12:46:54.785Z,english_730.wav,0,pill,1223,34,4,5,français,m,3,0.3,-25.75230742,1.9562998
6131fce64995c75f73f6d46e,44,0,2024-02-27T12:46:54.785Z,english_730.wav,0,pill,1223,34,4,5,français,m,4,0.32341667,-73.04726616,1.99538846
6131fce64995c75f73f6d46e,45,0,2024-02-27T12:46:54.785Z,english_118.wav,0,pill,1423,34,4,5,français,m,0,0.0,-46.26080879,0.77156844
6131fce64995c75f73f6d46e,45,0,2024-02-27T12:46:54.785Z,english_118.wav,0,pill,1423,34,4,5,français,m,1,0.1,-14.63576669,0.55135676
6131fce64995c75f73f6d46e,45,0,2024-02-27T12:46:54.785Z,english_118.wav,0,pill,1423,34,4,5,français,m,2,0.2,85.04541628,0.92804695
6131fce64995c75f73f6d46e,45,0,2024-02-27T12:46:54.785Z,english_118.wav,0,pill,1423,34,4,5,français,m,3,0.3,-49.31762638,1.40435072
6131fce64995c75f73f6d46e,45,0,2024-02-27T12:46:54.785Z,english_118.wav,0,pill,1423,34,4,5,français,m,4,0.32341667,16.64479416,1.67291824
6131fce64995c75f73f6d46e,46,0,2024-02-27T12:46:54.785Z,english_569.wav,0,peel,2502,34,4,5,français,m,0,0.0,-44.4695194,1.56768834
6131fce64995c75f73f6d46e,46,0,2024-02-27T12:46:54.785Z,english_569.wav,0,peel,2502,34,4,5,français,m,1,0.1,50.36705327,0.42032873
6131fce64995c75f73f6d46e,46,0,2024-02-27T12:46:54.785Z,english_569.wav,0,peel,2502,34,4,5,français,m,2,0.2,-76.17438636,0.31133764
6131fce64995c75f73f6d46e,46,0,2024-02-27T12:46:54.785Z,english_569.wav,0,peel,2502,34,4,5,français,m,3,0.3,55.47083669,0.91900801
6131fce64995c75f73f6d46e,46,0,2024-02-27T12:46:54.785Z,english_569.wav,0,peel,2502,34,4,5,français,m,4,0.32341667,-10.68913609,1.26529561
6131fce64995c75f73f6d46e,47,0,2024-02-27T12:46:54.785Z,english_721.wav,0,pill,607,34,4,5,français,m,0,0.0,-1.67193172,0.23966059
6131fce64995c75f73f6d46e,47,0,2024-02-27T12:46:54.785Z,english_721.wav,0,pill,607,34,4,5,français,m,1,0.1,23.81304459,1.61361986
6131fce64995c75f73f6d46e,47,0,2024-02-27T12:46:54.785Z,english_721.wav,0,pill,607,34,4,5,français,m,2,0.2,94.27532923,0.58045828
6131fce64995c75f73f6d46e,47,0,2024-02-27T12:46:54.785Z,english_721.wav,0,pill,607,34,4,5,français,m,3,0.3,10.08520391,1.63757532
6131fce64995c75f73f6d46e,47,0,2024-02-27T12:46:54.785Z,english_721.wav,0,pill,607,34,4,5,français,m,4,0.32341667,-26.68837018,1.4581473
6131fce64995c75f73f6d46e,48,0,2024-02-27T12:46:54.785Z,english_479.wav,0,peel,1430,34,4,5,français,m,0,0.0,74.98268857,0.98081986
6131fce64995c75f73f6d46e,48,0,2024-02-27T12:46:54.785Z,english_479.wav,0,peel,1430,34,4,5,français,m,1,0.1,16.03290679,0.71187618
6131fce64995c75f73f6d46e,48,0,2024-02-27T12:46:54.785Z,english_479.wav,0,peel,1430,34,4,5,français,m,2,0.2,78.97784812,0.27050369
6131fce64995c75f73f6d46e,48,0,2024-02-27T12:46:54.785Z,english_479.wav,0,peel,1430,34,4,5,français,m,3,0.3,-15.63843586,1.15797271
6131fce64995c75f73f6d46e,48,0,2024-02-27T12:46:54.785Z,english_479.wav,0,peel,1430,34,4,5,français,m,4,0.32341667,42.04802753,1.51318639
6131fce64995c75f73f6d46e,49,0,2024-02-27T12:46:54.785Z,english_627.wav,0,pill,2718,34,4,5,français,m,0,0.0,-53.99355102,0.04887222
6131fce64995c75f73f6d46e,49,0,2024-02-27T12:46:54.785Z,english_627.wav,0,pill,2718,34,4,5,français,m,1,0.1,-3.03417463,0.14119608
6131fce64995c75f73f6d46e,49,0,2024-02-27T12:46:54.785Z,english_627.wav,0,pill,2718,34,4,5,français,m,2,0.2,83.9257281,0.97350107
6131fce64995c75f73f6d46e,49,0,2024-02-27T12:46:54.785Z,english_627.wav,0,pill,2718,34,4,5,français,m,3,0.3,52.52073868,0.6697358
6131fce64995c75f73f6d46e,49,0,2024-02-27T12:46:54.785Z,english_627.wav,0,pill,2718,34,4,5,français,m,4,0.32341667,-13.85481025,0.92660526
6131fce64995c75f73f6d46e,50,1,2024-02-27T12:46:54.785Z,english_378.wav,0,peel,936,34,4,5,français,m,0,0.0,13.37832971,0.65677047
6131fce64995c75f73f6d46e,50,1,2024-02-27T12:46:54.785Z,english_378.wav,0,peel,936,34,4,5,français,m,1,0.1,17.37931074,1.74134092
6131fce64995c75f73f6d46e,50,1,2024-02-27T12:46:54.785Z,english_378.wav,0,peel,936,34,4,5,français,m,2,0.2,10.9554113,0.67897054
6131fce64995c75f73f6d46e,50,1,2024-02-27T12:46:54.785Z,english_378.wav,0,peel,936,34,4,5,français,m,3,0.3,-24.86891171,1.20159635
6131fce64995c75f73f6d46e,50,1,2024-02-27T12:46:54.785Z,english_378.wav,0,peel,936,34,4,5,français,m,4,0.32341667,7.89965194,0.27053006
6131fce64995c75f73f6d46e,51,1,2024-02-27T12:46:54.785Z,english_138.wav,0,pill,496,34,4,5,français,m,0,0.0,-79.80620147,0.37063564
6131fce64995c75f73f6d46e,51,1,2024-02-27T12:46:54.785Z,english_138.wav,0,pill,496,34,4,5,français,m,1,0.1,-15.42889109,0.81801141
6131fce64995c75f73f6d46e,51,1,2024-02-27T12:46:54.785Z,english_138.wav,0,pill,496,34,4,5,français,m,2,0.2,-88.31677226,0.0634538
6131fce64995c75f73f6d46e,51,1,2024-02-27T12:46:54.785Z,english_138.wav,0,pill,496,34,4,5,français,m,3,0.3,26.6486106,1.85131452
6131fce64995c75f73f6d46e,51,1,2024-02-27T12:46:54.785Z,english_138.wav,0,pill,496,34,4,5,français,m,4,0.32341667,-42.18894711,1.66059024
6131fce64995c75f73f6d46e,52,1,2024-02-27T12:46:54.785Z,english_117.wav,0,peel,1699,34,4,5,français,m,0,0.0,-98.72491255,1.42659946
6131fce64995c75f73f6d46e,52,1,2024-02-27T12:46:54.785Z,english_117.wav,0,peel,1699,34,4,5,français,m,1,0.1,-15.15642563,1.64599539
6131fce64995c75f73f6d46e,52,1,2024-02-27T12:46:54.785Z,english_117.wav,0,peel,1699,34,4,5,français,m,2,0.2,24.45806353,0.97767705
6131fce64995c75f73f6d46e,52,1,2024-02-27T12:46:54.785Z,english_117.wav,0,peel,1699,34,4,5,français,m,3,0.3,-80.67224668,0.37962884
6131fce64995c75f73f6d46e,52,1,2024-02-27T12:46:54.785Z,english_117.wav,0,peel,1699,34,4,5,français,m,4,0.32341667,-97.50349755,0.74274723
6131fce64995c75f73f6d46e,53,1,2024-02-27T12:46:54.785Z,english_284.wav,0,pill,1170,34,4,5,français,m,0,0.0,-77.15161711,0.74585549
6131fce64995c75f73f6d46e,53,1,2024-02-27T12:46:54.785Z,english_284.wav,0,pill,1170,34,4,5,français,m,1,0.1,80.53955212,0.017077
6131fce64995c75f73f6d46e,53,1,2024-02-27T12:46:54.785Z,english_284.wav,0,pill,1170,34,4,5,français,m,2,0.2,-73.74967403,0.284322
6131fce64995c75f73f6d46e,53,1,2024-02-27T12:46:54.785Z,english_284.wav,0,pill,1170,34,4,5,français,m,3,0.3,-47.67008962,1.04459593
6131fce64995c75f73f6d46e,53,1,2024-02-27T12:46:54.785Z,english_284.wav,0,pill,1170,34,4,5,français,m,4,0.32341667,40.40758666,0.8536958
6131fce64995c75f73f6d46e,54,1,2024-02-27T12:46:54.785Z,english_760.wav,0,peel,1781,34,4,5,français,m,0,0.0,24.3902693,0.67210823
6131fce64995c75f73f6d46e,54,1,2024-02-27T12:46:54.785Z,english_760.wav,0,peel,1781,34,4,5,français,m,1,0.1,-0.0247174936,1.89588113
6131fce64995c75f73f6d46e,54,1,2024-02-27T12:46:54.785Z,english_760.wav,0,peel,1781,34,4,5,français,m,2,0.2,82.8662613,0.23432987
6131fce64995c75f73f6d46e,54,1,2024-02-27T12:46:54.785Z,english_760.wav,0,peel,1781,34,4,5,français,m,3,0.3,-7.97314524,1.20797246
6131fce64995c75f73f6d46e,54,1,2024-02-27T12:46:54.785Z,english_760.wav,0,peel,1781,34,4,5,français,m,4,0.323416667,-6.32438983,1.72866971
6131fce64995c75f73f6d46e,55,1,2024-02-27T12:46:54.785Z,english_403.wav,0,pill,909,34,4,5,français,m,0,0.0,-92.65414009,1.93574734
6131fce64995c75f73f6d46e,55,1,2024-02-27T12:46:54.785Z,english_403.wav,0,pill,909,34,4,5,français,m,1,0.1,75.99659731,0.36447309
6131fce64995c75f73f6d46e,55,1,2024-02-27T12:46:54.785Z,english_403.wav,0,pill,909,34,4,5,français,m,2,0.2,-27.37801557,1.02888701
6131fce64995c75f73f6d46e,55,1,2024-02-27T12:46:54.785Z,english_403.wav,0,pill,909,34,4,5,français,m,3,0.3,-80.04540334,0.02385722
6131fce64995c75f73f6d46e,55,1,2024-02-27T12:46:54.785Z,english_403.wav,0,pill,909,34,4,5,français,m,4,0.32341667,30.50648557,1.40553938
6131fce64995c75f73f6d46e,56,1,2024-02-27T12:46:54.785Z,english_638.wav,0,pill,933,34,4,5,français,m,0,0.0,6.92468799,1.1702122
6131fce64995c75f73f6d46e,56,1,2024-02-27T12:46:54.785Z,english_638.wav,0,pill,933,34,4,5,français,m,1,0.1,52.10042521,0.51269982
6131fce64995c75f73f6d46e,56,1,2024-02-27T12:46:54.785Z,english_638.wav,0,pill,933,34,4,5,français,m,2,0.2,-39.07293948,0.1912204
6131fce64995c75f73f6d46e,56,1,2024-02-27T12:46:54.785Z,english_638.wav,0,pill,933,34,4,5,français,m,3,0.3,38.46029754,0.91406415
6131fce64995c75f73f6d46e,56,1,2024-02-27T12:46:54.785Z,english_638.wav,0,pill,933,34,4,5,français,m,4,0.32341667,-16.6630855,1.67689755
6131fce64995c75f73f6d46e,57,1,2024-02-27T12:46:54.785Z,english_810.wav,0,pill,890,34,4,5,français,m,0,0.0,44.6757801,0.77700382
6131fce64995c75f73f6d46e,57,1,2024-02-27T12:46:54.785Z,english_810.wav,0,pill,890,34,4,5,français,m,1,0.1,-98.4252216,1.25917073
6131fce64995c75f73f6d46e,57,1,2024-02-27T12:46:54.785Z,english_810.wav,0,pill,890,34,4,5,français,m,2,0.2,55.4106213,0.78203472
6131fce64995c75f73f6d46e,57,1,2024-02-27T12:46:54.785Z,english_810.wav,0,pill,890,34,4,5,français,m,3,0.3,-18.4676839,1.13021068
6131fce64995c75f73f6d46e,57,1,2024-02-27T12:46:54.785Z,english_810.wav,0,pill,890,34,4,5,français,m,4,0.323416667,0.0259169543,0.14578676
6131fce64995c75f73f6d46e,58,1,2024-02-27T12:46:54.785Z,english_298.wav,0,peel,1613,34,4,5,français,m,0,0.0,-71.75530507,0.91890611
6131fce64995c75f73f6d46e,58,1,2024-02-27T12:46:54.785Z,english_298.wav,0,peel,1613,34,4,5,français,m,1,0.1,76.25876358,0.7322353
6131fce64995c75f73f6d46e,58,1,2024-02-27T12:46:54.785Z,english_298.wav,0,peel,1613,34,4,5,français,m,2,0.2,11.95102224,0.50601445
6131fce64995c75f73f6d46e,58,1,2024-02-27T12:46:54.785Z,english_298.wav,0,peel,1613,34,4,5,français,m,3,0.3,79.91037795,0.41160049
6131fce64995c75f73f6d46e,58,1,2024-02-27T12:46:54.785Z,english_298.wav,0,peel,1613,34,4,5,français,m,4,0.32341667,30.12462174,0.81223035
6131fce64995c75f73f6d46e,59,1,2024-02-27T12:46:54.785Z,english_967.wav,0,pill,840,34,4,5,français,m,0,0.0,-33.19777689,0.76720641
6131fce64995c75f73f6d46e,59,1,2024-02-27T12:46:54.785Z,english_967.wav,0,pill,840,34,4,5,français,m,1,0.1,83.84847924,1.4094361
6131fce64995c75f73f6d46e,59,1,2024-02-27T12:46:54.785Z,english_967.wav,0,pill,840,34,4,5,français,m,2,0.2,81.27362124,0.74435637
6131fce64995c75f73f6d46e,59,1,2024-02-27T12:46:54.785Z,english_967.wav,0,pill,840,34,4,5,français,m,3,0.3,22.78466805,0.29904584
6131fce64995c75f73f6d46e,59,1,2024-02-27T12:46:54.785Z,english_967.wav,0,pill,840,34,4,5,français,m,4,0.32341667,16.56894366,0.47687807
6131fce64995c75f73f6d46e,60,1,2024-02-27T12:46:54.785Z,english_473.wav,0,pill,2324,34,4,5,français,m,0,0.0,2.94536382,1.14273616
6131fce64995c75f73f6d46e,60,1,2024-02-27T12:46:54.785Z,english_473.wav,0,pill,2324,34,4,5,français,m,1,0.1,67.15962,0.71228689
6131fce64995c75f73f6d46e,60,1,2024-02-27T12:46:54.785Z,english_473.wav,0,pill,2324,34,4,5,français,m,2,0.2,-20.48190634,1.20280034
6131fce64995c75f73f6d46e,60,1,2024-02-27T12:46:54.785Z,english_473.wav,0,pill,2324,34,4,5,français,m,3,0.3,20.58811131,0.94325649
6131fce64995c75f73f6d46e,60,1,2024-02-27T12:46:54.785Z,english_473.wav,0,pill,2324,34,4,5,français,m,4,0.32341667,-71.10919795,1.82149668
6131fce64995c75f73f6d46e,61,1,2024-02-27T12:46:54.785Z,english_42.wav,0,pill,1998,34,4,5,français,m,0,0.0,-15.36487641,1.81244548
6131fce64995c75f73f6d46e,61,1,2024-02-27T12:46:54.785Z,english_42.wav,0,pill,1998,34,4,5,français,m,1,0.1,11.43696078,1.472484
6131fce64995c75f73f6d46e,61,1,2024-02-27T12:46:54.785Z,english_42.wav,0,pill,1998,34,4,5,français,m,2,0.2,34.58464447,0.21504119
6131fce64995c75f73f6d46e,61,1,2024-02-27T12:46:54.785Z,english_42.wav,0,pill,1998,34,4,5,français,m,3,0.3,68.67640378,0.80253652
6131fce64995c75f73f6d46e,61,1,2024-02-27T12:46:54.785Z,english_42.wav,0,pill,1998,34,4,5,français,m,4,0.32341667,-67.59461511,1.53231421
6131fce64995c75f73f6d46e,62,1,2024-02-27T12:46:54.785Z,english_688.wav,0,peel,511,34,4,5,français,m,0,0.0,-45.64286614,1.06356906
6131fce64995c75f73f6d46e,62,1,2024-02-27T12:46:54.785Z,english_688.wav,0,peel,511,34,4,5,français,m,1,0.1,39.73956276,0.85197809
6131fce64995c75f73f6d46e,62,1,2024-02-27T12:46:54.785Z,english_688.wav,0,peel,511,34,4,5,français,m,2,0.2,40.53719602,0.68718846
6131fce64995c75f73f6d46e,62,1,2024-02-27T12:46:54.785Z,english_688.wav,0,peel,511,34,4,5,français,m,3,0.3,-71.29470492,1.67995478
6131fce64995c75f73f6d46e,62,1,2024-02-27T12:46:54.785Z,english_688.wav,0,peel,511,34,4,5,français,m,4,0.32341667,73.7490074,1.45979079
6131fce64995c75f73f6d46e,63,1,2024-02-27T12:46:54.785Z,english_22.wav,0,peel,839,34,4,5,français,m,0,0.0,78.11206964,1.48448967
6131fce64995c75f73f6d46e,63,1,2024-02-27T12:46:54.785Z,english_22.wav,0,peel,839,34,4,5,français,m,1,0.1,30.08823316,0.28770474
6131fce64995c75f73f6d46e,63,1,2024-02-27T12:46:54.785Z,english_22.wav,0,peel,839,34,4,5,français,m,2,0.2,62.70691674,1.03274311
6131fce64995c75f73f6d46e,63,1,2024-02-27T12:46:54.785Z,english_22.wav,0,peel,839,34,4,5,français,m,3,0.3,-69.9857022,0.45071415
6131fce64995c75f73f6d46e,63,1,2024-02-27T12:46:54.785Z,english_22.wav,0,peel,839,34,4,5,français,m,4,0.32341667,-1.96178027,0.30900593
6131fce64995c75f73f6d46e,64,1,2024-02-27T12:46:54.785Z,english_835.wav,0,peel,967,34,4,5,français,m,0,0.0,-14.38506183,1.1584592
6131fce64995c75f73f6d46e,64,1,2024-02-27T12:46:54.785Z,english_835.wav,0,peel,967,34,4,5,français,m,1,0.1,-85.63264453,0.74788643
6131fce64995c75f73f6d46e,64,1,2024-02-27T12:46:54.785Z,english_835.wav,0,peel,967,34,4,5,français,m,2,0.2,-9.08737486,0.99645811
6131fce64995c75f73f6d46e,64,1,2024-02-27T12:46:54.785Z,english_835.wav,0,peel,967,34,4,5,français,m,3,0.3,-52.4382226,1.13057998
6131fce64995c75f73f6d46e,64,1,2024-02-27T12:46:54.785Z,english_835.wav,0,peel,967,34,4,5,français,m,4,0.32341667,30.89255677,0.17868889
6131fce64995c75f73f6d46e,65,1,2024-02-27T12:46:54.785Z,english_628.wav,0,pill,657,34,4,5,français,m,0,0.0,-19.71295886,0.8960583
6131fce64995c75f73f6d46e,65,1,2024-02-27T12:46:54.785Z,english_628.wav,0,pill,657,34,4,5,français,m,1,0.1,-79.294697,1.61949508
6131fce64995c75f73f6d46e,65,1,2024-02-27T12:46:54.785Z,english_628.wav,0,pill,657,34,4,5,français,m,2,0.2,-59.93256946,0.65483299
6131fce64995c75f73f6d46e,65,1,2024-02-27T12:46:54.785Z,english_628.wav,0,pill,657,34,4,5,français,m,3,0.3,-18.46863719,0.12001531
6131fce64995c75f73f6d46e,65,1,2024-02-27T12:46:54.785Z,english_628.wav,0,pill,657,34,4,5,français,m,4,0.32341667,53.30350975,0.85308449
6131fce64995c75f73f6d46e,66,1,2024-02-27T12:46:54.785Z,english_917.wav,0,peel,1004,34,4,5,français,m,0,0.0,-2.28432431,0.51220006
6131fce64995c75f73f6d46e,66,1,2024-02-27T12:46:54.785Z,english_917.wav,0,peel,1004,34,4,5,français,m,1,0.1,-50.4941454,0.3783057
6131fce64995c75f73f6d46e,66,1,2024-02-27T12:46:54.785Z,english_917.wav,0,peel,1004,34,4,5,français,m,2,0.2,86.41176613,0.52629226
6131fce64995c75f73f6d46e,66,1,2024-02-27T12:46:54.785Z,english_917.wav,0,peel,1004,34,4,5,français,m,3,0.3,-50.97734163,0.68389314
6131fce64995c75f73f6d46e,66,1,2024-02-27T12:46:54.785Z,english_917.wav,0,peel,1004,34,4,5,français,m,4,0.32341667,97.13453513,1.73708117
6131fce64995c75f73f6d46e,67,1,2024-02-27T12:46:54.785Z,english_974.wav,0,peel,1620,34,4,5,français,m,0,0.0,29.63575745,0.7371821
6131fce64995c75f73f6d46e,67,1,2024-02-27T12:46:54.785Z,english_974.wav,0,peel,1620,34,4,5,français,m,1,0.1,-49.63946334,1.15838362
6131fce64995c75f73f6d46e,67,1,2024-02-27T12:46:54.785Z,english_974.wav,0,peel,1620,34,4,5,français,m,2,0.2,87.75163431,1.66312363
6131fce64995c75f73f6d46e,67,1,2024-02-27T12:46:54.785Z,english_974.wav,0,peel,1620,34,4,5,français,m,3,0.3,-62.39844007,0.85783748
6131fce64995c75f73f6d46e,67,1,2024-02-27T12:46:54.785Z,english_974.wav,0,peel,1620,34,4,5,français,m,4,0.32341667,-98.5513891,1.53033297
6131fce64995c75f73f6d46e,68,1,2024-02-27T12:46:54.785Z,english_355.wav,0,pill,1034,34,4,5,français,m,0,0.0,33.6784286,1.28512049
6131fce64995c75f73f6d46e,68,1,2024-02-27T12:46:54.785Z,english_355.wav,0,pill,1034,34,4,5,français,m,1,0.1,30.74796889,1.04729355
6131fce64995c75f73f6d46e,68,1,2024-02-27T12:46:54.785Z,english_355.wav,0,pill,1034,34,4,5,français,m,2,0.2,71.39310534,0.74339822
6131fce64995c75f73f6d46e,68,1,2024-02-27T12:46:54.785Z,english_355.wav,0,pill,1034,34,4,5,français,m,3,0.3,38.16266559,0.86152361
6131fce64995c75f73f6d46e,68,1,2024-02-27T12:46:54.785Z,english_355.wav,0,pill,1034,34,4,5,français,m,4,0.32341667,-39.8799084,1.83215587
6131fce64995c75f73f6d46e,69,1,2024-02-27T12:46:54.785Z,english_115.wav,0,pill,930,34,4,5,français,m,0,0.0,-6.4126324,0.37361158
6131fce64995c75f73f6d46e,69,1,2024-02-27T12:46:54.785Z,english_115.wav,0,pill,930,34,4,5,français,m,1,0.1,-78.70213007,1.5865766
6131fce64995c75f73f6d46e,69,1,2024-02-27T12:46:54.785Z,english_115.wav,0,pill,930,34,4,5,français,m,2,0.2,-0.36204046,1.00360432
6131fce64995c75f73f6d46e,69,1,2024-02-27T12:46:54.785Z,english_115.wav,0,pill,930,34,4,5,français,m,3,0.3,-47.97210547,1.3933449
6131fce64995c75f73f6d46e,69,1,2024-02-27T12:46:54.785Z,english_115.wav,0,pill,930,34,4,5,français,m,4,0.32341667,3.06964689,1.1205092
6131fce64995c75f73f6d46e,70,1,2024-02-27T12:46:54.785Z,english_852.wav,0,pill,630,34,4,5,français,m,0,0.0,-59.21906832,1.76087743
6131fce64995c75f73f6d46e,70,1,2024-02-27T12:46:54.785Z,english_852.wav,0,pill,630,34,4,5,français,m,1,0.1,5.96662808,0.85304022
6131fce64995c75f73f6d46e,70,1,2024-02-27T12:46:54.785Z,english_852.wav,0,pill,630,34,4,5,français,m,2,0.2,12.29830648,0.5029047
6131fce64995c75f73f6d46e,70,1,2024-02-27T12:46:54.785Z,english_852.wav,0,pill,630,34,4,5,français,m,3,0.3,-98.20735767,0.66544939
6131fce64995c75f73f6d46e,70,1,2024-02-27T12:46:54.785Z,english_852.wav,0,pill,630,34,4,5,français,m,4,0.32341667,-0.5186354,0.26669214
6131fce64995c75f73f6d46e,71,1,2024-02-27T12:46:54.785Z,english_43.wav,0,peel,1029,34,4,5,français,m,0,0.0,22.40064366,1.74132857
6131fce64995c75f73f6d46e,71,1,2024-02-27T12:46:54.785Z,english_43.wav,0,peel,1029,34,4,5,français,m,1,0.1,-68.20152198,0.12763156
6131fce64995c75f73f6d46e,71,1,2024-02-27T12:46:54.785Z,english_43.wav,0,peel,1029,34,4,5,français,m,2,0.2,62.56231291,0.31420738
6131fce64995c75f73f6d46e,71,1,2024-02-27T12:46:54.785Z,english_43.wav,0,peel,1029,34,4,5,français,m,3,0.3,45.0736378,0.98572154
6131fce64995c75f73f6d46e,71,1,2024-02-27T12:46:54.785Z,english_43.wav,0,peel,1029,34,4,5,français,m,4,0.32341667,-36.46791656,0.91325677
6131fce64995c75f73f6d46e,72,1,2024-02-27T12:46:54.785Z,english_611.wav,0,peel,1128,34,4,5,français,m,0,0.0,4.04989913,1.48647041
6131fce64995c75f73f6d46e,72,1,2024-02-27T12:46:54.785Z,english_611.wav,0,peel,1128,34,4,5,français,m,1,0.1,-26.35519993,0.87297853
6131fce64995c75f73f6d46e,72,1,2024-02-27T12:46:54.785Z,english_611.wav,0,peel,1128,34,4,5,français,m,2,0.2,-41.22744209,0.91907267
6131fce64995c75f73f6d46e,72,1,2024-02-27T12:46:54.785Z,english_611.wav,0,peel,1128,34,4,5,français,m,3,0.3,-72.41198747,0.12624761
6131fce64995c75f73f6d46e,72,1,2024-02-27T12:46:54.785Z,english_611.wav,0,peel,1128,34,4,5,français,m,4,0.32341667,-60.09703168,0.964981
6131fce64995c75f73f6d46e,73,1,2024-02-27T12:46:54.785Z,english_326.wav,0,pill,557,34,4,5,français,m,0,0.0,-13.70476372,1.64570887
6131fce64995c75f73f6d46e,73,1,2024-02-27T12:46:54.785Z,english_326.wav,0,pill,557,34,4,5,français,m,1,0.1,47.7156259,0.91266102
6131fce64995c75f73f6d46e,73,1,2024-02-27T12:46:54.785Z,english_326.wav,0,pill,557,34,4,5,français,m,2,0.2,23.24839736,0.36997562
6131fce64995c75f73f6d46e,73,1,2024-02-27T12:46:54.785Z,english_326.wav,0,pill,557,34,4,5,français,m,3,0.3,67.08212267,1.96258237
6131fce64995c75f73f6d46e,73,1,2024-02-27T12:46:54.785Z,english_326.wav,0,pill,557,34,4,5,français,m,4,0.32341667,78.79356023,1.01334204
6131fce64995c75f73f6d46e,74,1,2024-02-27T12:46:54.785Z,english_797.wav,0,peel,1655,34,4,5,français,m,0,0.0,-10.77604935,1.75152448
6131fce64995c75f73f6d46e,74,1,2024-02-27T12:46:54.785Z,english_797.wav,0,peel,1655,34,4,5,français,m,1,0.1,76.52998448,0.25625033
6131fce64995c75f73f6d46e,74,1,2024-02-27T12:46:54.785Z,english_797.wav,0,peel,1655,34,4,5,français,m,2,0.2,-52.30950648,1.63910521
6131fce64995c75f73f6d46e,74,1,2024-02-27T12:46:54.785Z,english_797.wav,0,peel,1655,34,4,5,français,m,3,0.3,-19.27189704,1.44412191
6131fce64995c75f73f6d46e,74,1,2024-02-27T12:46:54.785Z,english_797.wav,0,peel,1655,34,4,5,français,m,4,0.32341667,-68.52312916,1.41513857
6131fce64995c75f73f6d46e,75,1,2024-02-27T12:46:54.785Z,english_9.wav,0,peel,1000,34,4,5,français,m,0,0.0,24.77706225,1.13145128
6131fce64995c75f73f6d46e,75,1,2024-02-27T12:46:54.785Z,english_9.wav,0,peel,1000,34,4,5,français,m,1,0.1,91.05524194,1.19326311
6131fce64995c75f73f6d46e,75,1,2024-02-27T12:46:54.785Z,english_9.wav,0,peel,1000,34,4,5,français,m,2,0.2,30.20964975,1.50029029
6131fce64995c75f73f6d46e,75,1,2024-02-27T12:46:54.785Z,english_9.wav,0,peel,1000,34,4,5,français,m,3,0.3,-69.66301283,1.4622179
6131fce64995c75f73f6d46e,75,1,2024-02-27T12:46:54.785Z,english_9.wav,0,peel,1000,34,4,5,français,m,4,0.32341667,-3.83240646,1.9316504
6131fce64995c75f73f6d46e,76,1,2024-02-27T12:46:54.785Z,english_1.wav,0,pill,427,34,4,5,français,m,0,0.0,53.99031816,1.91732561
6131fce64995c75f73f6d46e,76,1,2024-02-27T12:46:54.785Z,english_1.wav,0,pill,427,34,4,5,français,m,1,0.1,-58.32145174,0.75352701
6131fce64995c75f73f6d46e,76,1,2024-02-27T12:46:54.785Z,english_1.wav,0,pill,427,34,4,5,français,m,2,0.2,-86.75659624,1.40297919
6131fce64995c75f73f6d46e,76,1,2024-02-27T12:46:54.785Z,english_1.wav,0,pill,427,34,4,5,français,m,3,0.3,-31.84945767,0.12157709
6131fce64995c75f73f6d46e,76,1,2024-02-27T12:46:54.785Z,english_1.wav,0,pill,427,34,4,5,français,m,4,0.32341667,-59.21997754,1.57687546
6131fce64995c75f73f6d46e,77,1,2024-02-27T12:46:54.785Z,english_94.wav,0,peel,683,34,4,5,français,m,0,0.0,-78.50776969,1.58967719
6131fce64995c75f73f6d46e,77,1,2024-02-27T12:46:54.785Z,english_94.wav,0,peel,683,34,4,5,français,m,1,0.1,21.81048112,0.88841047
6131fce64995c75f73f6d46e,77,1,2024-02-27T12:46:54.785Z,english_94.wav,0,peel,683,34,4,5,français,m,2,0.2,76.78230264,1.12549424
6131fce64995c75f73f6d46e,77,1,2024-02-27T12:46:54.785Z,english_94.wav,0,peel,683,34,4,5,français,m,3,0.3,-35.62145712,1.80621507
6131fce64995c75f73f6d46e,77,1,2024-02-27T12:46:54.785Z,english_94.wav,0,peel,683,34,4,5,français,m,4,0.32341667,-71.39427505,1.00879957
6131fce64995c75f73f6d46e,78,1,2024-02-27T12:46:54.785Z,english_485.wav,0,peel,866,34,4,5,français,m,0,0.0,-7.08941798,1.8206563
6131fce64995c75f73f6d46e,78,1,2024-02-27T12:46:54.785Z,english_485.wav,0,peel,866,34,4,5,français,m,1,0.1,-70.64579204,0.10660577
6131fce64995c75f73f6d46e,78,1,2024-02-27T12:46:54.785Z,english_485.wav,0,peel,866,34,4,5,français,m,2,0.2,23.79115045,1.92760945
6131fce64995c75f73f6d46e,78,1,2024-02-27T12:46:54.785Z,english_485.wav,0,peel,866,34,4,5,français,m,3,0.3,0.80487994,0.77499174
6131fce64995c75f73f6d46e,78,1,2024-02-27T12:46:54.785Z,english_485.wav,0,peel,866,34,4,5,français,m,4,0.32341667,4.72097057,1.20070888
6131fce64995c75f73f6d46e,79,1,2024-02-27T12:46:54.785Z,english_235.wav,0,pill,1081,34,4,5,français,m,0,0.0,-1.09951899,1.56432712
6131fce64995c75f73f6d46e,79,1,2024-02-27T12:46:54.785Z,english_235.wav,0,pill,1081,34,4,5,français,m,1,0.1,-96.83918407,0.18127978
6131fce64995c75f73f6d46e,79,1,2024-02-27T12:46:54.785Z,english_235.wav,0,pill,1081,34,4,5,français,m,2,0.2,96.22116446,1.26168206
6131fce64995c75f73f6d46e,79,1,2024-02-27T12:46:54.785Z,english_235.wav,0,pill,1081,34,4,5,français,m,3,0.3,48.9502898,1.98140435
6131fce64995c75f73f6d46e,79,1,2024-02-27T12:46:54.785Z,english_235.wav,0,pill,1081,34,4,5,français,m,4,0.32341667,38.18641725,0.52366779
6131fce64995c75f73f6d46e,80,1,2024-02-27T12:46:54.785Z,english_990.wav,0,pill,835,34,4,5,français,m,0,0.0,-17.98511021,0.6190444
6131fce64995c75f73f6d46e,80,1,2024-02-27T12:46:54.785Z,english_990.wav,0,pill,835,34,4,5,français,m,1,0.1,-90.3005676,0.77548775
6131fce64995c75f73f6d46e,80,1,2024-02-27T12:46:54.785Z,english_990.wav,0,pill,835,34,4,5,français,m,2,0.2,4.37005684,0.55013224
6131fce64995c75f73f6d46e,80,1,2024-02-27T12:46:54.785Z,english_990.wav,0,pill,835,34,4,5,français,m,3,0.3,83.93705034,0.66784051
6131fce64995c75f73f6d46e,80,1,2024-02-27T12:46:54.785Z,english_990.wav,0,pill,835,34,4,5,français,m,4,0.32341667,-36.57803625,0.32384409
6131fce64995c75f73f6d46e,81,1,2024-02-27T12:46:54.785Z,english_777.wav,0,peel,1367,34,4,5,français,m,0,0.0,-69.33808121,1.41371967
6131fce64995c75f73f6d46e,81,1,2024-02-27T12:46:54.785Z,english_777.wav,0,peel,1367,34,4,5,français,m,1,0.1,83.00406244,0.89293833
6131fce64995c75f73f6d46e,81,1,2024-02-27T12:46:54.785Z,english_777.wav,0,peel,1367,34,4,5,français,m,2,0.2,52.8456083,0.52129979
6131fce64995c75f73f6d46e,81,1,2024-02-27T12:46:54.785Z,english_777.wav,0,peel,1367,34,4,5,français,m,3,0.3,-67.57367145,0.31704889
6131fce64995c75f73f6d46e,81,1,2024-02-27T12:46:54.785Z,english_777.wav,0,peel,1367,34,4,5,français,m,4,0.32341667,44.30015735,0.90388625
6131fce64995c75f73f6d46e,82,1,2024-02-27T12:46:54.785Z,english_192.wav,0,pill,1243,34,4,5,français,m,0,0.0,78.04280759,0.73118961
6131fce64995c75f73f6d46e,82,1,2024-02-27T12:46:54.785Z,english_192.wav,0,pill,1243,34,4,5,français,m,1,0.1,-85.52188616,0.7164391
6131fce64995c75f73f6d46e,82,1,2024-02-27T12:46:54.785Z,english_192.wav,0,pill,1243,34,4,5,français,m,2,0.2,-14.2601202,1.68273927
6131fce64995c75f73f6d46e,82,1,2024-02-27T12:46:54.785Z,english_192.wav,0,pill,1243,34,4,5,français,m,3,0.3,29.76504865,0.51501418
6131fce64995c75f73f6d46e,82,1,2024-02-27T12:46:54.785Z,english_192.wav,0,pill,1243,34,4,5,français,m,4,0.32341667,82.81048791,1.16986294
6131fce64995c75f73f6d46e,83,1,2024-02-27T12:46:54.785Z,english_743.wav,0,peel,1329,34,4,5,français,m,0,0.0,-28.24983145,1.42102626
6131fce64995c75f73f6d46e,83,1,2024-02-27T12:46:54.785Z,english_743.wav,0,peel,1329,34,4,5,français,m,1,0.1,71.30498545,0.84283155
6131fce64995c75f73f6d46e,83,1,2024-02-27T12:46:54.785Z,english_743.wav,0,peel,1329,34,4,5,français,m,2,0.2,-89.00652632,0.82757129
6131fce64995c75f73f6d46e,83,1,2024-02-27T12:46:54.785Z,english_743.wav,0,peel,1329,34,4,5,français,m,3,0.3,3.43441779,1.38808557
6131fce64995c75f73f6d46e,83,1,2024-02-27T12:46:54.785Z,english_743.wav,0,peel,1329,34,4,5,français,m,4,0.32341667,-16.71659348,0.28501565
6131fce64995c75f73f6d46e,84,1,2024-02-27T12:46:54.785Z,english_188.wav,0,peel,2144,34,4,5,français,m,0,0.0,-13.13088252,0.29227292
6131fce64995c75f73f6d46e,84,1,2024-02-27T12:46:54.785Z,english_188.wav,0,peel,2144,34,4,5,français,m,1,0.1,51.13663316,1.25360943
6131fce64995c75f73f6d46e,84,1,2024-02-27T12:46:54.785Z,english_188.wav,0,peel,2144,34,4,5,français,m,2,0.2,-80.18048506,1.7916357
6131fce64995c75f73f6d46e,84,1,2024-02-27T12:46:54.785Z,english_188.wav,0,peel,2144,34,4,5,français,m,3,0.3,-47.89773773,0.58346705
6131fce64995c75f73f6d46e,84,1,2024-02-27T12:46:54.785Z,english_188.wav,0,peel,2144,34,4,5,français,m,4,0.32341667,-7.0568118,1.77612328
6131fce64995c75f73f6d46e,85,1,2024-02-27T12:46:54.785Z,english_488.wav,0,pill,590,34,4,5,français,m,0,0.0,7.19120882,0.55609806
6131fce64995c75f73f6d46e,85,1,2024-02-27T12:46:54.785Z,english_488.wav,0,pill,590,34,4,5,français,m,1,0.1,11.64873536,1.36121935
6131fce64995c75f73f6d46e,85,1,2024-02-27T12:46:54.785Z,english_488.wav,0,pill,590,34,4,5,français,m,2,0.2,59.26032861,0.93872915
6131fce64995c75f73f6d46e,85,1,2024-02-27T12:46:54.785Z,english_488.wav,0,pill,590,34,4,5,français,m,3,0.3,-31.0631162,1.52041262
6131fce64995c75f73f6d46e,85,1,2024-02-27T12:46:54.785Z,english_488.wav,0,pill,590,34,4,5,français,m,4,0.32341667,23.8619583,1.83140972
6131fce64995c75f73f6d46e,86,1,2024-02-27T12:46:54.785Z,english_232.wav,0,peel,1250,34,4,5,français,m,0,0.0,15.13134779,0.53160298
6131fce64995c75f73f6d46e,86,1,2024-02-27T12:46:54.785Z,english_232.wav,0,peel,1250,34,4,5,français,m,1,0.1,-49.29605083,0.4519978
6131fce64995c75f73f6d46e,86,1,2024-02-27T12:46:54.785Z,english_232.wav,0,peel,1250,34,4,5,français,m,2,0.2,59.10606455,0.39260156
6131fce64995c75f73f6d46e,86,1,2024-02-27T12:46:54.785Z,english_232.wav,0,peel,1250,34,4,5,français,m,3,0.3,48.81708847,0.4692084
6131fce64995c75f73f6d46e,86,1,2024-02-27T12:46:54.785Z,english_232.wav,0,peel,1250,34,4,5,français,m,4,0.32341667,14.83590121,0.46233459
6131fce64995c75f73f6d46e,87,1,2024-02-27T12:46:54.785Z,english_384.wav,0,peel,944,34,4,5,français,m,0,0.0,-38.96228733,0.34616893
6131fce64995c75f73f6d46e,87,1,2024-02-27T12:46:54.785Z,english_384.wav,0,peel,944,34,4,5,français,m,1,0.1,2.386347,0.04115024
6131fce64995c75f73f6d46e,87,1,2024-02-27T12:46:54.785Z,english_384.wav,0,peel,944,34,4,5,français,m,2,0.2,48.26486793,0.35900131
6131fce64995c75f73f6d46e,87,1,2024-02-27T12:46:54.785Z,english_384.wav,0,peel,944,34,4,5,français,m,3,0.3,-48.11903655,1.58519606
6131fce64995c75f73f6d46e,87,1,2024-02-27T12:46:54.785Z,english_384.wav,0,peel,944,34,4,5,français,m,4,0.32341667,19.29531145,0.95531857
6131fce64995c75f73f6d46e,88,1,2024-02-27T12:46:54.785Z,english_574.wav,0,pill,591,34,4,5,français,m,0,0.0,53.128433,0.28349694
6131fce64995c75f73f6d46e,88,1,2024-02-27T12:46:54.785Z,english_574.wav,0,pill,591,34,4,5,français,m,1,0.1,70.24248151,0.66519348
6131fce64995c75f73f6d46e,88,1,2024-02-27T12:46:54.785Z,english_574.wav,0,pill,591,34,4,5,français,m,2,0.2,47.13290739,1.25768036
6131fce64995c75f73f6d46e,88,1,2024-02-27T12:46:54.785Z,english_574.wav,0,pill,591,34,4,5,français,m,3,0.3,52.31480293,1.43482954
6131fce64995c75f73f6d46e,88,1,2024-02-27T12:46:54.785Z,english_574.wav,0,pill,591,34,4,5,français,m,4,0.32341667,-33.06438127,1.23350688
6131fce64995c75f73f6d46e,89,1,2024-02-27T12:46:54.785Z,english_848.wav,0,peel,1391,34,4,5,français,m,0,0.0,43.30233352,0.12582596
6131fce64995c75f73f6d46e,89,1,2024-02-27T12:46:54.785Z,english_848.wav,0,peel,1391,34,4,5,français,m,1,0.1,-77.77691247,1.72621372
6131fce64995c75f73f6d46e,89,1,2024-02-27T12:46:54.785Z,english_848.wav,0,peel,1391,34,4,5,français,m,2,0.2,-68.99020863,1.753656
6131fce64995c75f73f6d46e,89,1,2024-02-27T12:46:54.785Z,english_848.wav,0,peel,1391,34,4,5,français,m,3,0.3,-43.68641023,1.37442753
6131fce64995c75f73f6d46e,89,1,2024-02-27T12:46:54.785Z,english_848.wav,0,peel,1391,34,4,5,français,m,4,0.32341667,-14.19502025,1.04930351
6131fce64995c75f73f6d46e,90,1,2024-02-27T12:46:54.785Z,english_174.wav,0,pill,1953,34,4,5,français,m,0,0.0,-14.93169449,0.27768215
6131fce64995c75f73f6d46e,90,1,2024-02-27T12:46:54.785Z,english_174.wav,0,pill,1953,34,4,5,français,m,1,0.1,-60.50222611,0.13809097
6131fce64995c75f73f6d46e,90,1,2024-02-27T12:46:54.785Z,english_174.wav,0,pill,1953,34,4,5,français,m,2,0.2,-88.67347191,0.18584848
6131fce64995c75f73f6d46e,90,1,2024-02-27T12:46:54.785Z,english_174.wav,0,pill,1953,34,4,5,français,m,3,0.3,-20.58504224,1.46718454
6131fce64995c75f73f6d46e,90,1,2024-02-27T12:46:54.785Z,english_174.wav,0,pill,1953,34,4,5,français,m,4,0.32341667,-52.28073567,0.17567705
6131fce64995c75f73f6d46e,91,1,2024-02-27T12:46:54.785Z,english_598.wav,0,peel,2745,34,4,5,français,m,0,0.0,4.26365523,0.04069017
6131fce64995c75f73f6d46e,91,1,2024-02-27T12:46:54.785Z,english_598.wav,0,peel,2745,34,4,5,français,m,1,0.1,-29.634957,1.27980102
6131fce64995c75f73f6d46e,91,1,2024-02-27T12:46:54.785Z,english_598.wav,0,peel,2745,34,4,5,français,m,2,0.2,-17.49120793,0.98781586
6131fce64995c75f73f6d46e,91,1,2024-02-27T12:46:54.785Z,english_598.wav,0,peel,2745,34,4,5,français,m,3,0.3,-34.93876912,1.55939702
6131fce64995c75f73f6d46e,91,1,2024-02-27T12:46:54.785Z,english_598.wav,0,peel,2745,34,4,5,français,m,4,0.32341667,49.49845506,1.74128412
6131fce64995c75f73f6d46e,92,1,2024-02-27T12:46:54.785Z,english_66.wav,0,pill,799,34,4,5,français,m,0,0.0,16.07147303,1.75051971
6131fce64995c75f73f6d46e,92,1,2024-02-27T12:46:54.785Z,english_66.wav,0,pill,799,34,4,5,français,m,1,0.1,50.76577123,0.02971233
6131fce64995c75f73f6d46e,92,1,2024-02-27T12:46:54.785Z,english_66.wav,0,pill,799,34,4,5,français,m,2,0.2,-29.1595681,0.63583886
6131fce64995c75f73f6d46e,92,1,2024-02-27T12:46:54.785Z,english_66.wav,0,pill,799,34,4,5,français,m,3,0.3,-80.89120138,1.46734397
6131fce64995c75f73f6d46e,92,1,2024-02-27T12:46:54.785Z,english_66.wav,0,pill,799,34,4,5,français,m,4,0.32341667,-8.46229461,1.61280944
6131fce64995c75f73f6d46e,93,1,2024-02-27T12:46:54.785Z,english_380.wav,0,pill,968,34,4,5,français,m,0,0.0,-44.61260121,1.04167661
6131fce64995c75f73f6d46e,93,1,2024-02-27T12:46:54.785Z,english_380.wav,0,pill,968,34,4,5,français,m,1,0.1,-47.89967478,0.43386817
6131fce64995c75f73f6d46e,93,1,2024-02-27T12:46:54.785Z,english_380.wav,0,pill,968,34,4,5,français,m,2,0.2,34.91352544,0.93219588
6131fce64995c75f73f6d46e,93,1,2024-02-27T12:46:54.785Z,english_380.wav,0,pill,968,34,4,5,français,m,3,0.3,-71.89465654,0.8109376
6131fce64995c75f73f6d46e,93,1,2024-02-27T12:46:54.785Z,english_380.wav,0,pill,968,34,4,5,français,m,4,0.32341667,84.67713906,0.64473949
6131fce64995c75f73f6d46e,94,1,2024-02-27T12:46:54.785Z,english_189.wav,0,pill,755,34,4,5,français,m,0,0.0,-22.70456848,0.82906961
6131fce64995c75f73f6d46e,94,1,2024-02-27T12:46:54.785Z,english_189.wav,0,pill,755,34,4,5,français,m,1,0.1,-12.00888723,0.58408113
6131fce64995c75f73f6d46e,94,1,2024-02-27T12:46:54.785Z,english_189.wav,0,pill,755,34,4,5,français,m,2,0.2,15.14046376,0.19058783
6131fce64995c75f73f6d46e,94,1,2024-02-27T12:46:54.785Z,english_189.wav,0,pill,755,34,4,5,français,m,3,0.3,-19.30106293,0.57788611
6131fce64995c75f73f6d46e,94,1,2024-02-27T12:46:54.785Z,english_189.wav,0,pill,755,34,4,5,français,m,4,0.32341667,-20.57313834,0.32577637
6131fce64995c75f73f6d46e,95,1,2024-02-27T12:46:54.785Z,english_173.wav,0,peel,1473,34,4,5,français,m,0,0.0,11.1251521,0.60172576
6131fce64995c75f73f6d46e,95,1,2024-02-27T12:46:54.785Z,english_173.wav,0,peel,1473,34,4,5,français,m,1,0.1,94.22411188,0.44802145
6131fce64995c75f73f6d46e,95,1,2024-02-27T12:46:54.785Z,english_173.wav,0,peel,1473,34,4,5,français,m,2,0.2,89.44753043,1.27552997
6131fce64995c75f73f6d46e,95,1,2024-02-27T12:46:54.785Z,english_173.wav,0,peel,1473,34,4,5,français,m,3,0.3,74.30769895,1.09756939
6131fce64995c75f73f6d46e,95,1,2024-02-27T12:46:54.785Z,english_173.wav,0,peel,1473,34,4,5,français,m,4,0.32341667,-37.47679669,0.7907315
6131fce64995c75f73f6d46e,96,1,2024-02-27T12:46:54.785Z,english_364.wav,0,peel,1470,34,4,5,français,m,0,0.0,19.50953027,1.75500584
6131fce64995c75f73f6d46e,96,1,2024-02-27T12:46:54.785Z,english_364.wav,0,peel,1470,34,4,5,français,m,1,0.1,48.44847612,1.3553812
6131fce64995c75f73f6d46e,96,1,2024-02-27T12:46:54.785Z,english_364.wav,0,peel,1470,34,4,5,français,m,2,0.2,-85.20645473,0.86672295
6131fce64995c75f73f6d46e,96,1,2024-02-27T12:46:54.785Z,english_364.wav,0,peel,1470,34,4,5,français,m,3,0.3,97.47454191,1.42489128
6131fce64995c75f73f6d46e,96,1,2024-02-27T12:46:54.785Z,english_364.wav,0,peel,1470,34,4,5,français,m,4,0.32341667,-45.42958463,1.19673805
6131fce64995c75f73f6d46e,97,1,2024-02-27T12:46:54.785Z,english_340.wav,0,peel,705,34,4,5,français,m,0,0.0,42.62794877,1.44385011
6131fce64995c75f73f6d46e,97,1,2024-02-27T12:46:54.785Z,english_340.wav,0,peel,705,34,4,5,français,m,1,0.1,67.09042835,1.29329602
6131fce64995c75f73f6d46e,97,1,2024-02-27T12:46:54.785Z,english_340.wav,0,peel,705,34,4,5,français,m,2,0.2,-80.28719593,1.71068781
6131fce64995c75f73f6d46e,97,1,2024-02-27T12:46:54.785Z,english_340.wav,0,peel,705,34,4,5,français,m,3,0.3,-47.97556268,0.48872717
6131fce64995c75f73f6d46e,97,1,2024-02-27T12:46:54.785Z,english_340.wav,0,peel,705,34,4,5,français,m,4,0.32341667,32.7013797,1.09000269
6131fce64995c75f73f6d46e,98,1,2024-02-27T12:46:54.785Z,english_308.wav,0,pill,855,34,4,5,français,m,0,0.0,71.04817524,1.27905886
6131fce64995c75f73f6d46e,98,1,2024-02-27T12:46:54.785Z,english_308.wav,0,pill,855,34,4,5,français,m,1,0.1,-29.23230128,0.28593244
6131fce64995c75f73f6d46e,98,1,2024-02-27T12:46:54.785Z,english_308.wav,0,pill,855,34,4,5,français,m,2,0.2,-23.90252129,0.87298087
6131fce64995c75f73f6d46e,98,1,2024-02-27T12:46:54.785Z,english_308.wav,0,pill,855,34,4,5,français,m,3,0.3,-20.50746627,0.50431278
6131fce64995c75f73f6d46e,98,1,2024-02-27T12:46:54.785Z,english_308.wav,0,pill,855,34,4,5,français,m,4,0.32341667,-25.31970697,1.06118321
6131fce64995c75f73f6d46e,99,1,2024-02-27T12:46:54.785Z,english_506.wav,0,peel,797,34,4,5,français,m,0,0.0,-17.73769578,0.98447335
6131fce64995c75f73f6d46e,99,1,2024-02-27T12:46:54.785Z,english_506.wav,0,peel,797,34,4,5,français,m,1,0.1,-41.45582363,0.94666259
6131fce64995c75f73f6d46e,99,1,2024-02-27T12:46:54.785Z,english_506.wav,0,peel,797,34,4,5,français,m,2,0.2,30.66866042,0.72831062
6131fce64995c75f73f6d46e,99,1,2024-02-27T12:46:54.785Z,english_506.wav,0,peel,797,34,4,5,français,m,3,0.3,59.8078046,1.02790064
6131fce64995c75f73f6d46e,99,1,2024-02-27T12:46:54.785Z,english_506.wav,0,peel,797,34,4,5,français,m,4,0.32341667,84.38248427,0.39724826
6131fce64995c75f73f6d46e,100,2,2024-02-27T12:46:54.785Z,english_623.wav,0,peel,1042,34,4,5,français,m,0,0.0,-23.54178515,1.91881792
6131fce64995c75f73f6d46e,100,2,2024-02-27T12:46:54.785Z,english_623.wav,0,peel,1042,34,4,5,français,m,1,0.1,-47.52772515,0.99675119
6131fce64995c75f73f6d46e,100,2,2024-02-27T12:46:54.785Z,english_623.wav,0,peel,1042,34,4,5,français,m,2,0.2,47.20668934,0.26332691
6131fce64995c75f73f6d46e,100,2,2024-02-27T12:46:54.785Z,english_623.wav,0,peel,1042,34,4,5,français,m,3,0.3,-98.32001938,1.33317057
6131fce64995c75f73f6d46e,100,2,2024-02-27T12:46:54.785Z,english_623.wav,0,peel,1042,34,4,5,français,m,4,0.32341667,-63.09014275,1.04211108
6131fce64995c75f73f6d46e,101,2,2024-02-27T12:46:54.785Z,english_240.wav,0,pill,417,34,4,5,français,m,0,0.0,-96.55121617,1.04823872
6131fce64995c75f73f6d46e,101,2,2024-02-27T12:46:54.785Z,english_240.wav,0,pill,417,34,4,5,français,m,1,0.1,73.99435309,1.11556714
6131fce64995c75f73f6d46e,101,2,2024-02-27T12:46:54.785Z,english_240.wav,0,pill,417,34,4,5,français,m,2,0.2,-27.17256968,0.68795106
6131fce64995c75f73f6d46e,101,2,2024-02-27T12:46:54.785Z,english_240.wav,0,pill,417,34,4,5,français,m,3,0.3,-2.05185553,1.30325309
6131fce64995c75f73f6d46e,101,2,2024-02-27T12:46:54.785Z,english_240.wav,0,pill,417,34,4,5,français,m,4,0.32341667,80.37406519,0.86977317
6131fce64995c75f73f6d46e,102,2,2024-02-27T12:46:54.785Z,english_388.wav,0,peel,592,34,4,5,français,m,0,0.0,17.9760939,0.95494184
6131fce64995c75f73f6d46e,102,2,2024-02-27T12:46:54.785Z,english_388.wav,0,peel,592,34,4,5,français,m,1,0.1,-43.00340989,0.10281418
6131fce64995c75f73f6d46e,102,2,2024-02-27T12:46:54.785Z,english_388.wav,0,peel,592,34,4,5,français,m,2,0.2,-30.55059063,1.52164503
6131fce64995c75f73f6d46e,102,2,2024-02-27T12:46:54.785Z,english_388.wav,0,peel,592,34,4,5,français,m,3,0.3,-92.55876504,1.24827519
6131fce64995c75f73f6d46e,102,2,2024-02-27T12:46:54.785Z,english_388.wav,0,peel,592,34,4,5,français,m,4,0.32341667,-64.21175873,0.08180338
6131fce64995c75f73f6d46e,103,2,2024-02-27T12:46:54.785Z,english_993.wav,0,pill,409,34,4,5,français,m,0,0.0,-66.15449332,1.17508471
6131fce64995c75f73f6d46e,103,2,2024-02-27T12:46:54.785Z,english_993.wav,0,pill,409,34,4,5,français,m,1,0.1,33.08083728,0.94744004
6131fce64995c75f73f6d46e,103,2,2024-02-27T12:46:54.785Z,english_993.wav,0,pill,409,34,4,5,français,m,2,0.2,51.46479562,0.74931244
6131fce64995c75f73f6d46e,103,2,2024-02-27T12:46:54.785Z,english_993.wav,0,pill,409,34,4,5,français,m,3,0.3,-80.58676237,0.35628979
6131fce64995c75f73f6d46e,103,2,2024-02-27T12:46:54.785Z,english_993.wav,0,pill,409,34,4,5,français,m,4,0.32341667,81.97884737,1.25416847
6131fce64995c75f73f6d46e,104,2,2024-02-27T12:46:54.785Z,english_451.wav,0,pill,1172,34,4,5,français,m,0,0.0,-87.31297583,0.44823779
6131fce64995c75f73f6d46e,104,2,2024-02-27T12:46:54.785Z,english_451.wav,0,pill,1172,34,4,5,français,m,1,0.1,-44.51362963,0.44678563
6131fce64995c75f73f6d46e,104,2,2024-02-27T12:46:54.785Z,english_451.wav,0,pill,1172,34,4,5,français,m,2,0.2,-15.52945473,1.69444841
6131fce64995c75f73f6d46e,104,2,2024-02-27T12:46:54.785Z,english_451.wav,0,pill,1172,34,4,5,français,m,3,0.3,11.70886435,0.18586344
6131fce64995c75f73f6d46e,104,2,2024-02-27T12:46:54.785Z,english_451.wav,0,pill,1172,34,4,5,français,m,4,0.32341667,82.84342256,0.9677256
6131fce64995c75f73f6d46e,105,2,2024-02-27T12:46:54.785Z,english_2.wav,0,pill,411,34,4,5,français,m,0,0.0,-99.15346184,1.13720105
6131fce64995c75f73f6d46e,105,2,2024-02-27T12:46:54.785Z,english_2.wav,0,pill,411,34,4,5,français,m,1,0.1,80.90141422,1.91777804
6131fce64995c75f73f6d46e,105,2,2024-02-27T12:46:54.785Z,english_2.wav,0,pill,411,34,4,5,français,m,2,0.2,25.8663891,0.47706995
6131fce64995c75f73f6d46e,105,2,2024-02-27T12:46:54.785Z,english_2.wav,0,pill,411,34,4,5,français,m,3,0.3,75.24606714,0.3458575
6131fce64995c75f73f6d46e,105,2,2024-02-27T12:46:54.785Z,english_2.wav,0,pill,411,34,4,5,français,m,4,0.32341667,-83.41413367,0.38623968
6131fce64995c75f73f6d46e,106,2,2024-02-27T12:46:54.785Z,english_213.wav,0,pill,910,34,4,5,français,m,0,0.0,-29.91874444,1.42031243
6131fce64995c75f73f6d46e,106,2,2024-02-27T12:46:54.785Z,english_213.wav,0,pill,910,34,4,5,français,m,1,0.1,41.64704809,0.59218852
6131fce64995c75f73f6d46e,106,2,2024-02-27T12:46:54.785Z,english_213.wav,0,pill,910,34,4,5,français,m,2,0.2,-87.11075848,1.10576613
6131fce64995c75f73f6d46e,106,2,2024-02-27T12:46:54.785Z,english_213.wav,0,pill,910,34,4,5,français,m,3,0.3,-61.54877495,0.09529021
6131fce64995c75f73f6d46e,106,2,2024-02-27T12:46:54.785Z,english_213.wav,0,pill,910,34,4,5,français,m,4,0.32341667,-34.29429643,1.15583312
6131fce64995c75f73f6d46e,107,2,2024-02-27T12:46:54.785Z,english_422.wav,0,pill,1477,34,4,5,français,m,0,0.0,-79.81150205,1.34332733
6131fce64995c75f73f6d46e,107,2,2024-02-27T12:46:54.785Z,english_422.wav,0,pill,1477,34,4,5,français,m,1,0.1,-2.02836706,0.77514932
6131fce64995c75f73f6d46e,107,2,2024-02-27T12:46:54.785Z,english_422.wav,0,pill,1477,34,4,5,français,m,2,0.2,-11.18998235,0.33214039
6131fce64995c75f73f6d46e,107,2,2024-02-27T12:46:54.785Z,english_422.wav,0,pill,1477,34,4,5,français,m,3,0.3,52.04958687,0.53493982
6131fce64995c75f73f6d46e,107,2,2024-02-27T12:46:54.785Z,english_422.wav,0,pill,1477,34,4,5,français,m,4,0.32341667,-63.48776447,0.45685022
6131fce64995c75f73f6d46e,108,2,2024-02-27T12:46:54.785Z,english_806.wav,0,peel,513,34,4,5,français,m,0,0.0,17.38837614,1.03842349
6131fce64995c75f73f6d46e,108,2,2024-02-27T12:46:54.785Z,english_806.wav,0,peel,513,34,4,5,français,m,1,0.1,50.31160736,1.08461549
6131fce64995c75f73f6d46e,108,2,2024-02-27T12:46:54.785Z,english_806.wav,0,peel,513,34,4,5,français,m,2,0.2,74.21499327,1.8436814
6131fce64995c75f73f6d46e,108,2,2024-02-27T12:46:54.785Z,english_806.wav,0,peel,513,34,4,5,français,m,3,0.3,16.647622,1.85846725
6131fce64995c75f73f6d46e,108,2,2024-02-27T12:46:54.785Z,english_806.wav,0,peel,513,34,4,5,français,m,4,0.32341667,27.12519974,1.15820289
6131fce64995c75f73f6d46e,109,2,2024-02-27T12:46:54.785Z,english_114.wav,0,peel,707,34,4,5,français,m,0,0.0,32.66189176,0.56529239
6131fce64995c75f73f6d46e,109,2,2024-02-27T12:46:54.785Z,english_114.wav,0,peel,707,34,4,5,français,m,1,0.1,11.50533392,1.79520186
6131fce64995c75f73f6d46e,109,2,2024-02-27T12:46:54.785Z,english_114.wav,0,peel,707,34,4,5,français,m,2,0.2,-73.58201401,1.4619954
6131fce64995c75f73f6d46e,109,2,2024-02-27T12:46:54.785Z,english_114.wav,0,peel,707,34,4,5,français,m,3,0.3,-8.93644113,0.78288211
6131fce64995c75f73f6d46e,109,2,2024-02-27T12:46:54.785Z,english_114.wav,0,peel,707,34,4,5,français,m,4,0.32341667,-2.4794064,0.66376764
6131fce64995c75f73f6d46e,110,2,2024-02-27T12:46:54.785Z,english_34.wav,0,pill,2496,34,4,5,français,m,0,0.0,-48.07924103,1.44836266
6131fce64995c75f73f6d46e,110,2,2024-02-27T12:46:54.785Z,english_34.wav,0,pill,2496,34,4,5,français,m,1,0.1,-64.84739183,1.89580324
6131fce64995c75f73f6d46e,110,2,2024-02-27T12:46:54.785Z,english_34.wav,0,pill,2496,34,4,5,français,m,2,0.2,-20.81716265,0.64308549
6131fce64995c75f73f6d46e,110,2,2024-02-27T12:46:54.785Z,english_34.wav,0,pill,2496,34,4,5,français,m,3,0.3,91.13652067,0.0848332
6131fce64995c75f73f6d46e,110,2,2024-02-27T12:46:54.785Z,english_34.wav,0,pill,2496,34,4,5,français,m,4,0.32341667,-54.46543937,0.8036564
6131fce64995c75f73f6d46e,111,2,2024-02-27T12:46:54.785Z,english_18.wav,0,pill,629,34,4,5,français,m,0,0.0,-61.9567004,0.45038722
6131fce64995c75f73f6d46e,111,2,2024-02-27T12:46:54.785Z,english_18.wav,0,pill,629,34,4,5,français,m,1,0.1,39.2027204,1.56185221
6131fce64995c75f73f6d46e,111,2,2024-02-27T12:46:54.785Z,english_18.wav,0,pill,629,34,4,5,français,m,2,0.2,-0.0626834214,0.80652275
6131fce64995c75f73f6d46e,111,2,2024-02-27T12:46:54.785Z,english_18.wav,0,pill,629,34,4,5,français,m,3,0.3,-72.2820301,0.39505163
6131fce64995c75f73f6d46e,111,2,2024-02-27T12:46:54.785Z,english_18.wav,0,pill,629,34,4,5,français,m,4,0.323416667,-52.9459242,0.50402069
6131fce64995c75f73f6d46e,112,2,2024-02-27T12:46:54.785Z,english_367.wav,0,peel,1687,34,4,5,français,m,0,0.0,69.68935346,1.12532443
6131fce64995c75f73f6d46e,112,2,2024-02-27T12:46:54.785Z,english_367.wav,0,peel,1687,34,4,5,français,m,1,0.1,-21.84293244,1.15903886
6131fce64995c75f73f6d46e,112,2,2024-02-27T12:46:54.785Z,english_367.wav,0,peel,1687,34,4,5,français,m,2,0.2,-22.40126322,1.68834661
6131fce64995c75f73f6d46e,112,2,2024-02-27T12:46:54.785Z,english_367.wav,0,peel,1687,34,4,5,français,m,3,0.3,-77.83415675,1.78966274
6131fce64995c75f73f6d46e,112,2,2024-02-27T12:46:54.785Z,english_367.wav,0,peel,1687,34,4,5,français,m,4,0.32341667,18.42522507,1.57311162
6131fce64995c75f73f6d46e,113,2,2024-02-27T12:46:54.785Z,english_811.wav,0,peel,702,34,4,5,français,m,0,0.0,-51.03425556,1.55055496
6131fce64995c75f73f6d46e,113,2,2024-02-27T12:46:54.785Z,english_811.wav,0,peel,702,34,4,5,français,m,1,0.1,22.81695275,1.74830484
6131fce64995c75f73f6d46e,113,2,2024-02-27T12:46:54.785Z,english_811.wav,0,peel,702,34,4,5,français,m,2,0.2,73.06623682,1.24661488
6131fce64995c75f73f6d46e,113,2,2024-02-27T12:46:54.785Z,english_811.wav,0,peel,702,34,4,5,français,m,3,0.3,-9.17693151,0.09792889
6131fce64995c75f73f6d46e,113,2,2024-02-27T12:46:54.785Z,english_811.wav,0,peel,702,34,4,5,français,m,4,0.32341667,79.97760745,0.03735929
6131fce64995c75f73f6d46e,114,2,2024-02-27T12:46:54.785Z,english_385.wav,0,peel,2925,34,4,5,français,m,0,0.0,-55.07910634,1.75648555
6131fce64995c75f73f6d46e,114,2,2024-02-27T12:46:54.785Z,english_385.wav,0,peel,2925,34,4,5,français,m,1,0.1,-94.47680079,1.20856462
6131fce64995c75f73f6d46e,114,2,2024-02-27T12:46:54.785Z,english_385.wav,0,peel,2925,34,4,5,français,m,2,0.2,38.70414457,0.98103352
6131fce64995c75f73f6d46e,114,2,2024-02-27T12:46:54.785Z,english_385.wav,0,peel,2925,34,4,5,français,m,3,0.3,-46.17691,1.45745263
6131fce64995c75f73f6d46e,114,2,2024-02-27T12:46:54.785Z,english_385.wav,0,peel,2925,34,4,5,français,m,4,0.32341667,2.5941508,0.88353815
6131fce64995c75f73f6d46e,115,2,2024-02-27T12:46:54.785Z,english_694.wav,0,pill,1997,34,4,5,français,m,0,0.0,-79.88370205,0.99496101
6131fce64995c75f73f6d46e,115,2,2024-02-27T12:46:54.785Z,english_694.wav,0,pill,1997,34,4,5,français,m,1,0.1,-58.02841319,0.06406007
6131fce64995c75f73f6d46e,115,2,2024-02-27T12:46:54.785Z,english_694.wav,0,pill,1997,34,4,5,français,m,2,0.2,-50.54988317,0.5055253
6131fce64995c75f73f6d46e,115,2,2024-02-27T12:46:54.785Z,english_694.wav,0,pill,1997,34,4,5,français,m,3,0.3,-20.79864769,0.19498426
6131fce64995c75f73f6d46e,115,2,2024-02-27T12:46:54.785Z,english_694.wav,0,pill,1997,34,4,5,français,m,4,0.32341667,-73.64916114,0.36410653
6131fce64995c75f73f6d46e,116,2,2024-02-27T12:46:54.785Z,english_759.wav,0,pill,719,34,4,5,français,m,0,0.0,22.56482953,0.32974928
6131fce64995c75f73f6d46e,116,2,2024-02-27T12:46:54.785Z,english_759.wav,0,pill,719,34,4,5,français,m,1,0.1,-26.57515882,0.74944663
6131fce64995c75f73f6d46e,116,2,2024-02-27T12:46:54.785Z,english_759.wav,0,pill,719,34,4,5,français,m,2,0.2,58.52096087,0.73148935
6131fce64995c75f73f6d46e,116,2,2024-02-27T12:46:54.785Z,english_759.wav,0,pill,719,34,4,5,français,m,3,0.3,67.88336338,0.69769471
6131fce64995c75f73f6d46e,116,2,2024-02-27T12:46:54.785Z,english_759.wav,0,pill,719,34,4,5,français,m,4,0.32341667,-98.7178367,1.46371733
6131fce64995c75f73f6d46e,117,2,2024-02-27T12:46:54.785Z,english_411.wav,0,pill,472,34,4,5,français,m,0,0.0,75.357241,0.83773649
6131fce64995c75f73f6d46e,117,2,2024-02-27T12:46:54.785Z,english_411.wav,0,pill,472,34,4,5,français,m,1,0.1,-55.75688593,0.80885485
6131fce64995c75f73f6d46e,117,2,2024-02-27T12:46:54.785Z,english_411.wav,0,pill,472,34,4,5,français,m,2,0.2,61.10111178,0.61144368
6131fce64995c75f73f6d46e,117,2,2024-02-27T12:46:54.785Z,english_411.wav,0,pill,472,34,4,5,français,m,3,0.3,90.25367142,0.73863407
6131fce64995c75f73f6d46e,117,2,2024-02-27T12:46:54.785Z,english_411.wav,0,pill,472,34,4,5,français,m,4,0.32341667,26.85831553,0.4624235
6131fce64995c75f73f6d46e,118,2,2024-02-27T12:46:54.785Z,english_752.wav,0,peel,404,34,4,5,français,m,0,0.0,-89.50526135,1.26833375
6131fce64995c75f73f6d46e,118,2,2024-02-27T12:46:54.785Z,english_752.wav,0,peel,404,34,4,5,français,m,1,0.1,16.42916277,1.25445964
6131fce64995c75f73f6d46e,118,2,2024-02-27T12:46:54.785Z,english_752.wav,0,peel,404,34,4,5,français,m,2,0.2,-62.11724863,1.84048801
6131fce64995c75f73f6d46e,118,2,2024-02-27T12:46:54.785Z,english_752.wav,0,peel,404,34,4,5,français,m,3,0.3,-22.7839786,0.96813738
6131fce64995c75f73f6d46e,118,2,2024-02-27T12:46:54.785Z,english_752.wav,0,peel,404,34,4,5,français,m,4,0.32341667,21.77934146,1.95604557
6131fce64995c75f73f6d46e,119,2,2024-02-27T12:46:54.785Z,english_697.wav,0,pill,854,34,4,5,français,m,0,0.0,34.8877197,0.10761674
6131fce64995c75f73f6d46e,119,2,2024-02-27T12:46:54.785Z,english_697.wav,0,pill,854,34,4,5,français,m,1,0.1,-0.0129750448,0.88035305
6131fce64995c75f73f6d46e,119,2,2024-02-27T12:46:54.785Z,english_697.wav,0,pill,854,34,4,5,français,m,2,0.2,48.8877829,0.12183403
6131fce64995c75f73f6d46e,119,2,2024-02-27T12:46:54.785Z,english_697.wav,0,pill,854,34,4,5,français,m,3,0.3,68.5745634,0.55306263
6131fce64995c75f73f6d46e,119,2,2024-02-27T12:46:54.785Z,english_697.wav,0,pill,854,34,4,5,français,m,4,0.323416667,18.9536775,1.83833688
6131fce64995c75f73f6d46e,120,2,2024-02-27T12:46:54.785Z,english_737.wav,0,peel,701,34,4,5,français,m,0,0.0,21.35751723,1.17499048
6131fce64995c75f73f6d46e,120,2,2024-02-27T12:46:54.785Z,english_737.wav,0,peel,701,34,4,5,français,m,1,0.1,61.52152077,1.09581395
6131fce64995c75f73f6d46e,120,2,2024-02-27T12:46:54.785Z,english_737.wav,0,peel,701,34,4,5,français,m,2,0.2,-29.75610596,0.62940412
6131fce64995c75f73f6d46e,120,2,2024-02-27T12:46:54.785Z,english_737.wav,0,peel,701,34,4,5,français,m,3,0.3,-39.80249708,0.11793022
6131fce64995c75f73f6d46e,120,2,2024-02-27T12:46:54.785Z,english_737.wav,0,peel,701,34,4,5,français,m,4,0.32341667,-14.64937497,0.62377861
6131fce64995c75f73f6d46e,121,2,2024-02-27T12:46:54.785Z,english_994.wav,0,peel,511,34,4,5,français,m,0,0.0,53.6083957,1.72152032
6131fce64995c75f73f6d46e,121,2,2024-02-27T12:46:54.785Z,english_994.wav,0,peel,511,34,4,5,français,m,1,0.1,62.5650281,0.97077126
6131fce64995c75f73f6d46e,121,2,2024-02-27T12:46:54.785Z,english_994.wav,0,peel,511,34,4,5,français,m,2,0.2,91.00734213,1.1154275
6131fce64995c75f73f6d46e,121,2,2024-02-27T12:46:54.785Z,english_994.wav,0,peel,511,34,4,5,français,m,3,0.3,-14.6853323,0.93534142
6131fce64995c75f73f6d46e,121,2,2024-02-27T12:46:54.785Z,english_994.wav,0,peel,511,34,4,5,français,m,4,0.32341667,42.94025292,1.51312842
6131fce64995c75f73f6d46e,122,2,2024-02-27T12:46:54.785Z,english_392.wav,0,pill,655,34,4,5,français,m,0,0.0,-12.90562814,1.13144201
6131fce64995c75f73f6d46e,122,2,2024-02-27T12:46:54.785Z,english_392.wav,0,pill,655,34,4,5,français,m,1,0.1,-1.29416779,0.98893381
6131fce64995c75f73f6d46e,122,2,2024-02-27T12:46:54.785Z,english_392.wav,0,pill,655,34,4,5,français,m,2,0.2,-53.34155903,0.07204825
6131fce64995c75f73f6d46e,122,2,2024-02-27T12:46:54.785Z,english_392.wav,0,pill,655,34,4,5,français,m,3,0.3,-48.65153398,1.52779633
6131fce64995c75f73f6d46e,122,2,2024-02-27T12:46:54.785Z,english_392.wav,0,pill,655,34,4,5,français,m,4,0.32341667,-43.47653164,1.32355089
6131fce64995c75f73f6d46e,123,2,2024-02-27T12:46:54.785Z,english_668.wav,0,peel,811,34,4,5,français,m,0,0.0,48.8265236,0.43768829
6131fce64995c75f73f6d46e,123,2,2024-02-27T12:46:54.785Z,english_668.wav,0,peel,811,34,4,5,français,m,1,0.1,97.68090991,0.31983773
6131fce64995c75f73f6d46e,123,2,2024-02-27T12:46:54.785Z,english_668.wav,0,peel,811,34,4,5,français,m,2,0.2,47.50182685,1.24438546
6131fce64995c75f73f6d46e,123,2,2024-02-27T12:46:54.785Z,english_668.wav,0,peel,811,34,4,5,français,m,3,0.3,81.7432518,0.49120307
6131fce64995c75f73f6d46e,123,2,2024-02-27T12:46:54.785Z,english_668.wav,0,peel,811,34,4,5,français,m,4,0.32341667,28.08178094,0.60639718
6131fce64995c75f73f6d46e,124,2,2024-02-27T12:46:54.785Z,english_296.wav,0,peel,620,34,4,5,français,m,0,0.0,-4.92142852,1.99305172
6131fce64995c75f73f6d46e,124,2,2024-02-27T12:46:54.785Z,english_296.wav,0,peel,620,34,4,5,français,m,1,0.1,-5.74196289,0.92633133
6131fce64995c75f73f6d46e,124,2,2024-02-27T12:46:54.785Z,english_296.wav,0,peel,620,34,4,5,français,m,2,0.2,76.26647078,0.44879969
6131fce64995c75f73f6d46e,124,2,2024-02-27T12:46:54.785Z,english_296.wav,0,peel,620,34,4,5,français,m,3,0.3,-62.74030654,1.47417428
6131fce64995c75f73f6d46e,124,2,2024-02-27T12:46:54.785Z,english_296.wav,0,peel,620,34,4,5,français,m,4,0.32341667,-60.661992,1.05571007
6131fce64995c75f73f6d46e,125,2,2024-02-27T12:46:54.785Z,english_807.wav,0,pill,342,34,4,5,français,m,0,0.0,-70.27095807,1.48455572
6131fce64995c75f73f6d46e,125,2,2024-02-27T12:46:54.785Z,english_807.wav,0,pill,342,34,4,5,français,m,1,0.1,84.77391363,1.24837561
6131fce64995c75f73f6d46e,125,2,2024-02-27T12:46:54.785Z,english_807.wav,0,pill,342,34,4,5,français,m,2,0.2,-27.52537388,0.77726095
6131fce64995c75f73f6d46e,125,2,2024-02-27T12:46:54.785Z,english_807.wav,0,pill,342,34,4,5,français,m,3,0.3,36.82986288,1.65388598
6131fce64995c75f73f6d46e,125,2,2024-02-27T12:46:54.785Z,english_807.wav,0,pill,342,34,4,5,français,m,4,0.32341667,16.63983573,1.10343216
6131fce64995c75f73f6d46e,126,2,2024-02-27T12:46:54.785Z,english_570.wav,0,pill,320,34,4,5,français,m,0,0.0,79.72420881,1.67561776
6131fce64995c75f73f6d46e,126,2,2024-02-27T12:46:54.785Z,english_570.wav,0,pill,320,34,4,5,français,m,1,0.1,-10.34227762,1.50139893
6131fce64995c75f73f6d46e,126,2,2024-02-27T12:46:54.785Z,english_570.wav,0,pill,320,34,4,5,français,m,2,0.2,18.32754659,1.41834695
6131fce64995c75f73f6d46e,126,2,2024-02-27T12:46:54.785Z,english_570.wav,0,pill,320,34,4,5,français,m,3,0.3,15.23919529,1.12876239
6131fce64995c75f73f6d46e,126,2,2024-02-27T12:46:54.785Z,english_570.wav,0,pill,320,34,4,5,français,m,4,0.32341667,-28.05357781,0.72546523
6131fce64995c75f73f6d46e,127,2,2024-02-27T12:46:54.785Z,english_864.wav,0,pill,331,34,4,5,français,m,0,0.0,-41.66547405,0.15536101
6131fce64995c75f73f6d46e,127,2,2024-02-27T12:46:54.785Z,english_864.wav,0,pill,331,34,4,5,français,m,1,0.1,47.36949562,1.78739046
6131fce64995c75f73f6d46e,127,2,2024-02-27T12:46:54.785Z,english_864.wav,0,pill,331,34,4,5,français,m,2,0.2,87.97635609,1.48310956
6131fce64995c75f73f6d46e,127,2,2024-02-27T12:46:54.785Z,english_864.wav,0,pill,331,34,4,5,français,m,3,0.3,-18.88921291,0.35838492
6131fce64995c75f73f6d46e,127,2,2024-02-27T12:46:54.785Z,english_864.wav,0,pill,331,34,4,5,français,m,4,0.32341667,13.88839096,0.21709894
6131fce64995c75f73f6d46e,128,2,2024-02-27T12:46:54.785Z,english_666.wav,0,pill,1170,34,4,5,français,m,0,0.0,-6.63307831,0.44221414
6131fce64995c75f73f6d46e,128,2,2024-02-27T12:46:54.785Z,english_666.wav,0,pill,1170,34,4,5,français,m,1,0.1,-47.66524373,1.62559692
6131fce64995c75f73f6d46e,128,2,2024-02-27T12:46:54.785Z,english_666.wav,0,pill,1170,34,4,5,français,m,2,0.2,66.93817534,0.27313334
6131fce64995c75f73f6d46e,128,2,2024-02-27T12:46:54.785Z,english_666.wav,0,pill,1170,34,4,5,français,m,3,0.3,-1.338646,0.46846925
6131fce64995c75f73f6d46e,128,2,2024-02-27T12:46:54.785Z,english_666.wav,0,pill,1170,34,4,5,français,m,4,0.32341667,-14.31927765,1.08883823
6131fce64995c75f73f6d46e,129,2,2024-02-27T12:46:54.785Z,english_647.wav,0,peel,481,34,4,5,français,m,0,0.0,-8.76796469,1.6238225
6131fce64995c75f73f6d46e,129,2,2024-02-27T12:46:54.785Z,english_647.wav,0,peel,481,34,4,5,français,m,1,0.1,-49.13996982,1.56934089
6131fce64995c75f73f6d46e,129,2,2024-02-27T12:46:54.785Z,english_647.wav,0,peel,481,34,4,5,français,m,2,0.2,43.79634461,0.78560304
6131fce64995c75f73f6d46e,129,2,2024-02-27T12:46:54.785Z,english_647.wav,0,peel,481,34,4,5,français,m,3,0.3,5.5781311,0.61771672
6131fce64995c75f73f6d46e,129,2,2024-02-27T12:46:54.785Z,english_647.wav,0,peel,481,34,4,5,français,m,4,0.32341667,17.41251701,1.2404866
6131fce64995c75f73f6d46e,130,2,2024-02-27T12:46:54.785Z,english_800.wav,0,pill,487,34,4,5,français,m,0,0.0,-9.91001254,0.13142639
6131fce64995c75f73f6d46e,130,2,2024-02-27T12:46:54.785Z,english_800.wav,0,pill,487,34,4,5,français,m,1,0.1,-86.79409322,1.71040153
6131fce64995c75f73f6d46e,130,2,2024-02-27T12:46:54.785Z,english_800.wav,0,pill,487,34,4,5,français,m,2,0.2,-27.39997365,0.18637657
6131fce64995c75f73f6d46e,130,2,2024-02-27T12:46:54.785Z,english_800.wav,0,pill,487,34,4,5,français,m,3,0.3,13.46737707,1.09766523
6131fce64995c75f73f6d46e,130,2,2024-02-27T12:46:54.785Z,english_800.wav,0,pill,487,34,4,5,français,m,4,0.32341667,-32.56208711,1.57940615
6131fce64995c75f73f6d46e,131,2,2024-02-27T12:46:54.785Z,english_954.wav,0,peel,1119,34,4,5,français,m,0,0.0,-31.7323473,1.78985335
6131fce64995c75f73f6d46e,131,2,2024-02-27T12:46:54.785Z,english_954.wav,0,peel,1119,34,4,5,français,m,1,0.1,26.42807939,1.38754521
6131fce64995c75f73f6d46e,131,2,2024-02-27T12:46:54.785Z,english_954.wav,0,peel,1119,34,4,5,français,m,2,0.2,22.25968883,1.54917493
6131fce64995c75f73f6d46e,131,2,2024-02-27T12:46:54.785Z,english_954.wav,0,peel,1119,34,4,5,français,m,3,0.3,-25.30270181,1.54718362
6131fce64995c75f73f6d46e,131,2,2024-02-27T12:46:54.785Z,english_954.wav,0,peel,1119,34,4,5,français,m,4,0.32341667,46.97185243,0.09638929
6131fce64995c75f73f6d46e,132,2,2024-02-27T12:46:54.785Z,english_892.wav,0,pill,925,34,4,5,français,m,0,0.0,38.63128374,0.97893944
6131fce64995c75f73f6d46e,132,2,2024-02-27T12:46:54.785Z,english_892.wav,0,pill,925,34,4,5,français,m,1,0.1,22.49899687,0.66551001
6131fce64995c75f73f6d46e,132,2,2024-02-27T12:46:54.785Z,english_892.wav,0,pill,925,34,4,5,français,m,2,0.2,28.84135264,0.36795179
6131fce64995c75f73f6d46e,132,2,2024-02-27T12:46:54.785Z,english_892.wav,0,pill,925,34,4,5,français,m,3,0.3,81.19740532,1.0840826
6131fce64995c75f73f6d46e,132,2,2024-02-27T12:46:54.785Z,english_892.wav,0,pill,925,34,4,5,français,m,4,0.32341667,22.37782167,0.83637256
6131fce64995c75f73f6d46e,133,2,2024-02-27T12:46:54.785Z,english_938.wav,0,peel,1383,34,4,5,français,m,0,0.0,55.68553541,1.13527087
6131fce64995c75f73f6d46e,133,2,2024-02-27T12:46:54.785Z,english_938.wav,0,peel,1383,34,4,5,français,m,1,0.1,19.57508628,0.57526943
6131fce64995c75f73f6d46e,133,2,2024-02-27T12:46:54.785Z,english_938.wav,0,peel,1383,34,4,5,français,m,2,0.2,99.59707332,0.71873046
6131fce64995c75f73f6d46e,133,2,2024-02-27T12:46:54.785Z,english_938.wav,0,peel,1383,34,4,5,français,m,3,0.3,-43.3789335,0.88566698
6131fce64995c75f73f6d46e,133,2,2024-02-27T12:46:54.785Z,english_938.wav,0,peel,1383,34,4,5,français,m,4,0.32341667,90.00594125,0.39461425
6131fce64995c75f73f6d46e,134,2,2024-02-27T12:46:54.785Z,english_995.wav,0,pill,393,34,4,5,français,m,0,0.0,49.33707883,0.89732458
6131fce64995c75f73f6d46e,134,2,2024-02-27T12:46:54.785Z,english_995.wav,0,pill,393,34,4,5,français,m,1,0.1,54.78730957,0.49662083
6131fce64995c75f73f6d46e,134,2,2024-02-27T12:46:54.785Z,english_995.wav,0,pill,393,34,4,5,français,m,2,0.2,-5.99414072,0.83265132
6131fce64995c75f73f6d46e,134,2,2024-02-27T12:46:54.785Z,english_995.wav,0,pill,393,34,4,5,français,m,3,0.3,26.8687238,1.32035917
6131fce64995c75f73f6d46e,134,2,2024-02-27T12:46:54.785Z,english_995.wav,0,pill,393,34,4,5,français,m,4,0.32341667,38.3348194,1.99869744
6131fce64995c75f73f6d46e,135,2,2024-02-27T12:46:54.785Z,english_756.wav,0,pill,759,34,4,5,français,m,0,0.0,-75.60908863,1.29894989
6131fce64995c75f73f6d46e,135,2,2024-02-27T12:46:54.785Z,english_756.wav,0,pill,759,34,4,5,français,m,1,0.1,-4.30259752,0.61363685
6131fce64995c75f73f6d46e,135,2,2024-02-27T12:46:54.785Z,english_756.wav,0,pill,759,34,4,5,français,m,2,0.2,20.94377522,1.41793961
6131fce64995c75f73f6d46e,135,2,2024-02-27T12:46:54.785Z,english_756.wav,0,pill,759,34,4,5,français,m,3,0.3,10.45062111,1.73528762
6131fce64995c75f73f6d46e,135,2,2024-02-27T12:46:54.785Z,english_756.wav,0,pill,759,34,4,5,français,m,4,0.32341667,86.50209298,0.4791473
6131fce64995c75f73f6d46e,136,2,2024-02-27T12:46:54.785Z,english_527.wav,0,pill,581,34,4,5,français,m,0,0.0,-32.70996179,0.06646481
6131fce64995c75f73f6d46e,136,2,2024-02-27T12:46:54.785Z,english_527.wav,0,pill,581,34,4,5,français,m,1,0.1,-61.96334317,1.75268105
6131fce64995c75f73f6d46e,136,2,2024-02-27T12:46:54.785Z,english_527.wav,0,pill,581,34,4,5,français,m,2,0.2,86.46317242,0.41061726
6131fce64995c75f73f6d46e,136,2,2024-02-27T12:46:54.785Z,english_527.wav,0,pill,581,34,4,5,français,m,3,0.3,-18.9429262,1.43024268
6131fce64995c75f73f6d46e,136,2,2024-02-27T12:46:54.785Z,english_527.wav,0,pill,581,34,4,5,français,m,4,0.32341667,-59.75355058,0.73468543
6131fce64995c75f73f6d46e,137,2,2024-02-27T12:46:54.785Z,english_465.wav,0,peel,344,34,4,5,français,m,0,0.0,40.04056426,1.33778995
6131fce64995c75f73f6d46e,137,2,2024-02-27T12:46:54.785Z,english_465.wav,0,peel,344,34,4,5,français,m,1,0.1,-97.28817369,0.1899685
6131fce64995c75f73f6d46e,137,2,2024-02-27T12:46:54.785Z,english_465.wav,0,peel,344,34,4,5,français,m,2,0.2,-58.72937184,1.35609136
6131fce64995c75f73f6d46e,137,2,2024-02-27T12:46:54.785Z,english_465.wav,0,peel,344,34,4,5,français,m,3,0.3,82.2448524,1.94032164
6131fce64995c75f73f6d46e,137,2,2024-02-27T12:46:54.785Z,english_465.wav,0,peel,344,34,4,5,français,m,4,0.32341667,-29.20233879,0.27858753
6131fce64995c75f73f6d46e,138,2,2024-02-27T12:46:54.785Z,english_183.wav,0,pill,1474,34,4,5,français,m,0,0.0,-43.98322413,0.65201846
6131fce64995c75f73f6d46e,138,2,2024-02-27T12:46:54.785Z,english_183.wav,0,pill,1474,34,4,5,français,m,1,0.1,-25.77671075,1.22292345
6131fce64995c75f73f6d46e,138,2,2024-02-27T12:46:54.785Z,english_183.wav,0,pill,1474,34,4,5,français,m,2,0.2,39.5110442,1.45876179
6131fce64995c75f73f6d46e,138,2,2024-02-27T12:46:54.785Z,english_183.wav,0,pill,1474,34,4,5,français,m,3,0.3,-32.19697736,0.98656907
6131fce64995c75f73f6d46e,138,2,2024-02-27T12:46:54.785Z,english_183.wav,0,pill,1474,34,4,5,français,m,4,0.32341667,10.88673449,1.0349791
6131fce64995c75f73f6d46e,139,2,2024-02-27T12:46:54.785Z,english_327.wav,0,peel,1033,34,4,5,français,m,0,0.0,-65.34261839,0.94624792
6131fce64995c75f73f6d46e,139,2,2024-02-27T12:46:54.785Z,english_327.wav,0,peel,1033,34,4,5,français,m,1,0.1,-88.88296173,0.88463276
6131fce64995c75f73f6d46e,139,2,2024-02-27T12:46:54.785Z,english_327.wav,0,peel,1033,34,4,5,français,m,2,0.2,-52.48624316,0.8064175
6131fce64995c75f73f6d46e,139,2,2024-02-27T12:46:54.785Z,english_327.wav,0,peel,1033,34,4,5,français,m,3,0.3,35.3894457,1.08656597
6131fce64995c75f73f6d46e,139,2,2024-02-27T12:46:54.785Z,english_327.wav,0,peel,1033,34,4,5,français,m,4,0.32341667,-31.26503482,0.95323019
6131fce64995c75f73f6d46e,140,2,2024-02-27T12:46:54.785Z,english_341.wav,0,peel,1644,34,4,5,français,m,0,0.0,-3.29192029,0.92007635
6131fce64995c75f73f6d46e,140,2,2024-02-27T12:46:54.785Z,english_341.wav,0,peel,1644,34,4,5,français,m,1,0.1,-63.07334109,0.76766635
6131fce64995c75f73f6d46e,140,2,2024-02-27T12:46:54.785Z,english_341.wav,0,peel,1644,34,4,5,français,m,2,0.2,-52.81319379,0.00478881
6131fce64995c75f73f6d46e,140,2,2024-02-27T12:46:54.785Z,english_341.wav,0,peel,1644,34,4,5,français,m,3,0.3,47.65296252,0.69804387
6131fce64995c75f73f6d46e,140,2,2024-02-27T12:46:54.785Z,english_341.wav,0,peel,1644,34,4,5,français,m,4,0.32341667,-2.67842738,0.15231077
6131fce64995c75f73f6d46e,141,2,2024-02-27T12:46:54.785Z,english_989.wav,0,peel,1112,34,4,5,français,m,0,0.0,-51.1051603,1.00035195
6131fce64995c75f73f6d46e,141,2,2024-02-27T12:46:54.785Z,english_989.wav,0,peel,1112,34,4,5,français,m,1,0.1,-91.26717948,0.46124463
6131fce64995c75f73f6d46e,141,2,2024-02-27T12:46:54.785Z,english_989.wav,0,peel,1112,34,4,5,français,m,2,0.2,73.5145218,0.77735517
6131fce64995c75f73f6d46e,141,2,2024-02-27T12:46:54.785Z,english_989.wav,0,peel,1112,34,4,5,français,m,3,0.3,54.43703181,1.21549894
6131fce64995c75f73f6d46e,141,2,2024-02-27T12:46:54.785Z,english_989.wav,0,peel,1112,34,4,5,français,m,4,0.32341667,-36.95823638,0.33045291
6131fce64995c75f73f6d46e,142,2,2024-02-27T12:46:54.785Z,english_413.wav,0,pill,457,34,4,5,français,m,0,0.0,-9.66675054,1.82887045
6131fce64995c75f73f6d46e,142,2,2024-02-27T12:46:54.785Z,english_413.wav,0,pill,457,34,4,5,français,m,1,0.1,15.27504309,0.80668743
6131fce64995c75f73f6d46e,142,2,2024-02-27T12:46:54.785Z,english_413.wav,0,pill,457,34,4,5,français,m,2,0.2,-94.93171401,0.90586838
6131fce64995c75f73f6d46e,142,2,2024-02-27T12:46:54.785Z,english_413.wav,0,pill,457,34,4,5,français,m,3,0.3,-42.87800999,1.3937681
6131fce64995c75f73f6d46e,142,2,2024-02-27T12:46:54.785Z,english_413.wav,0,pill,457,34,4,5,français,m,4,0.32341667,-63.39385234,0.34165264
6131fce64995c75f73f6d46e,143,2,2024-02-27T12:46:54.785Z,english_176.wav,0,pill,374,34,4,5,français,m,0,0.0,-62.84257592,0.68193044
6131fce64995c75f73f6d46e,143,2,2024-02-27T12:46:54.785Z,english_176.wav,0,pill,374,34,4,5,français,m,1,0.1,86.95506575,0.26950978
6131fce64995c75f73f6d46e,143,2,2024-02-27T12:46:54.785Z,english_176.wav,0,pill,374,34,4,5,français,m,2,0.2,-28.0397163,0.45294908
6131fce64995c75f73f6d46e,143,2,2024-02-27T12:46:54.785Z,english_176.wav,0,pill,374,34,4,5,français,m,3,0.3,-64.80124174,0.91353321
6131fce64995c75f73f6d46e,143,2,2024-02-27T12:46:54.785Z,english_176.wav,0,pill,374,34,4,5,français,m,4,0.32341667,-98.66046935,1.10925614
6131fce64995c75f73f6d46e,144,2,2024-02-27T12:46:54.785Z,english_440.wav,0,pill,1806,34,4,5,français,m,0,0.0,44.70308901,1.51497438
6131fce64995c75f73f6d46e,144,2,2024-02-27T12:46:54.785Z,english_440.wav,0,pill,1806,34,4,5,français,m,1,0.1,-88.0257567,1.05972447
6131fce64995c75f73f6d46e,144,2,2024-02-27T12:46:54.785Z,english_440.wav,0,pill,1806,34,4,5,français,m,2,0.2,1.19893433,0.590820378
6131fce64995c75f73f6d46e,144,2,2024-02-27T12:46:54.785Z,english_440.wav,0,pill,1806,34,4,5,français,m,3,0.3,19.45485395,0.680586803
6131fce64995c75f73f6d46e,144,2,2024-02-27T12:46:54.785Z,english_440.wav,0,pill,1806,34,4,5,français,m,4,0.32341667,13.00088222,0.000618341324
6131fce64995c75f73f6d46e,145,2,2024-02-27T12:46:54.785Z,english_363.wav,0,peel,753,34,4,5,français,m,0,0.0,-8.62246293,0.22304778
6131fce64995c75f73f6d46e,145,2,2024-02-27T12:46:54.785Z,english_363.wav,0,peel,753,34,4,5,français,m,1,0.1,-37.95317313,0.51009023
6131fce64995c75f73f6d46e,145,2,2024-02-27T12:46:54.785Z,english_363.wav,0,peel,753,34,4,5,français,m,2,0.2,-98.56362786,1.67320701
6131fce64995c75f73f6d46e,145,2,2024-02-27T12:46:54.785Z,english_363.wav,0,peel,753,34,4,5,français,m,3,0.3,79.4101663,0.32318158
6131fce64995c75f73f6d46e,145,2,2024-02-27T12:46:54.785Z,english_363.wav,0,peel,753,34,4,5,français,m,4,0.32341667,-19.01593507,1.23606141
6131fce64995c75f73f6d46e,146,2,2024-02-27T12:46:54.785Z,english_237.wav,0,peel,1255,34,4,5,français,m,0,0.0,-40.35335157,0.42178982
6131fce64995c75f73f6d46e,146,2,2024-02-27T12:46:54.785Z,english_237.wav,0,peel,1255,34,4,5,français,m,1,0.1,42.86374565,0.6060796
6131fce64995c75f73f6d46e,146,2,2024-02-27T12:46:54.785Z,english_237.wav,0,peel,1255,34,4,5,français,m,2,0.2,7.79480372,0.58312984
6131fce64995c75f73f6d46e,146,2,2024-02-27T12:46:54.785Z,english_237.wav,0,peel,1255,34,4,5,français,m,3,0.3,-48.50613844,1.50499267
6131fce64995c75f73f6d46e,146,2,2024-02-27T12:46:54.785Z,english_237.wav,0,peel,1255,34,4,5,français,m,4,0.32341667,17.78174719,1.72211243
6131fce64995c75f73f6d46e,147,2,2024-02-27T12:46:54.785Z,english_580.wav,0,pill,456,34,4,5,français,m,0,0.0,92.13406767,1.93694744
6131fce64995c75f73f6d46e,147,2,2024-02-27T12:46:54.785Z,english_580.wav,0,pill,456,34,4,5,français,m,1,0.1,-85.58685866,0.28773753
6131fce64995c75f73f6d46e,147,2,2024-02-27T12:46:54.785Z,english_580.wav,0,pill,456,34,4,5,français,m,2,0.2,57.10945482,0.86433335
6131fce64995c75f73f6d46e,147,2,2024-02-27T12:46:54.785Z,english_580.wav,0,pill,456,34,4,5,français,m,3,0.3,32.92004132,0.96651265
6131fce64995c75f73f6d46e,147,2,2024-02-27T12:46:54.785Z,english_580.wav,0,pill,456,34,4,5,français,m,4,0.32341667,52.08708517,1.25003658
6131fce64995c75f73f6d46e,148,2,2024-02-27T12:46:54.785Z,english_876.wav,0,pill,1043,34,4,5,français,m,0,0.0,-20.36884991,0.97958319
6131fce64995c75f73f6d46e,148,2,2024-02-27T12:46:54.785Z,english_876.wav,0,pill,1043,34,4,5,français,m,1,0.1,-12.16725052,0.93484439
6131fce64995c75f73f6d46e,148,2,2024-02-27T12:46:54.785Z,english_876.wav,0,pill,1043,34,4,5,français,m,2,0.2,-26.42868614,0.43422731
6131fce64995c75f73f6d46e,148,2,2024-02-27T12:46:54.785Z,english_876.wav,0,pill,1043,34,4,5,français,m,3,0.3,-15.16942384,0.12359811
6131fce64995c75f73f6d46e,148,2,2024-02-27T12:46:54.785Z,english_876.wav,0,pill,1043,34,4,5,français,m,4,0.32341667,-52.65446315,1.31629037
6131fce64995c75f73f6d46e,149,2,2024-02-27T12:46:54.785Z,english_545.wav,0,peel,695,34,4,5,français,m,0,0.0,42.99494118,1.37740168
6131fce64995c75f73f6d46e,149,2,2024-02-27T12:46:54.785Z,english_545.wav,0,peel,695,34,4,5,français,m,1,0.1,72.53025652,0.91972232
6131fce64995c75f73f6d46e,149,2,2024-02-27T12:46:54.785Z,english_545.wav,0,peel,695,34,4,5,français,m,2,0.2,4.60849844,0.73226975
6131fce64995c75f73f6d46e,149,2,2024-02-27T12:46:54.785Z,english_545.wav,0,peel,695,34,4,5,français,m,3,0.3,9.93291538,1.52934768
6131fce64995c75f73f6d46e,149,2,2024-02-27T12:46:54.785Z,english_545.wav,0,peel,695,34,4,5,français,m,4,0.32341667,-11.25611892,0.18478607
6131fce64995c75f73f6d46e,150,3,2024-02-27T12:46:54.785Z,english_858.wav,0,peel,1381,34,4,5,français,m,0,0.0,45.12570132,0.50395823
6131fce64995c75f73f6d46e,150,3,2024-02-27T12:46:54.785Z,english_858.wav,0,peel,1381,34,4,5,français,m,1,0.1,-46.71359417,1.50658612
6131fce64995c75f73f6d46e,150,3,2024-02-27T12:46:54.785Z,english_858.wav,0,peel,1381,34,4,5,français,m,2,0.2,-60.32464978,0.86887416
6131fce64995c75f73f6d46e,150,3,2024-02-27T12:46:54.785Z,english_858.wav,0,peel,1381,34,4,5,français,m,3,0.3,-70.46241098,0.20520469
6131fce64995c75f73f6d46e,150,3,2024-02-27T12:46:54.785Z,english_858.wav,0,peel,1381,34,4,5,français,m,4,0.32341667,76.51169453,1.05885662
6131fce64995c75f73f6d46e,151,3,2024-02-27T12:46:54.785Z,english_543.wav,0,pill,339,34,4,5,français,m,0,0.0,13.74009622,0.63900578
6131fce64995c75f73f6d46e,151,3,2024-02-27T12:46:54.785Z,english_543.wav,0,pill,339,34,4,5,français,m,1,0.1,51.80972721,1.6206981
6131fce64995c75f73f6d46e,151,3,2024-02-27T12:46:54.785Z,english_543.wav,0,pill,339,34,4,5,français,m,2,0.2,86.3964352,0.03304675
6131fce64995c75f73f6d46e,151,3,2024-02-27T12:46:54.785Z,english_543.wav,0,pill,339,34,4,5,français,m,3,0.3,-66.39783761,1.7049324
6131fce64995c75f73f6d46e,151,3,2024-02-27T12:46:54.785Z,english_543.wav,0,pill,339,34,4,5,français,m,4,0.32341667,31.11863834,1.46507556
6131fce64995c75f73f6d46e,152,3,2024-02-27T12:46:54.785Z,english_702.wav,0,pill,632,34,4,5,français,m,0,0.0,-19.6614881,1.13820402
