subj,trial,block,date,stim,stim_order,response,rt,age,english,french,language,sex,param_index,segment,pitch,stretch
61325af0137e3f0aa5b2ad59,0,0,2024-02-27T11:59:47.724Z,english_353.wav,0,pill,2863,34,5,5,français,f,0,0.0,51.44050484,0.16518243
61325af0137e3f0aa5b2ad59,0,0,2024-02-27T11:59:47.724Z,english_353.wav,0,pill,2863,34,5,5,français,f,1,0.1,-8.32491594,1.32533476
61325af0137e3f0aa5b2ad59,0,0,2024-02-27T11:59:47.724Z,english_353.wav,0,pill,2863,34,5,5,français,f,2,0.2,-53.32966552,0.41923861
61325af0137e3f0aa5b2ad59,0,0,2024-02-27T11:59:47.724Z,english_353.wav,0,pill,2863,34,5,5,français,f,3,0.3,68.29246543,1.87374553
61325af0137e3f0aa5b2ad59,0,0,2024-02-27T11:59:47.724Z,english_353.wav,0,pill,2863,34,5,5,français,f,4,0.32341667,-32.22441747,1.13071195
61325af0137e3f0aa5b2ad59,1,0,2024-02-27T11:59:47.724Z,english_440.wav,0,peel,1743,34,5,5,français,f,0,0.0,44.70308901,1.51497438
61325af0137e3f0aa5b2ad59,1,0,2024-02-27T11:59:47.724Z,english_440.wav,0,peel,1743,34,5,5,français,f,1,0.1,-88.0257567,1.05972447
61325af0137e3f0aa5b2ad59,1,0,2024-02-27T11:59:47.724Z,english_440.wav,0,peel,1743,34,5,5,français,f,2,0.2,1.19893433,0.590820378
61325af0137e3f0aa5b2ad59,1,0,2024-02-27T11:59:47.724Z,english_440.wav,0,peel,1743,34,5,5,français,f,3,0.3,19.45485395,0.680586803
61325af0137e3f0aa5b2ad59,1,0,2024-02-27T11:59:47.724Z,english_440.wav,0,peel,1743,34,5,5,français,f,4,0.32341667,13.00088222,0.000618341324
61325af0137e3f0aa5b2ad59,2,0,2024-02-27T11:59:47.724Z,english_75.wav,0,peel,957,34,5,5,français,f,0,0.0,-9.18091647,0.92930856
61325af0137e3f0aa5b2ad59,2,0,2024-02-27T11:59:47.724Z,english_75.wav,0,peel,957,34,5,5,français,f,1,0.1,-62.02164907,1.94000482
61325af0137e3f0aa5b2ad59,2,0,2024-02-27T11:59:47.724Z,english_75.wav,0,peel,957,34,5,5,français,f,2,0.2,-12.90623207,1.2183621
61325af0137e3f0aa5b2ad59,2,0,2024-02-27T11:59:47.724Z,english_75.wav,0,peel,957,34,5,5,français,f,3,0.3,15.17089036,0.47349695
61325af0137e3f0aa5b2ad59,2,0,2024-02-27T11:59:47.724Z,english_75.wav,0,peel,957,34,5,5,français,f,4,0.32341667,10.89352922,1.02561006
61325af0137e3f0aa5b2ad59,3,0,2024-02-27T11:59:47.724Z,english_757.wav,0,peel,1958,34,5,5,français,f,0,0.0,-71.37581006,0.57944866
61325af0137e3f0aa5b2ad59,3,0,2024-02-27T11:59:47.724Z,english_757.wav,0,peel,1958,34,5,5,français,f,1,0.1,-34.89028362,1.76833087
61325af0137e3f0aa5b2ad59,3,0,2024-02-27T11:59:47.724Z,english_757.wav,0,peel,1958,34,5,5,français,f,2,0.2,97.72444176,0.43040584
61325af0137e3f0aa5b2ad59,3,0,2024-02-27T11:59:47.724Z,english_757.wav,0,peel,1958,34,5,5,français,f,3,0.3,8.64322444,1.84780211
61325af0137e3f0aa5b2ad59,3,0,2024-02-27T11:59:47.724Z,english_757.wav,0,peel,1958,34,5,5,français,f,4,0.32341667,-59.15215987,0.21714226
61325af0137e3f0aa5b2ad59,4,0,2024-02-27T11:59:47.724Z,english_303.wav,0,peel,3034,34,5,5,français,f,0,0.0,67.00540241,1.22520816
61325af0137e3f0aa5b2ad59,4,0,2024-02-27T11:59:47.724Z,english_303.wav,0,peel,3034,34,5,5,français,f,1,0.1,32.95821842,1.22732479
61325af0137e3f0aa5b2ad59,4,0,2024-02-27T11:59:47.724Z,english_303.wav,0,peel,3034,34,5,5,français,f,2,0.2,-23.67517146,0.54923068
61325af0137e3f0aa5b2ad59,4,0,2024-02-27T11:59:47.724Z,english_303.wav,0,peel,3034,34,5,5,français,f,3,0.3,-66.94926695,0.8977578
61325af0137e3f0aa5b2ad59,4,0,2024-02-27T11:59:47.724Z,english_303.wav,0,peel,3034,34,5,5,français,f,4,0.32341667,65.71723135,1.41807679
61325af0137e3f0aa5b2ad59,5,0,2024-02-27T11:59:47.724Z,english_683.wav,0,peel,1662,34,5,5,français,f,0,0.0,-73.37543508,1.70409633
61325af0137e3f0aa5b2ad59,5,0,2024-02-27T11:59:47.724Z,english_683.wav,0,peel,1662,34,5,5,français,f,1,0.1,66.4080647,1.25556383
61325af0137e3f0aa5b2ad59,5,0,2024-02-27T11:59:47.724Z,english_683.wav,0,peel,1662,34,5,5,français,f,2,0.2,46.46812351,0.87554738
61325af0137e3f0aa5b2ad59,5,0,2024-02-27T11:59:47.724Z,english_683.wav,0,peel,1662,34,5,5,français,f,3,0.3,71.67755016,1.32863005
61325af0137e3f0aa5b2ad59,5,0,2024-02-27T11:59:47.724Z,english_683.wav,0,peel,1662,34,5,5,français,f,4,0.32341667,2.86253031,0.20364682
61325af0137e3f0aa5b2ad59,6,0,2024-02-27T11:59:47.724Z,english_38.wav,0,peel,1369,34,5,5,français,f,0,0.0,-2.78484508,0.45448836
61325af0137e3f0aa5b2ad59,6,0,2024-02-27T11:59:47.724Z,english_38.wav,0,peel,1369,34,5,5,français,f,1,0.1,-57.68912839,0.86252605
61325af0137e3f0aa5b2ad59,6,0,2024-02-27T11:59:47.724Z,english_38.wav,0,peel,1369,34,5,5,français,f,2,0.2,-17.27242754,1.61904865
61325af0137e3f0aa5b2ad59,6,0,2024-02-27T11:59:47.724Z,english_38.wav,0,peel,1369,34,5,5,français,f,3,0.3,-2.64514482,1.39130822
61325af0137e3f0aa5b2ad59,6,0,2024-02-27T11:59:47.724Z,english_38.wav,0,peel,1369,34,5,5,français,f,4,0.32341667,55.14373267,1.59066599
61325af0137e3f0aa5b2ad59,7,0,2024-02-27T11:59:47.724Z,english_366.wav,0,peel,1758,34,5,5,français,f,0,0.0,30.08929792,0.87054072
61325af0137e3f0aa5b2ad59,7,0,2024-02-27T11:59:47.724Z,english_366.wav,0,peel,1758,34,5,5,français,f,1,0.1,-17.9139155,0.34658018
61325af0137e3f0aa5b2ad59,7,0,2024-02-27T11:59:47.724Z,english_366.wav,0,peel,1758,34,5,5,français,f,2,0.2,-66.75779592,0.49970414
61325af0137e3f0aa5b2ad59,7,0,2024-02-27T11:59:47.724Z,english_366.wav,0,peel,1758,34,5,5,français,f,3,0.3,77.64459909,1.94720887
61325af0137e3f0aa5b2ad59,7,0,2024-02-27T11:59:47.724Z,english_366.wav,0,peel,1758,34,5,5,français,f,4,0.32341667,72.64294537,1.76390144
61325af0137e3f0aa5b2ad59,8,0,2024-02-27T11:59:47.724Z,english_352.wav,0,peel,1599,34,5,5,français,f,0,0.0,71.64354449,0.18312459
61325af0137e3f0aa5b2ad59,8,0,2024-02-27T11:59:47.724Z,english_352.wav,0,peel,1599,34,5,5,français,f,1,0.1,53.2516906,1.19991438
61325af0137e3f0aa5b2ad59,8,0,2024-02-27T11:59:47.724Z,english_352.wav,0,peel,1599,34,5,5,français,f,2,0.2,28.90726554,1.21095973
61325af0137e3f0aa5b2ad59,8,0,2024-02-27T11:59:47.724Z,english_352.wav,0,peel,1599,34,5,5,français,f,3,0.3,-49.8940387,1.61067418
61325af0137e3f0aa5b2ad59,8,0,2024-02-27T11:59:47.724Z,english_352.wav,0,peel,1599,34,5,5,français,f,4,0.32341667,21.76832357,1.26376439
61325af0137e3f0aa5b2ad59,9,0,2024-02-27T11:59:47.724Z,english_166.wav,0,peel,2281,34,5,5,français,f,0,0.0,37.27670025,1.42766663
61325af0137e3f0aa5b2ad59,9,0,2024-02-27T11:59:47.724Z,english_166.wav,0,peel,2281,34,5,5,français,f,1,0.1,34.38847046,0.72731767
61325af0137e3f0aa5b2ad59,9,0,2024-02-27T11:59:47.724Z,english_166.wav,0,peel,2281,34,5,5,français,f,2,0.2,49.91842175,1.80608275
61325af0137e3f0aa5b2ad59,9,0,2024-02-27T11:59:47.724Z,english_166.wav,0,peel,2281,34,5,5,français,f,3,0.3,56.9541748,1.91598421
61325af0137e3f0aa5b2ad59,9,0,2024-02-27T11:59:47.724Z,english_166.wav,0,peel,2281,34,5,5,français,f,4,0.32341667,10.97290623,1.21084105
61325af0137e3f0aa5b2ad59,10,0,2024-02-27T11:59:47.724Z,english_296.wav,0,peel,2604,34,5,5,français,f,0,0.0,-4.92142852,1.99305172
61325af0137e3f0aa5b2ad59,10,0,2024-02-27T11:59:47.724Z,english_296.wav,0,peel,2604,34,5,5,français,f,1,0.1,-5.74196289,0.92633133
61325af0137e3f0aa5b2ad59,10,0,2024-02-27T11:59:47.724Z,english_296.wav,0,peel,2604,34,5,5,français,f,2,0.2,76.26647078,0.44879969
61325af0137e3f0aa5b2ad59,10,0,2024-02-27T11:59:47.724Z,english_296.wav,0,peel,2604,34,5,5,français,f,3,0.3,-62.74030654,1.47417428
61325af0137e3f0aa5b2ad59,10,0,2024-02-27T11:59:47.724Z,english_296.wav,0,peel,2604,34,5,5,français,f,4,0.32341667,-60.661992,1.05571007
61325af0137e3f0aa5b2ad59,11,0,2024-02-27T11:59:47.724Z,english_417.wav,0,peel,3431,34,5,5,français,f,0,0.0,-17.25972862,1.29903721
61325af0137e3f0aa5b2ad59,11,0,2024-02-27T11:59:47.724Z,english_417.wav,0,peel,3431,34,5,5,français,f,1,0.1,72.11413149,0.87773419
61325af0137e3f0aa5b2ad59,11,0,2024-02-27T11:59:47.724Z,english_417.wav,0,peel,3431,34,5,5,français,f,2,0.2,83.70212603,1.45838331
61325af0137e3f0aa5b2ad59,11,0,2024-02-27T11:59:47.724Z,english_417.wav,0,peel,3431,34,5,5,français,f,3,0.3,67.19530478,0.90979472
61325af0137e3f0aa5b2ad59,11,0,2024-02-27T11:59:47.724Z,english_417.wav,0,peel,3431,34,5,5,français,f,4,0.32341667,29.72084594,0.1224986
61325af0137e3f0aa5b2ad59,12,0,2024-02-27T11:59:47.724Z,english_495.wav,0,pill,943,34,5,5,français,f,0,0.0,-5.58861003,1.32978923
61325af0137e3f0aa5b2ad59,12,0,2024-02-27T11:59:47.724Z,english_495.wav,0,pill,943,34,5,5,français,f,1,0.1,8.95176437,0.81778757
61325af0137e3f0aa5b2ad59,12,0,2024-02-27T11:59:47.724Z,english_495.wav,0,pill,943,34,5,5,français,f,2,0.2,39.42206983,0.66481361
61325af0137e3f0aa5b2ad59,12,0,2024-02-27T11:59:47.724Z,english_495.wav,0,pill,943,34,5,5,français,f,3,0.3,-84.38976819,0.35850052
61325af0137e3f0aa5b2ad59,12,0,2024-02-27T11:59:47.724Z,english_495.wav,0,pill,943,34,5,5,français,f,4,0.32341667,-2.90431636,0.23899864
61325af0137e3f0aa5b2ad59,13,0,2024-02-27T11:59:47.724Z,english_124.wav,0,pill,2722,34,5,5,français,f,0,0.0,-16.92140416,1.25482105
61325af0137e3f0aa5b2ad59,13,0,2024-02-27T11:59:47.724Z,english_124.wav,0,pill,2722,34,5,5,français,f,1,0.1,97.41289205,1.97830042
61325af0137e3f0aa5b2ad59,13,0,2024-02-27T11:59:47.724Z,english_124.wav,0,pill,2722,34,5,5,français,f,2,0.2,-78.49167412,1.09846955
61325af0137e3f0aa5b2ad59,13,0,2024-02-27T11:59:47.724Z,english_124.wav,0,pill,2722,34,5,5,français,f,3,0.3,-3.48618202,0.36540564
61325af0137e3f0aa5b2ad59,13,0,2024-02-27T11:59:47.724Z,english_124.wav,0,pill,2722,34,5,5,français,f,4,0.32341667,5.32047068,0.96325389
61325af0137e3f0aa5b2ad59,14,0,2024-02-27T11:59:47.724Z,english_979.wav,0,pill,1678,34,5,5,français,f,0,0.0,-1.00654814,1.61411081
61325af0137e3f0aa5b2ad59,14,0,2024-02-27T11:59:47.724Z,english_979.wav,0,pill,1678,34,5,5,français,f,1,0.1,18.39835707,1.30464512
61325af0137e3f0aa5b2ad59,14,0,2024-02-27T11:59:47.724Z,english_979.wav,0,pill,1678,34,5,5,français,f,2,0.2,-42.91789413,0.93120215
61325af0137e3f0aa5b2ad59,14,0,2024-02-27T11:59:47.724Z,english_979.wav,0,pill,1678,34,5,5,français,f,3,0.3,-58.29527223,0.87145212
61325af0137e3f0aa5b2ad59,14,0,2024-02-27T11:59:47.724Z,english_979.wav,0,pill,1678,34,5,5,français,f,4,0.32341667,86.14740424,1.17332389
61325af0137e3f0aa5b2ad59,15,0,2024-02-27T11:59:47.724Z,english_765.wav,0,pill,2017,34,5,5,français,f,0,0.0,-52.71695997,0.24697616
61325af0137e3f0aa5b2ad59,15,0,2024-02-27T11:59:47.724Z,english_765.wav,0,pill,2017,34,5,5,français,f,1,0.1,-0.72548599,1.34458244
61325af0137e3f0aa5b2ad59,15,0,2024-02-27T11:59:47.724Z,english_765.wav,0,pill,2017,34,5,5,français,f,2,0.2,-25.46106624,0.2833524
61325af0137e3f0aa5b2ad59,15,0,2024-02-27T11:59:47.724Z,english_765.wav,0,pill,2017,34,5,5,français,f,3,0.3,-15.36834083,0.99517128
61325af0137e3f0aa5b2ad59,15,0,2024-02-27T11:59:47.724Z,english_765.wav,0,pill,2017,34,5,5,français,f,4,0.32341667,-34.08212533,0.81265208
61325af0137e3f0aa5b2ad59,16,0,2024-02-27T11:59:47.724Z,english_287.wav,0,peel,2894,34,5,5,français,f,0,0.0,-5.71925808,1.04112926
61325af0137e3f0aa5b2ad59,16,0,2024-02-27T11:59:47.724Z,english_287.wav,0,peel,2894,34,5,5,français,f,1,0.1,-94.78041007,0.35149142
61325af0137e3f0aa5b2ad59,16,0,2024-02-27T11:59:47.724Z,english_287.wav,0,peel,2894,34,5,5,français,f,2,0.2,8.34641368,0.86781598
61325af0137e3f0aa5b2ad59,16,0,2024-02-27T11:59:47.724Z,english_287.wav,0,peel,2894,34,5,5,français,f,3,0.3,36.34893025,1.897904
61325af0137e3f0aa5b2ad59,16,0,2024-02-27T11:59:47.724Z,english_287.wav,0,peel,2894,34,5,5,français,f,4,0.32341667,-22.47689594,0.5607403
61325af0137e3f0aa5b2ad59,17,0,2024-02-27T11:59:47.724Z,english_26.wav,0,peel,1758,34,5,5,français,f,0,0.0,54.38966875,1.86679487
61325af0137e3f0aa5b2ad59,17,0,2024-02-27T11:59:47.724Z,english_26.wav,0,peel,1758,34,5,5,français,f,1,0.1,0.3460174,0.79762949
61325af0137e3f0aa5b2ad59,17,0,2024-02-27T11:59:47.724Z,english_26.wav,0,peel,1758,34,5,5,français,f,2,0.2,-72.33258957,0.93682052
61325af0137e3f0aa5b2ad59,17,0,2024-02-27T11:59:47.724Z,english_26.wav,0,peel,1758,34,5,5,français,f,3,0.3,67.09142092,1.42469209
61325af0137e3f0aa5b2ad59,17,0,2024-02-27T11:59:47.724Z,english_26.wav,0,peel,1758,34,5,5,français,f,4,0.32341667,16.00565239,1.17807545
61325af0137e3f0aa5b2ad59,18,0,2024-02-27T11:59:47.724Z,english_489.wav,0,peel,1185,34,5,5,français,f,0,0.0,5.7057461,0.60142671
61325af0137e3f0aa5b2ad59,18,0,2024-02-27T11:59:47.724Z,english_489.wav,0,peel,1185,34,5,5,français,f,1,0.1,-88.87009038,1.38499056
61325af0137e3f0aa5b2ad59,18,0,2024-02-27T11:59:47.724Z,english_489.wav,0,peel,1185,34,5,5,français,f,2,0.2,73.69789316,0.38073994
61325af0137e3f0aa5b2ad59,18,0,2024-02-27T11:59:47.724Z,english_489.wav,0,peel,1185,34,5,5,français,f,3,0.3,8.66804208,0.90212706
61325af0137e3f0aa5b2ad59,18,0,2024-02-27T11:59:47.724Z,english_489.wav,0,peel,1185,34,5,5,français,f,4,0.32341667,-19.53009002,1.00729778
61325af0137e3f0aa5b2ad59,19,0,2024-02-27T11:59:47.724Z,english_995.wav,0,peel,1584,34,5,5,français,f,0,0.0,49.33707883,0.89732458
61325af0137e3f0aa5b2ad59,19,0,2024-02-27T11:59:47.724Z,english_995.wav,0,peel,1584,34,5,5,français,f,1,0.1,54.78730957,0.49662083
61325af0137e3f0aa5b2ad59,19,0,2024-02-27T11:59:47.724Z,english_995.wav,0,peel,1584,34,5,5,français,f,2,0.2,-5.99414072,0.83265132
61325af0137e3f0aa5b2ad59,19,0,2024-02-27T11:59:47.724Z,english_995.wav,0,peel,1584,34,5,5,français,f,3,0.3,26.8687238,1.32035917
61325af0137e3f0aa5b2ad59,19,0,2024-02-27T11:59:47.724Z,english_995.wav,0,peel,1584,34,5,5,français,f,4,0.32341667,38.3348194,1.99869744
61325af0137e3f0aa5b2ad59,20,0,2024-02-27T11:59:47.724Z,english_120.wav,0,pill,678,34,5,5,français,f,0,0.0,55.2306484,0.43658612
61325af0137e3f0aa5b2ad59,20,0,2024-02-27T11:59:47.724Z,english_120.wav,0,pill,678,34,5,5,français,f,1,0.1,82.00530973,0.03999251
61325af0137e3f0aa5b2ad59,20,0,2024-02-27T11:59:47.724Z,english_120.wav,0,pill,678,34,5,5,français,f,2,0.2,-5.84837635,0.80827096
61325af0137e3f0aa5b2ad59,20,0,2024-02-27T11:59:47.724Z,english_120.wav,0,pill,678,34,5,5,français,f,3,0.3,66.20489525,1.78669421
61325af0137e3f0aa5b2ad59,20,0,2024-02-27T11:59:47.724Z,english_120.wav,0,pill,678,34,5,5,français,f,4,0.32341667,-73.22302923,1.04341795
61325af0137e3f0aa5b2ad59,21,0,2024-02-27T11:59:47.724Z,english_243.wav,0,pill,883,34,5,5,français,f,0,0.0,-74.41503345,0.65151457
61325af0137e3f0aa5b2ad59,21,0,2024-02-27T11:59:47.724Z,english_243.wav,0,pill,883,34,5,5,français,f,1,0.1,-16.65530333,0.20623253
61325af0137e3f0aa5b2ad59,21,0,2024-02-27T11:59:47.724Z,english_243.wav,0,pill,883,34,5,5,français,f,2,0.2,-1.41224798,0.87153721
61325af0137e3f0aa5b2ad59,21,0,2024-02-27T11:59:47.724Z,english_243.wav,0,pill,883,34,5,5,français,f,3,0.3,37.30419975,0.28583671
61325af0137e3f0aa5b2ad59,21,0,2024-02-27T11:59:47.724Z,english_243.wav,0,pill,883,34,5,5,français,f,4,0.32341667,-3.40378668,1.90700275
61325af0137e3f0aa5b2ad59,22,0,2024-02-27T11:59:47.724Z,english_637.wav,0,peel,1762,34,5,5,français,f,0,0.0,-1.71458324,1.21739028
61325af0137e3f0aa5b2ad59,22,0,2024-02-27T11:59:47.724Z,english_637.wav,0,peel,1762,34,5,5,français,f,1,0.1,-8.03758275,0.51882016
61325af0137e3f0aa5b2ad59,22,0,2024-02-27T11:59:47.724Z,english_637.wav,0,peel,1762,34,5,5,français,f,2,0.2,-8.49550443,1.63519413
61325af0137e3f0aa5b2ad59,22,0,2024-02-27T11:59:47.724Z,english_637.wav,0,peel,1762,34,5,5,français,f,3,0.3,-8.27727969,1.34863813
61325af0137e3f0aa5b2ad59,22,0,2024-02-27T11:59:47.724Z,english_637.wav,0,peel,1762,34,5,5,français,f,4,0.32341667,64.42471467,1.93003029
61325af0137e3f0aa5b2ad59,23,0,2024-02-27T11:59:47.724Z,english_324.wav,0,pill,1736,34,5,5,français,f,0,0.0,49.07155908,0.10864525
61325af0137e3f0aa5b2ad59,23,0,2024-02-27T11:59:47.724Z,english_324.wav,0,pill,1736,34,5,5,français,f,1,0.1,-58.77252084,1.61132735
61325af0137e3f0aa5b2ad59,23,0,2024-02-27T11:59:47.724Z,english_324.wav,0,pill,1736,34,5,5,français,f,2,0.2,-55.40155542,0.60180616
61325af0137e3f0aa5b2ad59,23,0,2024-02-27T11:59:47.724Z,english_324.wav,0,pill,1736,34,5,5,français,f,3,0.3,19.02224292,0.93555132
61325af0137e3f0aa5b2ad59,23,0,2024-02-27T11:59:47.724Z,english_324.wav,0,pill,1736,34,5,5,français,f,4,0.32341667,21.20382854,0.34417591
61325af0137e3f0aa5b2ad59,24,0,2024-02-27T11:59:47.724Z,english_494.wav,0,pill,2838,34,5,5,français,f,0,0.0,-3.60210196,0.92014098
61325af0137e3f0aa5b2ad59,24,0,2024-02-27T11:59:47.724Z,english_494.wav,0,pill,2838,34,5,5,français,f,1,0.1,-0.0120609558,1.08763174
61325af0137e3f0aa5b2ad59,24,0,2024-02-27T11:59:47.724Z,english_494.wav,0,pill,2838,34,5,5,français,f,2,0.2,-75.2550513,0.29239621
61325af0137e3f0aa5b2ad59,24,0,2024-02-27T11:59:47.724Z,english_494.wav,0,pill,2838,34,5,5,français,f,3,0.3,39.6800445,0.26357805
61325af0137e3f0aa5b2ad59,24,0,2024-02-27T11:59:47.724Z,english_494.wav,0,pill,2838,34,5,5,français,f,4,0.323416667,78.1977592,1.67878037
61325af0137e3f0aa5b2ad59,25,0,2024-02-27T11:59:47.724Z,english_801.wav,0,peel,1120,34,5,5,français,f,0,0.0,66.50571345,0.19311528
61325af0137e3f0aa5b2ad59,25,0,2024-02-27T11:59:47.724Z,english_801.wav,0,peel,1120,34,5,5,français,f,1,0.1,-53.03260979,0.48683601
61325af0137e3f0aa5b2ad59,25,0,2024-02-27T11:59:47.724Z,english_801.wav,0,peel,1120,34,5,5,français,f,2,0.2,-3.89459646,1.16293258
61325af0137e3f0aa5b2ad59,25,0,2024-02-27T11:59:47.724Z,english_801.wav,0,peel,1120,34,5,5,français,f,3,0.3,8.32951864,1.55734707
61325af0137e3f0aa5b2ad59,25,0,2024-02-27T11:59:47.724Z,english_801.wav,0,peel,1120,34,5,5,français,f,4,0.32341667,-87.46806733,0.63471681
61325af0137e3f0aa5b2ad59,26,0,2024-02-27T11:59:47.724Z,english_227.wav,0,pill,2939,34,5,5,français,f,0,0.0,-56.39318384,1.7541365
61325af0137e3f0aa5b2ad59,26,0,2024-02-27T11:59:47.724Z,english_227.wav,0,pill,2939,34,5,5,français,f,1,0.1,90.87442764,0.66011804
61325af0137e3f0aa5b2ad59,26,0,2024-02-27T11:59:47.724Z,english_227.wav,0,pill,2939,34,5,5,français,f,2,0.2,-39.94082392,0.16454365
61325af0137e3f0aa5b2ad59,26,0,2024-02-27T11:59:47.724Z,english_227.wav,0,pill,2939,34,5,5,français,f,3,0.3,31.5093861,0.63744506
61325af0137e3f0aa5b2ad59,26,0,2024-02-27T11:59:47.724Z,english_227.wav,0,pill,2939,34,5,5,français,f,4,0.32341667,70.38847456,0.55874538
61325af0137e3f0aa5b2ad59,27,0,2024-02-27T11:59:47.724Z,english_286.wav,0,peel,1467,34,5,5,français,f,0,0.0,-94.9495111,0.49849168
61325af0137e3f0aa5b2ad59,27,0,2024-02-27T11:59:47.724Z,english_286.wav,0,peel,1467,34,5,5,français,f,1,0.1,-25.05656786,1.27672914
61325af0137e3f0aa5b2ad59,27,0,2024-02-27T11:59:47.724Z,english_286.wav,0,peel,1467,34,5,5,français,f,2,0.2,59.61150177,0.14515846
61325af0137e3f0aa5b2ad59,27,0,2024-02-27T11:59:47.724Z,english_286.wav,0,peel,1467,34,5,5,français,f,3,0.3,-32.97544875,1.67164973
61325af0137e3f0aa5b2ad59,27,0,2024-02-27T11:59:47.724Z,english_286.wav,0,peel,1467,34,5,5,français,f,4,0.32341667,7.58095242,0.86492177
61325af0137e3f0aa5b2ad59,28,0,2024-02-27T11:59:47.724Z,english_703.wav,0,peel,2198,34,5,5,français,f,0,0.0,21.25560127,1.22587136
61325af0137e3f0aa5b2ad59,28,0,2024-02-27T11:59:47.724Z,english_703.wav,0,peel,2198,34,5,5,français,f,1,0.1,-5.61566417,1.28752652
61325af0137e3f0aa5b2ad59,28,0,2024-02-27T11:59:47.724Z,english_703.wav,0,peel,2198,34,5,5,français,f,2,0.2,-88.15973778,1.61643937
61325af0137e3f0aa5b2ad59,28,0,2024-02-27T11:59:47.724Z,english_703.wav,0,peel,2198,34,5,5,français,f,3,0.3,39.86499493,1.32560109
61325af0137e3f0aa5b2ad59,28,0,2024-02-27T11:59:47.724Z,english_703.wav,0,peel,2198,34,5,5,français,f,4,0.32341667,64.67338156,0.74206522
61325af0137e3f0aa5b2ad59,29,0,2024-02-27T11:59:47.724Z,english_572.wav,0,pill,864,34,5,5,français,f,0,0.0,-16.16189062,1.82210005
61325af0137e3f0aa5b2ad59,29,0,2024-02-27T11:59:47.724Z,english_572.wav,0,pill,864,34,5,5,français,f,1,0.1,-40.8511413,0.80249033
61325af0137e3f0aa5b2ad59,29,0,2024-02-27T11:59:47.724Z,english_572.wav,0,pill,864,34,5,5,français,f,2,0.2,-77.3747243,0.69959732
61325af0137e3f0aa5b2ad59,29,0,2024-02-27T11:59:47.724Z,english_572.wav,0,pill,864,34,5,5,français,f,3,0.3,87.62803369,0.43311894
61325af0137e3f0aa5b2ad59,29,0,2024-02-27T11:59:47.724Z,english_572.wav,0,pill,864,34,5,5,français,f,4,0.32341667,81.6005998,1.25204325
61325af0137e3f0aa5b2ad59,30,0,2024-02-27T11:59:47.724Z,english_887.wav,0,pill,921,34,5,5,français,f,0,0.0,21.36154006,0.58574694
61325af0137e3f0aa5b2ad59,30,0,2024-02-27T11:59:47.724Z,english_887.wav,0,pill,921,34,5,5,français,f,1,0.1,-21.46213737,0.48413962
61325af0137e3f0aa5b2ad59,30,0,2024-02-27T11:59:47.724Z,english_887.wav,0,pill,921,34,5,5,français,f,2,0.2,-45.53850124,1.16923549
61325af0137e3f0aa5b2ad59,30,0,2024-02-27T11:59:47.724Z,english_887.wav,0,pill,921,34,5,5,français,f,3,0.3,-75.36110743,1.46190157
61325af0137e3f0aa5b2ad59,30,0,2024-02-27T11:59:47.724Z,english_887.wav,0,pill,921,34,5,5,français,f,4,0.32341667,-96.67184991,0.00789239
61325af0137e3f0aa5b2ad59,31,0,2024-02-27T11:59:47.724Z,english_397.wav,0,pill,1058,34,5,5,français,f,0,0.0,89.67962381,0.42719638
61325af0137e3f0aa5b2ad59,31,0,2024-02-27T11:59:47.724Z,english_397.wav,0,pill,1058,34,5,5,français,f,1,0.1,-80.29722345,0.89466904
61325af0137e3f0aa5b2ad59,31,0,2024-02-27T11:59:47.724Z,english_397.wav,0,pill,1058,34,5,5,français,f,2,0.2,60.53564011,0.56174568
61325af0137e3f0aa5b2ad59,31,0,2024-02-27T11:59:47.724Z,english_397.wav,0,pill,1058,34,5,5,français,f,3,0.3,9.94565725,0.1553242
61325af0137e3f0aa5b2ad59,31,0,2024-02-27T11:59:47.724Z,english_397.wav,0,pill,1058,34,5,5,français,f,4,0.32341667,0.1319882,1.89079641
61325af0137e3f0aa5b2ad59,32,0,2024-02-27T11:59:47.724Z,english_562.wav,0,pill,1209,34,5,5,français,f,0,0.0,-40.22672309,0.64031882
61325af0137e3f0aa5b2ad59,32,0,2024-02-27T11:59:47.724Z,english_562.wav,0,pill,1209,34,5,5,français,f,1,0.1,77.961849,0.7637006
61325af0137e3f0aa5b2ad59,32,0,2024-02-27T11:59:47.724Z,english_562.wav,0,pill,1209,34,5,5,français,f,2,0.2,25.52463525,0.87632482
61325af0137e3f0aa5b2ad59,32,0,2024-02-27T11:59:47.724Z,english_562.wav,0,pill,1209,34,5,5,français,f,3,0.3,84.62788358,0.98972612
61325af0137e3f0aa5b2ad59,32,0,2024-02-27T11:59:47.724Z,english_562.wav,0,pill,1209,34,5,5,français,f,4,0.32341667,-53.67427145,0.74010285
61325af0137e3f0aa5b2ad59,33,0,2024-02-27T11:59:47.724Z,english_598.wav,0,pill,1020,34,5,5,français,f,0,0.0,4.26365523,0.04069017
61325af0137e3f0aa5b2ad59,33,0,2024-02-27T11:59:47.724Z,english_598.wav,0,pill,1020,34,5,5,français,f,1,0.1,-29.634957,1.27980102
61325af0137e3f0aa5b2ad59,33,0,2024-02-27T11:59:47.724Z,english_598.wav,0,pill,1020,34,5,5,français,f,2,0.2,-17.49120793,0.98781586
61325af0137e3f0aa5b2ad59,33,0,2024-02-27T11:59:47.724Z,english_598.wav,0,pill,1020,34,5,5,français,f,3,0.3,-34.93876912,1.55939702
61325af0137e3f0aa5b2ad59,33,0,2024-02-27T11:59:47.724Z,english_598.wav,0,pill,1020,34,5,5,français,f,4,0.32341667,49.49845506,1.74128412
61325af0137e3f0aa5b2ad59,34,0,2024-02-27T11:59:47.724Z,english_138.wav,0,pill,1020,34,5,5,français,f,0,0.0,-79.80620147,0.37063564
61325af0137e3f0aa5b2ad59,34,0,2024-02-27T11:59:47.724Z,english_138.wav,0,pill,1020,34,5,5,français,f,1,0.1,-15.42889109,0.81801141
61325af0137e3f0aa5b2ad59,34,0,2024-02-27T11:59:47.724Z,english_138.wav,0,pill,1020,34,5,5,français,f,2,0.2,-88.31677226,0.0634538
61325af0137e3f0aa5b2ad59,34,0,2024-02-27T11:59:47.724Z,english_138.wav,0,pill,1020,34,5,5,français,f,3,0.3,26.6486106,1.85131452
61325af0137e3f0aa5b2ad59,34,0,2024-02-27T11:59:47.724Z,english_138.wav,0,pill,1020,34,5,5,français,f,4,0.32341667,-42.18894711,1.66059024
61325af0137e3f0aa5b2ad59,35,0,2024-02-27T11:59:47.724Z,english_139.wav,0,peel,967,34,5,5,français,f,0,0.0,55.35526281,1.40478417
61325af0137e3f0aa5b2ad59,35,0,2024-02-27T11:59:47.724Z,english_139.wav,0,peel,967,34,5,5,français,f,1,0.1,-66.48550036,1.12007301
61325af0137e3f0aa5b2ad59,35,0,2024-02-27T11:59:47.724Z,english_139.wav,0,peel,967,34,5,5,français,f,2,0.2,21.45340352,1.58559909
61325af0137e3f0aa5b2ad59,35,0,2024-02-27T11:59:47.724Z,english_139.wav,0,peel,967,34,5,5,français,f,3,0.3,-32.80413748,1.13081383
61325af0137e3f0aa5b2ad59,35,0,2024-02-27T11:59:47.724Z,english_139.wav,0,peel,967,34,5,5,français,f,4,0.32341667,-77.32206638,0.38560717
61325af0137e3f0aa5b2ad59,36,0,2024-02-27T11:59:47.724Z,english_948.wav,0,peel,2056,34,5,5,français,f,0,0.0,12.28616187,1.33435242
61325af0137e3f0aa5b2ad59,36,0,2024-02-27T11:59:47.724Z,english_948.wav,0,peel,2056,34,5,5,français,f,1,0.1,33.44634687,1.33862855
61325af0137e3f0aa5b2ad59,36,0,2024-02-27T11:59:47.724Z,english_948.wav,0,peel,2056,34,5,5,français,f,2,0.2,98.80566767,1.25876505
61325af0137e3f0aa5b2ad59,36,0,2024-02-27T11:59:47.724Z,english_948.wav,0,peel,2056,34,5,5,français,f,3,0.3,-93.57044844,1.87938727
61325af0137e3f0aa5b2ad59,36,0,2024-02-27T11:59:47.724Z,english_948.wav,0,peel,2056,34,5,5,français,f,4,0.32341667,-51.09398555,1.88731406
61325af0137e3f0aa5b2ad59,37,0,2024-02-27T11:59:47.724Z,english_981.wav,0,peel,1243,34,5,5,français,f,0,0.0,-19.49446297,1.96452006
61325af0137e3f0aa5b2ad59,37,0,2024-02-27T11:59:47.724Z,english_981.wav,0,peel,1243,34,5,5,français,f,1,0.1,-69.0386812,1.2006287
61325af0137e3f0aa5b2ad59,37,0,2024-02-27T11:59:47.724Z,english_981.wav,0,peel,1243,34,5,5,français,f,2,0.2,-25.77088537,0.98600753
61325af0137e3f0aa5b2ad59,37,0,2024-02-27T11:59:47.724Z,english_981.wav,0,peel,1243,34,5,5,français,f,3,0.3,65.67633712,0.21362544
61325af0137e3f0aa5b2ad59,37,0,2024-02-27T11:59:47.724Z,english_981.wav,0,peel,1243,34,5,5,français,f,4,0.32341667,-6.1640169,0.33780549
61325af0137e3f0aa5b2ad59,38,0,2024-02-27T11:59:47.724Z,english_467.wav,0,pill,2634,34,5,5,français,f,0,0.0,-0.54983343,1.824027
61325af0137e3f0aa5b2ad59,38,0,2024-02-27T11:59:47.724Z,english_467.wav,0,pill,2634,34,5,5,français,f,1,0.1,-84.54516502,1.06295632
61325af0137e3f0aa5b2ad59,38,0,2024-02-27T11:59:47.724Z,english_467.wav,0,pill,2634,34,5,5,français,f,2,0.2,54.30123894,1.09976952
61325af0137e3f0aa5b2ad59,38,0,2024-02-27T11:59:47.724Z,english_467.wav,0,pill,2634,34,5,5,français,f,3,0.3,-82.00368026,1.11766566
61325af0137e3f0aa5b2ad59,38,0,2024-02-27T11:59:47.724Z,english_467.wav,0,pill,2634,34,5,5,français,f,4,0.32341667,-54.10816942,0.44824559
61325af0137e3f0aa5b2ad59,39,0,2024-02-27T11:59:47.724Z,english_869.wav,0,peel,924,34,5,5,français,f,0,0.0,31.82870938,0.91730192
61325af0137e3f0aa5b2ad59,39,0,2024-02-27T11:59:47.724Z,english_869.wav,0,peel,924,34,5,5,français,f,1,0.1,55.69153841,1.54634356
61325af0137e3f0aa5b2ad59,39,0,2024-02-27T11:59:47.724Z,english_869.wav,0,peel,924,34,5,5,français,f,2,0.2,44.83997999,0.32401745
61325af0137e3f0aa5b2ad59,39,0,2024-02-27T11:59:47.724Z,english_869.wav,0,peel,924,34,5,5,français,f,3,0.3,-64.6596515,1.34292926
61325af0137e3f0aa5b2ad59,39,0,2024-02-27T11:59:47.724Z,english_869.wav,0,peel,924,34,5,5,français,f,4,0.32341667,-51.58434075,0.99771643
61325af0137e3f0aa5b2ad59,40,0,2024-02-27T11:59:47.724Z,english_678.wav,0,pill,658,34,5,5,français,f,0,0.0,87.86222938,1.6760541
61325af0137e3f0aa5b2ad59,40,0,2024-02-27T11:59:47.724Z,english_678.wav,0,pill,658,34,5,5,français,f,1,0.1,-47.14792626,0.22369522
61325af0137e3f0aa5b2ad59,40,0,2024-02-27T11:59:47.724Z,english_678.wav,0,pill,658,34,5,5,français,f,2,0.2,-6.84659798,1.1260271
61325af0137e3f0aa5b2ad59,40,0,2024-02-27T11:59:47.724Z,english_678.wav,0,pill,658,34,5,5,français,f,3,0.3,87.67045201,1.53941447
61325af0137e3f0aa5b2ad59,40,0,2024-02-27T11:59:47.724Z,english_678.wav,0,pill,658,34,5,5,français,f,4,0.32341667,-51.71213936,1.37136581
61325af0137e3f0aa5b2ad59,41,0,2024-02-27T11:59:47.724Z,english_401.wav,0,peel,957,34,5,5,français,f,0,0.0,-70.37998858,1.11338134
61325af0137e3f0aa5b2ad59,41,0,2024-02-27T11:59:47.724Z,english_401.wav,0,peel,957,34,5,5,français,f,1,0.1,49.27188779,1.59691292
61325af0137e3f0aa5b2ad59,41,0,2024-02-27T11:59:47.724Z,english_401.wav,0,peel,957,34,5,5,français,f,2,0.2,5.09566389,0.88679935
61325af0137e3f0aa5b2ad59,41,0,2024-02-27T11:59:47.724Z,english_401.wav,0,peel,957,34,5,5,français,f,3,0.3,58.42368176,1.89749174
61325af0137e3f0aa5b2ad59,41,0,2024-02-27T11:59:47.724Z,english_401.wav,0,peel,957,34,5,5,français,f,4,0.32341667,-43.06407799,1.35831765
61325af0137e3f0aa5b2ad59,42,0,2024-02-27T11:59:47.724Z,english_7.wav,0,peel,2319,34,5,5,français,f,0,0.0,-21.06405819,1.08184232
61325af0137e3f0aa5b2ad59,42,0,2024-02-27T11:59:47.724Z,english_7.wav,0,peel,2319,34,5,5,français,f,1,0.1,52.71042782,0.36719269
61325af0137e3f0aa5b2ad59,42,0,2024-02-27T11:59:47.724Z,english_7.wav,0,peel,2319,34,5,5,français,f,2,0.2,-75.60464889,0.43185312
61325af0137e3f0aa5b2ad59,42,0,2024-02-27T11:59:47.724Z,english_7.wav,0,peel,2319,34,5,5,français,f,3,0.3,-40.56941306,0.01474265
61325af0137e3f0aa5b2ad59,42,0,2024-02-27T11:59:47.724Z,english_7.wav,0,peel,2319,34,5,5,français,f,4,0.32341667,63.70656894,0.90880476
61325af0137e3f0aa5b2ad59,43,0,2024-02-27T11:59:47.724Z,english_583.wav,0,pill,1094,34,5,5,français,f,0,0.0,-35.26485382,0.11557093
61325af0137e3f0aa5b2ad59,43,0,2024-02-27T11:59:47.724Z,english_583.wav,0,pill,1094,34,5,5,français,f,1,0.1,-69.50197994,0.9917357
61325af0137e3f0aa5b2ad59,43,0,2024-02-27T11:59:47.724Z,english_583.wav,0,pill,1094,34,5,5,français,f,2,0.2,73.6796048,1.33727714
61325af0137e3f0aa5b2ad59,43,0,2024-02-27T11:59:47.724Z,english_583.wav,0,pill,1094,34,5,5,français,f,3,0.3,-1.04664171,0.97646566
61325af0137e3f0aa5b2ad59,43,0,2024-02-27T11:59:47.724Z,english_583.wav,0,pill,1094,34,5,5,français,f,4,0.32341667,-55.46924107,1.06585671
61325af0137e3f0aa5b2ad59,44,0,2024-02-27T11:59:47.724Z,english_269.wav,0,pill,1498,34,5,5,français,f,0,0.0,61.09556447,1.11606818
61325af0137e3f0aa5b2ad59,44,0,2024-02-27T11:59:47.724Z,english_269.wav,0,pill,1498,34,5,5,français,f,1,0.1,-3.97684721,1.55443041
61325af0137e3f0aa5b2ad59,44,0,2024-02-27T11:59:47.724Z,english_269.wav,0,pill,1498,34,5,5,français,f,2,0.2,-87.59080112,1.78173809
61325af0137e3f0aa5b2ad59,44,0,2024-02-27T11:59:47.724Z,english_269.wav,0,pill,1498,34,5,5,français,f,3,0.3,78.47165079,1.73012946
61325af0137e3f0aa5b2ad59,44,0,2024-02-27T11:59:47.724Z,english_269.wav,0,pill,1498,34,5,5,français,f,4,0.32341667,-52.74135522,0.88090417
61325af0137e3f0aa5b2ad59,45,0,2024-02-27T11:59:47.724Z,english_418.wav,0,peel,737,34,5,5,français,f,0,0.0,-7.92859899,0.20369216
61325af0137e3f0aa5b2ad59,45,0,2024-02-27T11:59:47.724Z,english_418.wav,0,peel,737,34,5,5,français,f,1,0.1,10.19863107,0.15242613
61325af0137e3f0aa5b2ad59,45,0,2024-02-27T11:59:47.724Z,english_418.wav,0,peel,737,34,5,5,français,f,2,0.2,-44.82770696,0.77695319
61325af0137e3f0aa5b2ad59,45,0,2024-02-27T11:59:47.724Z,english_418.wav,0,peel,737,34,5,5,français,f,3,0.3,-80.4141896,0.71786342
61325af0137e3f0aa5b2ad59,45,0,2024-02-27T11:59:47.724Z,english_418.wav,0,peel,737,34,5,5,français,f,4,0.32341667,32.43674468,1.20494416
61325af0137e3f0aa5b2ad59,46,0,2024-02-27T11:59:47.724Z,english_275.wav,0,peel,2540,34,5,5,français,f,0,0.0,-1.14725012,0.71691039
61325af0137e3f0aa5b2ad59,46,0,2024-02-27T11:59:47.724Z,english_275.wav,0,peel,2540,34,5,5,français,f,1,0.1,-90.43848863,0.74614953
61325af0137e3f0aa5b2ad59,46,0,2024-02-27T11:59:47.724Z,english_275.wav,0,peel,2540,34,5,5,français,f,2,0.2,-40.03711279,1.94843862
61325af0137e3f0aa5b2ad59,46,0,2024-02-27T11:59:47.724Z,english_275.wav,0,peel,2540,34,5,5,français,f,3,0.3,-29.12549604,0.32495742
61325af0137e3f0aa5b2ad59,46,0,2024-02-27T11:59:47.724Z,english_275.wav,0,peel,2540,34,5,5,français,f,4,0.32341667,77.33253221,0.61649877
61325af0137e3f0aa5b2ad59,47,0,2024-02-27T11:59:47.724Z,english_179.wav,0,pill,2610,34,5,5,français,f,0,0.0,76.93131114,0.23318107
61325af0137e3f0aa5b2ad59,47,0,2024-02-27T11:59:47.724Z,english_179.wav,0,pill,2610,34,5,5,français,f,1,0.1,5.5150778,0.47080089
61325af0137e3f0aa5b2ad59,47,0,2024-02-27T11:59:47.724Z,english_179.wav,0,pill,2610,34,5,5,français,f,2,0.2,3.89208722,1.31062884
61325af0137e3f0aa5b2ad59,47,0,2024-02-27T11:59:47.724Z,english_179.wav,0,pill,2610,34,5,5,français,f,3,0.3,-8.47825544,0.27743795
61325af0137e3f0aa5b2ad59,47,0,2024-02-27T11:59:47.724Z,english_179.wav,0,pill,2610,34,5,5,français,f,4,0.32341667,50.73924617,0.83516241
61325af0137e3f0aa5b2ad59,48,0,2024-02-27T11:59:47.724Z,english_524.wav,0,pill,1012,34,5,5,français,f,0,0.0,-67.97449296,0.75247726
61325af0137e3f0aa5b2ad59,48,0,2024-02-27T11:59:47.724Z,english_524.wav,0,pill,1012,34,5,5,français,f,1,0.1,11.07328714,0.25589602
61325af0137e3f0aa5b2ad59,48,0,2024-02-27T11:59:47.724Z,english_524.wav,0,pill,1012,34,5,5,français,f,2,0.2,-43.89657964,0.70559599
61325af0137e3f0aa5b2ad59,48,0,2024-02-27T11:59:47.724Z,english_524.wav,0,pill,1012,34,5,5,français,f,3,0.3,-41.15015074,0.70218971
61325af0137e3f0aa5b2ad59,48,0,2024-02-27T11:59:47.724Z,english_524.wav,0,pill,1012,34,5,5,français,f,4,0.32341667,-33.76804681,0.11352048
61325af0137e3f0aa5b2ad59,49,0,2024-02-27T11:59:47.724Z,english_711.wav,0,peel,888,34,5,5,français,f,0,0.0,40.88671478,0.99029016
61325af0137e3f0aa5b2ad59,49,0,2024-02-27T11:59:47.724Z,english_711.wav,0,peel,888,34,5,5,français,f,1,0.1,9.07407961,0.54320223
61325af0137e3f0aa5b2ad59,49,0,2024-02-27T11:59:47.724Z,english_711.wav,0,peel,888,34,5,5,français,f,2,0.2,-23.01321115,1.60107
61325af0137e3f0aa5b2ad59,49,0,2024-02-27T11:59:47.724Z,english_711.wav,0,peel,888,34,5,5,français,f,3,0.3,-10.85681813,1.574764
61325af0137e3f0aa5b2ad59,49,0,2024-02-27T11:59:47.724Z,english_711.wav,0,peel,888,34,5,5,français,f,4,0.32341667,87.87195083,1.34863725
61325af0137e3f0aa5b2ad59,50,1,2024-02-27T11:59:47.724Z,english_527.wav,0,pill,1302,34,5,5,français,f,0,0.0,-32.70996179,0.06646481
61325af0137e3f0aa5b2ad59,50,1,2024-02-27T11:59:47.724Z,english_527.wav,0,pill,1302,34,5,5,français,f,1,0.1,-61.96334317,1.75268105
61325af0137e3f0aa5b2ad59,50,1,2024-02-27T11:59:47.724Z,english_527.wav,0,pill,1302,34,5,5,français,f,2,0.2,86.46317242,0.41061726
61325af0137e3f0aa5b2ad59,50,1,2024-02-27T11:59:47.724Z,english_527.wav,0,pill,1302,34,5,5,français,f,3,0.3,-18.9429262,1.43024268
61325af0137e3f0aa5b2ad59,50,1,2024-02-27T11:59:47.724Z,english_527.wav,0,pill,1302,34,5,5,français,f,4,0.32341667,-59.75355058,0.73468543
61325af0137e3f0aa5b2ad59,51,1,2024-02-27T11:59:47.724Z,english_466.wav,0,peel,846,34,5,5,français,f,0,0.0,59.64739432,1.91119383
61325af0137e3f0aa5b2ad59,51,1,2024-02-27T11:59:47.724Z,english_466.wav,0,peel,846,34,5,5,français,f,1,0.1,-20.63646321,1.29572765
61325af0137e3f0aa5b2ad59,51,1,2024-02-27T11:59:47.724Z,english_466.wav,0,peel,846,34,5,5,français,f,2,0.2,62.86141463,0.99944191
61325af0137e3f0aa5b2ad59,51,1,2024-02-27T11:59:47.724Z,english_466.wav,0,peel,846,34,5,5,français,f,3,0.3,-65.74461877,1.01221774
61325af0137e3f0aa5b2ad59,51,1,2024-02-27T11:59:47.724Z,english_466.wav,0,peel,846,34,5,5,français,f,4,0.32341667,44.70090984,0.89697717
61325af0137e3f0aa5b2ad59,52,1,2024-02-27T11:59:47.724Z,english_606.wav,0,pill,1612,34,5,5,français,f,0,0.0,-54.19201916,1.71730642
61325af0137e3f0aa5b2ad59,52,1,2024-02-27T11:59:47.724Z,english_606.wav,0,pill,1612,34,5,5,français,f,1,0.1,-9.49104439,0.42216081
61325af0137e3f0aa5b2ad59,52,1,2024-02-27T11:59:47.724Z,english_606.wav,0,pill,1612,34,5,5,français,f,2,0.2,1.17868262,1.31506394
61325af0137e3f0aa5b2ad59,52,1,2024-02-27T11:59:47.724Z,english_606.wav,0,pill,1612,34,5,5,français,f,3,0.3,-95.39718692,0.06922913
61325af0137e3f0aa5b2ad59,52,1,2024-02-27T11:59:47.724Z,english_606.wav,0,pill,1612,34,5,5,français,f,4,0.32341667,-48.659775,0.08316227
61325af0137e3f0aa5b2ad59,53,1,2024-02-27T11:59:47.724Z,english_650.wav,0,pill,1570,34,5,5,français,f,0,0.0,-14.34164867,1.10695192
61325af0137e3f0aa5b2ad59,53,1,2024-02-27T11:59:47.724Z,english_650.wav,0,pill,1570,34,5,5,français,f,1,0.1,-59.47569919,1.2442548
61325af0137e3f0aa5b2ad59,53,1,2024-02-27T11:59:47.724Z,english_650.wav,0,pill,1570,34,5,5,français,f,2,0.2,-47.0995584,0.31281267
61325af0137e3f0aa5b2ad59,53,1,2024-02-27T11:59:47.724Z,english_650.wav,0,pill,1570,34,5,5,français,f,3,0.3,-55.25841156,1.9869399
61325af0137e3f0aa5b2ad59,53,1,2024-02-27T11:59:47.724Z,english_650.wav,0,pill,1570,34,5,5,français,f,4,0.32341667,83.92345375,1.10607629
61325af0137e3f0aa5b2ad59,54,1,2024-02-27T11:59:47.724Z,english_968.wav,0,pill,1997,34,5,5,français,f,0,0.0,-36.76350372,0.52322451
61325af0137e3f0aa5b2ad59,54,1,2024-02-27T11:59:47.724Z,english_968.wav,0,pill,1997,34,5,5,français,f,1,0.1,-99.8991193,0.66419732
61325af0137e3f0aa5b2ad59,54,1,2024-02-27T11:59:47.724Z,english_968.wav,0,pill,1997,34,5,5,français,f,2,0.2,27.503089,0.44232096
61325af0137e3f0aa5b2ad59,54,1,2024-02-27T11:59:47.724Z,english_968.wav,0,pill,1997,34,5,5,français,f,3,0.3,-34.85106147,1.90778707
61325af0137e3f0aa5b2ad59,54,1,2024-02-27T11:59:47.724Z,english_968.wav,0,pill,1997,34,5,5,français,f,4,0.32341667,68.2869663,0.59652698
61325af0137e3f0aa5b2ad59,55,1,2024-02-27T11:59:47.724Z,english_210.wav,0,peel,757,34,5,5,français,f,0,0.0,43.03172008,0.27268056
61325af0137e3f0aa5b2ad59,55,1,2024-02-27T11:59:47.724Z,english_210.wav,0,peel,757,34,5,5,français,f,1,0.1,58.48529179,0.59270989
61325af0137e3f0aa5b2ad59,55,1,2024-02-27T11:59:47.724Z,english_210.wav,0,peel,757,34,5,5,français,f,2,0.2,57.29337371,1.57355776
61325af0137e3f0aa5b2ad59,55,1,2024-02-27T11:59:47.724Z,english_210.wav,0,peel,757,34,5,5,français,f,3,0.3,-45.34642936,1.97663548
61325af0137e3f0aa5b2ad59,55,1,2024-02-27T11:59:47.724Z,english_210.wav,0,peel,757,34,5,5,français,f,4,0.32341667,-3.49486879,1.39997912
61325af0137e3f0aa5b2ad59,56,1,2024-02-27T11:59:47.724Z,english_427.wav,0,peel,846,34,5,5,français,f,0,0.0,38.10585738,0.62221409
61325af0137e3f0aa5b2ad59,56,1,2024-02-27T11:59:47.724Z,english_427.wav,0,peel,846,34,5,5,français,f,1,0.1,75.26959407,1.20145201
61325af0137e3f0aa5b2ad59,56,1,2024-02-27T11:59:47.724Z,english_427.wav,0,peel,846,34,5,5,français,f,2,0.2,-92.48152235,0.18894815
61325af0137e3f0aa5b2ad59,56,1,2024-02-27T11:59:47.724Z,english_427.wav,0,peel,846,34,5,5,français,f,3,0.3,-38.24940669,0.36527681
61325af0137e3f0aa5b2ad59,56,1,2024-02-27T11:59:47.724Z,english_427.wav,0,peel,846,34,5,5,français,f,4,0.32341667,-41.67637111,0.02898627
61325af0137e3f0aa5b2ad59,57,1,2024-02-27T11:59:47.724Z,english_456.wav,0,pill,1038,34,5,5,français,f,0,0.0,43.57092671,0.12750432
61325af0137e3f0aa5b2ad59,57,1,2024-02-27T11:59:47.724Z,english_456.wav,0,pill,1038,34,5,5,français,f,1,0.1,59.73787768,0.97340157
61325af0137e3f0aa5b2ad59,57,1,2024-02-27T11:59:47.724Z,english_456.wav,0,pill,1038,34,5,5,français,f,2,0.2,82.18665257,0.43547726
61325af0137e3f0aa5b2ad59,57,1,2024-02-27T11:59:47.724Z,english_456.wav,0,pill,1038,34,5,5,français,f,3,0.3,84.09992258,1.17970357
61325af0137e3f0aa5b2ad59,57,1,2024-02-27T11:59:47.724Z,english_456.wav,0,pill,1038,34,5,5,français,f,4,0.32341667,14.68455092,0.64309566
61325af0137e3f0aa5b2ad59,58,1,2024-02-27T11:59:47.724Z,english_989.wav,0,pill,2237,34,5,5,français,f,0,0.0,-51.1051603,1.00035195
61325af0137e3f0aa5b2ad59,58,1,2024-02-27T11:59:47.724Z,english_989.wav,0,pill,2237,34,5,5,français,f,1,0.1,-91.26717948,0.46124463
61325af0137e3f0aa5b2ad59,58,1,2024-02-27T11:59:47.724Z,english_989.wav,0,pill,2237,34,5,5,français,f,2,0.2,73.5145218,0.77735517
61325af0137e3f0aa5b2ad59,58,1,2024-02-27T11:59:47.724Z,english_989.wav,0,pill,2237,34,5,5,français,f,3,0.3,54.43703181,1.21549894
61325af0137e3f0aa5b2ad59,58,1,2024-02-27T11:59:47.724Z,english_989.wav,0,pill,2237,34,5,5,français,f,4,0.32341667,-36.95823638,0.33045291
61325af0137e3f0aa5b2ad59,59,1,2024-02-27T11:59:47.724Z,english_619.wav,0,peel,750,34,5,5,français,f,0,0.0,38.53351318,1.25542912
61325af0137e3f0aa5b2ad59,59,1,2024-02-27T11:59:47.724Z,english_619.wav,0,peel,750,34,5,5,français,f,1,0.1,-11.21157995,0.83005785
61325af0137e3f0aa5b2ad59,59,1,2024-02-27T11:59:47.724Z,english_619.wav,0,peel,750,34,5,5,français,f,2,0.2,29.79887689,1.51254928
61325af0137e3f0aa5b2ad59,59,1,2024-02-27T11:59:47.724Z,english_619.wav,0,peel,750,34,5,5,français,f,3,0.3,48.6384615,0.37972577
61325af0137e3f0aa5b2ad59,59,1,2024-02-27T11:59:47.724Z,english_619.wav,0,peel,750,34,5,5,français,f,4,0.32341667,-66.5905708,0.44889873
61325af0137e3f0aa5b2ad59,60,1,2024-02-27T11:59:47.724Z,english_930.wav,0,peel,1059,34,5,5,français,f,0,0.0,-52.65701122,0.60066533
61325af0137e3f0aa5b2ad59,60,1,2024-02-27T11:59:47.724Z,english_930.wav,0,peel,1059,34,5,5,français,f,1,0.1,-24.36484499,1.33650528
61325af0137e3f0aa5b2ad59,60,1,2024-02-27T11:59:47.724Z,english_930.wav,0,peel,1059,34,5,5,français,f,2,0.2,4.10813066,0.15979886
61325af0137e3f0aa5b2ad59,60,1,2024-02-27T11:59:47.724Z,english_930.wav,0,peel,1059,34,5,5,français,f,3,0.3,93.74919515,1.46288505
61325af0137e3f0aa5b2ad59,60,1,2024-02-27T11:59:47.724Z,english_930.wav,0,peel,1059,34,5,5,français,f,4,0.32341667,66.31726896,0.93993915
61325af0137e3f0aa5b2ad59,61,1,2024-02-27T11:59:47.724Z,english_574.wav,0,peel,949,34,5,5,français,f,0,0.0,53.128433,0.28349694
61325af0137e3f0aa5b2ad59,61,1,2024-02-27T11:59:47.724Z,english_574.wav,0,peel,949,34,5,5,français,f,1,0.1,70.24248151,0.66519348
61325af0137e3f0aa5b2ad59,61,1,2024-02-27T11:59:47.724Z,english_574.wav,0,peel,949,34,5,5,français,f,2,0.2,47.13290739,1.25768036
61325af0137e3f0aa5b2ad59,61,1,2024-02-27T11:59:47.724Z,english_574.wav,0,peel,949,34,5,5,français,f,3,0.3,52.31480293,1.43482954
61325af0137e3f0aa5b2ad59,61,1,2024-02-27T11:59:47.724Z,english_574.wav,0,peel,949,34,5,5,français,f,4,0.32341667,-33.06438127,1.23350688
61325af0137e3f0aa5b2ad59,62,1,2024-02-27T11:59:47.724Z,english_744.wav,0,peel,1826,34,5,5,français,f,0,0.0,43.39686976,0.75505854
61325af0137e3f0aa5b2ad59,62,1,2024-02-27T11:59:47.724Z,english_744.wav,0,peel,1826,34,5,5,français,f,1,0.1,-61.67573043,1.01311725
61325af0137e3f0aa5b2ad59,62,1,2024-02-27T11:59:47.724Z,english_744.wav,0,peel,1826,34,5,5,français,f,2,0.2,0.51873183,0.73457108
61325af0137e3f0aa5b2ad59,62,1,2024-02-27T11:59:47.724Z,english_744.wav,0,peel,1826,34,5,5,français,f,3,0.3,12.88130512,0.90154102
61325af0137e3f0aa5b2ad59,62,1,2024-02-27T11:59:47.724Z,english_744.wav,0,peel,1826,34,5,5,français,f,4,0.32341667,57.31714449,1.01338509
61325af0137e3f0aa5b2ad59,63,1,2024-02-27T11:59:47.724Z,english_643.wav,0,peel,1762,34,5,5,français,f,0,0.0,-40.15003434,1.60262153
61325af0137e3f0aa5b2ad59,63,1,2024-02-27T11:59:47.724Z,english_643.wav,0,peel,1762,34,5,5,français,f,1,0.1,-24.12893917,1.7682358
61325af0137e3f0aa5b2ad59,63,1,2024-02-27T11:59:47.724Z,english_643.wav,0,peel,1762,34,5,5,français,f,2,0.2,-40.66556796,0.31725537
61325af0137e3f0aa5b2ad59,63,1,2024-02-27T11:59:47.724Z,english_643.wav,0,peel,1762,34,5,5,français,f,3,0.3,75.01987067,0.56722121
61325af0137e3f0aa5b2ad59,63,1,2024-02-27T11:59:47.724Z,english_643.wav,0,peel,1762,34,5,5,français,f,4,0.32341667,29.71481383,1.87277365
61325af0137e3f0aa5b2ad59,64,1,2024-02-27T11:59:47.724Z,english_928.wav,0,pill,1159,34,5,5,français,f,0,0.0,55.07207497,1.22706758
61325af0137e3f0aa5b2ad59,64,1,2024-02-27T11:59:47.724Z,english_928.wav,0,pill,1159,34,5,5,français,f,1,0.1,83.71672672,0.97206042
61325af0137e3f0aa5b2ad59,64,1,2024-02-27T11:59:47.724Z,english_928.wav,0,pill,1159,34,5,5,français,f,2,0.2,-43.28929986,0.16969859
61325af0137e3f0aa5b2ad59,64,1,2024-02-27T11:59:47.724Z,english_928.wav,0,pill,1159,34,5,5,français,f,3,0.3,-17.1692271,0.90092586
61325af0137e3f0aa5b2ad59,64,1,2024-02-27T11:59:47.724Z,english_928.wav,0,pill,1159,34,5,5,français,f,4,0.32341667,-36.644272,0.43024518
61325af0137e3f0aa5b2ad59,65,1,2024-02-27T11:59:47.724Z,english_807.wav,0,peel,2407,34,5,5,français,f,0,0.0,-70.27095807,1.48455572
61325af0137e3f0aa5b2ad59,65,1,2024-02-27T11:59:47.724Z,english_807.wav,0,peel,2407,34,5,5,français,f,1,0.1,84.77391363,1.24837561
61325af0137e3f0aa5b2ad59,65,1,2024-02-27T11:59:47.724Z,english_807.wav,0,peel,2407,34,5,5,français,f,2,0.2,-27.52537388,0.77726095
61325af0137e3f0aa5b2ad59,65,1,2024-02-27T11:59:47.724Z,english_807.wav,0,peel,2407,34,5,5,français,f,3,0.3,36.82986288,1.65388598
61325af0137e3f0aa5b2ad59,65,1,2024-02-27T11:59:47.724Z,english_807.wav,0,peel,2407,34,5,5,français,f,4,0.32341667,16.63983573,1.10343216
61325af0137e3f0aa5b2ad59,66,1,2024-02-27T11:59:47.724Z,english_53.wav,0,pill,979,34,5,5,français,f,0,0.0,5.97237457,0.42230306
61325af0137e3f0aa5b2ad59,66,1,2024-02-27T11:59:47.724Z,english_53.wav,0,pill,979,34,5,5,français,f,1,0.1,-76.12131912,0.60624646
61325af0137e3f0aa5b2ad59,66,1,2024-02-27T11:59:47.724Z,english_53.wav,0,pill,979,34,5,5,français,f,2,0.2,55.18337216,0.26369256
61325af0137e3f0aa5b2ad59,66,1,2024-02-27T11:59:47.724Z,english_53.wav,0,pill,979,34,5,5,français,f,3,0.3,70.32610425,1.07400525
61325af0137e3f0aa5b2ad59,66,1,2024-02-27T11:59:47.724Z,english_53.wav,0,pill,979,34,5,5,français,f,4,0.32341667,26.40450832,0.2721545
61325af0137e3f0aa5b2ad59,67,1,2024-02-27T11:59:47.724Z,english_982.wav,0,pill,1999,34,5,5,français,f,0,0.0,12.44046596,0.81508625
61325af0137e3f0aa5b2ad59,67,1,2024-02-27T11:59:47.724Z,english_982.wav,0,pill,1999,34,5,5,français,f,1,0.1,-60.41666302,0.92712357
61325af0137e3f0aa5b2ad59,67,1,2024-02-27T11:59:47.724Z,english_982.wav,0,pill,1999,34,5,5,français,f,2,0.2,-35.31499742,0.77678916
61325af0137e3f0aa5b2ad59,67,1,2024-02-27T11:59:47.724Z,english_982.wav,0,pill,1999,34,5,5,français,f,3,0.3,-10.96739076,1.0294352
61325af0137e3f0aa5b2ad59,67,1,2024-02-27T11:59:47.724Z,english_982.wav,0,pill,1999,34,5,5,français,f,4,0.32341667,44.50624474,1.1322674
61325af0137e3f0aa5b2ad59,68,1,2024-02-27T11:59:47.724Z,english_147.wav,0,pill,1092,34,5,5,français,f,0,0.0,-14.37625717,1.08714974
61325af0137e3f0aa5b2ad59,68,1,2024-02-27T11:59:47.724Z,english_147.wav,0,pill,1092,34,5,5,français,f,1,0.1,-48.99147792,1.05600262
61325af0137e3f0aa5b2ad59,68,1,2024-02-27T11:59:47.724Z,english_147.wav,0,pill,1092,34,5,5,français,f,2,0.2,-76.025031,0.62193731
61325af0137e3f0aa5b2ad59,68,1,2024-02-27T11:59:47.724Z,english_147.wav,0,pill,1092,34,5,5,français,f,3,0.3,-4.271985,1.23272935
61325af0137e3f0aa5b2ad59,68,1,2024-02-27T11:59:47.724Z,english_147.wav,0,pill,1092,34,5,5,français,f,4,0.32341667,90.36670579,0.90867663
61325af0137e3f0aa5b2ad59,69,1,2024-02-27T11:59:47.724Z,english_925.wav,0,peel,1515,34,5,5,français,f,0,0.0,-23.38055082,1.07708889
61325af0137e3f0aa5b2ad59,69,1,2024-02-27T11:59:47.724Z,english_925.wav,0,peel,1515,34,5,5,français,f,1,0.1,12.69502826,1.65606803
61325af0137e3f0aa5b2ad59,69,1,2024-02-27T11:59:47.724Z,english_925.wav,0,peel,1515,34,5,5,français,f,2,0.2,77.53463838,0.48648737
61325af0137e3f0aa5b2ad59,69,1,2024-02-27T11:59:47.724Z,english_925.wav,0,peel,1515,34,5,5,français,f,3,0.3,58.05299948,0.8939016
61325af0137e3f0aa5b2ad59,69,1,2024-02-27T11:59:47.724Z,english_925.wav,0,peel,1515,34,5,5,français,f,4,0.32341667,54.12197927,0.72199492
61325af0137e3f0aa5b2ad59,70,1,2024-02-27T11:59:47.724Z,english_446.wav,0,pill,1266,34,5,5,français,f,0,0.0,-50.90487531,0.84721497
61325af0137e3f0aa5b2ad59,70,1,2024-02-27T11:59:47.724Z,english_446.wav,0,pill,1266,34,5,5,français,f,1,0.1,77.9515464,0.90863808
61325af0137e3f0aa5b2ad59,70,1,2024-02-27T11:59:47.724Z,english_446.wav,0,pill,1266,34,5,5,français,f,2,0.2,12.96913102,0.45582271
61325af0137e3f0aa5b2ad59,70,1,2024-02-27T11:59:47.724Z,english_446.wav,0,pill,1266,34,5,5,français,f,3,0.3,31.20275809,0.65529325
61325af0137e3f0aa5b2ad59,70,1,2024-02-27T11:59:47.724Z,english_446.wav,0,pill,1266,34,5,5,français,f,4,0.32341667,-30.39700356,0.08422993
61325af0137e3f0aa5b2ad59,71,1,2024-02-27T11:59:47.724Z,english_839.wav,0,peel,896,34,5,5,français,f,0,0.0,48.1700809,1.1821708
61325af0137e3f0aa5b2ad59,71,1,2024-02-27T11:59:47.724Z,english_839.wav,0,peel,896,34,5,5,français,f,1,0.1,-8.22030768,1.15480022
61325af0137e3f0aa5b2ad59,71,1,2024-02-27T11:59:47.724Z,english_839.wav,0,peel,896,34,5,5,français,f,2,0.2,53.56121636,1.57293091
61325af0137e3f0aa5b2ad59,71,1,2024-02-27T11:59:47.724Z,english_839.wav,0,peel,896,34,5,5,français,f,3,0.3,4.54416263,0.22310878
61325af0137e3f0aa5b2ad59,71,1,2024-02-27T11:59:47.724Z,english_839.wav,0,peel,896,34,5,5,français,f,4,0.32341667,-19.83463627,0.67140257
61325af0137e3f0aa5b2ad59,72,1,2024-02-27T11:59:47.724Z,english_365.wav,0,pill,2946,34,5,5,français,f,0,0.0,58.11205919,0.53708026
61325af0137e3f0aa5b2ad59,72,1,2024-02-27T11:59:47.724Z,english_365.wav,0,pill,2946,34,5,5,français,f,1,0.1,-61.04014877,1.10456153
61325af0137e3f0aa5b2ad59,72,1,2024-02-27T11:59:47.724Z,english_365.wav,0,pill,2946,34,5,5,français,f,2,0.2,12.43042802,1.31731937
61325af0137e3f0aa5b2ad59,72,1,2024-02-27T11:59:47.724Z,english_365.wav,0,pill,2946,34,5,5,français,f,3,0.3,17.00746388,1.02387946
61325af0137e3f0aa5b2ad59,72,1,2024-02-27T11:59:47.724Z,english_365.wav,0,pill,2946,34,5,5,français,f,4,0.32341667,-69.10644956,1.31633463
61325af0137e3f0aa5b2ad59,73,1,2024-02-27T11:59:47.724Z,english_713.wav,0,peel,2283,34,5,5,français,f,0,0.0,18.77281956,1.04868626
61325af0137e3f0aa5b2ad59,73,1,2024-02-27T11:59:47.724Z,english_713.wav,0,peel,2283,34,5,5,français,f,1,0.1,40.78610286,0.48332939
61325af0137e3f0aa5b2ad59,73,1,2024-02-27T11:59:47.724Z,english_713.wav,0,peel,2283,34,5,5,français,f,2,0.2,84.18153491,0.83217717
61325af0137e3f0aa5b2ad59,73,1,2024-02-27T11:59:47.724Z,english_713.wav,0,peel,2283,34,5,5,français,f,3,0.3,47.00827256,1.90318663
61325af0137e3f0aa5b2ad59,73,1,2024-02-27T11:59:47.724Z,english_713.wav,0,peel,2283,34,5,5,français,f,4,0.32341667,66.01008384,0.50055362
61325af0137e3f0aa5b2ad59,74,1,2024-02-27T11:59:47.724Z,english_118.wav,0,peel,1815,34,5,5,français,f,0,0.0,-46.26080879,0.77156844
61325af0137e3f0aa5b2ad59,74,1,2024-02-27T11:59:47.724Z,english_118.wav,0,peel,1815,34,5,5,français,f,1,0.1,-14.63576669,0.55135676
61325af0137e3f0aa5b2ad59,74,1,2024-02-27T11:59:47.724Z,english_118.wav,0,peel,1815,34,5,5,français,f,2,0.2,85.04541628,0.92804695
61325af0137e3f0aa5b2ad59,74,1,2024-02-27T11:59:47.724Z,english_118.wav,0,peel,1815,34,5,5,français,f,3,0.3,-49.31762638,1.40435072
61325af0137e3f0aa5b2ad59,74,1,2024-02-27T11:59:47.724Z,english_118.wav,0,peel,1815,34,5,5,français,f,4,0.32341667,16.64479416,1.67291824
61325af0137e3f0aa5b2ad59,75,1,2024-02-27T11:59:47.724Z,english_106.wav,0,peel,1811,34,5,5,français,f,0,0.0,-46.25200282,0.21046793
61325af0137e3f0aa5b2ad59,75,1,2024-02-27T11:59:47.724Z,english_106.wav,0,peel,1811,34,5,5,français,f,1,0.1,-83.38564728,1.42142181
61325af0137e3f0aa5b2ad59,75,1,2024-02-27T11:59:47.724Z,english_106.wav,0,peel,1811,34,5,5,français,f,2,0.2,68.00501759,0.86156936
61325af0137e3f0aa5b2ad59,75,1,2024-02-27T11:59:47.724Z,english_106.wav,0,peel,1811,34,5,5,français,f,3,0.3,49.15199267,0.65348811
61325af0137e3f0aa5b2ad59,75,1,2024-02-27T11:59:47.724Z,english_106.wav,0,peel,1811,34,5,5,français,f,4,0.32341667,-5.93966373,0.76273979
61325af0137e3f0aa5b2ad59,76,1,2024-02-27T11:59:47.724Z,english_411.wav,0,peel,1349,34,5,5,français,f,0,0.0,75.357241,0.83773649
61325af0137e3f0aa5b2ad59,76,1,2024-02-27T11:59:47.724Z,english_411.wav,0,peel,1349,34,5,5,français,f,1,0.1,-55.75688593,0.80885485
61325af0137e3f0aa5b2ad59,76,1,2024-02-27T11:59:47.724Z,english_411.wav,0,peel,1349,34,5,5,français,f,2,0.2,61.10111178,0.61144368
61325af0137e3f0aa5b2ad59,76,1,2024-02-27T11:59:47.724Z,english_411.wav,0,peel,1349,34,5,5,français,f,3,0.3,90.25367142,0.73863407
61325af0137e3f0aa5b2ad59,76,1,2024-02-27T11:59:47.724Z,english_411.wav,0,peel,1349,34,5,5,français,f,4,0.32341667,26.85831553,0.4624235
61325af0137e3f0aa5b2ad59,77,1,2024-02-27T11:59:47.724Z,english_237.wav,0,pill,1299,34,5,5,français,f,0,0.0,-40.35335157,0.42178982
61325af0137e3f0aa5b2ad59,77,1,2024-02-27T11:59:47.724Z,english_237.wav,0,pill,1299,34,5,5,français,f,1,0.1,42.86374565,0.6060796
61325af0137e3f0aa5b2ad59,77,1,2024-02-27T11:59:47.724Z,english_237.wav,0,pill,1299,34,5,5,français,f,2,0.2,7.79480372,0.58312984
61325af0137e3f0aa5b2ad59,77,1,2024-02-27T11:59:47.724Z,english_237.wav,0,pill,1299,34,5,5,français,f,3,0.3,-48.50613844,1.50499267
61325af0137e3f0aa5b2ad59,77,1,2024-02-27T11:59:47.724Z,english_237.wav,0,pill,1299,34,5,5,français,f,4,0.32341667,17.78174719,1.72211243
61325af0137e3f0aa5b2ad59,78,1,2024-02-27T11:59:47.724Z,english_423.wav,0,peel,1952,34,5,5,français,f,0,0.0,48.83941012,1.35290702
61325af0137e3f0aa5b2ad59,78,1,2024-02-27T11:59:47.724Z,english_423.wav,0,peel,1952,34,5,5,français,f,1,0.1,26.57948938,1.33919202
61325af0137e3f0aa5b2ad59,78,1,2024-02-27T11:59:47.724Z,english_423.wav,0,peel,1952,34,5,5,français,f,2,0.2,56.70545245,1.37149513
61325af0137e3f0aa5b2ad59,78,1,2024-02-27T11:59:47.724Z,english_423.wav,0,peel,1952,34,5,5,français,f,3,0.3,-62.41131033,1.11357765
61325af0137e3f0aa5b2ad59,78,1,2024-02-27T11:59:47.724Z,english_423.wav,0,peel,1952,34,5,5,français,f,4,0.32341667,78.49803502,1.20699722
61325af0137e3f0aa5b2ad59,79,1,2024-02-27T11:59:47.724Z,english_313.wav,0,peel,2377,34,5,5,français,f,0,0.0,63.86599335,0.35841412
61325af0137e3f0aa5b2ad59,79,1,2024-02-27T11:59:47.724Z,english_313.wav,0,peel,2377,34,5,5,français,f,1,0.1,-55.89800258,0.35021793
61325af0137e3f0aa5b2ad59,79,1,2024-02-27T11:59:47.724Z,english_313.wav,0,peel,2377,34,5,5,français,f,2,0.2,90.86254046,1.77750413
61325af0137e3f0aa5b2ad59,79,1,2024-02-27T11:59:47.724Z,english_313.wav,0,peel,2377,34,5,5,français,f,3,0.3,0.53087649,1.87396687
61325af0137e3f0aa5b2ad59,79,1,2024-02-27T11:59:47.724Z,english_313.wav,0,peel,2377,34,5,5,français,f,4,0.32341667,-69.87913817,1.16176786
61325af0137e3f0aa5b2ad59,80,1,2024-02-27T11:59:47.724Z,english_433.wav,0,peel,4641,34,5,5,français,f,0,0.0,-74.58178472,0.69852952
61325af0137e3f0aa5b2ad59,80,1,2024-02-27T11:59:47.724Z,english_433.wav,0,peel,4641,34,5,5,français,f,1,0.1,-50.00917691,1.92405883
61325af0137e3f0aa5b2ad59,80,1,2024-02-27T11:59:47.724Z,english_433.wav,0,peel,4641,34,5,5,français,f,2,0.2,48.18572343,0.3905825
61325af0137e3f0aa5b2ad59,80,1,2024-02-27T11:59:47.724Z,english_433.wav,0,peel,4641,34,5,5,français,f,3,0.3,-63.95387597,0.31453116
61325af0137e3f0aa5b2ad59,80,1,2024-02-27T11:59:47.724Z,english_433.wav,0,peel,4641,34,5,5,français,f,4,0.32341667,-68.91859183,1.4953114
61325af0137e3f0aa5b2ad59,81,1,2024-02-27T11:59:47.724Z,english_513.wav,0,pill,1182,34,5,5,français,f,0,0.0,76.78578212,0.02403043
61325af0137e3f0aa5b2ad59,81,1,2024-02-27T11:59:47.724Z,english_513.wav,0,pill,1182,34,5,5,français,f,1,0.1,20.42124481,0.85164369
61325af0137e3f0aa5b2ad59,81,1,2024-02-27T11:59:47.724Z,english_513.wav,0,pill,1182,34,5,5,français,f,2,0.2,83.32251122,1.08658436
61325af0137e3f0aa5b2ad59,81,1,2024-02-27T11:59:47.724Z,english_513.wav,0,pill,1182,34,5,5,français,f,3,0.3,47.28432413,0.40639055
61325af0137e3f0aa5b2ad59,81,1,2024-02-27T11:59:47.724Z,english_513.wav,0,pill,1182,34,5,5,français,f,4,0.32341667,-50.64117466,1.29336046
61325af0137e3f0aa5b2ad59,82,1,2024-02-27T11:59:47.724Z,english_528.wav,0,peel,1690,34,5,5,français,f,0,0.0,34.31610554,1.55529168
61325af0137e3f0aa5b2ad59,82,1,2024-02-27T11:59:47.724Z,english_528.wav,0,peel,1690,34,5,5,français,f,1,0.1,28.08911917,0.29936297
61325af0137e3f0aa5b2ad59,82,1,2024-02-27T11:59:47.724Z,english_528.wav,0,peel,1690,34,5,5,français,f,2,0.2,-86.77613696,0.95155831
61325af0137e3f0aa5b2ad59,82,1,2024-02-27T11:59:47.724Z,english_528.wav,0,peel,1690,34,5,5,français,f,3,0.3,-45.45420678,1.46511459
61325af0137e3f0aa5b2ad59,82,1,2024-02-27T11:59:47.724Z,english_528.wav,0,peel,1690,34,5,5,français,f,4,0.32341667,-58.86275596,0.63923396
61325af0137e3f0aa5b2ad59,83,1,2024-02-27T11:59:47.724Z,english_745.wav,0,pill,1787,34,5,5,français,f,0,0.0,-57.64472866,1.88925258
61325af0137e3f0aa5b2ad59,83,1,2024-02-27T11:59:47.724Z,english_745.wav,0,pill,1787,34,5,5,français,f,1,0.1,-14.80975681,0.26333653
61325af0137e3f0aa5b2ad59,83,1,2024-02-27T11:59:47.724Z,english_745.wav,0,pill,1787,34,5,5,français,f,2,0.2,44.46939178,1.01945351
61325af0137e3f0aa5b2ad59,83,1,2024-02-27T11:59:47.724Z,english_745.wav,0,pill,1787,34,5,5,français,f,3,0.3,56.80280999,0.00901457
61325af0137e3f0aa5b2ad59,83,1,2024-02-27T11:59:47.724Z,english_745.wav,0,pill,1787,34,5,5,français,f,4,0.32341667,-16.53068296,0.38778228
61325af0137e3f0aa5b2ad59,84,1,2024-02-27T11:59:47.724Z,english_73.wav,0,peel,2226,34,5,5,français,f,0,0.0,-73.49165063,1.41947215
61325af0137e3f0aa5b2ad59,84,1,2024-02-27T11:59:47.724Z,english_73.wav,0,peel,2226,34,5,5,français,f,1,0.1,65.54847429,1.68852165
61325af0137e3f0aa5b2ad59,84,1,2024-02-27T11:59:47.724Z,english_73.wav,0,peel,2226,34,5,5,français,f,2,0.2,-55.11967081,0.59259525
61325af0137e3f0aa5b2ad59,84,1,2024-02-27T11:59:47.724Z,english_73.wav,0,peel,2226,34,5,5,français,f,3,0.3,68.77466141,0.85140805
61325af0137e3f0aa5b2ad59,84,1,2024-02-27T11:59:47.724Z,english_73.wav,0,peel,2226,34,5,5,français,f,4,0.32341667,-37.79888894,1.17745107
61325af0137e3f0aa5b2ad59,85,1,2024-02-27T11:59:47.724Z,english_361.wav,0,peel,1845,34,5,5,français,f,0,0.0,47.37783877,1.2281625
61325af0137e3f0aa5b2ad59,85,1,2024-02-27T11:59:47.724Z,english_361.wav,0,peel,1845,34,5,5,français,f,1,0.1,41.96620543,0.32170701
61325af0137e3f0aa5b2ad59,85,1,2024-02-27T11:59:47.724Z,english_361.wav,0,peel,1845,34,5,5,français,f,2,0.2,-99.83447432,0.41267147
61325af0137e3f0aa5b2ad59,85,1,2024-02-27T11:59:47.724Z,english_361.wav,0,peel,1845,34,5,5,français,f,3,0.3,-83.75612903,0.32528287
61325af0137e3f0aa5b2ad59,85,1,2024-02-27T11:59:47.724Z,english_361.wav,0,peel,1845,34,5,5,français,f,4,0.32341667,99.31228573,0.29737668
61325af0137e3f0aa5b2ad59,86,1,2024-02-27T11:59:47.724Z,english_364.wav,0,pill,1564,34,5,5,français,f,0,0.0,19.50953027,1.75500584
61325af0137e3f0aa5b2ad59,86,1,2024-02-27T11:59:47.724Z,english_364.wav,0,pill,1564,34,5,5,français,f,1,0.1,48.44847612,1.3553812
61325af0137e3f0aa5b2ad59,86,1,2024-02-27T11:59:47.724Z,english_364.wav,0,pill,1564,34,5,5,français,f,2,0.2,-85.20645473,0.86672295
61325af0137e3f0aa5b2ad59,86,1,2024-02-27T11:59:47.724Z,english_364.wav,0,pill,1564,34,5,5,français,f,3,0.3,97.47454191,1.42489128
61325af0137e3f0aa5b2ad59,86,1,2024-02-27T11:59:47.724Z,english_364.wav,0,pill,1564,34,5,5,français,f,4,0.32341667,-45.42958463,1.19673805
61325af0137e3f0aa5b2ad59,87,1,2024-02-27T11:59:47.724Z,english_978.wav,0,pill,1344,34,5,5,français,f,0,0.0,-73.1961296,0.69168228
61325af0137e3f0aa5b2ad59,87,1,2024-02-27T11:59:47.724Z,english_978.wav,0,pill,1344,34,5,5,français,f,1,0.1,-56.98452675,1.28516196
61325af0137e3f0aa5b2ad59,87,1,2024-02-27T11:59:47.724Z,english_978.wav,0,pill,1344,34,5,5,français,f,2,0.2,1.81288897,1.00851945
61325af0137e3f0aa5b2ad59,87,1,2024-02-27T11:59:47.724Z,english_978.wav,0,pill,1344,34,5,5,français,f,3,0.3,-17.93803526,0.05981722
61325af0137e3f0aa5b2ad59,87,1,2024-02-27T11:59:47.724Z,english_978.wav,0,pill,1344,34,5,5,français,f,4,0.32341667,-33.17886565,1.89275203
61325af0137e3f0aa5b2ad59,88,1,2024-02-27T11:59:47.724Z,english_55.wav,0,pill,1222,34,5,5,français,f,0,0.0,71.89255128,0.24931264
61325af0137e3f0aa5b2ad59,88,1,2024-02-27T11:59:47.724Z,english_55.wav,0,pill,1222,34,5,5,français,f,1,0.1,0.20692224,1.79813092
61325af0137e3f0aa5b2ad59,88,1,2024-02-27T11:59:47.724Z,english_55.wav,0,pill,1222,34,5,5,français,f,2,0.2,-68.61006599,0.71729895
61325af0137e3f0aa5b2ad59,88,1,2024-02-27T11:59:47.724Z,english_55.wav,0,pill,1222,34,5,5,français,f,3,0.3,-5.20952515,1.28733782
61325af0137e3f0aa5b2ad59,88,1,2024-02-27T11:59:47.724Z,english_55.wav,0,pill,1222,34,5,5,français,f,4,0.32341667,28.45991968,1.77061752
61325af0137e3f0aa5b2ad59,89,1,2024-02-27T11:59:47.724Z,english_29.wav,0,pill,1278,34,5,5,français,f,0,0.0,-2.71310826,1.50712016
61325af0137e3f0aa5b2ad59,89,1,2024-02-27T11:59:47.724Z,english_29.wav,0,pill,1278,34,5,5,français,f,1,0.1,17.7201972,0.83644439
61325af0137e3f0aa5b2ad59,89,1,2024-02-27T11:59:47.724Z,english_29.wav,0,pill,1278,34,5,5,français,f,2,0.2,-20.17501418,0.76078741
61325af0137e3f0aa5b2ad59,89,1,2024-02-27T11:59:47.724Z,english_29.wav,0,pill,1278,34,5,5,français,f,3,0.3,12.48271646,0.17009155
61325af0137e3f0aa5b2ad59,89,1,2024-02-27T11:59:47.724Z,english_29.wav,0,pill,1278,34,5,5,français,f,4,0.32341667,29.42079391,1.26727983
61325af0137e3f0aa5b2ad59,90,1,2024-02-27T11:59:47.724Z,english_877.wav,0,peel,2280,34,5,5,français,f,0,0.0,49.36401037,1.25510861
61325af0137e3f0aa5b2ad59,90,1,2024-02-27T11:59:47.724Z,english_877.wav,0,peel,2280,34,5,5,français,f,1,0.1,15.17280231,0.84700305
61325af0137e3f0aa5b2ad59,90,1,2024-02-27T11:59:47.724Z,english_877.wav,0,peel,2280,34,5,5,français,f,2,0.2,22.36436744,0.32703774
61325af0137e3f0aa5b2ad59,90,1,2024-02-27T11:59:47.724Z,english_877.wav,0,peel,2280,34,5,5,français,f,3,0.3,-25.51979868,1.72637958
61325af0137e3f0aa5b2ad59,90,1,2024-02-27T11:59:47.724Z,english_877.wav,0,peel,2280,34,5,5,français,f,4,0.32341667,-55.72443313,0.52117686
61325af0137e3f0aa5b2ad59,91,1,2024-02-27T11:59:47.724Z,english_215.wav,0,peel,1444,34,5,5,français,f,0,0.0,-93.71362427,1.31176069
61325af0137e3f0aa5b2ad59,91,1,2024-02-27T11:59:47.724Z,english_215.wav,0,peel,1444,34,5,5,français,f,1,0.1,20.4696733,1.25536714
61325af0137e3f0aa5b2ad59,91,1,2024-02-27T11:59:47.724Z,english_215.wav,0,peel,1444,34,5,5,français,f,2,0.2,-66.57352715,1.5696385
61325af0137e3f0aa5b2ad59,91,1,2024-02-27T11:59:47.724Z,english_215.wav,0,peel,1444,34,5,5,français,f,3,0.3,-0.6079782,0.03144419
61325af0137e3f0aa5b2ad59,91,1,2024-02-27T11:59:47.724Z,english_215.wav,0,peel,1444,34,5,5,français,f,4,0.32341667,-5.73921948,0.79048669
61325af0137e3f0aa5b2ad59,92,1,2024-02-27T11:59:47.724Z,english_299.wav,0,peel,1652,34,5,5,français,f,0,0.0,-2.55977829,0.95716625
61325af0137e3f0aa5b2ad59,92,1,2024-02-27T11:59:47.724Z,english_299.wav,0,peel,1652,34,5,5,français,f,1,0.1,1.77446255,1.43363845
61325af0137e3f0aa5b2ad59,92,1,2024-02-27T11:59:47.724Z,english_299.wav,0,peel,1652,34,5,5,français,f,2,0.2,-18.83457859,1.1421669
61325af0137e3f0aa5b2ad59,92,1,2024-02-27T11:59:47.724Z,english_299.wav,0,peel,1652,34,5,5,français,f,3,0.3,-71.88845024,1.57148089
61325af0137e3f0aa5b2ad59,92,1,2024-02-27T11:59:47.724Z,english_299.wav,0,peel,1652,34,5,5,français,f,4,0.32341667,99.76623745,1.70410623
61325af0137e3f0aa5b2ad59,93,1,2024-02-27T11:59:47.724Z,english_912.wav,0,peel,1464,34,5,5,français,f,0,0.0,-43.64864707,0.87210048
61325af0137e3f0aa5b2ad59,93,1,2024-02-27T11:59:47.724Z,english_912.wav,0,peel,1464,34,5,5,français,f,1,0.1,94.54433808,1.43243955
61325af0137e3f0aa5b2ad59,93,1,2024-02-27T11:59:47.724Z,english_912.wav,0,peel,1464,34,5,5,français,f,2,0.2,67.98324072,1.49899487
61325af0137e3f0aa5b2ad59,93,1,2024-02-27T11:59:47.724Z,english_912.wav,0,peel,1464,34,5,5,français,f,3,0.3,9.27329172,0.42663795
61325af0137e3f0aa5b2ad59,93,1,2024-02-27T11:59:47.724Z,english_912.wav,0,peel,1464,34,5,5,français,f,4,0.32341667,-55.44973818,0.19299009
61325af0137e3f0aa5b2ad59,94,1,2024-02-27T11:59:47.724Z,english_760.wav,0,peel,1547,34,5,5,français,f,0,0.0,24.3902693,0.67210823
61325af0137e3f0aa5b2ad59,94,1,2024-02-27T11:59:47.724Z,english_760.wav,0,peel,1547,34,5,5,français,f,1,0.1,-0.0247174936,1.89588113
61325af0137e3f0aa5b2ad59,94,1,2024-02-27T11:59:47.724Z,english_760.wav,0,peel,1547,34,5,5,français,f,2,0.2,82.8662613,0.23432987
61325af0137e3f0aa5b2ad59,94,1,2024-02-27T11:59:47.724Z,english_760.wav,0,peel,1547,34,5,5,français,f,3,0.3,-7.97314524,1.20797246
61325af0137e3f0aa5b2ad59,94,1,2024-02-27T11:59:47.724Z,english_760.wav,0,peel,1547,34,5,5,français,f,4,0.323416667,-6.32438983,1.72866971
61325af0137e3f0aa5b2ad59,95,1,2024-02-27T11:59:47.724Z,english_940.wav,0,pill,1002,34,5,5,français,f,0,0.0,47.11462569,0.32214594
61325af0137e3f0aa5b2ad59,95,1,2024-02-27T11:59:47.724Z,english_940.wav,0,pill,1002,34,5,5,français,f,1,0.1,11.81885745,0.21999868
61325af0137e3f0aa5b2ad59,95,1,2024-02-27T11:59:47.724Z,english_940.wav,0,pill,1002,34,5,5,français,f,2,0.2,-1.49931669,0.34357292
61325af0137e3f0aa5b2ad59,95,1,2024-02-27T11:59:47.724Z,english_940.wav,0,pill,1002,34,5,5,français,f,3,0.3,45.92466934,1.61274527
61325af0137e3f0aa5b2ad59,95,1,2024-02-27T11:59:47.724Z,english_940.wav,0,pill,1002,34,5,5,français,f,4,0.32341667,-72.78738407,0.9185628
61325af0137e3f0aa5b2ad59,96,1,2024-02-27T11:59:47.724Z,english_729.wav,0,peel,2313,34,5,5,français,f,0,0.0,31.16849918,1.30127688
61325af0137e3f0aa5b2ad59,96,1,2024-02-27T11:59:47.724Z,english_729.wav,0,peel,2313,34,5,5,français,f,1,0.1,-74.04657477,1.28998605
61325af0137e3f0aa5b2ad59,96,1,2024-02-27T11:59:47.724Z,english_729.wav,0,peel,2313,34,5,5,français,f,2,0.2,98.28479208,0.71365363
61325af0137e3f0aa5b2ad59,96,1,2024-02-27T11:59:47.724Z,english_729.wav,0,peel,2313,34,5,5,français,f,3,0.3,45.68234461,0.61436371
61325af0137e3f0aa5b2ad59,96,1,2024-02-27T11:59:47.724Z,english_729.wav,0,peel,2313,34,5,5,français,f,4,0.32341667,-23.12232547,0.96520681
61325af0137e3f0aa5b2ad59,97,1,2024-02-27T11:59:47.724Z,english_104.wav,0,peel,1098,34,5,5,français,f,0,0.0,42.44693926,0.1741435
61325af0137e3f0aa5b2ad59,97,1,2024-02-27T11:59:47.724Z,english_104.wav,0,peel,1098,34,5,5,français,f,1,0.1,82.22484934,0.11379641
61325af0137e3f0aa5b2ad59,97,1,2024-02-27T11:59:47.724Z,english_104.wav,0,peel,1098,34,5,5,français,f,2,0.2,7.21737924,1.60376175
61325af0137e3f0aa5b2ad59,97,1,2024-02-27T11:59:47.724Z,english_104.wav,0,peel,1098,34,5,5,français,f,3,0.3,26.54640215,1.08059257
61325af0137e3f0aa5b2ad59,97,1,2024-02-27T11:59:47.724Z,english_104.wav,0,peel,1098,34,5,5,français,f,4,0.32341667,-33.4974026,1.8061622
61325af0137e3f0aa5b2ad59,98,1,2024-02-27T11:59:47.724Z,english_480.wav,0,pill,932,34,5,5,français,f,0,0.0,-9.10453384,0.61491247
61325af0137e3f0aa5b2ad59,98,1,2024-02-27T11:59:47.724Z,english_480.wav,0,pill,932,34,5,5,français,f,1,0.1,72.09708103,1.35502449
61325af0137e3f0aa5b2ad59,98,1,2024-02-27T11:59:47.724Z,english_480.wav,0,pill,932,34,5,5,français,f,2,0.2,-73.7181862,0.28674933
61325af0137e3f0aa5b2ad59,98,1,2024-02-27T11:59:47.724Z,english_480.wav,0,pill,932,34,5,5,français,f,3,0.3,18.73451671,0.14653082
61325af0137e3f0aa5b2ad59,98,1,2024-02-27T11:59:47.724Z,english_480.wav,0,pill,932,34,5,5,français,f,4,0.32341667,83.35837597,1.34653786
61325af0137e3f0aa5b2ad59,99,1,2024-02-27T11:59:47.724Z,english_276.wav,0,peel,1275,34,5,5,français,f,0,0.0,-87.25523595,1.1918401
61325af0137e3f0aa5b2ad59,99,1,2024-02-27T11:59:47.724Z,english_276.wav,0,peel,1275,34,5,5,français,f,1,0.1,16.91650801,0.89399115
61325af0137e3f0aa5b2ad59,99,1,2024-02-27T11:59:47.724Z,english_276.wav,0,peel,1275,34,5,5,français,f,2,0.2,-40.09372932,0.89701806
61325af0137e3f0aa5b2ad59,99,1,2024-02-27T11:59:47.724Z,english_276.wav,0,peel,1275,34,5,5,français,f,3,0.3,3.19229046,1.98333504
61325af0137e3f0aa5b2ad59,99,1,2024-02-27T11:59:47.724Z,english_276.wav,0,peel,1275,34,5,5,français,f,4,0.32341667,18.84785296,1.85350493
61325af0137e3f0aa5b2ad59,100,2,2024-02-27T11:59:47.724Z,english_719.wav,0,pill,1916,34,5,5,français,f,0,0.0,-32.14306232,1.4431753
61325af0137e3f0aa5b2ad59,100,2,2024-02-27T11:59:47.724Z,english_719.wav,0,pill,1916,34,5,5,français,f,1,0.1,-81.40439332,0.46175707
61325af0137e3f0aa5b2ad59,100,2,2024-02-27T11:59:47.724Z,english_719.wav,0,pill,1916,34,5,5,français,f,2,0.2,-20.1172293,1.86886769
61325af0137e3f0aa5b2ad59,100,2,2024-02-27T11:59:47.724Z,english_719.wav,0,pill,1916,34,5,5,français,f,3,0.3,67.63048238,0.67969247
61325af0137e3f0aa5b2ad59,100,2,2024-02-27T11:59:47.724Z,english_719.wav,0,pill,1916,34,5,5,français,f,4,0.32341667,50.83305788,1.68151983
61325af0137e3f0aa5b2ad59,101,2,2024-02-27T11:59:47.724Z,english_161.wav,0,pill,1439,34,5,5,français,f,0,0.0,16.17182642,0.80971259
61325af0137e3f0aa5b2ad59,101,2,2024-02-27T11:59:47.724Z,english_161.wav,0,pill,1439,34,5,5,français,f,1,0.1,51.23408036,1.56168911
61325af0137e3f0aa5b2ad59,101,2,2024-02-27T11:59:47.724Z,english_161.wav,0,pill,1439,34,5,5,français,f,2,0.2,56.55598601,0.91666403
61325af0137e3f0aa5b2ad59,101,2,2024-02-27T11:59:47.724Z,english_161.wav,0,pill,1439,34,5,5,français,f,3,0.3,-25.08054758,1.93998208
61325af0137e3f0aa5b2ad59,101,2,2024-02-27T11:59:47.724Z,english_161.wav,0,pill,1439,34,5,5,français,f,4,0.32341667,-70.36900789,0.76147365
61325af0137e3f0aa5b2ad59,102,2,2024-02-27T11:59:47.724Z,english_755.wav,0,pill,1247,34,5,5,français,f,0,0.0,-15.85533995,0.06987403
61325af0137e3f0aa5b2ad59,102,2,2024-02-27T11:59:47.724Z,english_755.wav,0,pill,1247,34,5,5,français,f,1,0.1,-97.95934782,0.83204773
61325af0137e3f0aa5b2ad59,102,2,2024-02-27T11:59:47.724Z,english_755.wav,0,pill,1247,34,5,5,français,f,2,0.2,-5.14559719,1.06816443
61325af0137e3f0aa5b2ad59,102,2,2024-02-27T11:59:47.724Z,english_755.wav,0,pill,1247,34,5,5,français,f,3,0.3,32.74087849,1.42856986
61325af0137e3f0aa5b2ad59,102,2,2024-02-27T11:59:47.724Z,english_755.wav,0,pill,1247,34,5,5,français,f,4,0.32341667,-56.93437429,0.58130438
61325af0137e3f0aa5b2ad59,103,2,2024-02-27T11:59:47.724Z,english_193.wav,0,peel,731,34,5,5,français,f,0,0.0,98.63199606,1.10219899
61325af0137e3f0aa5b2ad59,103,2,2024-02-27T11:59:47.724Z,english_193.wav,0,peel,731,34,5,5,français,f,1,0.1,38.06859183,1.75752318
61325af0137e3f0aa5b2ad59,103,2,2024-02-27T11:59:47.724Z,english_193.wav,0,peel,731,34,5,5,français,f,2,0.2,58.19309996,1.8701857
61325af0137e3f0aa5b2ad59,103,2,2024-02-27T11:59:47.724Z,english_193.wav,0,peel,731,34,5,5,français,f,3,0.3,70.68425501,1.90449871
61325af0137e3f0aa5b2ad59,103,2,2024-02-27T11:59:47.724Z,english_193.wav,0,peel,731,34,5,5,français,f,4,0.32341667,89.06926868,1.70479661
61325af0137e3f0aa5b2ad59,104,2,2024-02-27T11:59:47.724Z,english_767.wav,0,peel,945,34,5,5,français,f,0,0.0,29.63321135,0.17563718
61325af0137e3f0aa5b2ad59,104,2,2024-02-27T11:59:47.724Z,english_767.wav,0,peel,945,34,5,5,français,f,1,0.1,-31.63783795,0.61981002
61325af0137e3f0aa5b2ad59,104,2,2024-02-27T11:59:47.724Z,english_767.wav,0,peel,945,34,5,5,français,f,2,0.2,56.53254366,1.38773128
61325af0137e3f0aa5b2ad59,104,2,2024-02-27T11:59:47.724Z,english_767.wav,0,peel,945,34,5,5,français,f,3,0.3,52.69149806,1.37795514
61325af0137e3f0aa5b2ad59,104,2,2024-02-27T11:59:47.724Z,english_767.wav,0,peel,945,34,5,5,français,f,4,0.32341667,-0.8536295,1.97315338
61325af0137e3f0aa5b2ad59,105,2,2024-02-27T11:59:47.724Z,english_72.wav,0,peel,1492,34,5,5,français,f,0,0.0,3.79788214,1.04175162
61325af0137e3f0aa5b2ad59,105,2,2024-02-27T11:59:47.724Z,english_72.wav,0,peel,1492,34,5,5,français,f,1,0.1,-35.73428138,0.91099175
61325af0137e3f0aa5b2ad59,105,2,2024-02-27T11:59:47.724Z,english_72.wav,0,peel,1492,34,5,5,français,f,2,0.2,-30.83181688,0.34322307
61325af0137e3f0aa5b2ad59,105,2,2024-02-27T11:59:47.724Z,english_72.wav,0,peel,1492,34,5,5,français,f,3,0.3,-68.4260973,1.39599539
61325af0137e3f0aa5b2ad59,105,2,2024-02-27T11:59:47.724Z,english_72.wav,0,peel,1492,34,5,5,français,f,4,0.32341667,-10.87667298,0.78322702
61325af0137e3f0aa5b2ad59,106,2,2024-02-27T11:59:47.724Z,english_859.wav,0,peel,1019,34,5,5,français,f,0,0.0,71.31858369,0.11764496
61325af0137e3f0aa5b2ad59,106,2,2024-02-27T11:59:47.724Z,english_859.wav,0,peel,1019,34,5,5,français,f,1,0.1,-33.60875554,0.29827778
61325af0137e3f0aa5b2ad59,106,2,2024-02-27T11:59:47.724Z,english_859.wav,0,peel,1019,34,5,5,français,f,2,0.2,-64.15502461,0.43254339
61325af0137e3f0aa5b2ad59,106,2,2024-02-27T11:59:47.724Z,english_859.wav,0,peel,1019,34,5,5,français,f,3,0.3,-36.22537369,0.12368506
61325af0137e3f0aa5b2ad59,106,2,2024-02-27T11:59:47.724Z,english_859.wav,0,peel,1019,34,5,5,français,f,4,0.32341667,-23.59955866,0.97858169
61325af0137e3f0aa5b2ad59,107,2,2024-02-27T11:59:47.724Z,english_109.wav,0,pill,1245,34,5,5,français,f,0,0.0,44.56131593,1.07349586
61325af0137e3f0aa5b2ad59,107,2,2024-02-27T11:59:47.724Z,english_109.wav,0,pill,1245,34,5,5,français,f,1,0.1,-35.23159756,1.27535987
61325af0137e3f0aa5b2ad59,107,2,2024-02-27T11:59:47.724Z,english_109.wav,0,pill,1245,34,5,5,français,f,2,0.2,-19.62269282,1.28483541
61325af0137e3f0aa5b2ad59,107,2,2024-02-27T11:59:47.724Z,english_109.wav,0,pill,1245,34,5,5,français,f,3,0.3,38.10372837,1.04109326
61325af0137e3f0aa5b2ad59,107,2,2024-02-27T11:59:47.724Z,english_109.wav,0,pill,1245,34,5,5,français,f,4,0.32341667,-20.09605057,0.10213448
61325af0137e3f0aa5b2ad59,108,2,2024-02-27T11:59:47.724Z,english_185.wav,0,peel,922,34,5,5,français,f,0,0.0,-67.20213277,0.62417316
61325af0137e3f0aa5b2ad59,108,2,2024-02-27T11:59:47.724Z,english_185.wav,0,peel,922,34,5,5,français,f,1,0.1,-70.91279736,1.12829576
61325af0137e3f0aa5b2ad59,108,2,2024-02-27T11:59:47.724Z,english_185.wav,0,peel,922,34,5,5,français,f,2,0.2,11.55913655,0.70978518
61325af0137e3f0aa5b2ad59,108,2,2024-02-27T11:59:47.724Z,english_185.wav,0,peel,922,34,5,5,français,f,3,0.3,-88.76292025,0.02882377
61325af0137e3f0aa5b2ad59,108,2,2024-02-27T11:59:47.724Z,english_185.wav,0,peel,922,34,5,5,français,f,4,0.32341667,-25.67800099,0.52970381
61325af0137e3f0aa5b2ad59,109,2,2024-02-27T11:59:47.724Z,english_294.wav,0,peel,1431,34,5,5,français,f,0,0.0,-92.15775888,0.74816787
61325af0137e3f0aa5b2ad59,109,2,2024-02-27T11:59:47.724Z,english_294.wav,0,peel,1431,34,5,5,français,f,1,0.1,71.96645866,1.71916745
61325af0137e3f0aa5b2ad59,109,2,2024-02-27T11:59:47.724Z,english_294.wav,0,peel,1431,34,5,5,français,f,2,0.2,-25.46852775,1.7524902
61325af0137e3f0aa5b2ad59,109,2,2024-02-27T11:59:47.724Z,english_294.wav,0,peel,1431,34,5,5,français,f,3,0.3,17.21488016,0.9780509
61325af0137e3f0aa5b2ad59,109,2,2024-02-27T11:59:47.724Z,english_294.wav,0,peel,1431,34,5,5,français,f,4,0.32341667,-10.41176069,1.21177262
61325af0137e3f0aa5b2ad59,110,2,2024-02-27T11:59:47.724Z,english_629.wav,0,peel,1288,34,5,5,français,f,0,0.0,76.68747977,0.56482572
61325af0137e3f0aa5b2ad59,110,2,2024-02-27T11:59:47.724Z,english_629.wav,0,peel,1288,34,5,5,français,f,1,0.1,72.0676039,0.14075004
61325af0137e3f0aa5b2ad59,110,2,2024-02-27T11:59:47.724Z,english_629.wav,0,peel,1288,34,5,5,français,f,2,0.2,-3.42071834,0.80885654
61325af0137e3f0aa5b2ad59,110,2,2024-02-27T11:59:47.724Z,english_629.wav,0,peel,1288,34,5,5,français,f,3,0.3,-75.36993348,1.43133267
61325af0137e3f0aa5b2ad59,110,2,2024-02-27T11:59:47.724Z,english_629.wav,0,peel,1288,34,5,5,français,f,4,0.32341667,-15.4233884,0.14234351
61325af0137e3f0aa5b2ad59,111,2,2024-02-27T11:59:47.724Z,english_450.wav,0,peel,2563,34,5,5,français,f,0,0.0,32.75253923,1.28767958
61325af0137e3f0aa5b2ad59,111,2,2024-02-27T11:59:47.724Z,english_450.wav,0,peel,2563,34,5,5,français,f,1,0.1,-95.51335644,1.7262356
61325af0137e3f0aa5b2ad59,111,2,2024-02-27T11:59:47.724Z,english_450.wav,0,peel,2563,34,5,5,français,f,2,0.2,34.87485597,0.97567272
61325af0137e3f0aa5b2ad59,111,2,2024-02-27T11:59:47.724Z,english_450.wav,0,peel,2563,34,5,5,français,f,3,0.3,-23.91285283,1.94639387
61325af0137e3f0aa5b2ad59,111,2,2024-02-27T11:59:47.724Z,english_450.wav,0,peel,2563,34,5,5,français,f,4,0.32341667,-8.67870007,1.78958339
61325af0137e3f0aa5b2ad59,112,2,2024-02-27T11:59:47.724Z,english_546.wav,0,peel,1645,34,5,5,français,f,0,0.0,81.21590514,1.56657823
61325af0137e3f0aa5b2ad59,112,2,2024-02-27T11:59:47.724Z,english_546.wav,0,peel,1645,34,5,5,français,f,1,0.1,75.01018689,0.84038259
61325af0137e3f0aa5b2ad59,112,2,2024-02-27T11:59:47.724Z,english_546.wav,0,peel,1645,34,5,5,français,f,2,0.2,15.56226302,0.00684501
61325af0137e3f0aa5b2ad59,112,2,2024-02-27T11:59:47.724Z,english_546.wav,0,peel,1645,34,5,5,français,f,3,0.3,48.30886192,1.68157273
61325af0137e3f0aa5b2ad59,112,2,2024-02-27T11:59:47.724Z,english_546.wav,0,peel,1645,34,5,5,français,f,4,0.32341667,18.80923499,1.09409739
61325af0137e3f0aa5b2ad59,113,2,2024-02-27T11:59:47.724Z,english_830.wav,0,peel,1233,34,5,5,français,f,0,0.0,2.63258607,0.89301132
61325af0137e3f0aa5b2ad59,113,2,2024-02-27T11:59:47.724Z,english_830.wav,0,peel,1233,34,5,5,français,f,1,0.1,-31.8387274,1.32560067
61325af0137e3f0aa5b2ad59,113,2,2024-02-27T11:59:47.724Z,english_830.wav,0,peel,1233,34,5,5,français,f,2,0.2,-6.78563658,1.08718884
61325af0137e3f0aa5b2ad59,113,2,2024-02-27T11:59:47.724Z,english_830.wav,0,peel,1233,34,5,5,français,f,3,0.3,-57.52390495,0.53430446
61325af0137e3f0aa5b2ad59,113,2,2024-02-27T11:59:47.724Z,english_830.wav,0,peel,1233,34,5,5,français,f,4,0.32341667,51.13575953,0.53816607
61325af0137e3f0aa5b2ad59,114,2,2024-02-27T11:59:47.724Z,english_938.wav,0,pill,958,34,5,5,français,f,0,0.0,55.68553541,1.13527087
61325af0137e3f0aa5b2ad59,114,2,2024-02-27T11:59:47.724Z,english_938.wav,0,pill,958,34,5,5,français,f,1,0.1,19.57508628,0.57526943
61325af0137e3f0aa5b2ad59,114,2,2024-02-27T11:59:47.724Z,english_938.wav,0,pill,958,34,5,5,français,f,2,0.2,99.59707332,0.71873046
61325af0137e3f0aa5b2ad59,114,2,2024-02-27T11:59:47.724Z,english_938.wav,0,pill,958,34,5,5,français,f,3,0.3,-43.3789335,0.88566698
61325af0137e3f0aa5b2ad59,114,2,2024-02-27T11:59:47.724Z,english_938.wav,0,pill,958,34,5,5,français,f,4,0.32341667,90.00594125,0.39461425
61325af0137e3f0aa5b2ad59,115,2,2024-02-27T11:59:47.724Z,english_205.wav,0,pill,997,34,5,5,français,f,0,0.0,55.03693902,1.41699591
61325af0137e3f0aa5b2ad59,115,2,2024-02-27T11:59:47.724Z,english_205.wav,0,pill,997,34,5,5,français,f,1,0.1,59.05347117,0.25749205
61325af0137e3f0aa5b2ad59,115,2,2024-02-27T11:59:47.724Z,english_205.wav,0,pill,997,34,5,5,français,f,2,0.2,-51.93258482,1.78695407
61325af0137e3f0aa5b2ad59,115,2,2024-02-27T11:59:47.724Z,english_205.wav,0,pill,997,34,5,5,français,f,3,0.3,-18.66886592,0.11157042
61325af0137e3f0aa5b2ad59,115,2,2024-02-27T11:59:47.724Z,english_205.wav,0,pill,997,34,5,5,français,f,4,0.32341667,-25.16213195,1.74030417
61325af0137e3f0aa5b2ad59,116,2,2024-02-27T11:59:47.724Z,english_792.wav,0,peel,1977,34,5,5,français,f,0,0.0,-56.39949456,1.32676777
61325af0137e3f0aa5b2ad59,116,2,2024-02-27T11:59:47.724Z,english_792.wav,0,peel,1977,34,5,5,français,f,1,0.1,-76.36067248,1.08004851
61325af0137e3f0aa5b2ad59,116,2,2024-02-27T11:59:47.724Z,english_792.wav,0,peel,1977,34,5,5,français,f,2,0.2,-58.44160547,1.5809308
61325af0137e3f0aa5b2ad59,116,2,2024-02-27T11:59:47.724Z,english_792.wav,0,peel,1977,34,5,5,français,f,3,0.3,25.29086486,0.16508433
61325af0137e3f0aa5b2ad59,116,2,2024-02-27T11:59:47.724Z,english_792.wav,0,peel,1977,34,5,5,français,f,4,0.32341667,-6.58788169,1.18870574
61325af0137e3f0aa5b2ad59,117,2,2024-02-27T11:59:47.724Z,english_829.wav,0,pill,1233,34,5,5,français,f,0,0.0,60.30417439,0.94286345
61325af0137e3f0aa5b2ad59,117,2,2024-02-27T11:59:47.724Z,english_829.wav,0,pill,1233,34,5,5,français,f,1,0.1,-26.87459656,0.76756767
61325af0137e3f0aa5b2ad59,117,2,2024-02-27T11:59:47.724Z,english_829.wav,0,pill,1233,34,5,5,français,f,2,0.2,59.05286014,1.50609211
61325af0137e3f0aa5b2ad59,117,2,2024-02-27T11:59:47.724Z,english_829.wav,0,pill,1233,34,5,5,français,f,3,0.3,-38.64739237,0.33518122
61325af0137e3f0aa5b2ad59,117,2,2024-02-27T11:59:47.724Z,english_829.wav,0,pill,1233,34,5,5,français,f,4,0.32341667,68.61732932,1.40687349
61325af0137e3f0aa5b2ad59,118,2,2024-02-27T11:59:47.724Z,english_133.wav,0,pill,862,34,5,5,français,f,0,0.0,12.35833749,0.72635311
61325af0137e3f0aa5b2ad59,118,2,2024-02-27T11:59:47.724Z,english_133.wav,0,pill,862,34,5,5,français,f,1,0.1,40.12315016,1.38782059
61325af0137e3f0aa5b2ad59,118,2,2024-02-27T11:59:47.724Z,english_133.wav,0,pill,862,34,5,5,français,f,2,0.2,21.09458129,0.15947395
61325af0137e3f0aa5b2ad59,118,2,2024-02-27T11:59:47.724Z,english_133.wav,0,pill,862,34,5,5,français,f,3,0.3,-98.82286682,0.28433836
61325af0137e3f0aa5b2ad59,118,2,2024-02-27T11:59:47.724Z,english_133.wav,0,pill,862,34,5,5,français,f,4,0.32341667,-85.44748976,1.2581514
61325af0137e3f0aa5b2ad59,119,2,2024-02-27T11:59:47.724Z,english_86.wav,0,peel,901,34,5,5,français,f,0,0.0,-48.59393833,1.45450552
61325af0137e3f0aa5b2ad59,119,2,2024-02-27T11:59:47.724Z,english_86.wav,0,peel,901,34,5,5,français,f,1,0.1,77.37095157,1.8635573
61325af0137e3f0aa5b2ad59,119,2,2024-02-27T11:59:47.724Z,english_86.wav,0,peel,901,34,5,5,français,f,2,0.2,44.19816726,1.174515
61325af0137e3f0aa5b2ad59,119,2,2024-02-27T11:59:47.724Z,english_86.wav,0,peel,901,34,5,5,français,f,3,0.3,-99.780271,1.46785746
61325af0137e3f0aa5b2ad59,119,2,2024-02-27T11:59:47.724Z,english_86.wav,0,peel,901,34,5,5,français,f,4,0.32341667,38.96545556,0.99607158
61325af0137e3f0aa5b2ad59,120,2,2024-02-27T11:59:47.724Z,english_616.wav,0,pill,1674,34,5,5,français,f,0,0.0,-71.12360497,0.83412473
61325af0137e3f0aa5b2ad59,120,2,2024-02-27T11:59:47.724Z,english_616.wav,0,pill,1674,34,5,5,français,f,1,0.1,55.35355355,1.49185731
61325af0137e3f0aa5b2ad59,120,2,2024-02-27T11:59:47.724Z,english_616.wav,0,pill,1674,34,5,5,français,f,2,0.2,-15.85026512,1.32170209
61325af0137e3f0aa5b2ad59,120,2,2024-02-27T11:59:47.724Z,english_616.wav,0,pill,1674,34,5,5,français,f,3,0.3,-22.60587367,0.90458331
61325af0137e3f0aa5b2ad59,120,2,2024-02-27T11:59:47.724Z,english_616.wav,0,pill,1674,34,5,5,français,f,4,0.32341667,-45.64131884,1.17134835
61325af0137e3f0aa5b2ad59,121,2,2024-02-27T11:59:47.724Z,english_997.wav,0,pill,1014,34,5,5,français,f,0,0.0,93.4252615,0.4603395
61325af0137e3f0aa5b2ad59,121,2,2024-02-27T11:59:47.724Z,english_997.wav,0,pill,1014,34,5,5,français,f,1,0.1,62.16088314,0.21654412
61325af0137e3f0aa5b2ad59,121,2,2024-02-27T11:59:47.724Z,english_997.wav,0,pill,1014,34,5,5,français,f,2,0.2,-26.38638022,1.36234896
61325af0137e3f0aa5b2ad59,121,2,2024-02-27T11:59:47.724Z,english_997.wav,0,pill,1014,34,5,5,français,f,3,0.3,89.15363163,1.07462804
61325af0137e3f0aa5b2ad59,121,2,2024-02-27T11:59:47.724Z,english_997.wav,0,pill,1014,34,5,5,français,f,4,0.32341667,-25.83137337,0.84007196
61325af0137e3f0aa5b2ad59,122,2,2024-02-27T11:59:47.724Z,english_393.wav,0,pill,1657,34,5,5,français,f,0,0.0,3.63201436,1.68653621
61325af0137e3f0aa5b2ad59,122,2,2024-02-27T11:59:47.724Z,english_393.wav,0,pill,1657,34,5,5,français,f,1,0.1,64.52667935,0.22518435
61325af0137e3f0aa5b2ad59,122,2,2024-02-27T11:59:47.724Z,english_393.wav,0,pill,1657,34,5,5,français,f,2,0.2,-51.23523019,0.07728703
61325af0137e3f0aa5b2ad59,122,2,2024-02-27T11:59:47.724Z,english_393.wav,0,pill,1657,34,5,5,français,f,3,0.3,-89.75219839,0.70962284
61325af0137e3f0aa5b2ad59,122,2,2024-02-27T11:59:47.724Z,english_393.wav,0,pill,1657,34,5,5,français,f,4,0.32341667,-66.06218428,0.7432397
61325af0137e3f0aa5b2ad59,123,2,2024-02-27T11:59:47.724Z,english_405.wav,0,pill,1082,34,5,5,français,f,0,0.0,-94.88566807,1.97726842
61325af0137e3f0aa5b2ad59,123,2,2024-02-27T11:59:47.724Z,english_405.wav,0,pill,1082,34,5,5,français,f,1,0.1,45.39575719,1.2658567
61325af0137e3f0aa5b2ad59,123,2,2024-02-27T11:59:47.724Z,english_405.wav,0,pill,1082,34,5,5,français,f,2,0.2,-94.78509898,0.10443365
61325af0137e3f0aa5b2ad59,123,2,2024-02-27T11:59:47.724Z,english_405.wav,0,pill,1082,34,5,5,français,f,3,0.3,54.14618135,0.24635614
61325af0137e3f0aa5b2ad59,123,2,2024-02-27T11:59:47.724Z,english_405.wav,0,pill,1082,34,5,5,français,f,4,0.32341667,-20.18916124,0.76836832
61325af0137e3f0aa5b2ad59,124,2,2024-02-27T11:59:47.724Z,english_941.wav,0,pill,2748,34,5,5,français,f,0,0.0,88.25484185,1.5236155
61325af0137e3f0aa5b2ad59,124,2,2024-02-27T11:59:47.724Z,english_941.wav,0,pill,2748,34,5,5,français,f,1,0.1,29.23312353,0.93469446
61325af0137e3f0aa5b2ad59,124,2,2024-02-27T11:59:47.724Z,english_941.wav,0,pill,2748,34,5,5,français,f,2,0.2,-73.60888885,0.44203051
61325af0137e3f0aa5b2ad59,124,2,2024-02-27T11:59:47.724Z,english_941.wav,0,pill,2748,34,5,5,français,f,3,0.3,-38.35663254,1.28625712
61325af0137e3f0aa5b2ad59,124,2,2024-02-27T11:59:47.724Z,english_941.wav,0,pill,2748,34,5,5,français,f,4,0.32341667,-37.21470774,1.264942
61325af0137e3f0aa5b2ad59,125,2,2024-02-27T11:59:47.724Z,english_339.wav,0,pill,2235,34,5,5,français,f,0,0.0,-58.67599578,0.13141934
61325af0137e3f0aa5b2ad59,125,2,2024-02-27T11:59:47.724Z,english_339.wav,0,pill,2235,34,5,5,français,f,1,0.1,-13.30258388,0.16133177
61325af0137e3f0aa5b2ad59,125,2,2024-02-27T11:59:47.724Z,english_339.wav,0,pill,2235,34,5,5,français,f,2,0.2,-52.40820381,1.13500643
61325af0137e3f0aa5b2ad59,125,2,2024-02-27T11:59:47.724Z,english_339.wav,0,pill,2235,34,5,5,français,f,3,0.3,11.33062491,0.98717522
61325af0137e3f0aa5b2ad59,125,2,2024-02-27T11:59:47.724Z,english_339.wav,0,pill,2235,34,5,5,français,f,4,0.32341667,9.6385593,0.10332776
61325af0137e3f0aa5b2ad59,126,2,2024-02-27T11:59:47.724Z,english_958.wav,0,peel,952,34,5,5,français,f,0,0.0,17.32592779,0.33109802
61325af0137e3f0aa5b2ad59,126,2,2024-02-27T11:59:47.724Z,english_958.wav,0,peel,952,34,5,5,français,f,1,0.1,89.03376041,1.83345348
61325af0137e3f0aa5b2ad59,126,2,2024-02-27T11:59:47.724Z,english_958.wav,0,peel,952,34,5,5,français,f,2,0.2,-24.89219777,1.95859429
61325af0137e3f0aa5b2ad59,126,2,2024-02-27T11:59:47.724Z,english_958.wav,0,peel,952,34,5,5,français,f,3,0.3,-92.10798137,1.50296341
61325af0137e3f0aa5b2ad59,126,2,2024-02-27T11:59:47.724Z,english_958.wav,0,peel,952,34,5,5,français,f,4,0.32341667,3.27828718,0.1474067
61325af0137e3f0aa5b2ad59,127,2,2024-02-27T11:59:47.724Z,english_376.wav,0,pill,1654,34,5,5,français,f,0,0.0,-10.66231765,0.83936518
61325af0137e3f0aa5b2ad59,127,2,2024-02-27T11:59:47.724Z,english_376.wav,0,pill,1654,34,5,5,français,f,1,0.1,-53.95799634,1.7265478
61325af0137e3f0aa5b2ad59,127,2,2024-02-27T11:59:47.724Z,english_376.wav,0,pill,1654,34,5,5,français,f,2,0.2,-44.60014177,0.44309389
61325af0137e3f0aa5b2ad59,127,2,2024-02-27T11:59:47.724Z,english_376.wav,0,pill,1654,34,5,5,français,f,3,0.3,-84.32777745,1.91772458
61325af0137e3f0aa5b2ad59,127,2,2024-02-27T11:59:47.724Z,english_376.wav,0,pill,1654,34,5,5,français,f,4,0.32341667,-2.76179289,0.76255227
61325af0137e3f0aa5b2ad59,128,2,2024-02-27T11:59:47.724Z,english_48.wav,0,pill,1156,34,5,5,français,f,0,0.0,73.79399561,0.74385981
61325af0137e3f0aa5b2ad59,128,2,2024-02-27T11:59:47.724Z,english_48.wav,0,pill,1156,34,5,5,français,f,1,0.1,-6.33056249,1.05457567
61325af0137e3f0aa5b2ad59,128,2,2024-02-27T11:59:47.724Z,english_48.wav,0,pill,1156,34,5,5,français,f,2,0.2,-25.55346814,0.45493163
61325af0137e3f0aa5b2ad59,128,2,2024-02-27T11:59:47.724Z,english_48.wav,0,pill,1156,34,5,5,français,f,3,0.3,46.43305776,0.06513279
61325af0137e3f0aa5b2ad59,128,2,2024-02-27T11:59:47.724Z,english_48.wav,0,pill,1156,34,5,5,français,f,4,0.32341667,-46.56414761,0.46755714
61325af0137e3f0aa5b2ad59,129,2,2024-02-27T11:59:47.724Z,english_357.wav,0,pill,1251,34,5,5,français,f,0,0.0,76.35734026,1.14590216
61325af0137e3f0aa5b2ad59,129,2,2024-02-27T11:59:47.724Z,english_357.wav,0,pill,1251,34,5,5,français,f,1,0.1,-86.84267031,0.53472093
61325af0137e3f0aa5b2ad59,129,2,2024-02-27T11:59:47.724Z,english_357.wav,0,pill,1251,34,5,5,français,f,2,0.2,-64.6676431,0.54723503
61325af0137e3f0aa5b2ad59,129,2,2024-02-27T11:59:47.724Z,english_357.wav,0,pill,1251,34,5,5,français,f,3,0.3,-69.9472318,1.29334783
61325af0137e3f0aa5b2ad59,129,2,2024-02-27T11:59:47.724Z,english_357.wav,0,pill,1251,34,5,5,français,f,4,0.32341667,87.84988665,1.74725804
61325af0137e3f0aa5b2ad59,130,2,2024-02-27T11:59:47.724Z,english_781.wav,0,peel,889,34,5,5,français,f,0,0.0,22.64916165,0.31928057
61325af0137e3f0aa5b2ad59,130,2,2024-02-27T11:59:47.724Z,english_781.wav,0,peel,889,34,5,5,français,f,1,0.1,6.89582518,1.4040275
61325af0137e3f0aa5b2ad59,130,2,2024-02-27T11:59:47.724Z,english_781.wav,0,peel,889,34,5,5,français,f,2,0.2,-79.07711894,0.86558079
61325af0137e3f0aa5b2ad59,130,2,2024-02-27T11:59:47.724Z,english_781.wav,0,peel,889,34,5,5,français,f,3,0.3,66.534152,0.14510309
61325af0137e3f0aa5b2ad59,130,2,2024-02-27T11:59:47.724Z,english_781.wav,0,peel,889,34,5,5,français,f,4,0.32341667,93.30494506,0.79620595
61325af0137e3f0aa5b2ad59,131,2,2024-02-27T11:59:47.724Z,english_896.wav,0,peel,854,34,5,5,français,f,0,0.0,-76.63716622,1.08893336
61325af0137e3f0aa5b2ad59,131,2,2024-02-27T11:59:47.724Z,english_896.wav,0,peel,854,34,5,5,français,f,1,0.1,-73.11298951,0.41748987
61325af0137e3f0aa5b2ad59,131,2,2024-02-27T11:59:47.724Z,english_896.wav,0,peel,854,34,5,5,français,f,2,0.2,48.53347054,0.32012442
61325af0137e3f0aa5b2ad59,131,2,2024-02-27T11:59:47.724Z,english_896.wav,0,peel,854,34,5,5,français,f,3,0.3,-4.46661278,0.63387312
61325af0137e3f0aa5b2ad59,131,2,2024-02-27T11:59:47.724Z,english_896.wav,0,peel,854,34,5,5,français,f,4,0.32341667,-44.69533701,1.27766005
61325af0137e3f0aa5b2ad59,132,2,2024-02-27T11:59:47.724Z,english_518.wav,0,peel,2011,34,5,5,français,f,0,0.0,52.37511869,0.23824141
61325af0137e3f0aa5b2ad59,132,2,2024-02-27T11:59:47.724Z,english_518.wav,0,peel,2011,34,5,5,français,f,1,0.1,-33.3490586,0.80559068
61325af0137e3f0aa5b2ad59,132,2,2024-02-27T11:59:47.724Z,english_518.wav,0,peel,2011,34,5,5,français,f,2,0.2,-71.20035434,1.24725456
61325af0137e3f0aa5b2ad59,132,2,2024-02-27T11:59:47.724Z,english_518.wav,0,peel,2011,34,5,5,français,f,3,0.3,6.23243823,1.01334401
61325af0137e3f0aa5b2ad59,132,2,2024-02-27T11:59:47.724Z,english_518.wav,0,peel,2011,34,5,5,français,f,4,0.32341667,-29.48660546,1.51264586
61325af0137e3f0aa5b2ad59,133,2,2024-02-27T11:59:47.724Z,english_901.wav,0,peel,1712,34,5,5,français,f,0,0.0,-14.81770559,1.5194741
61325af0137e3f0aa5b2ad59,133,2,2024-02-27T11:59:47.724Z,english_901.wav,0,peel,1712,34,5,5,français,f,1,0.1,-27.73561163,1.98674938
61325af0137e3f0aa5b2ad59,133,2,2024-02-27T11:59:47.724Z,english_901.wav,0,peel,1712,34,5,5,français,f,2,0.2,-22.44015454,0.54356598
61325af0137e3f0aa5b2ad59,133,2,2024-02-27T11:59:47.724Z,english_901.wav,0,peel,1712,34,5,5,français,f,3,0.3,-41.34815185,1.30497628
61325af0137e3f0aa5b2ad59,133,2,2024-02-27T11:59:47.724Z,english_901.wav,0,peel,1712,34,5,5,français,f,4,0.32341667,10.13492358,0.61526789
61325af0137e3f0aa5b2ad59,134,2,2024-02-27T11:59:47.724Z,english_591.wav,0,pill,1058,34,5,5,français,f,0,0.0,-17.23532002,0.16408748
61325af0137e3f0aa5b2ad59,134,2,2024-02-27T11:59:47.724Z,english_591.wav,0,pill,1058,34,5,5,français,f,1,0.1,-55.20494434,0.21361432
61325af0137e3f0aa5b2ad59,134,2,2024-02-27T11:59:47.724Z,english_591.wav,0,pill,1058,34,5,5,français,f,2,0.2,-36.65883109,0.19384467
61325af0137e3f0aa5b2ad59,134,2,2024-02-27T11:59:47.724Z,english_591.wav,0,pill,1058,34,5,5,français,f,3,0.3,75.34514139,0.82850175
61325af0137e3f0aa5b2ad59,134,2,2024-02-27T11:59:47.724Z,english_591.wav,0,pill,1058,34,5,5,français,f,4,0.32341667,31.2832342,1.471328
61325af0137e3f0aa5b2ad59,135,2,2024-02-27T11:59:47.724Z,english_169.wav,0,pill,1036,34,5,5,français,f,0,0.0,21.52556644,0.24747868
61325af0137e3f0aa5b2ad59,135,2,2024-02-27T11:59:47.724Z,english_169.wav,0,pill,1036,34,5,5,français,f,1,0.1,-62.21960884,0.51530303
61325af0137e3f0aa5b2ad59,135,2,2024-02-27T11:59:47.724Z,english_169.wav,0,pill,1036,34,5,5,français,f,2,0.2,-58.58818316,1.14352058
61325af0137e3f0aa5b2ad59,135,2,2024-02-27T11:59:47.724Z,english_169.wav,0,pill,1036,34,5,5,français,f,3,0.3,14.95103608,1.46694059
61325af0137e3f0aa5b2ad59,135,2,2024-02-27T11:59:47.724Z,english_169.wav,0,pill,1036,34,5,5,français,f,4,0.32341667,21.70814087,1.67980684
61325af0137e3f0aa5b2ad59,136,2,2024-02-27T11:59:47.724Z,english_63.wav,0,peel,979,34,5,5,français,f,0,0.0,-99.27532027,1.55063038
61325af0137e3f0aa5b2ad59,136,2,2024-02-27T11:59:47.724Z,english_63.wav,0,peel,979,34,5,5,français,f,1,0.1,76.75365344,0.78453917
61325af0137e3f0aa5b2ad59,136,2,2024-02-27T11:59:47.724Z,english_63.wav,0,peel,979,34,5,5,français,f,2,0.2,-4.19867406,1.54061689
61325af0137e3f0aa5b2ad59,136,2,2024-02-27T11:59:47.724Z,english_63.wav,0,peel,979,34,5,5,français,f,3,0.3,58.21469339,0.9417581
61325af0137e3f0aa5b2ad59,136,2,2024-02-27T11:59:47.724Z,english_63.wav,0,peel,979,34,5,5,français,f,4,0.32341667,-76.25580242,1.07689855
61325af0137e3f0aa5b2ad59,137,2,2024-02-27T11:59:47.724Z,english_310.wav,0,peel,717,34,5,5,français,f,0,0.0,82.1385274,0.14341218
61325af0137e3f0aa5b2ad59,137,2,2024-02-27T11:59:47.724Z,english_310.wav,0,peel,717,34,5,5,français,f,1,0.1,-33.74608058,1.80934389
61325af0137e3f0aa5b2ad59,137,2,2024-02-27T11:59:47.724Z,english_310.wav,0,peel,717,34,5,5,français,f,2,0.2,62.12487376,1.28785402
61325af0137e3f0aa5b2ad59,137,2,2024-02-27T11:59:47.724Z,english_310.wav,0,peel,717,34,5,5,français,f,3,0.3,96.31437548,1.13060378
61325af0137e3f0aa5b2ad59,137,2,2024-02-27T11:59:47.724Z,english_310.wav,0,peel,717,34,5,5,français,f,4,0.32341667,-23.64802517,1.05137249
61325af0137e3f0aa5b2ad59,138,2,2024-02-27T11:59:47.724Z,english_550.wav,0,pill,1322,34,5,5,français,f,0,0.0,19.46608022,0.78600887
61325af0137e3f0aa5b2ad59,138,2,2024-02-27T11:59:47.724Z,english_550.wav,0,pill,1322,34,5,5,français,f,1,0.1,-94.3556307,1.03273328
61325af0137e3f0aa5b2ad59,138,2,2024-02-27T11:59:47.724Z,english_550.wav,0,pill,1322,34,5,5,français,f,2,0.2,-80.90695222,0.36941932
61325af0137e3f0aa5b2ad59,138,2,2024-02-27T11:59:47.724Z,english_550.wav,0,pill,1322,34,5,5,français,f,3,0.3,-65.36230075,0.47038634
61325af0137e3f0aa5b2ad59,138,2,2024-02-27T11:59:47.724Z,english_550.wav,0,pill,1322,34,5,5,français,f,4,0.32341667,-18.45722395,0.11798167
61325af0137e3f0aa5b2ad59,139,2,2024-02-27T11:59:47.724Z,english_656.wav,0,peel,796,34,5,5,français,f,0,0.0,-4.15957802,0.9962349
61325af0137e3f0aa5b2ad59,139,2,2024-02-27T11:59:47.724Z,english_656.wav,0,peel,796,34,5,5,français,f,1,0.1,-31.70283109,1.16669679
61325af0137e3f0aa5b2ad59,139,2,2024-02-27T11:59:47.724Z,english_656.wav,0,peel,796,34,5,5,français,f,2,0.2,-35.90055673,0.85512169
61325af0137e3f0aa5b2ad59,139,2,2024-02-27T11:59:47.724Z,english_656.wav,0,peel,796,34,5,5,français,f,3,0.3,-27.39202404,1.68840921
61325af0137e3f0aa5b2ad59,139,2,2024-02-27T11:59:47.724Z,english_656.wav,0,peel,796,34,5,5,français,f,4,0.32341667,-5.54715508,1.5699395
61325af0137e3f0aa5b2ad59,140,2,2024-02-27T11:59:47.724Z,english_430.wav,0,pill,838,34,5,5,français,f,0,0.0,72.23510535,0.8682214
61325af0137e3f0aa5b2ad59,140,2,2024-02-27T11:59:47.724Z,english_430.wav,0,pill,838,34,5,5,français,f,1,0.1,-9.56156918,0.26781202
61325af0137e3f0aa5b2ad59,140,2,2024-02-27T11:59:47.724Z,english_430.wav,0,pill,838,34,5,5,français,f,2,0.2,36.71559936,1.38873793
61325af0137e3f0aa5b2ad59,140,2,2024-02-27T11:59:47.724Z,english_430.wav,0,pill,838,34,5,5,français,f,3,0.3,-33.55254317,0.29076709
61325af0137e3f0aa5b2ad59,140,2,2024-02-27T11:59:47.724Z,english_430.wav,0,pill,838,34,5,5,français,f,4,0.32341667,-25.71861109,0.30869259
61325af0137e3f0aa5b2ad59,141,2,2024-02-27T11:59:47.724Z,english_265.wav,0,pill,2485,34,5,5,français,f,0,0.0,-30.2287418,1.31067296
61325af0137e3f0aa5b2ad59,141,2,2024-02-27T11:59:47.724Z,english_265.wav,0,pill,2485,34,5,5,français,f,1,0.1,86.62283936,0.87427745
61325af0137e3f0aa5b2ad59,141,2,2024-02-27T11:59:47.724Z,english_265.wav,0,pill,2485,34,5,5,français,f,2,0.2,-21.47577863,1.37620008
61325af0137e3f0aa5b2ad59,141,2,2024-02-27T11:59:47.724Z,english_265.wav,0,pill,2485,34,5,5,français,f,3,0.3,84.9300577,0.45825557
61325af0137e3f0aa5b2ad59,141,2,2024-02-27T11:59:47.724Z,english_265.wav,0,pill,2485,34,5,5,français,f,4,0.32341667,59.52250756,1.13518739
61325af0137e3f0aa5b2ad59,142,2,2024-02-27T11:59:47.724Z,english_403.wav,0,peel,1382,34,5,5,français,f,0,0.0,-92.65414009,1.93574734
61325af0137e3f0aa5b2ad59,142,2,2024-02-27T11:59:47.724Z,english_403.wav,0,peel,1382,34,5,5,français,f,1,0.1,75.99659731,0.36447309
61325af0137e3f0aa5b2ad59,142,2,2024-02-27T11:59:47.724Z,english_403.wav,0,peel,1382,34,5,5,français,f,2,0.2,-27.37801557,1.02888701
61325af0137e3f0aa5b2ad59,142,2,2024-02-27T11:59:47.724Z,english_403.wav,0,peel,1382,34,5,5,français,f,3,0.3,-80.04540334,0.02385722
61325af0137e3f0aa5b2ad59,142,2,2024-02-27T11:59:47.724Z,english_403.wav,0,peel,1382,34,5,5,français,f,4,0.32341667,30.50648557,1.40553938
61325af0137e3f0aa5b2ad59,143,2,2024-02-27T11:59:47.724Z,english_992.wav,0,peel,1946,34,5,5,français,f,0,0.0,-6.68189934,0.46848529
61325af0137e3f0aa5b2ad59,143,2,2024-02-27T11:59:47.724Z,english_992.wav,0,peel,1946,34,5,5,français,f,1,0.1,78.76679047,0.9874556
61325af0137e3f0aa5b2ad59,143,2,2024-02-27T11:59:47.724Z,english_992.wav,0,peel,1946,34,5,5,français,f,2,0.2,-58.5917679,0.57881803
61325af0137e3f0aa5b2ad59,143,2,2024-02-27T11:59:47.724Z,english_992.wav,0,peel,1946,34,5,5,français,f,3,0.3,-98.64651588,0.88425299
61325af0137e3f0aa5b2ad59,143,2,2024-02-27T11:59:47.724Z,english_992.wav,0,peel,1946,34,5,5,français,f,4,0.32341667,73.76402904,0.6994588
61325af0137e3f0aa5b2ad59,144,2,2024-02-27T11:59:47.724Z,english_474.wav,0,peel,1597,34,5,5,français,f,0,0.0,42.88606971,0.87351765
61325af0137e3f0aa5b2ad59,144,2,2024-02-27T11:59:47.724Z,english_474.wav,0,peel,1597,34,5,5,français,f,1,0.1,6.82691085,1.08551449
61325af0137e3f0aa5b2ad59,144,2,2024-02-27T11:59:47.724Z,english_474.wav,0,peel,1597,34,5,5,français,f,2,0.2,-33.80031927,1.99847166
61325af0137e3f0aa5b2ad59,144,2,2024-02-27T11:59:47.724Z,english_474.wav,0,peel,1597,34,5,5,français,f,3,0.3,-97.18672796,0.27470298
61325af0137e3f0aa5b2ad59,144,2,2024-02-27T11:59:47.724Z,english_474.wav,0,peel,1597,34,5,5,français,f,4,0.32341667,-4.7462475,0.02962094
61325af0137e3f0aa5b2ad59,145,2,2024-02-27T11:59:47.724Z,english_672.wav,0,peel,857,34,5,5,français,f,0,0.0,30.04022321,0.7872581
61325af0137e3f0aa5b2ad59,145,2,2024-02-27T11:59:47.724Z,english_672.wav,0,peel,857,34,5,5,français,f,1,0.1,-49.20146972,1.24822874
61325af0137e3f0aa5b2ad59,145,2,2024-02-27T11:59:47.724Z,english_672.wav,0,peel,857,34,5,5,français,f,2,0.2,68.57510342,1.0921985
61325af0137e3f0aa5b2ad59,145,2,2024-02-27T11:59:47.724Z,english_672.wav,0,peel,857,34,5,5,français,f,3,0.3,46.99705545,1.42682896
61325af0137e3f0aa5b2ad59,145,2,2024-02-27T11:59:47.724Z,english_672.wav,0,peel,857,34,5,5,français,f,4,0.32341667,-96.75951233,0.39437363
61325af0137e3f0aa5b2ad59,146,2,2024-02-27T11:59:47.724Z,english_390.wav,0,peel,1202,34,5,5,français,f,0,0.0,-50.40750922,1.41643644
61325af0137e3f0aa5b2ad59,146,2,2024-02-27T11:59:47.724Z,english_390.wav,0,peel,1202,34,5,5,français,f,1,0.1,-38.67641955,0.84399933
61325af0137e3f0aa5b2ad59,146,2,2024-02-27T11:59:47.724Z,english_390.wav,0,peel,1202,34,5,5,français,f,2,0.2,-37.03459725,1.67796426
61325af0137e3f0aa5b2ad59,146,2,2024-02-27T11:59:47.724Z,english_390.wav,0,peel,1202,34,5,5,français,f,3,0.3,-24.07335547,0.43781117
61325af0137e3f0aa5b2ad59,146,2,2024-02-27T11:59:47.724Z,english_390.wav,0,peel,1202,34,5,5,français,f,4,0.32341667,75.09366884,0.01225463
61325af0137e3f0aa5b2ad59,147,2,2024-02-27T11:59:47.724Z,english_285.wav,0,peel,1422,34,5,5,français,f,0,0.0,-19.0536712,1.18823065
61325af0137e3f0aa5b2ad59,147,2,2024-02-27T11:59:47.724Z,english_285.wav,0,peel,1422,34,5,5,français,f,1,0.1,-63.15395986,1.010644
61325af0137e3f0aa5b2ad59,147,2,2024-02-27T11:59:47.724Z,english_285.wav,0,peel,1422,34,5,5,français,f,2,0.2,-57.682926,0.4943662
61325af0137e3f0aa5b2ad59,147,2,2024-02-27T11:59:47.724Z,english_285.wav,0,peel,1422,34,5,5,français,f,3,0.3,-56.52362331,0.66348991
61325af0137e3f0aa5b2ad59,147,2,2024-02-27T11:59:47.724Z,english_285.wav,0,peel,1422,34,5,5,français,f,4,0.32341667,11.40665652,0.86242978
61325af0137e3f0aa5b2ad59,148,2,2024-02-27T11:59:47.724Z,english_369.wav,0,pill,1826,34,5,5,français,f,0,0.0,-12.14177447,1.64093778
61325af0137e3f0aa5b2ad59,148,2,2024-02-27T11:59:47.724Z,english_369.wav,0,pill,1826,34,5,5,français,f,1,0.1,76.29699147,1.47479283
61325af0137e3f0aa5b2ad59,148,2,2024-02-27T11:59:47.724Z,english_369.wav,0,pill,1826,34,5,5,français,f,2,0.2,-85.49552365,1.31757561
61325af0137e3f0aa5b2ad59,148,2,2024-02-27T11:59:47.724Z,english_369.wav,0,pill,1826,34,5,5,français,f,3,0.3,-68.94608988,1.92077404
61325af0137e3f0aa5b2ad59,148,2,2024-02-27T11:59:47.724Z,english_369.wav,0,pill,1826,34,5,5,français,f,4,0.32341667,40.32615784,1.4628922
61325af0137e3f0aa5b2ad59,149,2,2024-02-27T11:59:47.724Z,english_399.wav,0,pill,1697,34,5,5,français,f,0,0.0,77.00947727,0.99570417
61325af0137e3f0aa5b2ad59,149,2,2024-02-27T11:59:47.724Z,english_399.wav,0,pill,1697,34,5,5,français,f,1,0.1,68.68212777,1.08385584
61325af0137e3f0aa5b2ad59,149,2,2024-02-27T11:59:47.724Z,english_399.wav,0,pill,1697,34,5,5,français,f,2,0.2,29.89909441,0.2210854
61325af0137e3f0aa5b2ad59,149,2,2024-02-27T11:59:47.724Z,english_399.wav,0,pill,1697,34,5,5,français,f,3,0.3,-37.60275897,0.41623588
61325af0137e3f0aa5b2ad59,149,2,2024-02-27T11:59:47.724Z,english_399.wav,0,pill,1697,34,5,5,français,f,4,0.32341667,-61.49193386,0.38461981
61325af0137e3f0aa5b2ad59,150,3,2024-02-27T11:59:47.724Z,english_137.wav,0,peel,918,34,5,5,français,f,0,0.0,-81.54177422,0.16940048
61325af0137e3f0aa5b2ad59,150,3,2024-02-27T11:59:47.724Z,english_137.wav,0,peel,918,34,5,5,français,f,1,0.1,48.50229113,1.33204053
61325af0137e3f0aa5b2ad59,150,3,2024-02-27T11:59:47.724Z,english_137.wav,0,peel,918,34,5,5,français,f,2,0.2,-43.40912925,1.8593258
61325af0137e3f0aa5b2ad59,150,3,2024-02-27T11:59:47.724Z,english_137.wav,0,peel,918,34,5,5,français,f,3,0.3,54.89578869,1.77805515
61325af0137e3f0aa5b2ad59,150,3,2024-02-27T11:59:47.724Z,english_137.wav,0,peel,918,34,5,5,français,f,4,0.32341667,90.09778797,1.80981769
61325af0137e3f0aa5b2ad59,151,3,2024-02-27T11:59:47.724Z,english_472.wav,0,pill,961,34,5,5,français,f,0,0.0,-33.48324222,1.19367533
61325af0137e3f0aa5b2ad59,151,3,2024-02-27T11:59:47.724Z,english_472.wav,0,pill,961,34,5,5,français,f,1,0.1,-52.47175565,0.64788551
61325af0137e3f0aa5b2ad59,151,3,2024-02-27T11:59:47.724Z,english_472.wav,0,pill,961,34,5,5,français,f,2,0.2,-13.12063744,0.92970714
61325af0137e3f0aa5b2ad59,151,3,2024-02-27T11:59:47.724Z,english_472.wav,0,pill,961,34,5,5,français,f,3,0.3,83.57117959,0.61503547
