subj,trial,block,date,stim,stim_order,response,rt,age,english,french,language,sex,param_index,segment,pitch,stretch
5ab13380e9f9280001e1725d,0,0,2024-02-27T11:41:37.082Z,english_349.wav,0,peel,13602,27,4,5,Français,homme,0,0.0,-10.00495534,0.36915768
5ab13380e9f9280001e1725d,0,0,2024-02-27T11:41:37.082Z,english_349.wav,0,peel,13602,27,4,5,Français,homme,1,0.1,54.31199814,0.83111041
5ab13380e9f9280001e1725d,0,0,2024-02-27T11:41:37.082Z,english_349.wav,0,peel,13602,27,4,5,Français,homme,2,0.2,48.17968705,1.70147194
5ab13380e9f9280001e1725d,0,0,2024-02-27T11:41:37.082Z,english_349.wav,0,peel,13602,27,4,5,Français,homme,3,0.3,8.48926652,1.08588898
5ab13380e9f9280001e1725d,0,0,2024-02-27T11:41:37.082Z,english_349.wav,0,peel,13602,27,4,5,Français,homme,4,0.32341667,42.05620052,0.02584958
5ab13380e9f9280001e1725d,1,0,2024-02-27T11:41:37.082Z,english_612.wav,0,pill,6177,27,4,5,Français,homme,0,0.0,-84.32217164,1.34068621
5ab13380e9f9280001e1725d,1,0,2024-02-27T11:41:37.082Z,english_612.wav,0,pill,6177,27,4,5,Français,homme,1,0.1,36.55311424,0.03443149
5ab13380e9f9280001e1725d,1,0,2024-02-27T11:41:37.082Z,english_612.wav,0,pill,6177,27,4,5,Français,homme,2,0.2,92.38334081,0.45903509
5ab13380e9f9280001e1725d,1,0,2024-02-27T11:41:37.082Z,english_612.wav,0,pill,6177,27,4,5,Français,homme,3,0.3,11.68953794,0.60209198
5ab13380e9f9280001e1725d,1,0,2024-02-27T11:41:37.082Z,english_612.wav,0,pill,6177,27,4,5,Français,homme,4,0.32341667,43.3279226,0.29533154
5ab13380e9f9280001e1725d,2,0,2024-02-27T11:41:37.082Z,english_54.wav,0,peel,4227,27,4,5,Français,homme,0,0.0,1.86764875,1.47639799
5ab13380e9f9280001e1725d,2,0,2024-02-27T11:41:37.082Z,english_54.wav,0,peel,4227,27,4,5,Français,homme,1,0.1,-1.78672474,1.92944336
5ab13380e9f9280001e1725d,2,0,2024-02-27T11:41:37.082Z,english_54.wav,0,peel,4227,27,4,5,Français,homme,2,0.2,-26.58380414,0.76292987
5ab13380e9f9280001e1725d,2,0,2024-02-27T11:41:37.082Z,english_54.wav,0,peel,4227,27,4,5,Français,homme,3,0.3,-2.56688864,1.78735236
5ab13380e9f9280001e1725d,2,0,2024-02-27T11:41:37.082Z,english_54.wav,0,peel,4227,27,4,5,Français,homme,4,0.32341667,-76.29238916,0.80366269
5ab13380e9f9280001e1725d,3,0,2024-02-27T11:41:37.082Z,english_592.wav,0,peel,3354,27,4,5,Français,homme,0,0.0,-77.34060672,0.96869857
5ab13380e9f9280001e1725d,3,0,2024-02-27T11:41:37.082Z,english_592.wav,0,peel,3354,27,4,5,Français,homme,1,0.1,27.41551815,1.75134411
5ab13380e9f9280001e1725d,3,0,2024-02-27T11:41:37.082Z,english_592.wav,0,peel,3354,27,4,5,Français,homme,2,0.2,-17.47445882,1.41680483
5ab13380e9f9280001e1725d,3,0,2024-02-27T11:41:37.082Z,english_592.wav,0,peel,3354,27,4,5,Français,homme,3,0.3,-61.08462212,1.07260777
5ab13380e9f9280001e1725d,3,0,2024-02-27T11:41:37.082Z,english_592.wav,0,peel,3354,27,4,5,Français,homme,4,0.32341667,74.7675789,0.73150904
5ab13380e9f9280001e1725d,4,0,2024-02-27T11:41:37.082Z,english_182.wav,0,peel,7570,27,4,5,Français,homme,0,0.0,57.43769915,0.89919812
5ab13380e9f9280001e1725d,4,0,2024-02-27T11:41:37.082Z,english_182.wav,0,peel,7570,27,4,5,Français,homme,1,0.1,-87.06676545,1.25243937
5ab13380e9f9280001e1725d,4,0,2024-02-27T11:41:37.082Z,english_182.wav,0,peel,7570,27,4,5,Français,homme,2,0.2,-91.52107401,1.35021358
5ab13380e9f9280001e1725d,4,0,2024-02-27T11:41:37.082Z,english_182.wav,0,peel,7570,27,4,5,Français,homme,3,0.3,52.0843588,0.52787795
5ab13380e9f9280001e1725d,4,0,2024-02-27T11:41:37.082Z,english_182.wav,0,peel,7570,27,4,5,Français,homme,4,0.32341667,18.07264914,0.72620624
5ab13380e9f9280001e1725d,5,0,2024-02-27T11:41:37.082Z,english_362.wav,0,peel,2483,27,4,5,Français,homme,0,0.0,12.71485551,1.44490364
5ab13380e9f9280001e1725d,5,0,2024-02-27T11:41:37.082Z,english_362.wav,0,peel,2483,27,4,5,Français,homme,1,0.1,-18.83660308,1.3029027
5ab13380e9f9280001e1725d,5,0,2024-02-27T11:41:37.082Z,english_362.wav,0,peel,2483,27,4,5,Français,homme,2,0.2,-52.07271323,1.10609828
5ab13380e9f9280001e1725d,5,0,2024-02-27T11:41:37.082Z,english_362.wav,0,peel,2483,27,4,5,Français,homme,3,0.3,-29.96931661,1.18379787
5ab13380e9f9280001e1725d,5,0,2024-02-27T11:41:37.082Z,english_362.wav,0,peel,2483,27,4,5,Français,homme,4,0.32341667,-9.99178163,1.80996789
5ab13380e9f9280001e1725d,6,0,2024-02-27T11:41:37.082Z,english_225.wav,0,peel,2619,27,4,5,Français,homme,0,0.0,66.72796839,1.97535322
5ab13380e9f9280001e1725d,6,0,2024-02-27T11:41:37.082Z,english_225.wav,0,peel,2619,27,4,5,Français,homme,1,0.1,3.03768966,1.18784527
5ab13380e9f9280001e1725d,6,0,2024-02-27T11:41:37.082Z,english_225.wav,0,peel,2619,27,4,5,Français,homme,2,0.2,-45.96345052,1.58393351
5ab13380e9f9280001e1725d,6,0,2024-02-27T11:41:37.082Z,english_225.wav,0,peel,2619,27,4,5,Français,homme,3,0.3,-88.14676012,1.17885171
5ab13380e9f9280001e1725d,6,0,2024-02-27T11:41:37.082Z,english_225.wav,0,peel,2619,27,4,5,Français,homme,4,0.32341667,46.76760659,1.387907
5ab13380e9f9280001e1725d,7,0,2024-02-27T11:41:37.082Z,english_783.wav,0,peel,2225,27,4,5,Français,homme,0,0.0,23.05268069,1.49549247
5ab13380e9f9280001e1725d,7,0,2024-02-27T11:41:37.082Z,english_783.wav,0,peel,2225,27,4,5,Français,homme,1,0.1,9.36005369,0.13797177
5ab13380e9f9280001e1725d,7,0,2024-02-27T11:41:37.082Z,english_783.wav,0,peel,2225,27,4,5,Français,homme,2,0.2,62.81522218,1.80236654
5ab13380e9f9280001e1725d,7,0,2024-02-27T11:41:37.082Z,english_783.wav,0,peel,2225,27,4,5,Français,homme,3,0.3,67.71456376,0.33800471
5ab13380e9f9280001e1725d,7,0,2024-02-27T11:41:37.082Z,english_783.wav,0,peel,2225,27,4,5,Français,homme,4,0.32341667,77.96788237,1.97708045
5ab13380e9f9280001e1725d,8,0,2024-02-27T11:41:37.082Z,english_874.wav,0,pill,3934,27,4,5,Français,homme,0,0.0,32.94582558,0.77720789
5ab13380e9f9280001e1725d,8,0,2024-02-27T11:41:37.082Z,english_874.wav,0,pill,3934,27,4,5,Français,homme,1,0.1,73.76521909,1.44852608
5ab13380e9f9280001e1725d,8,0,2024-02-27T11:41:37.082Z,english_874.wav,0,pill,3934,27,4,5,Français,homme,2,0.2,-83.94992572,1.18086928
5ab13380e9f9280001e1725d,8,0,2024-02-27T11:41:37.082Z,english_874.wav,0,pill,3934,27,4,5,Français,homme,3,0.3,-61.86791133,0.75042975
5ab13380e9f9280001e1725d,8,0,2024-02-27T11:41:37.082Z,english_874.wav,0,pill,3934,27,4,5,Français,homme,4,0.32341667,-94.71312943,1.11461748
5ab13380e9f9280001e1725d,9,0,2024-02-27T11:41:37.082Z,english_210.wav,0,peel,3384,27,4,5,Français,homme,0,0.0,43.03172008,0.27268056
5ab13380e9f9280001e1725d,9,0,2024-02-27T11:41:37.082Z,english_210.wav,0,peel,3384,27,4,5,Français,homme,1,0.1,58.48529179,0.59270989
5ab13380e9f9280001e1725d,9,0,2024-02-27T11:41:37.082Z,english_210.wav,0,peel,3384,27,4,5,Français,homme,2,0.2,57.29337371,1.57355776
5ab13380e9f9280001e1725d,9,0,2024-02-27T11:41:37.082Z,english_210.wav,0,peel,3384,27,4,5,Français,homme,3,0.3,-45.34642936,1.97663548
5ab13380e9f9280001e1725d,9,0,2024-02-27T11:41:37.082Z,english_210.wav,0,peel,3384,27,4,5,Français,homme,4,0.32341667,-3.49486879,1.39997912
5ab13380e9f9280001e1725d,10,0,2024-02-27T11:41:37.082Z,english_472.wav,0,peel,4127,27,4,5,Français,homme,0,0.0,-33.48324222,1.19367533
5ab13380e9f9280001e1725d,10,0,2024-02-27T11:41:37.082Z,english_472.wav,0,peel,4127,27,4,5,Français,homme,1,0.1,-52.47175565,0.64788551
5ab13380e9f9280001e1725d,10,0,2024-02-27T11:41:37.082Z,english_472.wav,0,peel,4127,27,4,5,Français,homme,2,0.2,-13.12063744,0.92970714
5ab13380e9f9280001e1725d,10,0,2024-02-27T11:41:37.082Z,english_472.wav,0,peel,4127,27,4,5,Français,homme,3,0.3,83.57117959,0.61503547
5ab13380e9f9280001e1725d,10,0,2024-02-27T11:41:37.082Z,english_472.wav,0,peel,4127,27,4,5,Français,homme,4,0.32341667,95.60610647,0.52013695
5ab13380e9f9280001e1725d,11,0,2024-02-27T11:41:37.082Z,english_643.wav,0,pill,2441,27,4,5,Français,homme,0,0.0,-40.15003434,1.60262153
5ab13380e9f9280001e1725d,11,0,2024-02-27T11:41:37.082Z,english_643.wav,0,pill,2441,27,4,5,Français,homme,1,0.1,-24.12893917,1.7682358
5ab13380e9f9280001e1725d,11,0,2024-02-27T11:41:37.082Z,english_643.wav,0,pill,2441,27,4,5,Français,homme,2,0.2,-40.66556796,0.31725537
5ab13380e9f9280001e1725d,11,0,2024-02-27T11:41:37.082Z,english_643.wav,0,pill,2441,27,4,5,Français,homme,3,0.3,75.01987067,0.56722121
5ab13380e9f9280001e1725d,11,0,2024-02-27T11:41:37.082Z,english_643.wav,0,pill,2441,27,4,5,Français,homme,4,0.32341667,29.71481383,1.87277365
5ab13380e9f9280001e1725d,12,0,2024-02-27T11:41:37.082Z,english_571.wav,0,pill,4716,27,4,5,Français,homme,0,0.0,-42.92588422,0.65590276
5ab13380e9f9280001e1725d,12,0,2024-02-27T11:41:37.082Z,english_571.wav,0,pill,4716,27,4,5,Français,homme,1,0.1,-87.39276897,1.8306878
5ab13380e9f9280001e1725d,12,0,2024-02-27T11:41:37.082Z,english_571.wav,0,pill,4716,27,4,5,Français,homme,2,0.2,19.06282168,0.06889765
5ab13380e9f9280001e1725d,12,0,2024-02-27T11:41:37.082Z,english_571.wav,0,pill,4716,27,4,5,Français,homme,3,0.3,-99.30459792,0.29364209
5ab13380e9f9280001e1725d,12,0,2024-02-27T11:41:37.082Z,english_571.wav,0,pill,4716,27,4,5,Français,homme,4,0.32341667,41.25263337,1.388798
5ab13380e9f9280001e1725d,13,0,2024-02-27T11:41:37.082Z,english_521.wav,0,peel,1703,27,4,5,Français,homme,0,0.0,-39.78859965,1.84590666
5ab13380e9f9280001e1725d,13,0,2024-02-27T11:41:37.082Z,english_521.wav,0,peel,1703,27,4,5,Français,homme,1,0.1,94.65680132,0.33665341
5ab13380e9f9280001e1725d,13,0,2024-02-27T11:41:37.082Z,english_521.wav,0,peel,1703,27,4,5,Français,homme,2,0.2,-68.68225016,1.01474729
5ab13380e9f9280001e1725d,13,0,2024-02-27T11:41:37.082Z,english_521.wav,0,peel,1703,27,4,5,Français,homme,3,0.3,19.56493677,0.73624599
5ab13380e9f9280001e1725d,13,0,2024-02-27T11:41:37.082Z,english_521.wav,0,peel,1703,27,4,5,Français,homme,4,0.32341667,69.42990376,1.4391639
5ab13380e9f9280001e1725d,14,0,2024-02-27T11:41:37.082Z,english_438.wav,0,pill,2846,27,4,5,Français,homme,0,0.0,31.75305261,1.38451981
5ab13380e9f9280001e1725d,14,0,2024-02-27T11:41:37.082Z,english_438.wav,0,pill,2846,27,4,5,Français,homme,1,0.1,20.27112767,1.99020027
5ab13380e9f9280001e1725d,14,0,2024-02-27T11:41:37.082Z,english_438.wav,0,pill,2846,27,4,5,Français,homme,2,0.2,66.65258945,0.15645945
5ab13380e9f9280001e1725d,14,0,2024-02-27T11:41:37.082Z,english_438.wav,0,pill,2846,27,4,5,Français,homme,3,0.3,70.72003494,1.37678514
5ab13380e9f9280001e1725d,14,0,2024-02-27T11:41:37.082Z,english_438.wav,0,pill,2846,27,4,5,Français,homme,4,0.32341667,59.11013505,0.82730153
5ab13380e9f9280001e1725d,15,0,2024-02-27T11:41:37.082Z,english_583.wav,0,peel,1212,27,4,5,Français,homme,0,0.0,-35.26485382,0.11557093
5ab13380e9f9280001e1725d,15,0,2024-02-27T11:41:37.082Z,english_583.wav,0,peel,1212,27,4,5,Français,homme,1,0.1,-69.50197994,0.9917357
5ab13380e9f9280001e1725d,15,0,2024-02-27T11:41:37.082Z,english_583.wav,0,peel,1212,27,4,5,Français,homme,2,0.2,73.6796048,1.33727714
5ab13380e9f9280001e1725d,15,0,2024-02-27T11:41:37.082Z,english_583.wav,0,peel,1212,27,4,5,Français,homme,3,0.3,-1.04664171,0.97646566
5ab13380e9f9280001e1725d,15,0,2024-02-27T11:41:37.082Z,english_583.wav,0,peel,1212,27,4,5,Français,homme,4,0.32341667,-55.46924107,1.06585671
5ab13380e9f9280001e1725d,16,0,2024-02-27T11:41:37.082Z,english_478.wav,0,peel,2612,27,4,5,Français,homme,0,0.0,-70.9954821,0.91489342
5ab13380e9f9280001e1725d,16,0,2024-02-27T11:41:37.082Z,english_478.wav,0,peel,2612,27,4,5,Français,homme,1,0.1,18.763036,1.0325944
5ab13380e9f9280001e1725d,16,0,2024-02-27T11:41:37.082Z,english_478.wav,0,peel,2612,27,4,5,Français,homme,2,0.2,84.30682023,1.47139294
5ab13380e9f9280001e1725d,16,0,2024-02-27T11:41:37.082Z,english_478.wav,0,peel,2612,27,4,5,Français,homme,3,0.3,96.70790152,0.31719256
5ab13380e9f9280001e1725d,16,0,2024-02-27T11:41:37.082Z,english_478.wav,0,peel,2612,27,4,5,Français,homme,4,0.32341667,-65.75430749,1.1469235
5ab13380e9f9280001e1725d,17,0,2024-02-27T11:41:37.082Z,english_321.wav,0,peel,3426,27,4,5,Français,homme,0,0.0,2.07721816,1.69623759
5ab13380e9f9280001e1725d,17,0,2024-02-27T11:41:37.082Z,english_321.wav,0,peel,3426,27,4,5,Français,homme,1,0.1,59.48735819,1.35736687
5ab13380e9f9280001e1725d,17,0,2024-02-27T11:41:37.082Z,english_321.wav,0,peel,3426,27,4,5,Français,homme,2,0.2,64.78149714,1.92920457
5ab13380e9f9280001e1725d,17,0,2024-02-27T11:41:37.082Z,english_321.wav,0,peel,3426,27,4,5,Français,homme,3,0.3,65.58393414,0.66559077
5ab13380e9f9280001e1725d,17,0,2024-02-27T11:41:37.082Z,english_321.wav,0,peel,3426,27,4,5,Français,homme,4,0.32341667,14.66673939,1.66523208
5ab13380e9f9280001e1725d,18,0,2024-02-27T11:41:37.082Z,english_201.wav,0,pill,2270,27,4,5,Français,homme,0,0.0,-11.66329209,1.59313322
5ab13380e9f9280001e1725d,18,0,2024-02-27T11:41:37.082Z,english_201.wav,0,pill,2270,27,4,5,Français,homme,1,0.1,-73.85436231,1.78385616
5ab13380e9f9280001e1725d,18,0,2024-02-27T11:41:37.082Z,english_201.wav,0,pill,2270,27,4,5,Français,homme,2,0.2,-12.5199597,0.57641365
5ab13380e9f9280001e1725d,18,0,2024-02-27T11:41:37.082Z,english_201.wav,0,pill,2270,27,4,5,Français,homme,3,0.3,-44.18013019,1.54371285
5ab13380e9f9280001e1725d,18,0,2024-02-27T11:41:37.082Z,english_201.wav,0,pill,2270,27,4,5,Français,homme,4,0.32341667,47.68284229,1.11944384
5ab13380e9f9280001e1725d,19,0,2024-02-27T11:41:37.082Z,english_65.wav,0,pill,1829,27,4,5,Français,homme,0,0.0,-46.88015867,0.62230507
5ab13380e9f9280001e1725d,19,0,2024-02-27T11:41:37.082Z,english_65.wav,0,pill,1829,27,4,5,Français,homme,1,0.1,54.34027197,1.12355997
5ab13380e9f9280001e1725d,19,0,2024-02-27T11:41:37.082Z,english_65.wav,0,pill,1829,27,4,5,Français,homme,2,0.2,-65.46386729,1.0507031
5ab13380e9f9280001e1725d,19,0,2024-02-27T11:41:37.082Z,english_65.wav,0,pill,1829,27,4,5,Français,homme,3,0.3,-66.7533487,0.71238348
5ab13380e9f9280001e1725d,19,0,2024-02-27T11:41:37.082Z,english_65.wav,0,pill,1829,27,4,5,Français,homme,4,0.32341667,-12.18147599,0.41048607
5ab13380e9f9280001e1725d,20,0,2024-02-27T11:41:37.082Z,english_121.wav,0,pill,5700,27,4,5,Français,homme,0,0.0,-30.24687583,0.23154591
5ab13380e9f9280001e1725d,20,0,2024-02-27T11:41:37.082Z,english_121.wav,0,pill,5700,27,4,5,Français,homme,1,0.1,-28.09260766,0.6680997
5ab13380e9f9280001e1725d,20,0,2024-02-27T11:41:37.082Z,english_121.wav,0,pill,5700,27,4,5,Français,homme,2,0.2,-29.54951374,1.79539672
5ab13380e9f9280001e1725d,20,0,2024-02-27T11:41:37.082Z,english_121.wav,0,pill,5700,27,4,5,Français,homme,3,0.3,-37.35286973,0.57554739
5ab13380e9f9280001e1725d,20,0,2024-02-27T11:41:37.082Z,english_121.wav,0,pill,5700,27,4,5,Français,homme,4,0.32341667,58.68529554,1.8709958
5ab13380e9f9280001e1725d,21,0,2024-02-27T11:41:37.082Z,english_32.wav,0,peel,1290,27,4,5,Français,homme,0,0.0,89.50349963,1.73304916
5ab13380e9f9280001e1725d,21,0,2024-02-27T11:41:37.082Z,english_32.wav,0,peel,1290,27,4,5,Français,homme,1,0.1,51.51128255,0.02192789
5ab13380e9f9280001e1725d,21,0,2024-02-27T11:41:37.082Z,english_32.wav,0,peel,1290,27,4,5,Français,homme,2,0.2,-58.32910347,1.71493142
5ab13380e9f9280001e1725d,21,0,2024-02-27T11:41:37.082Z,english_32.wav,0,peel,1290,27,4,5,Français,homme,3,0.3,15.96172744,1.28451373
5ab13380e9f9280001e1725d,21,0,2024-02-27T11:41:37.082Z,english_32.wav,0,peel,1290,27,4,5,Français,homme,4,0.32341667,84.40449403,1.22971166
5ab13380e9f9280001e1725d,22,0,2024-02-27T11:41:37.082Z,english_69.wav,0,peel,1203,27,4,5,Français,homme,0,0.0,-57.18730239,0.11878381
5ab13380e9f9280001e1725d,22,0,2024-02-27T11:41:37.082Z,english_69.wav,0,peel,1203,27,4,5,Français,homme,1,0.1,16.22212469,1.00797921
5ab13380e9f9280001e1725d,22,0,2024-02-27T11:41:37.082Z,english_69.wav,0,peel,1203,27,4,5,Français,homme,2,0.2,-44.28071093,0.42082068
5ab13380e9f9280001e1725d,22,0,2024-02-27T11:41:37.082Z,english_69.wav,0,peel,1203,27,4,5,Français,homme,3,0.3,-70.80378082,0.50205716
5ab13380e9f9280001e1725d,22,0,2024-02-27T11:41:37.082Z,english_69.wav,0,peel,1203,27,4,5,Français,homme,4,0.32341667,-58.3439892,0.68985838
5ab13380e9f9280001e1725d,23,0,2024-02-27T11:41:37.082Z,english_667.wav,0,pill,1778,27,4,5,Français,homme,0,0.0,-36.96649028,1.3014101
5ab13380e9f9280001e1725d,23,0,2024-02-27T11:41:37.082Z,english_667.wav,0,pill,1778,27,4,5,Français,homme,1,0.1,9.08709827,0.05882523
5ab13380e9f9280001e1725d,23,0,2024-02-27T11:41:37.082Z,english_667.wav,0,pill,1778,27,4,5,Français,homme,2,0.2,85.36553945,1.428997
5ab13380e9f9280001e1725d,23,0,2024-02-27T11:41:37.082Z,english_667.wav,0,pill,1778,27,4,5,Français,homme,3,0.3,-41.19556041,1.2429303
5ab13380e9f9280001e1725d,23,0,2024-02-27T11:41:37.082Z,english_667.wav,0,pill,1778,27,4,5,Français,homme,4,0.32341667,-31.79783786,0.97363261
5ab13380e9f9280001e1725d,24,0,2024-02-27T11:41:37.082Z,english_127.wav,0,peel,1714,27,4,5,Français,homme,0,0.0,-69.70750805,0.25070661
5ab13380e9f9280001e1725d,24,0,2024-02-27T11:41:37.082Z,english_127.wav,0,peel,1714,27,4,5,Français,homme,1,0.1,-23.17484413,1.1475992
5ab13380e9f9280001e1725d,24,0,2024-02-27T11:41:37.082Z,english_127.wav,0,peel,1714,27,4,5,Français,homme,2,0.2,16.27024862,1.99299371
5ab13380e9f9280001e1725d,24,0,2024-02-27T11:41:37.082Z,english_127.wav,0,peel,1714,27,4,5,Français,homme,3,0.3,-50.08342814,0.57749513
5ab13380e9f9280001e1725d,24,0,2024-02-27T11:41:37.082Z,english_127.wav,0,peel,1714,27,4,5,Français,homme,4,0.32341667,22.60332787,1.27832678
5ab13380e9f9280001e1725d,25,0,2024-02-27T11:41:37.082Z,english_340.wav,0,peel,1271,27,4,5,Français,homme,0,0.0,42.62794877,1.44385011
5ab13380e9f9280001e1725d,25,0,2024-02-27T11:41:37.082Z,english_340.wav,0,peel,1271,27,4,5,Français,homme,1,0.1,67.09042835,1.29329602
5ab13380e9f9280001e1725d,25,0,2024-02-27T11:41:37.082Z,english_340.wav,0,peel,1271,27,4,5,Français,homme,2,0.2,-80.28719593,1.71068781
5ab13380e9f9280001e1725d,25,0,2024-02-27T11:41:37.082Z,english_340.wav,0,peel,1271,27,4,5,Français,homme,3,0.3,-47.97556268,0.48872717
5ab13380e9f9280001e1725d,25,0,2024-02-27T11:41:37.082Z,english_340.wav,0,peel,1271,27,4,5,Français,homme,4,0.32341667,32.7013797,1.09000269
5ab13380e9f9280001e1725d,26,0,2024-02-27T11:41:37.082Z,english_38.wav,0,peel,1390,27,4,5,Français,homme,0,0.0,-2.78484508,0.45448836
5ab13380e9f9280001e1725d,26,0,2024-02-27T11:41:37.082Z,english_38.wav,0,peel,1390,27,4,5,Français,homme,1,0.1,-57.68912839,0.86252605
5ab13380e9f9280001e1725d,26,0,2024-02-27T11:41:37.082Z,english_38.wav,0,peel,1390,27,4,5,Français,homme,2,0.2,-17.27242754,1.61904865
5ab13380e9f9280001e1725d,26,0,2024-02-27T11:41:37.082Z,english_38.wav,0,peel,1390,27,4,5,Français,homme,3,0.3,-2.64514482,1.39130822
5ab13380e9f9280001e1725d,26,0,2024-02-27T11:41:37.082Z,english_38.wav,0,peel,1390,27,4,5,Français,homme,4,0.32341667,55.14373267,1.59066599
5ab13380e9f9280001e1725d,27,0,2024-02-27T11:41:37.082Z,english_763.wav,0,peel,3294,27,4,5,Français,homme,0,0.0,64.63144232,0.7800836
5ab13380e9f9280001e1725d,27,0,2024-02-27T11:41:37.082Z,english_763.wav,0,peel,3294,27,4,5,Français,homme,1,0.1,8.86346429,1.26656169
5ab13380e9f9280001e1725d,27,0,2024-02-27T11:41:37.082Z,english_763.wav,0,peel,3294,27,4,5,Français,homme,2,0.2,32.79569159,1.93170043
5ab13380e9f9280001e1725d,27,0,2024-02-27T11:41:37.082Z,english_763.wav,0,peel,3294,27,4,5,Français,homme,3,0.3,10.55051177,0.29422641
5ab13380e9f9280001e1725d,27,0,2024-02-27T11:41:37.082Z,english_763.wav,0,peel,3294,27,4,5,Français,homme,4,0.32341667,6.38738619,1.43860225
5ab13380e9f9280001e1725d,28,0,2024-02-27T11:41:37.082Z,english_639.wav,0,pill,1156,27,4,5,Français,homme,0,0.0,-8.64176861,1.80061108
5ab13380e9f9280001e1725d,28,0,2024-02-27T11:41:37.082Z,english_639.wav,0,pill,1156,27,4,5,Français,homme,1,0.1,-2.28240571,0.32075858
5ab13380e9f9280001e1725d,28,0,2024-02-27T11:41:37.082Z,english_639.wav,0,pill,1156,27,4,5,Français,homme,2,0.2,61.07673865,0.35362442
5ab13380e9f9280001e1725d,28,0,2024-02-27T11:41:37.082Z,english_639.wav,0,pill,1156,27,4,5,Français,homme,3,0.3,-20.33592136,1.48415136
5ab13380e9f9280001e1725d,28,0,2024-02-27T11:41:37.082Z,english_639.wav,0,pill,1156,27,4,5,Français,homme,4,0.32341667,-24.05835486,0.14560931
5ab13380e9f9280001e1725d,29,0,2024-02-27T11:41:37.082Z,english_291.wav,0,peel,1700,27,4,5,Français,homme,0,0.0,-23.91479102,1.25533579
5ab13380e9f9280001e1725d,29,0,2024-02-27T11:41:37.082Z,english_291.wav,0,peel,1700,27,4,5,Français,homme,1,0.1,-31.34063508,0.8599513
5ab13380e9f9280001e1725d,29,0,2024-02-27T11:41:37.082Z,english_291.wav,0,peel,1700,27,4,5,Français,homme,2,0.2,-16.29866726,1.40556138
5ab13380e9f9280001e1725d,29,0,2024-02-27T11:41:37.082Z,english_291.wav,0,peel,1700,27,4,5,Français,homme,3,0.3,10.36632866,0.42924112
5ab13380e9f9280001e1725d,29,0,2024-02-27T11:41:37.082Z,english_291.wav,0,peel,1700,27,4,5,Français,homme,4,0.32341667,7.35722843,0.61564446
5ab13380e9f9280001e1725d,30,0,2024-02-27T11:41:37.082Z,english_137.wav,0,pill,4276,27,4,5,Français,homme,0,0.0,-81.54177422,0.16940048
5ab13380e9f9280001e1725d,30,0,2024-02-27T11:41:37.082Z,english_137.wav,0,pill,4276,27,4,5,Français,homme,1,0.1,48.50229113,1.33204053
5ab13380e9f9280001e1725d,30,0,2024-02-27T11:41:37.082Z,english_137.wav,0,pill,4276,27,4,5,Français,homme,2,0.2,-43.40912925,1.8593258
5ab13380e9f9280001e1725d,30,0,2024-02-27T11:41:37.082Z,english_137.wav,0,pill,4276,27,4,5,Français,homme,3,0.3,54.89578869,1.77805515
5ab13380e9f9280001e1725d,30,0,2024-02-27T11:41:37.082Z,english_137.wav,0,pill,4276,27,4,5,Français,homme,4,0.32341667,90.09778797,1.80981769
5ab13380e9f9280001e1725d,31,0,2024-02-27T11:41:37.082Z,english_615.wav,0,pill,1421,27,4,5,Français,homme,0,0.0,76.05955912,1.68553334
5ab13380e9f9280001e1725d,31,0,2024-02-27T11:41:37.082Z,english_615.wav,0,pill,1421,27,4,5,Français,homme,1,0.1,54.62950786,1.5058876
5ab13380e9f9280001e1725d,31,0,2024-02-27T11:41:37.082Z,english_615.wav,0,pill,1421,27,4,5,Français,homme,2,0.2,-31.02204933,1.66676809
5ab13380e9f9280001e1725d,31,0,2024-02-27T11:41:37.082Z,english_615.wav,0,pill,1421,27,4,5,Français,homme,3,0.3,-3.27946314,1.09840801
5ab13380e9f9280001e1725d,31,0,2024-02-27T11:41:37.082Z,english_615.wav,0,pill,1421,27,4,5,Français,homme,4,0.32341667,51.350795,0.25314986
5ab13380e9f9280001e1725d,32,0,2024-02-27T11:41:37.082Z,english_805.wav,0,pill,9281,27,4,5,Français,homme,0,0.0,-11.97504695,0.06029378
5ab13380e9f9280001e1725d,32,0,2024-02-27T11:41:37.082Z,english_805.wav,0,pill,9281,27,4,5,Français,homme,1,0.1,96.82911573,0.81391401
5ab13380e9f9280001e1725d,32,0,2024-02-27T11:41:37.082Z,english_805.wav,0,pill,9281,27,4,5,Français,homme,2,0.2,7.51835152,1.33531055
5ab13380e9f9280001e1725d,32,0,2024-02-27T11:41:37.082Z,english_805.wav,0,pill,9281,27,4,5,Français,homme,3,0.3,2.47378187,1.7608484
5ab13380e9f9280001e1725d,32,0,2024-02-27T11:41:37.082Z,english_805.wav,0,pill,9281,27,4,5,Français,homme,4,0.32341667,-43.26336213,1.4289718
5ab13380e9f9280001e1725d,33,0,2024-02-27T11:41:37.082Z,english_937.wav,0,peel,5860,27,4,5,Français,homme,0,0.0,76.77394395,1.55370699
5ab13380e9f9280001e1725d,33,0,2024-02-27T11:41:37.082Z,english_937.wav,0,peel,5860,27,4,5,Français,homme,1,0.1,49.33576264,1.82028848
5ab13380e9f9280001e1725d,33,0,2024-02-27T11:41:37.082Z,english_937.wav,0,peel,5860,27,4,5,Français,homme,2,0.2,-87.39935237,1.42487505
5ab13380e9f9280001e1725d,33,0,2024-02-27T11:41:37.082Z,english_937.wav,0,peel,5860,27,4,5,Français,homme,3,0.3,11.02170053,0.87896062
5ab13380e9f9280001e1725d,33,0,2024-02-27T11:41:37.082Z,english_937.wav,0,peel,5860,27,4,5,Français,homme,4,0.32341667,91.99381322,0.96516852
5ab13380e9f9280001e1725d,34,0,2024-02-27T11:41:37.082Z,english_584.wav,0,pill,1753,27,4,5,Français,homme,0,0.0,10.38934641,1.28044862
5ab13380e9f9280001e1725d,34,0,2024-02-27T11:41:37.082Z,english_584.wav,0,pill,1753,27,4,5,Français,homme,1,0.1,16.58552078,0.12750447
5ab13380e9f9280001e1725d,34,0,2024-02-27T11:41:37.082Z,english_584.wav,0,pill,1753,27,4,5,Français,homme,2,0.2,93.24376001,0.67889343
5ab13380e9f9280001e1725d,34,0,2024-02-27T11:41:37.082Z,english_584.wav,0,pill,1753,27,4,5,Français,homme,3,0.3,-17.62367845,1.20299248
5ab13380e9f9280001e1725d,34,0,2024-02-27T11:41:37.082Z,english_584.wav,0,pill,1753,27,4,5,Français,homme,4,0.32341667,35.31863132,1.61660781
5ab13380e9f9280001e1725d,35,0,2024-02-27T11:41:37.082Z,english_958.wav,0,peel,1772,27,4,5,Français,homme,0,0.0,17.32592779,0.33109802
5ab13380e9f9280001e1725d,35,0,2024-02-27T11:41:37.082Z,english_958.wav,0,peel,1772,27,4,5,Français,homme,1,0.1,89.03376041,1.83345348
5ab13380e9f9280001e1725d,35,0,2024-02-27T11:41:37.082Z,english_958.wav,0,peel,1772,27,4,5,Français,homme,2,0.2,-24.89219777,1.95859429
5ab13380e9f9280001e1725d,35,0,2024-02-27T11:41:37.082Z,english_958.wav,0,peel,1772,27,4,5,Français,homme,3,0.3,-92.10798137,1.50296341
5ab13380e9f9280001e1725d,35,0,2024-02-27T11:41:37.082Z,english_958.wav,0,peel,1772,27,4,5,Français,homme,4,0.32341667,3.27828718,0.1474067
5ab13380e9f9280001e1725d,36,0,2024-02-27T11:41:37.082Z,english_684.wav,0,pill,1864,27,4,5,Français,homme,0,0.0,0.36394418,1.65924935
5ab13380e9f9280001e1725d,36,0,2024-02-27T11:41:37.082Z,english_684.wav,0,pill,1864,27,4,5,Français,homme,1,0.1,28.47964645,1.32149406
5ab13380e9f9280001e1725d,36,0,2024-02-27T11:41:37.082Z,english_684.wav,0,pill,1864,27,4,5,Français,homme,2,0.2,60.47995017,0.32417562
5ab13380e9f9280001e1725d,36,0,2024-02-27T11:41:37.082Z,english_684.wav,0,pill,1864,27,4,5,Français,homme,3,0.3,-33.43266819,1.42108385
5ab13380e9f9280001e1725d,36,0,2024-02-27T11:41:37.082Z,english_684.wav,0,pill,1864,27,4,5,Français,homme,4,0.32341667,-31.86672206,1.29243289
5ab13380e9f9280001e1725d,37,0,2024-02-27T11:41:37.082Z,english_274.wav,0,pill,1173,27,4,5,Français,homme,0,0.0,-30.61452779,0.78021116
5ab13380e9f9280001e1725d,37,0,2024-02-27T11:41:37.082Z,english_274.wav,0,pill,1173,27,4,5,Français,homme,1,0.1,-42.14612233,1.93993358
5ab13380e9f9280001e1725d,37,0,2024-02-27T11:41:37.082Z,english_274.wav,0,pill,1173,27,4,5,Français,homme,2,0.2,32.00602795,0.32963606
5ab13380e9f9280001e1725d,37,0,2024-02-27T11:41:37.082Z,english_274.wav,0,pill,1173,27,4,5,Français,homme,3,0.3,-37.74375581,1.46133782
5ab13380e9f9280001e1725d,37,0,2024-02-27T11:41:37.082Z,english_274.wav,0,pill,1173,27,4,5,Français,homme,4,0.32341667,-54.5397802,1.53178785
5ab13380e9f9280001e1725d,38,0,2024-02-27T11:41:37.082Z,english_375.wav,0,pill,1395,27,4,5,Français,homme,0,0.0,18.096335,0.30735121
5ab13380e9f9280001e1725d,38,0,2024-02-27T11:41:37.082Z,english_375.wav,0,pill,1395,27,4,5,Français,homme,1,0.1,-55.77885891,1.17808606
5ab13380e9f9280001e1725d,38,0,2024-02-27T11:41:37.082Z,english_375.wav,0,pill,1395,27,4,5,Français,homme,2,0.2,-79.80603762,1.03107785
5ab13380e9f9280001e1725d,38,0,2024-02-27T11:41:37.082Z,english_375.wav,0,pill,1395,27,4,5,Français,homme,3,0.3,-57.7566014,0.46519988
5ab13380e9f9280001e1725d,38,0,2024-02-27T11:41:37.082Z,english_375.wav,0,pill,1395,27,4,5,Français,homme,4,0.32341667,74.14673873,1.41875211
5ab13380e9f9280001e1725d,39,0,2024-02-27T11:41:37.082Z,english_811.wav,0,peel,1396,27,4,5,Français,homme,0,0.0,-51.03425556,1.55055496
5ab13380e9f9280001e1725d,39,0,2024-02-27T11:41:37.082Z,english_811.wav,0,peel,1396,27,4,5,Français,homme,1,0.1,22.81695275,1.74830484
5ab13380e9f9280001e1725d,39,0,2024-02-27T11:41:37.082Z,english_811.wav,0,peel,1396,27,4,5,Français,homme,2,0.2,73.06623682,1.24661488
5ab13380e9f9280001e1725d,39,0,2024-02-27T11:41:37.082Z,english_811.wav,0,peel,1396,27,4,5,Français,homme,3,0.3,-9.17693151,0.09792889
5ab13380e9f9280001e1725d,39,0,2024-02-27T11:41:37.082Z,english_811.wav,0,peel,1396,27,4,5,Français,homme,4,0.32341667,79.97760745,0.03735929
5ab13380e9f9280001e1725d,40,0,2024-02-27T11:41:37.082Z,english_748.wav,0,peel,1009,27,4,5,Français,homme,0,0.0,0.23647087,0.91094575
5ab13380e9f9280001e1725d,40,0,2024-02-27T11:41:37.082Z,english_748.wav,0,peel,1009,27,4,5,Français,homme,1,0.1,45.60572596,1.68800655
5ab13380e9f9280001e1725d,40,0,2024-02-27T11:41:37.082Z,english_748.wav,0,peel,1009,27,4,5,Français,homme,2,0.2,6.14588966,1.37684191
5ab13380e9f9280001e1725d,40,0,2024-02-27T11:41:37.082Z,english_748.wav,0,peel,1009,27,4,5,Français,homme,3,0.3,-10.39850874,0.70556294
5ab13380e9f9280001e1725d,40,0,2024-02-27T11:41:37.082Z,english_748.wav,0,peel,1009,27,4,5,Français,homme,4,0.32341667,-7.86503132,1.52987196
5ab13380e9f9280001e1725d,41,0,2024-02-27T11:41:37.082Z,english_698.wav,0,peel,1400,27,4,5,Français,homme,0,0.0,-86.30999669,1.66322514
5ab13380e9f9280001e1725d,41,0,2024-02-27T11:41:37.082Z,english_698.wav,0,peel,1400,27,4,5,Français,homme,1,0.1,-91.60158578,1.16924533
5ab13380e9f9280001e1725d,41,0,2024-02-27T11:41:37.082Z,english_698.wav,0,peel,1400,27,4,5,Français,homme,2,0.2,-41.16326515,1.29610919
5ab13380e9f9280001e1725d,41,0,2024-02-27T11:41:37.082Z,english_698.wav,0,peel,1400,27,4,5,Français,homme,3,0.3,7.86252123,1.21006153
5ab13380e9f9280001e1725d,41,0,2024-02-27T11:41:37.082Z,english_698.wav,0,peel,1400,27,4,5,Français,homme,4,0.32341667,25.04181708,1.83628755
5ab13380e9f9280001e1725d,42,0,2024-02-27T11:41:37.082Z,english_189.wav,0,pill,1535,27,4,5,Français,homme,0,0.0,-22.70456848,0.82906961
5ab13380e9f9280001e1725d,42,0,2024-02-27T11:41:37.082Z,english_189.wav,0,pill,1535,27,4,5,Français,homme,1,0.1,-12.00888723,0.58408113
5ab13380e9f9280001e1725d,42,0,2024-02-27T11:41:37.082Z,english_189.wav,0,pill,1535,27,4,5,Français,homme,2,0.2,15.14046376,0.19058783
5ab13380e9f9280001e1725d,42,0,2024-02-27T11:41:37.082Z,english_189.wav,0,pill,1535,27,4,5,Français,homme,3,0.3,-19.30106293,0.57788611
5ab13380e9f9280001e1725d,42,0,2024-02-27T11:41:37.082Z,english_189.wav,0,pill,1535,27,4,5,Français,homme,4,0.32341667,-20.57313834,0.32577637
5ab13380e9f9280001e1725d,43,0,2024-02-27T11:41:37.082Z,english_620.wav,0,peel,1010,27,4,5,Français,homme,0,0.0,-92.9203055,0.43561856
5ab13380e9f9280001e1725d,43,0,2024-02-27T11:41:37.082Z,english_620.wav,0,peel,1010,27,4,5,Français,homme,1,0.1,26.7086056,0.24535421
5ab13380e9f9280001e1725d,43,0,2024-02-27T11:41:37.082Z,english_620.wav,0,peel,1010,27,4,5,Français,homme,2,0.2,89.1883135,1.34102831
5ab13380e9f9280001e1725d,43,0,2024-02-27T11:41:37.082Z,english_620.wav,0,peel,1010,27,4,5,Français,homme,3,0.3,-0.0557738795,1.80103954
5ab13380e9f9280001e1725d,43,0,2024-02-27T11:41:37.082Z,english_620.wav,0,peel,1010,27,4,5,Français,homme,4,0.323416667,2.9787243,0.21248525
5ab13380e9f9280001e1725d,44,0,2024-02-27T11:41:37.082Z,english_462.wav,0,peel,2251,27,4,5,Français,homme,0,0.0,-35.73318704,1.53267708
5ab13380e9f9280001e1725d,44,0,2024-02-27T11:41:37.082Z,english_462.wav,0,peel,2251,27,4,5,Français,homme,1,0.1,-5.65949109,1.98369384
5ab13380e9f9280001e1725d,44,0,2024-02-27T11:41:37.082Z,english_462.wav,0,peel,2251,27,4,5,Français,homme,2,0.2,-49.47542688,1.31270994
5ab13380e9f9280001e1725d,44,0,2024-02-27T11:41:37.082Z,english_462.wav,0,peel,2251,27,4,5,Français,homme,3,0.3,-98.18570674,1.26289606
5ab13380e9f9280001e1725d,44,0,2024-02-27T11:41:37.082Z,english_462.wav,0,peel,2251,27,4,5,Français,homme,4,0.32341667,-16.34927785,1.36496903
5ab13380e9f9280001e1725d,45,0,2024-02-27T11:41:37.082Z,english_257.wav,0,pill,1489,27,4,5,Français,homme,0,0.0,-68.31428674,1.40239735
5ab13380e9f9280001e1725d,45,0,2024-02-27T11:41:37.082Z,english_257.wav,0,pill,1489,27,4,5,Français,homme,1,0.1,-13.90908686,1.49673114
5ab13380e9f9280001e1725d,45,0,2024-02-27T11:41:37.082Z,english_257.wav,0,pill,1489,27,4,5,Français,homme,2,0.2,54.08743226,1.07658057
5ab13380e9f9280001e1725d,45,0,2024-02-27T11:41:37.082Z,english_257.wav,0,pill,1489,27,4,5,Français,homme,3,0.3,-42.73693867,0.27427112
5ab13380e9f9280001e1725d,45,0,2024-02-27T11:41:37.082Z,english_257.wav,0,pill,1489,27,4,5,Français,homme,4,0.32341667,-1.03846516,1.90516482
5ab13380e9f9280001e1725d,46,0,2024-02-27T11:41:37.082Z,english_368.wav,0,pill,1179,27,4,5,Français,homme,0,0.0,-25.00542805,1.03431482
5ab13380e9f9280001e1725d,46,0,2024-02-27T11:41:37.082Z,english_368.wav,0,pill,1179,27,4,5,Français,homme,1,0.1,-48.20991773,0.92366821
5ab13380e9f9280001e1725d,46,0,2024-02-27T11:41:37.082Z,english_368.wav,0,pill,1179,27,4,5,Français,homme,2,0.2,-51.83604218,0.34019883
5ab13380e9f9280001e1725d,46,0,2024-02-27T11:41:37.082Z,english_368.wav,0,pill,1179,27,4,5,Français,homme,3,0.3,14.57062672,1.21184807
5ab13380e9f9280001e1725d,46,0,2024-02-27T11:41:37.082Z,english_368.wav,0,pill,1179,27,4,5,Français,homme,4,0.32341667,-26.77020505,0.81530657
5ab13380e9f9280001e1725d,47,0,2024-02-27T11:41:37.082Z,english_93.wav,0,pill,1083,27,4,5,Français,homme,0,0.0,-63.58558414,0.84265136
5ab13380e9f9280001e1725d,47,0,2024-02-27T11:41:37.082Z,english_93.wav,0,pill,1083,27,4,5,Français,homme,1,0.1,47.93190562,0.45441634
5ab13380e9f9280001e1725d,47,0,2024-02-27T11:41:37.082Z,english_93.wav,0,pill,1083,27,4,5,Français,homme,2,0.2,74.1463043,1.33476805
5ab13380e9f9280001e1725d,47,0,2024-02-27T11:41:37.082Z,english_93.wav,0,pill,1083,27,4,5,Français,homme,3,0.3,46.42515129,0.61821532
5ab13380e9f9280001e1725d,47,0,2024-02-27T11:41:37.082Z,english_93.wav,0,pill,1083,27,4,5,Français,homme,4,0.32341667,-19.17332826,1.94889868
5ab13380e9f9280001e1725d,48,0,2024-02-27T11:41:37.082Z,english_911.wav,0,pill,874,27,4,5,Français,homme,0,0.0,62.6913709,0.89860539
5ab13380e9f9280001e1725d,48,0,2024-02-27T11:41:37.082Z,english_911.wav,0,pill,874,27,4,5,Français,homme,1,0.1,-28.7089255,0.06791792
5ab13380e9f9280001e1725d,48,0,2024-02-27T11:41:37.082Z,english_911.wav,0,pill,874,27,4,5,Français,homme,2,0.2,-71.03383871,1.00076401
5ab13380e9f9280001e1725d,48,0,2024-02-27T11:41:37.082Z,english_911.wav,0,pill,874,27,4,5,Français,homme,3,0.3,93.02773855,1.24961505
5ab13380e9f9280001e1725d,48,0,2024-02-27T11:41:37.082Z,english_911.wav,0,pill,874,27,4,5,Français,homme,4,0.32341667,93.73973981,1.26639778
5ab13380e9f9280001e1725d,49,0,2024-02-27T11:41:37.082Z,english_35.wav,0,peel,538,27,4,5,Français,homme,0,0.0,-35.14158545,0.855771
5ab13380e9f9280001e1725d,49,0,2024-02-27T11:41:37.082Z,english_35.wav,0,peel,538,27,4,5,Français,homme,1,0.1,-54.49669119,0.5452371
5ab13380e9f9280001e1725d,49,0,2024-02-27T11:41:37.082Z,english_35.wav,0,peel,538,27,4,5,Français,homme,2,0.2,37.91149238,1.65995376
5ab13380e9f9280001e1725d,49,0,2024-02-27T11:41:37.082Z,english_35.wav,0,peel,538,27,4,5,Français,homme,3,0.3,-55.38086503,0.74505496
5ab13380e9f9280001e1725d,49,0,2024-02-27T11:41:37.082Z,english_35.wav,0,peel,538,27,4,5,Français,homme,4,0.32341667,54.77667999,0.83530932
5ab13380e9f9280001e1725d,50,1,2024-02-27T11:41:37.082Z,english_626.wav,0,pill,1428,27,4,5,Français,homme,0,0.0,4.25415757,0.7037323
5ab13380e9f9280001e1725d,50,1,2024-02-27T11:41:37.082Z,english_626.wav,0,pill,1428,27,4,5,Français,homme,1,0.1,-41.27415217,1.26912647
5ab13380e9f9280001e1725d,50,1,2024-02-27T11:41:37.082Z,english_626.wav,0,pill,1428,27,4,5,Français,homme,2,0.2,-74.74598363,0.17760594
5ab13380e9f9280001e1725d,50,1,2024-02-27T11:41:37.082Z,english_626.wav,0,pill,1428,27,4,5,Français,homme,3,0.3,-15.94741517,1.12963497
5ab13380e9f9280001e1725d,50,1,2024-02-27T11:41:37.082Z,english_626.wav,0,pill,1428,27,4,5,Français,homme,4,0.32341667,43.51897949,0.85087029
5ab13380e9f9280001e1725d,51,1,2024-02-27T11:41:37.082Z,english_869.wav,0,pill,904,27,4,5,Français,homme,0,0.0,31.82870938,0.91730192
5ab13380e9f9280001e1725d,51,1,2024-02-27T11:41:37.082Z,english_869.wav,0,pill,904,27,4,5,Français,homme,1,0.1,55.69153841,1.54634356
5ab13380e9f9280001e1725d,51,1,2024-02-27T11:41:37.082Z,english_869.wav,0,pill,904,27,4,5,Français,homme,2,0.2,44.83997999,0.32401745
5ab13380e9f9280001e1725d,51,1,2024-02-27T11:41:37.082Z,english_869.wav,0,pill,904,27,4,5,Français,homme,3,0.3,-64.6596515,1.34292926
5ab13380e9f9280001e1725d,51,1,2024-02-27T11:41:37.082Z,english_869.wav,0,pill,904,27,4,5,Français,homme,4,0.32341667,-51.58434075,0.99771643
5ab13380e9f9280001e1725d,52,1,2024-02-27T11:41:37.082Z,english_998.wav,0,pill,2207,27,4,5,Français,homme,0,0.0,-57.03196796,0.0179282
5ab13380e9f9280001e1725d,52,1,2024-02-27T11:41:37.082Z,english_998.wav,0,pill,2207,27,4,5,Français,homme,1,0.1,-12.93623633,1.72217412
5ab13380e9f9280001e1725d,52,1,2024-02-27T11:41:37.082Z,english_998.wav,0,pill,2207,27,4,5,Français,homme,2,0.2,-24.63186366,0.91011795
5ab13380e9f9280001e1725d,52,1,2024-02-27T11:41:37.082Z,english_998.wav,0,pill,2207,27,4,5,Français,homme,3,0.3,-10.49750637,1.24282972
5ab13380e9f9280001e1725d,52,1,2024-02-27T11:41:37.082Z,english_998.wav,0,pill,2207,27,4,5,Français,homme,4,0.32341667,22.76793653,0.40520665
5ab13380e9f9280001e1725d,53,1,2024-02-27T11:41:37.082Z,english_676.wav,0,peel,402,27,4,5,Français,homme,0,0.0,3.93099148,1.7716209
5ab13380e9f9280001e1725d,53,1,2024-02-27T11:41:37.082Z,english_676.wav,0,peel,402,27,4,5,Français,homme,1,0.1,73.76311644,1.97281878
5ab13380e9f9280001e1725d,53,1,2024-02-27T11:41:37.082Z,english_676.wav,0,peel,402,27,4,5,Français,homme,2,0.2,-26.92634129,1.42487848
5ab13380e9f9280001e1725d,53,1,2024-02-27T11:41:37.082Z,english_676.wav,0,peel,402,27,4,5,Français,homme,3,0.3,51.70874443,1.45099775
5ab13380e9f9280001e1725d,53,1,2024-02-27T11:41:37.082Z,english_676.wav,0,peel,402,27,4,5,Français,homme,4,0.32341667,-48.7675791,1.84822532
5ab13380e9f9280001e1725d,54,1,2024-02-27T11:41:37.082Z,english_887.wav,0,pill,2207,27,4,5,Français,homme,0,0.0,21.36154006,0.58574694
5ab13380e9f9280001e1725d,54,1,2024-02-27T11:41:37.082Z,english_887.wav,0,pill,2207,27,4,5,Français,homme,1,0.1,-21.46213737,0.48413962
5ab13380e9f9280001e1725d,54,1,2024-02-27T11:41:37.082Z,english_887.wav,0,pill,2207,27,4,5,Français,homme,2,0.2,-45.53850124,1.16923549
5ab13380e9f9280001e1725d,54,1,2024-02-27T11:41:37.082Z,english_887.wav,0,pill,2207,27,4,5,Français,homme,3,0.3,-75.36110743,1.46190157
5ab13380e9f9280001e1725d,54,1,2024-02-27T11:41:37.082Z,english_887.wav,0,pill,2207,27,4,5,Français,homme,4,0.32341667,-96.67184991,0.00789239
5ab13380e9f9280001e1725d,55,1,2024-02-27T11:41:37.082Z,english_34.wav,0,pill,3934,27,4,5,Français,homme,0,0.0,-48.07924103,1.44836266
5ab13380e9f9280001e1725d,55,1,2024-02-27T11:41:37.082Z,english_34.wav,0,pill,3934,27,4,5,Français,homme,1,0.1,-64.84739183,1.89580324
5ab13380e9f9280001e1725d,55,1,2024-02-27T11:41:37.082Z,english_34.wav,0,pill,3934,27,4,5,Français,homme,2,0.2,-20.81716265,0.64308549
5ab13380e9f9280001e1725d,55,1,2024-02-27T11:41:37.082Z,english_34.wav,0,pill,3934,27,4,5,Français,homme,3,0.3,91.13652067,0.0848332
5ab13380e9f9280001e1725d,55,1,2024-02-27T11:41:37.082Z,english_34.wav,0,pill,3934,27,4,5,Français,homme,4,0.32341667,-54.46543937,0.8036564
5ab13380e9f9280001e1725d,56,1,2024-02-27T11:41:37.082Z,english_761.wav,0,pill,1120,27,4,5,Français,homme,0,0.0,-7.84319468,0.39728316
5ab13380e9f9280001e1725d,56,1,2024-02-27T11:41:37.082Z,english_761.wav,0,pill,1120,27,4,5,Français,homme,1,0.1,77.10262164,0.76675063
5ab13380e9f9280001e1725d,56,1,2024-02-27T11:41:37.082Z,english_761.wav,0,pill,1120,27,4,5,Français,homme,2,0.2,23.07677451,1.40075404
5ab13380e9f9280001e1725d,56,1,2024-02-27T11:41:37.082Z,english_761.wav,0,pill,1120,27,4,5,Français,homme,3,0.3,-22.28856666,0.53792203
5ab13380e9f9280001e1725d,56,1,2024-02-27T11:41:37.082Z,english_761.wav,0,pill,1120,27,4,5,Français,homme,4,0.32341667,18.71779046,1.06229189
5ab13380e9f9280001e1725d,57,1,2024-02-27T11:41:37.082Z,english_724.wav,0,peel,847,27,4,5,Français,homme,0,0.0,-91.46740291,0.46376674
5ab13380e9f9280001e1725d,57,1,2024-02-27T11:41:37.082Z,english_724.wav,0,peel,847,27,4,5,Français,homme,1,0.1,23.01616352,1.84849858
5ab13380e9f9280001e1725d,57,1,2024-02-27T11:41:37.082Z,english_724.wav,0,peel,847,27,4,5,Français,homme,2,0.2,-29.32408493,1.44978715
5ab13380e9f9280001e1725d,57,1,2024-02-27T11:41:37.082Z,english_724.wav,0,peel,847,27,4,5,Français,homme,3,0.3,-79.49145217,1.24719002
5ab13380e9f9280001e1725d,57,1,2024-02-27T11:41:37.082Z,english_724.wav,0,peel,847,27,4,5,Français,homme,4,0.32341667,82.35247912,0.99570929
5ab13380e9f9280001e1725d,58,1,2024-02-27T11:41:37.082Z,english_946.wav,0,pill,1231,27,4,5,Français,homme,0,0.0,-74.23479435,1.22824298
5ab13380e9f9280001e1725d,58,1,2024-02-27T11:41:37.082Z,english_946.wav,0,pill,1231,27,4,5,Français,homme,1,0.1,-11.3601526,0.85784227
5ab13380e9f9280001e1725d,58,1,2024-02-27T11:41:37.082Z,english_946.wav,0,pill,1231,27,4,5,Français,homme,2,0.2,36.50675361,0.09585286
5ab13380e9f9280001e1725d,58,1,2024-02-27T11:41:37.082Z,english_946.wav,0,pill,1231,27,4,5,Français,homme,3,0.3,-13.94845552,0.43829102
5ab13380e9f9280001e1725d,58,1,2024-02-27T11:41:37.082Z,english_946.wav,0,pill,1231,27,4,5,Français,homme,4,0.32341667,-6.97265347,0.86422506
5ab13380e9f9280001e1725d,59,1,2024-02-27T11:41:37.082Z,english_694.wav,0,pill,1543,27,4,5,Français,homme,0,0.0,-79.88370205,0.99496101
5ab13380e9f9280001e1725d,59,1,2024-02-27T11:41:37.082Z,english_694.wav,0,pill,1543,27,4,5,Français,homme,1,0.1,-58.02841319,0.06406007
5ab13380e9f9280001e1725d,59,1,2024-02-27T11:41:37.082Z,english_694.wav,0,pill,1543,27,4,5,Français,homme,2,0.2,-50.54988317,0.5055253
5ab13380e9f9280001e1725d,59,1,2024-02-27T11:41:37.082Z,english_694.wav,0,pill,1543,27,4,5,Français,homme,3,0.3,-20.79864769,0.19498426
5ab13380e9f9280001e1725d,59,1,2024-02-27T11:41:37.082Z,english_694.wav,0,pill,1543,27,4,5,Français,homme,4,0.32341667,-73.64916114,0.36410653
5ab13380e9f9280001e1725d,60,1,2024-02-27T11:41:37.082Z,english_353.wav,0,peel,658,27,4,5,Français,homme,0,0.0,51.44050484,0.16518243
5ab13380e9f9280001e1725d,60,1,2024-02-27T11:41:37.082Z,english_353.wav,0,peel,658,27,4,5,Français,homme,1,0.1,-8.32491594,1.32533476
5ab13380e9f9280001e1725d,60,1,2024-02-27T11:41:37.082Z,english_353.wav,0,peel,658,27,4,5,Français,homme,2,0.2,-53.32966552,0.41923861
5ab13380e9f9280001e1725d,60,1,2024-02-27T11:41:37.082Z,english_353.wav,0,peel,658,27,4,5,Français,homme,3,0.3,68.29246543,1.87374553
5ab13380e9f9280001e1725d,60,1,2024-02-27T11:41:37.082Z,english_353.wav,0,peel,658,27,4,5,Français,homme,4,0.32341667,-32.22441747,1.13071195
5ab13380e9f9280001e1725d,61,1,2024-02-27T11:41:37.082Z,english_804.wav,0,peel,702,27,4,5,Français,homme,0,0.0,11.23319328,0.16159815
5ab13380e9f9280001e1725d,61,1,2024-02-27T11:41:37.082Z,english_804.wav,0,peel,702,27,4,5,Français,homme,1,0.1,-75.15189859,1.76023076
5ab13380e9f9280001e1725d,61,1,2024-02-27T11:41:37.082Z,english_804.wav,0,peel,702,27,4,5,Français,homme,2,0.2,5.39397939,0.7355024
5ab13380e9f9280001e1725d,61,1,2024-02-27T11:41:37.082Z,english_804.wav,0,peel,702,27,4,5,Français,homme,3,0.3,42.92141331,1.74636497
5ab13380e9f9280001e1725d,61,1,2024-02-27T11:41:37.082Z,english_804.wav,0,peel,702,27,4,5,Français,homme,4,0.32341667,-79.84726866,1.05562007
5ab13380e9f9280001e1725d,62,1,2024-02-27T11:41:37.082Z,english_100.wav,0,peel,1305,27,4,5,Français,homme,0,0.0,-66.86198445,0.79522553
5ab13380e9f9280001e1725d,62,1,2024-02-27T11:41:37.082Z,english_100.wav,0,peel,1305,27,4,5,Français,homme,1,0.1,32.23990363,0.27784591
5ab13380e9f9280001e1725d,62,1,2024-02-27T11:41:37.082Z,english_100.wav,0,peel,1305,27,4,5,Français,homme,2,0.2,-63.31896149,1.76330212
5ab13380e9f9280001e1725d,62,1,2024-02-27T11:41:37.082Z,english_100.wav,0,peel,1305,27,4,5,Français,homme,3,0.3,-73.00038049,0.60946618
5ab13380e9f9280001e1725d,62,1,2024-02-27T11:41:37.082Z,english_100.wav,0,peel,1305,27,4,5,Français,homme,4,0.32341667,32.15710315,0.42695433
5ab13380e9f9280001e1725d,63,1,2024-02-27T11:41:37.082Z,english_253.wav,0,peel,1058,27,4,5,Français,homme,0,0.0,12.9108365,0.20464585
5ab13380e9f9280001e1725d,63,1,2024-02-27T11:41:37.082Z,english_253.wav,0,peel,1058,27,4,5,Français,homme,1,0.1,-70.83420593,1.97412558
5ab13380e9f9280001e1725d,63,1,2024-02-27T11:41:37.082Z,english_253.wav,0,peel,1058,27,4,5,Français,homme,2,0.2,-6.13796162,1.12401504
5ab13380e9f9280001e1725d,63,1,2024-02-27T11:41:37.082Z,english_253.wav,0,peel,1058,27,4,5,Français,homme,3,0.3,38.03543053,1.75851492
5ab13380e9f9280001e1725d,63,1,2024-02-27T11:41:37.082Z,english_253.wav,0,peel,1058,27,4,5,Français,homme,4,0.32341667,-61.21147917,0.77953826
5ab13380e9f9280001e1725d,64,1,2024-02-27T11:41:37.082Z,english_378.wav,0,peel,2707,27,4,5,Français,homme,0,0.0,13.37832971,0.65677047
5ab13380e9f9280001e1725d,64,1,2024-02-27T11:41:37.082Z,english_378.wav,0,peel,2707,27,4,5,Français,homme,1,0.1,17.37931074,1.74134092
5ab13380e9f9280001e1725d,64,1,2024-02-27T11:41:37.082Z,english_378.wav,0,peel,2707,27,4,5,Français,homme,2,0.2,10.9554113,0.67897054
5ab13380e9f9280001e1725d,64,1,2024-02-27T11:41:37.082Z,english_378.wav,0,peel,2707,27,4,5,Français,homme,3,0.3,-24.86891171,1.20159635
5ab13380e9f9280001e1725d,64,1,2024-02-27T11:41:37.082Z,english_378.wav,0,peel,2707,27,4,5,Français,homme,4,0.32341667,7.89965194,0.27053006
5ab13380e9f9280001e1725d,65,1,2024-02-27T11:41:37.082Z,english_490.wav,0,peel,1660,27,4,5,Français,homme,0,0.0,39.23640548,0.12600295
5ab13380e9f9280001e1725d,65,1,2024-02-27T11:41:37.082Z,english_490.wav,0,peel,1660,27,4,5,Français,homme,1,0.1,-42.18123516,0.88631808
5ab13380e9f9280001e1725d,65,1,2024-02-27T11:41:37.082Z,english_490.wav,0,peel,1660,27,4,5,Français,homme,2,0.2,53.94030347,1.76218548
5ab13380e9f9280001e1725d,65,1,2024-02-27T11:41:37.082Z,english_490.wav,0,peel,1660,27,4,5,Français,homme,3,0.3,-65.41993581,1.86160188
5ab13380e9f9280001e1725d,65,1,2024-02-27T11:41:37.082Z,english_490.wav,0,peel,1660,27,4,5,Français,homme,4,0.32341667,90.15742696,1.03493088
5ab13380e9f9280001e1725d,66,1,2024-02-27T11:41:37.082Z,english_666.wav,0,pill,537,27,4,5,Français,homme,0,0.0,-6.63307831,0.44221414
5ab13380e9f9280001e1725d,66,1,2024-02-27T11:41:37.082Z,english_666.wav,0,pill,537,27,4,5,Français,homme,1,0.1,-47.66524373,1.62559692
5ab13380e9f9280001e1725d,66,1,2024-02-27T11:41:37.082Z,english_666.wav,0,pill,537,27,4,5,Français,homme,2,0.2,66.93817534,0.27313334
5ab13380e9f9280001e1725d,66,1,2024-02-27T11:41:37.082Z,english_666.wav,0,pill,537,27,4,5,Français,homme,3,0.3,-1.338646,0.46846925
5ab13380e9f9280001e1725d,66,1,2024-02-27T11:41:37.082Z,english_666.wav,0,pill,537,27,4,5,Français,homme,4,0.32341667,-14.31927765,1.08883823
5ab13380e9f9280001e1725d,67,1,2024-02-27T11:41:37.082Z,english_679.wav,0,pill,609,27,4,5,Français,homme,0,0.0,37.61966445,0.05085037
5ab13380e9f9280001e1725d,67,1,2024-02-27T11:41:37.082Z,english_679.wav,0,pill,609,27,4,5,Français,homme,1,0.1,51.99791738,0.83446012
5ab13380e9f9280001e1725d,67,1,2024-02-27T11:41:37.082Z,english_679.wav,0,pill,609,27,4,5,Français,homme,2,0.2,47.28862711,0.17034906
5ab13380e9f9280001e1725d,67,1,2024-02-27T11:41:37.082Z,english_679.wav,0,pill,609,27,4,5,Français,homme,3,0.3,96.96405016,1.15010704
5ab13380e9f9280001e1725d,67,1,2024-02-27T11:41:37.082Z,english_679.wav,0,pill,609,27,4,5,Français,homme,4,0.32341667,17.22990972,1.32170415
5ab13380e9f9280001e1725d,68,1,2024-02-27T11:41:37.082Z,english_470.wav,0,peel,600,27,4,5,Français,homme,0,0.0,-20.39789813,1.83124966
5ab13380e9f9280001e1725d,68,1,2024-02-27T11:41:37.082Z,english_470.wav,0,peel,600,27,4,5,Français,homme,1,0.1,20.62750989,0.41787925
5ab13380e9f9280001e1725d,68,1,2024-02-27T11:41:37.082Z,english_470.wav,0,peel,600,27,4,5,Français,homme,2,0.2,-59.78251605,1.85790598
5ab13380e9f9280001e1725d,68,1,2024-02-27T11:41:37.082Z,english_470.wav,0,peel,600,27,4,5,Français,homme,3,0.3,-88.74051682,0.99710793
5ab13380e9f9280001e1725d,68,1,2024-02-27T11:41:37.082Z,english_470.wav,0,peel,600,27,4,5,Français,homme,4,0.32341667,8.31634628,0.56985764
5ab13380e9f9280001e1725d,69,1,2024-02-27T11:41:37.082Z,english_699.wav,0,pill,1180,27,4,5,Français,homme,0,0.0,-21.84844695,0.55007596
5ab13380e9f9280001e1725d,69,1,2024-02-27T11:41:37.082Z,english_699.wav,0,pill,1180,27,4,5,Français,homme,1,0.1,-20.61050251,0.98595355
5ab13380e9f9280001e1725d,69,1,2024-02-27T11:41:37.082Z,english_699.wav,0,pill,1180,27,4,5,Français,homme,2,0.2,-7.57046677,1.16771202
5ab13380e9f9280001e1725d,69,1,2024-02-27T11:41:37.082Z,english_699.wav,0,pill,1180,27,4,5,Français,homme,3,0.3,-90.18255135,0.60930532
5ab13380e9f9280001e1725d,69,1,2024-02-27T11:41:37.082Z,english_699.wav,0,pill,1180,27,4,5,Français,homme,4,0.32341667,-39.12532958,1.39260434
5ab13380e9f9280001e1725d,70,1,2024-02-27T11:41:37.082Z,english_578.wav,0,pill,678,27,4,5,Français,homme,0,0.0,-76.90925642,1.21901793
5ab13380e9f9280001e1725d,70,1,2024-02-27T11:41:37.082Z,english_578.wav,0,pill,678,27,4,5,Français,homme,1,0.1,-68.48676994,1.4118495
5ab13380e9f9280001e1725d,70,1,2024-02-27T11:41:37.082Z,english_578.wav,0,pill,678,27,4,5,Français,homme,2,0.2,36.30884798,0.05521057
5ab13380e9f9280001e1725d,70,1,2024-02-27T11:41:37.082Z,english_578.wav,0,pill,678,27,4,5,Français,homme,3,0.3,-36.82491274,1.45629656
5ab13380e9f9280001e1725d,70,1,2024-02-27T11:41:37.082Z,english_578.wav,0,pill,678,27,4,5,Français,homme,4,0.32341667,-4.04717442,1.80268091
5ab13380e9f9280001e1725d,71,1,2024-02-27T11:41:37.082Z,english_504.wav,0,pill,589,27,4,5,Français,homme,0,0.0,4.11468456,0.75379057
5ab13380e9f9280001e1725d,71,1,2024-02-27T11:41:37.082Z,english_504.wav,0,pill,589,27,4,5,Français,homme,1,0.1,70.56620437,1.18348717
5ab13380e9f9280001e1725d,71,1,2024-02-27T11:41:37.082Z,english_504.wav,0,pill,589,27,4,5,Français,homme,2,0.2,3.26767498,0.25360202
5ab13380e9f9280001e1725d,71,1,2024-02-27T11:41:37.082Z,english_504.wav,0,pill,589,27,4,5,Français,homme,3,0.3,-3.14493553,1.87094491
5ab13380e9f9280001e1725d,71,1,2024-02-27T11:41:37.082Z,english_504.wav,0,pill,589,27,4,5,Français,homme,4,0.32341667,43.57926014,0.110125
5ab13380e9f9280001e1725d,72,1,2024-02-27T11:41:37.082Z,english_585.wav,0,pill,963,27,4,5,Français,homme,0,0.0,-47.47167609,0.91486293
5ab13380e9f9280001e1725d,72,1,2024-02-27T11:41:37.082Z,english_585.wav,0,pill,963,27,4,5,Français,homme,1,0.1,-85.73018253,0.8051019
5ab13380e9f9280001e1725d,72,1,2024-02-27T11:41:37.082Z,english_585.wav,0,pill,963,27,4,5,Français,homme,2,0.2,4.69567907,1.25289508
5ab13380e9f9280001e1725d,72,1,2024-02-27T11:41:37.082Z,english_585.wav,0,pill,963,27,4,5,Français,homme,3,0.3,51.83381109,0.83258124
5ab13380e9f9280001e1725d,72,1,2024-02-27T11:41:37.082Z,english_585.wav,0,pill,963,27,4,5,Français,homme,4,0.32341667,14.12777642,1.43411439
5ab13380e9f9280001e1725d,73,1,2024-02-27T11:41:37.082Z,english_945.wav,0,peel,963,27,4,5,Français,homme,0,0.0,63.16075011,1.8314946
5ab13380e9f9280001e1725d,73,1,2024-02-27T11:41:37.082Z,english_945.wav,0,peel,963,27,4,5,Français,homme,1,0.1,87.55520176,1.3737613
5ab13380e9f9280001e1725d,73,1,2024-02-27T11:41:37.082Z,english_945.wav,0,peel,963,27,4,5,Français,homme,2,0.2,-69.60467193,0.61639792
5ab13380e9f9280001e1725d,73,1,2024-02-27T11:41:37.082Z,english_945.wav,0,peel,963,27,4,5,Français,homme,3,0.3,-69.25530384,1.67239747
5ab13380e9f9280001e1725d,73,1,2024-02-27T11:41:37.082Z,english_945.wav,0,peel,963,27,4,5,Français,homme,4,0.32341667,-47.64160087,1.88344595
5ab13380e9f9280001e1725d,74,1,2024-02-27T11:41:37.082Z,english_296.wav,0,pill,750,27,4,5,Français,homme,0,0.0,-4.92142852,1.99305172
5ab13380e9f9280001e1725d,74,1,2024-02-27T11:41:37.082Z,english_296.wav,0,pill,750,27,4,5,Français,homme,1,0.1,-5.74196289,0.92633133
5ab13380e9f9280001e1725d,74,1,2024-02-27T11:41:37.082Z,english_296.wav,0,pill,750,27,4,5,Français,homme,2,0.2,76.26647078,0.44879969
5ab13380e9f9280001e1725d,74,1,2024-02-27T11:41:37.082Z,english_296.wav,0,pill,750,27,4,5,Français,homme,3,0.3,-62.74030654,1.47417428
5ab13380e9f9280001e1725d,74,1,2024-02-27T11:41:37.082Z,english_296.wav,0,pill,750,27,4,5,Français,homme,4,0.32341667,-60.661992,1.05571007
5ab13380e9f9280001e1725d,75,1,2024-02-27T11:41:37.082Z,english_268.wav,0,pill,986,27,4,5,Français,homme,0,0.0,55.18591224,1.47327052
5ab13380e9f9280001e1725d,75,1,2024-02-27T11:41:37.082Z,english_268.wav,0,pill,986,27,4,5,Français,homme,1,0.1,47.37483414,0.95932673
5ab13380e9f9280001e1725d,75,1,2024-02-27T11:41:37.082Z,english_268.wav,0,pill,986,27,4,5,Français,homme,2,0.2,46.97410588,1.80275919
5ab13380e9f9280001e1725d,75,1,2024-02-27T11:41:37.082Z,english_268.wav,0,pill,986,27,4,5,Français,homme,3,0.3,-64.08979313,1.6474991
5ab13380e9f9280001e1725d,75,1,2024-02-27T11:41:37.082Z,english_268.wav,0,pill,986,27,4,5,Français,homme,4,0.32341667,35.8590447,1.56533667
5ab13380e9f9280001e1725d,76,1,2024-02-27T11:41:37.082Z,english_431.wav,0,peel,740,27,4,5,Français,homme,0,0.0,-28.91437381,1.3282391
5ab13380e9f9280001e1725d,76,1,2024-02-27T11:41:37.082Z,english_431.wav,0,peel,740,27,4,5,Français,homme,1,0.1,30.6479342,1.9405757
5ab13380e9f9280001e1725d,76,1,2024-02-27T11:41:37.082Z,english_431.wav,0,peel,740,27,4,5,Français,homme,2,0.2,41.25713347,1.67607787
5ab13380e9f9280001e1725d,76,1,2024-02-27T11:41:37.082Z,english_431.wav,0,peel,740,27,4,5,Français,homme,3,0.3,9.19018397,0.62213613
5ab13380e9f9280001e1725d,76,1,2024-02-27T11:41:37.082Z,english_431.wav,0,peel,740,27,4,5,Français,homme,4,0.32341667,-61.77590044,0.50881411
5ab13380e9f9280001e1725d,77,1,2024-02-27T11:41:37.082Z,english_594.wav,0,peel,679,27,4,5,Français,homme,0,0.0,-85.15725243,1.49995106
5ab13380e9f9280001e1725d,77,1,2024-02-27T11:41:37.082Z,english_594.wav,0,peel,679,27,4,5,Français,homme,1,0.1,18.57908242,1.36683942
5ab13380e9f9280001e1725d,77,1,2024-02-27T11:41:37.082Z,english_594.wav,0,peel,679,27,4,5,Français,homme,2,0.2,-52.1381203,1.31792707
5ab13380e9f9280001e1725d,77,1,2024-02-27T11:41:37.082Z,english_594.wav,0,peel,679,27,4,5,Français,homme,3,0.3,77.56862162,0.76119001
5ab13380e9f9280001e1725d,77,1,2024-02-27T11:41:37.082Z,english_594.wav,0,peel,679,27,4,5,Français,homme,4,0.32341667,89.7133381,1.77084997
5ab13380e9f9280001e1725d,78,1,2024-02-27T11:41:37.082Z,english_561.wav,0,pill,627,27,4,5,Français,homme,0,0.0,62.21065415,1.32725493
5ab13380e9f9280001e1725d,78,1,2024-02-27T11:41:37.082Z,english_561.wav,0,pill,627,27,4,5,Français,homme,1,0.1,-9.84770717,1.15871491
5ab13380e9f9280001e1725d,78,1,2024-02-27T11:41:37.082Z,english_561.wav,0,pill,627,27,4,5,Français,homme,2,0.2,-12.92274306,0.82816789
5ab13380e9f9280001e1725d,78,1,2024-02-27T11:41:37.082Z,english_561.wav,0,pill,627,27,4,5,Français,homme,3,0.3,16.08334811,1.72308293
5ab13380e9f9280001e1725d,78,1,2024-02-27T11:41:37.082Z,english_561.wav,0,pill,627,27,4,5,Français,homme,4,0.32341667,-22.38830035,0.72943893
5ab13380e9f9280001e1725d,79,1,2024-02-27T11:41:37.082Z,english_680.wav,0,pill,1327,27,4,5,Français,homme,0,0.0,93.24972168,1.89994278
5ab13380e9f9280001e1725d,79,1,2024-02-27T11:41:37.082Z,english_680.wav,0,pill,1327,27,4,5,Français,homme,1,0.1,21.55707386,1.06559033
5ab13380e9f9280001e1725d,79,1,2024-02-27T11:41:37.082Z,english_680.wav,0,pill,1327,27,4,5,Français,homme,2,0.2,-58.84044748,0.79606997
5ab13380e9f9280001e1725d,79,1,2024-02-27T11:41:37.082Z,english_680.wav,0,pill,1327,27,4,5,Français,homme,3,0.3,-13.55367876,0.35899559
5ab13380e9f9280001e1725d,79,1,2024-02-27T11:41:37.082Z,english_680.wav,0,pill,1327,27,4,5,Français,homme,4,0.32341667,17.98073729,1.50925573
5ab13380e9f9280001e1725d,80,1,2024-02-27T11:41:37.082Z,english_573.wav,0,pill,1360,27,4,5,Français,homme,0,0.0,-46.41950257,0.98293374
5ab13380e9f9280001e1725d,80,1,2024-02-27T11:41:37.082Z,english_573.wav,0,pill,1360,27,4,5,Français,homme,1,0.1,-92.58424164,0.99885906
5ab13380e9f9280001e1725d,80,1,2024-02-27T11:41:37.082Z,english_573.wav,0,pill,1360,27,4,5,Français,homme,2,0.2,21.8123883,0.65769494
5ab13380e9f9280001e1725d,80,1,2024-02-27T11:41:37.082Z,english_573.wav,0,pill,1360,27,4,5,Français,homme,3,0.3,16.48756951,0.46238493
5ab13380e9f9280001e1725d,80,1,2024-02-27T11:41:37.082Z,english_573.wav,0,pill,1360,27,4,5,Français,homme,4,0.32341667,-54.36863361,0.72259175
5ab13380e9f9280001e1725d,81,1,2024-02-27T11:41:37.082Z,english_621.wav,0,peel,1095,27,4,5,Français,homme,0,0.0,-58.25251841,1.01186344
5ab13380e9f9280001e1725d,81,1,2024-02-27T11:41:37.082Z,english_621.wav,0,peel,1095,27,4,5,Français,homme,1,0.1,21.8974524,1.03560921
5ab13380e9f9280001e1725d,81,1,2024-02-27T11:41:37.082Z,english_621.wav,0,peel,1095,27,4,5,Français,homme,2,0.2,-22.03552483,0.97057504
5ab13380e9f9280001e1725d,81,1,2024-02-27T11:41:37.082Z,english_621.wav,0,peel,1095,27,4,5,Français,homme,3,0.3,-56.80446909,1.33131235
5ab13380e9f9280001e1725d,81,1,2024-02-27T11:41:37.082Z,english_621.wav,0,peel,1095,27,4,5,Français,homme,4,0.32341667,-23.41760562,0.49151525
5ab13380e9f9280001e1725d,82,1,2024-02-27T11:41:37.082Z,english_418.wav,0,pill,588,27,4,5,Français,homme,0,0.0,-7.92859899,0.20369216
5ab13380e9f9280001e1725d,82,1,2024-02-27T11:41:37.082Z,english_418.wav,0,pill,588,27,4,5,Français,homme,1,0.1,10.19863107,0.15242613
5ab13380e9f9280001e1725d,82,1,2024-02-27T11:41:37.082Z,english_418.wav,0,pill,588,27,4,5,Français,homme,2,0.2,-44.82770696,0.77695319
5ab13380e9f9280001e1725d,82,1,2024-02-27T11:41:37.082Z,english_418.wav,0,pill,588,27,4,5,Français,homme,3,0.3,-80.4141896,0.71786342
5ab13380e9f9280001e1725d,82,1,2024-02-27T11:41:37.082Z,english_418.wav,0,pill,588,27,4,5,Français,homme,4,0.32341667,32.43674468,1.20494416
5ab13380e9f9280001e1725d,83,1,2024-02-27T11:41:37.082Z,english_136.wav,0,pill,542,27,4,5,Français,homme,0,0.0,12.04186247,0.70846626
5ab13380e9f9280001e1725d,83,1,2024-02-27T11:41:37.082Z,english_136.wav,0,pill,542,27,4,5,Français,homme,1,0.1,-56.97950323,1.3229906
5ab13380e9f9280001e1725d,83,1,2024-02-27T11:41:37.082Z,english_136.wav,0,pill,542,27,4,5,Français,homme,2,0.2,32.29793995,0.25119571
5ab13380e9f9280001e1725d,83,1,2024-02-27T11:41:37.082Z,english_136.wav,0,pill,542,27,4,5,Français,homme,3,0.3,40.05814767,1.28510755
5ab13380e9f9280001e1725d,83,1,2024-02-27T11:41:37.082Z,english_136.wav,0,pill,542,27,4,5,Français,homme,4,0.32341667,61.40693937,1.20697433
5ab13380e9f9280001e1725d,84,1,2024-02-27T11:41:37.082Z,english_795.wav,0,pill,2538,27,4,5,Français,homme,0,0.0,39.36518311,1.47453336
5ab13380e9f9280001e1725d,84,1,2024-02-27T11:41:37.082Z,english_795.wav,0,pill,2538,27,4,5,Français,homme,1,0.1,16.50141431,0.29075574
5ab13380e9f9280001e1725d,84,1,2024-02-27T11:41:37.082Z,english_795.wav,0,pill,2538,27,4,5,Français,homme,2,0.2,54.87860026,1.88174141
5ab13380e9f9280001e1725d,84,1,2024-02-27T11:41:37.082Z,english_795.wav,0,pill,2538,27,4,5,Français,homme,3,0.3,61.09971909,0.27471403
5ab13380e9f9280001e1725d,84,1,2024-02-27T11:41:37.082Z,english_795.wav,0,pill,2538,27,4,5,Français,homme,4,0.32341667,4.28490532,0.11399574
5ab13380e9f9280001e1725d,85,1,2024-02-27T11:41:37.082Z,english_759.wav,0,pill,472,27,4,5,Français,homme,0,0.0,22.56482953,0.32974928
5ab13380e9f9280001e1725d,85,1,2024-02-27T11:41:37.082Z,english_759.wav,0,pill,472,27,4,5,Français,homme,1,0.1,-26.57515882,0.74944663
5ab13380e9f9280001e1725d,85,1,2024-02-27T11:41:37.082Z,english_759.wav,0,pill,472,27,4,5,Français,homme,2,0.2,58.52096087,0.73148935
5ab13380e9f9280001e1725d,85,1,2024-02-27T11:41:37.082Z,english_759.wav,0,pill,472,27,4,5,Français,homme,3,0.3,67.88336338,0.69769471
5ab13380e9f9280001e1725d,85,1,2024-02-27T11:41:37.082Z,english_759.wav,0,pill,472,27,4,5,Français,homme,4,0.32341667,-98.7178367,1.46371733
5ab13380e9f9280001e1725d,86,1,2024-02-27T11:41:37.082Z,english_283.wav,0,pill,606,27,4,5,Français,homme,0,0.0,-27.01977409,1.23470843
5ab13380e9f9280001e1725d,86,1,2024-02-27T11:41:37.082Z,english_283.wav,0,pill,606,27,4,5,Français,homme,1,0.1,-58.6063919,0.41737987
5ab13380e9f9280001e1725d,86,1,2024-02-27T11:41:37.082Z,english_283.wav,0,pill,606,27,4,5,Français,homme,2,0.2,36.15867228,0.64455365
5ab13380e9f9280001e1725d,86,1,2024-02-27T11:41:37.082Z,english_283.wav,0,pill,606,27,4,5,Français,homme,3,0.3,-77.91689069,1.80541824
5ab13380e9f9280001e1725d,86,1,2024-02-27T11:41:37.082Z,english_283.wav,0,pill,606,27,4,5,Français,homme,4,0.32341667,-77.99680679,1.86024907
5ab13380e9f9280001e1725d,87,1,2024-02-27T11:41:37.082Z,english_562.wav,0,peel,671,27,4,5,Français,homme,0,0.0,-40.22672309,0.64031882
5ab13380e9f9280001e1725d,87,1,2024-02-27T11:41:37.082Z,english_562.wav,0,peel,671,27,4,5,Français,homme,1,0.1,77.961849,0.7637006
5ab13380e9f9280001e1725d,87,1,2024-02-27T11:41:37.082Z,english_562.wav,0,peel,671,27,4,5,Français,homme,2,0.2,25.52463525,0.87632482
5ab13380e9f9280001e1725d,87,1,2024-02-27T11:41:37.082Z,english_562.wav,0,peel,671,27,4,5,Français,homme,3,0.3,84.62788358,0.98972612
5ab13380e9f9280001e1725d,87,1,2024-02-27T11:41:37.082Z,english_562.wav,0,peel,671,27,4,5,Français,homme,4,0.32341667,-53.67427145,0.74010285
5ab13380e9f9280001e1725d,88,1,2024-02-27T11:41:37.082Z,english_749.wav,0,pill,925,27,4,5,Français,homme,0,0.0,-84.66020389,1.10062914
5ab13380e9f9280001e1725d,88,1,2024-02-27T11:41:37.082Z,english_749.wav,0,pill,925,27,4,5,Français,homme,1,0.1,45.42505651,0.81865822
5ab13380e9f9280001e1725d,88,1,2024-02-27T11:41:37.082Z,english_749.wav,0,pill,925,27,4,5,Français,homme,2,0.2,27.47623271,1.25164699
5ab13380e9f9280001e1725d,88,1,2024-02-27T11:41:37.082Z,english_749.wav,0,pill,925,27,4,5,Français,homme,3,0.3,44.62305857,1.77685805
5ab13380e9f9280001e1725d,88,1,2024-02-27T11:41:37.082Z,english_749.wav,0,pill,925,27,4,5,Français,homme,4,0.32341667,-87.62087265,0.97343419
5ab13380e9f9280001e1725d,89,1,2024-02-27T11:41:37.082Z,english_332.wav,0,pill,694,27,4,5,Français,homme,0,0.0,-51.41680869,1.58782391
5ab13380e9f9280001e1725d,89,1,2024-02-27T11:41:37.082Z,english_332.wav,0,pill,694,27,4,5,Français,homme,1,0.1,4.985172,0.72138411
5ab13380e9f9280001e1725d,89,1,2024-02-27T11:41:37.082Z,english_332.wav,0,pill,694,27,4,5,Français,homme,2,0.2,88.20327684,1.12265768
5ab13380e9f9280001e1725d,89,1,2024-02-27T11:41:37.082Z,english_332.wav,0,pill,694,27,4,5,Français,homme,3,0.3,-58.40734817,0.23569111
5ab13380e9f9280001e1725d,89,1,2024-02-27T11:41:37.082Z,english_332.wav,0,pill,694,27,4,5,Français,homme,4,0.32341667,68.30800912,1.23583309
5ab13380e9f9280001e1725d,90,1,2024-02-27T11:41:37.082Z,english_88.wav,0,pill,574,27,4,5,Français,homme,0,0.0,26.55889683,1.3027014
5ab13380e9f9280001e1725d,90,1,2024-02-27T11:41:37.082Z,english_88.wav,0,pill,574,27,4,5,Français,homme,1,0.1,31.00356365,0.67122251
5ab13380e9f9280001e1725d,90,1,2024-02-27T11:41:37.082Z,english_88.wav,0,pill,574,27,4,5,Français,homme,2,0.2,-60.56468942,0.59704477
5ab13380e9f9280001e1725d,90,1,2024-02-27T11:41:37.082Z,english_88.wav,0,pill,574,27,4,5,Français,homme,3,0.3,-56.53017227,1.68194373
5ab13380e9f9280001e1725d,90,1,2024-02-27T11:41:37.082Z,english_88.wav,0,pill,574,27,4,5,Français,homme,4,0.32341667,-78.90279024,0.42277005
5ab13380e9f9280001e1725d,91,1,2024-02-27T11:41:37.082Z,english_756.wav,0,pill,629,27,4,5,Français,homme,0,0.0,-75.60908863,1.29894989
5ab13380e9f9280001e1725d,91,1,2024-02-27T11:41:37.082Z,english_756.wav,0,pill,629,27,4,5,Français,homme,1,0.1,-4.30259752,0.61363685
5ab13380e9f9280001e1725d,91,1,2024-02-27T11:41:37.082Z,english_756.wav,0,pill,629,27,4,5,Français,homme,2,0.2,20.94377522,1.41793961
5ab13380e9f9280001e1725d,91,1,2024-02-27T11:41:37.082Z,english_756.wav,0,pill,629,27,4,5,Français,homme,3,0.3,10.45062111,1.73528762
5ab13380e9f9280001e1725d,91,1,2024-02-27T11:41:37.082Z,english_756.wav,0,pill,629,27,4,5,Français,homme,4,0.32341667,86.50209298,0.4791473
5ab13380e9f9280001e1725d,92,1,2024-02-27T11:41:37.082Z,english_402.wav,0,peel,538,27,4,5,Français,homme,0,0.0,-69.75327375,0.88104294
5ab13380e9f9280001e1725d,92,1,2024-02-27T11:41:37.082Z,english_402.wav,0,peel,538,27,4,5,Français,homme,1,0.1,-37.13247603,1.50830761
5ab13380e9f9280001e1725d,92,1,2024-02-27T11:41:37.082Z,english_402.wav,0,peel,538,27,4,5,Français,homme,2,0.2,95.06865819,0.86613458
5ab13380e9f9280001e1725d,92,1,2024-02-27T11:41:37.082Z,english_402.wav,0,peel,538,27,4,5,Français,homme,3,0.3,-83.65219271,1.46195184
5ab13380e9f9280001e1725d,92,1,2024-02-27T11:41:37.082Z,english_402.wav,0,peel,538,27,4,5,Français,homme,4,0.32341667,-39.65623645,1.78030697
5ab13380e9f9280001e1725d,93,1,2024-02-27T11:41:37.082Z,english_575.wav,0,peel,681,27,4,5,Français,homme,0,0.0,61.73461998,1.8510319
5ab13380e9f9280001e1725d,93,1,2024-02-27T11:41:37.082Z,english_575.wav,0,peel,681,27,4,5,Français,homme,1,0.1,-88.57549656,1.54102878
5ab13380e9f9280001e1725d,93,1,2024-02-27T11:41:37.082Z,english_575.wav,0,peel,681,27,4,5,Français,homme,2,0.2,-30.88461278,1.19801244
5ab13380e9f9280001e1725d,93,1,2024-02-27T11:41:37.082Z,english_575.wav,0,peel,681,27,4,5,Français,homme,3,0.3,-63.73327026,1.20026237
5ab13380e9f9280001e1725d,93,1,2024-02-27T11:41:37.082Z,english_575.wav,0,peel,681,27,4,5,Français,homme,4,0.32341667,-0.55806298,1.04112184
5ab13380e9f9280001e1725d,94,1,2024-02-27T11:41:37.082Z,english_194.wav,0,pill,657,27,4,5,Français,homme,0,0.0,46.99725025,0.38230397
5ab13380e9f9280001e1725d,94,1,2024-02-27T11:41:37.082Z,english_194.wav,0,pill,657,27,4,5,Français,homme,1,0.1,-37.20381284,1.33246395
5ab13380e9f9280001e1725d,94,1,2024-02-27T11:41:37.082Z,english_194.wav,0,pill,657,27,4,5,Français,homme,2,0.2,13.86947558,1.31276464
5ab13380e9f9280001e1725d,94,1,2024-02-27T11:41:37.082Z,english_194.wav,0,pill,657,27,4,5,Français,homme,3,0.3,79.77232086,0.22397005
5ab13380e9f9280001e1725d,94,1,2024-02-27T11:41:37.082Z,english_194.wav,0,pill,657,27,4,5,Français,homme,4,0.32341667,49.46244041,1.74931967
5ab13380e9f9280001e1725d,95,1,2024-02-27T11:41:37.082Z,english_792.wav,0,pill,845,27,4,5,Français,homme,0,0.0,-56.39949456,1.32676777
5ab13380e9f9280001e1725d,95,1,2024-02-27T11:41:37.082Z,english_792.wav,0,pill,845,27,4,5,Français,homme,1,0.1,-76.36067248,1.08004851
5ab13380e9f9280001e1725d,95,1,2024-02-27T11:41:37.082Z,english_792.wav,0,pill,845,27,4,5,Français,homme,2,0.2,-58.44160547,1.5809308
5ab13380e9f9280001e1725d,95,1,2024-02-27T11:41:37.082Z,english_792.wav,0,pill,845,27,4,5,Français,homme,3,0.3,25.29086486,0.16508433
5ab13380e9f9280001e1725d,95,1,2024-02-27T11:41:37.082Z,english_792.wav,0,pill,845,27,4,5,Français,homme,4,0.32341667,-6.58788169,1.18870574
5ab13380e9f9280001e1725d,96,1,2024-02-27T11:41:37.082Z,english_872.wav,0,pill,605,27,4,5,Français,homme,0,0.0,0.56374655,0.10935802
5ab13380e9f9280001e1725d,96,1,2024-02-27T11:41:37.082Z,english_872.wav,0,pill,605,27,4,5,Français,homme,1,0.1,-70.88107799,0.91778609
5ab13380e9f9280001e1725d,96,1,2024-02-27T11:41:37.082Z,english_872.wav,0,pill,605,27,4,5,Français,homme,2,0.2,6.46677515,1.38740199
5ab13380e9f9280001e1725d,96,1,2024-02-27T11:41:37.082Z,english_872.wav,0,pill,605,27,4,5,Français,homme,3,0.3,-23.51354109,0.12682507
5ab13380e9f9280001e1725d,96,1,2024-02-27T11:41:37.082Z,english_872.wav,0,pill,605,27,4,5,Français,homme,4,0.32341667,81.64578493,0.71067476
5ab13380e9f9280001e1725d,97,1,2024-02-27T11:41:37.082Z,english_933.wav,0,pill,454,27,4,5,Français,homme,0,0.0,-48.12258855,1.54767366
5ab13380e9f9280001e1725d,97,1,2024-02-27T11:41:37.082Z,english_933.wav,0,pill,454,27,4,5,Français,homme,1,0.1,27.26905516,0.30219473
5ab13380e9f9280001e1725d,97,1,2024-02-27T11:41:37.082Z,english_933.wav,0,pill,454,27,4,5,Français,homme,2,0.2,0.35087756,1.50410475
5ab13380e9f9280001e1725d,97,1,2024-02-27T11:41:37.082Z,english_933.wav,0,pill,454,27,4,5,Français,homme,3,0.3,94.96402149,1.44820406
5ab13380e9f9280001e1725d,97,1,2024-02-27T11:41:37.082Z,english_933.wav,0,pill,454,27,4,5,Français,homme,4,0.32341667,61.52669097,0.05049928
5ab13380e9f9280001e1725d,98,1,2024-02-27T11:41:37.082Z,english_19.wav,0,pill,587,27,4,5,Français,homme,0,0.0,51.84788699,0.3981759
5ab13380e9f9280001e1725d,98,1,2024-02-27T11:41:37.082Z,english_19.wav,0,pill,587,27,4,5,Français,homme,1,0.1,59.68091475,1.61217409
5ab13380e9f9280001e1725d,98,1,2024-02-27T11:41:37.082Z,english_19.wav,0,pill,587,27,4,5,Français,homme,2,0.2,-27.71167756,0.35158216
5ab13380e9f9280001e1725d,98,1,2024-02-27T11:41:37.082Z,english_19.wav,0,pill,587,27,4,5,Français,homme,3,0.3,-29.56443604,0.8770992
5ab13380e9f9280001e1725d,98,1,2024-02-27T11:41:37.082Z,english_19.wav,0,pill,587,27,4,5,Français,homme,4,0.32341667,-58.55228515,0.51670124
5ab13380e9f9280001e1725d,99,1,2024-02-27T11:41:37.082Z,english_262.wav,0,peel,467,27,4,5,Français,homme,0,0.0,-55.0240476,0.91992097
5ab13380e9f9280001e1725d,99,1,2024-02-27T11:41:37.082Z,english_262.wav,0,peel,467,27,4,5,Français,homme,1,0.1,46.31562141,0.94194362
5ab13380e9f9280001e1725d,99,1,2024-02-27T11:41:37.082Z,english_262.wav,0,peel,467,27,4,5,Français,homme,2,0.2,62.5855756,1.80305422
5ab13380e9f9280001e1725d,99,1,2024-02-27T11:41:37.082Z,english_262.wav,0,peel,467,27,4,5,Français,homme,3,0.3,-4.25909078,0.51544707
5ab13380e9f9280001e1725d,99,1,2024-02-27T11:41:37.082Z,english_262.wav,0,peel,467,27,4,5,Français,homme,4,0.32341667,16.27030636,1.47198659
5ab13380e9f9280001e1725d,100,2,2024-02-27T11:41:37.082Z,english_139.wav,0,pill,3130,27,4,5,Français,homme,0,0.0,55.35526281,1.40478417
5ab13380e9f9280001e1725d,100,2,2024-02-27T11:41:37.082Z,english_139.wav,0,pill,3130,27,4,5,Français,homme,1,0.1,-66.48550036,1.12007301
5ab13380e9f9280001e1725d,100,2,2024-02-27T11:41:37.082Z,english_139.wav,0,pill,3130,27,4,5,Français,homme,2,0.2,21.45340352,1.58559909
5ab13380e9f9280001e1725d,100,2,2024-02-27T11:41:37.082Z,english_139.wav,0,pill,3130,27,4,5,Français,homme,3,0.3,-32.80413748,1.13081383
5ab13380e9f9280001e1725d,100,2,2024-02-27T11:41:37.082Z,english_139.wav,0,pill,3130,27,4,5,Français,homme,4,0.32341667,-77.32206638,0.38560717
5ab13380e9f9280001e1725d,101,2,2024-02-27T11:41:37.082Z,english_522.wav,0,pill,492,27,4,5,Français,homme,0,0.0,11.68148217,0.44643579
5ab13380e9f9280001e1725d,101,2,2024-02-27T11:41:37.082Z,english_522.wav,0,pill,492,27,4,5,Français,homme,1,0.1,-74.55265788,0.16885459
5ab13380e9f9280001e1725d,101,2,2024-02-27T11:41:37.082Z,english_522.wav,0,pill,492,27,4,5,Français,homme,2,0.2,95.15954448,1.67161326
5ab13380e9f9280001e1725d,101,2,2024-02-27T11:41:37.082Z,english_522.wav,0,pill,492,27,4,5,Français,homme,3,0.3,-17.14209769,0.53349848
5ab13380e9f9280001e1725d,101,2,2024-02-27T11:41:37.082Z,english_522.wav,0,pill,492,27,4,5,Français,homme,4,0.32341667,-35.38302731,0.4645726
5ab13380e9f9280001e1725d,102,2,2024-02-27T11:41:37.082Z,english_706.wav,0,pill,821,27,4,5,Français,homme,0,0.0,-14.02426606,0.18721001
5ab13380e9f9280001e1725d,102,2,2024-02-27T11:41:37.082Z,english_706.wav,0,pill,821,27,4,5,Français,homme,1,0.1,23.81630209,0.48464851
5ab13380e9f9280001e1725d,102,2,2024-02-27T11:41:37.082Z,english_706.wav,0,pill,821,27,4,5,Français,homme,2,0.2,94.24266466,1.46456973
5ab13380e9f9280001e1725d,102,2,2024-02-27T11:41:37.082Z,english_706.wav,0,pill,821,27,4,5,Français,homme,3,0.3,20.03642156,0.11403632
5ab13380e9f9280001e1725d,102,2,2024-02-27T11:41:37.082Z,english_706.wav,0,pill,821,27,4,5,Français,homme,4,0.32341667,57.92570785,0.61389372
5ab13380e9f9280001e1725d,103,2,2024-02-27T11:41:37.082Z,english_488.wav,0,peel,609,27,4,5,Français,homme,0,0.0,7.19120882,0.55609806
5ab13380e9f9280001e1725d,103,2,2024-02-27T11:41:37.082Z,english_488.wav,0,peel,609,27,4,5,Français,homme,1,0.1,11.64873536,1.36121935
5ab13380e9f9280001e1725d,103,2,2024-02-27T11:41:37.082Z,english_488.wav,0,peel,609,27,4,5,Français,homme,2,0.2,59.26032861,0.93872915
5ab13380e9f9280001e1725d,103,2,2024-02-27T11:41:37.082Z,english_488.wav,0,peel,609,27,4,5,Français,homme,3,0.3,-31.0631162,1.52041262
5ab13380e9f9280001e1725d,103,2,2024-02-27T11:41:37.082Z,english_488.wav,0,peel,609,27,4,5,Français,homme,4,0.32341667,23.8619583,1.83140972
5ab13380e9f9280001e1725d,104,2,2024-02-27T11:41:37.082Z,english_280.wav,0,pill,847,27,4,5,Français,homme,0,0.0,88.60957906,0.0301642
5ab13380e9f9280001e1725d,104,2,2024-02-27T11:41:37.082Z,english_280.wav,0,pill,847,27,4,5,Français,homme,1,0.1,84.68226706,1.61205195
5ab13380e9f9280001e1725d,104,2,2024-02-27T11:41:37.082Z,english_280.wav,0,pill,847,27,4,5,Français,homme,2,0.2,-77.43679957,1.42137195
5ab13380e9f9280001e1725d,104,2,2024-02-27T11:41:37.082Z,english_280.wav,0,pill,847,27,4,5,Français,homme,3,0.3,45.11946934,1.73240953
5ab13380e9f9280001e1725d,104,2,2024-02-27T11:41:37.082Z,english_280.wav,0,pill,847,27,4,5,Français,homme,4,0.32341667,-36.96988582,0.09602122
5ab13380e9f9280001e1725d,105,2,2024-02-27T11:41:37.082Z,english_714.wav,0,peel,423,27,4,5,Français,homme,0,0.0,6.62463448,0.98205871
5ab13380e9f9280001e1725d,105,2,2024-02-27T11:41:37.082Z,english_714.wav,0,peel,423,27,4,5,Français,homme,1,0.1,-7.37775178,1.90018259
5ab13380e9f9280001e1725d,105,2,2024-02-27T11:41:37.082Z,english_714.wav,0,peel,423,27,4,5,Français,homme,2,0.2,-58.74003357,1.33033281
5ab13380e9f9280001e1725d,105,2,2024-02-27T11:41:37.082Z,english_714.wav,0,peel,423,27,4,5,Français,homme,3,0.3,-38.84014254,0.20009115
5ab13380e9f9280001e1725d,105,2,2024-02-27T11:41:37.082Z,english_714.wav,0,peel,423,27,4,5,Français,homme,4,0.32341667,-23.67047323,0.44650169
5ab13380e9f9280001e1725d,106,2,2024-02-27T11:41:37.082Z,english_799.wav,0,pill,649,27,4,5,Français,homme,0,0.0,-48.4958847,1.9233431
5ab13380e9f9280001e1725d,106,2,2024-02-27T11:41:37.082Z,english_799.wav,0,pill,649,27,4,5,Français,homme,1,0.1,-9.52866418,1.11542891
5ab13380e9f9280001e1725d,106,2,2024-02-27T11:41:37.082Z,english_799.wav,0,pill,649,27,4,5,Français,homme,2,0.2,1.94176449,0.95865462
5ab13380e9f9280001e1725d,106,2,2024-02-27T11:41:37.082Z,english_799.wav,0,pill,649,27,4,5,Français,homme,3,0.3,5.71676827,0.6616034
5ab13380e9f9280001e1725d,106,2,2024-02-27T11:41:37.082Z,english_799.wav,0,pill,649,27,4,5,Français,homme,4,0.32341667,30.27282792,1.91183458
5ab13380e9f9280001e1725d,107,2,2024-02-27T11:41:37.082Z,english_101.wav,0,pill,762,27,4,5,Français,homme,0,0.0,60.77829508,0.77962125
5ab13380e9f9280001e1725d,107,2,2024-02-27T11:41:37.082Z,english_101.wav,0,pill,762,27,4,5,Français,homme,1,0.1,43.41373716,0.02040908
5ab13380e9f9280001e1725d,107,2,2024-02-27T11:41:37.082Z,english_101.wav,0,pill,762,27,4,5,Français,homme,2,0.2,56.16195873,0.79248433
5ab13380e9f9280001e1725d,107,2,2024-02-27T11:41:37.082Z,english_101.wav,0,pill,762,27,4,5,Français,homme,3,0.3,-99.94719329,1.74003505
5ab13380e9f9280001e1725d,107,2,2024-02-27T11:41:37.082Z,english_101.wav,0,pill,762,27,4,5,Français,homme,4,0.32341667,-1.35074094,1.66206156
5ab13380e9f9280001e1725d,108,2,2024-02-27T11:41:37.082Z,english_618.wav,0,pill,1326,27,4,5,Français,homme,0,0.0,58.31579708,1.46895394
5ab13380e9f9280001e1725d,108,2,2024-02-27T11:41:37.082Z,english_618.wav,0,pill,1326,27,4,5,Français,homme,1,0.1,6.96253647,0.48660613
5ab13380e9f9280001e1725d,108,2,2024-02-27T11:41:37.082Z,english_618.wav,0,pill,1326,27,4,5,Français,homme,2,0.2,-4.41581756,1.00963977
5ab13380e9f9280001e1725d,108,2,2024-02-27T11:41:37.082Z,english_618.wav,0,pill,1326,27,4,5,Français,homme,3,0.3,-63.5775247,1.29399549
5ab13380e9f9280001e1725d,108,2,2024-02-27T11:41:37.082Z,english_618.wav,0,pill,1326,27,4,5,Français,homme,4,0.32341667,97.77631762,0.84060701
5ab13380e9f9280001e1725d,109,2,2024-02-27T11:41:37.082Z,english_668.wav,0,pill,400,27,4,5,Français,homme,0,0.0,48.8265236,0.43768829
5ab13380e9f9280001e1725d,109,2,2024-02-27T11:41:37.082Z,english_668.wav,0,pill,400,27,4,5,Français,homme,1,0.1,97.68090991,0.31983773
5ab13380e9f9280001e1725d,109,2,2024-02-27T11:41:37.082Z,english_668.wav,0,pill,400,27,4,5,Français,homme,2,0.2,47.50182685,1.24438546
5ab13380e9f9280001e1725d,109,2,2024-02-27T11:41:37.082Z,english_668.wav,0,pill,400,27,4,5,Français,homme,3,0.3,81.7432518,0.49120307
5ab13380e9f9280001e1725d,109,2,2024-02-27T11:41:37.082Z,english_668.wav,0,pill,400,27,4,5,Français,homme,4,0.32341667,28.08178094,0.60639718
5ab13380e9f9280001e1725d,110,2,2024-02-27T11:41:37.082Z,english_880.wav,0,peel,363,27,4,5,Français,homme,0,0.0,3.17154152,0.81183988
5ab13380e9f9280001e1725d,110,2,2024-02-27T11:41:37.082Z,english_880.wav,0,peel,363,27,4,5,Français,homme,1,0.1,-74.02271749,1.44061269
5ab13380e9f9280001e1725d,110,2,2024-02-27T11:41:37.082Z,english_880.wav,0,peel,363,27,4,5,Français,homme,2,0.2,46.15952764,0.42884863
5ab13380e9f9280001e1725d,110,2,2024-02-27T11:41:37.082Z,english_880.wav,0,peel,363,27,4,5,Français,homme,3,0.3,4.14106927,1.93838261
5ab13380e9f9280001e1725d,110,2,2024-02-27T11:41:37.082Z,english_880.wav,0,peel,363,27,4,5,Français,homme,4,0.32341667,26.36707366,1.4503687
5ab13380e9f9280001e1725d,111,2,2024-02-27T11:41:37.082Z,english_704.wav,0,peel,633,27,4,5,Français,homme,0,0.0,-24.48288207,0.92043902
5ab13380e9f9280001e1725d,111,2,2024-02-27T11:41:37.082Z,english_704.wav,0,peel,633,27,4,5,Français,homme,1,0.1,-9.94163531,0.96595902
5ab13380e9f9280001e1725d,111,2,2024-02-27T11:41:37.082Z,english_704.wav,0,peel,633,27,4,5,Français,homme,2,0.2,74.85271107,1.40327859
5ab13380e9f9280001e1725d,111,2,2024-02-27T11:41:37.082Z,english_704.wav,0,peel,633,27,4,5,Français,homme,3,0.3,-38.44921803,1.07325586
5ab13380e9f9280001e1725d,111,2,2024-02-27T11:41:37.082Z,english_704.wav,0,peel,633,27,4,5,Français,homme,4,0.32341667,-21.20994959,1.87555588
5ab13380e9f9280001e1725d,112,2,2024-02-27T11:41:37.082Z,english_645.wav,0,pill,708,27,4,5,Français,homme,0,0.0,44.09023725,0.24999948
5ab13380e9f9280001e1725d,112,2,2024-02-27T11:41:37.082Z,english_645.wav,0,pill,708,27,4,5,Français,homme,1,0.1,53.49741331,0.20669006
5ab13380e9f9280001e1725d,112,2,2024-02-27T11:41:37.082Z,english_645.wav,0,pill,708,27,4,5,Français,homme,2,0.2,28.7784214,0.13451906
5ab13380e9f9280001e1725d,112,2,2024-02-27T11:41:37.082Z,english_645.wav,0,pill,708,27,4,5,Français,homme,3,0.3,-38.38386911,0.64617788
5ab13380e9f9280001e1725d,112,2,2024-02-27T11:41:37.082Z,english_645.wav,0,pill,708,27,4,5,Français,homme,4,0.32341667,30.31484035,0.83061833
5ab13380e9f9280001e1725d,113,2,2024-02-27T11:41:37.082Z,english_47.wav,0,pill,828,27,4,5,Français,homme,0,0.0,70.62381491,1.36620222
5ab13380e9f9280001e1725d,113,2,2024-02-27T11:41:37.082Z,english_47.wav,0,pill,828,27,4,5,Français,homme,1,0.1,-43.60565268,0.47559644
5ab13380e9f9280001e1725d,113,2,2024-02-27T11:41:37.082Z,english_47.wav,0,pill,828,27,4,5,Français,homme,2,0.2,29.54670776,0.92078875
5ab13380e9f9280001e1725d,113,2,2024-02-27T11:41:37.082Z,english_47.wav,0,pill,828,27,4,5,Français,homme,3,0.3,95.208653,0.83015506
5ab13380e9f9280001e1725d,113,2,2024-02-27T11:41:37.082Z,english_47.wav,0,pill,828,27,4,5,Français,homme,4,0.32341667,-87.83630424,1.40747595
5ab13380e9f9280001e1725d,114,2,2024-02-27T11:41:37.082Z,english_304.wav,0,pill,1112,27,4,5,Français,homme,0,0.0,-80.7192326,0.54130022
5ab13380e9f9280001e1725d,114,2,2024-02-27T11:41:37.082Z,english_304.wav,0,pill,1112,27,4,5,Français,homme,1,0.1,34.14230443,0.20766845
5ab13380e9f9280001e1725d,114,2,2024-02-27T11:41:37.082Z,english_304.wav,0,pill,1112,27,4,5,Français,homme,2,0.2,-43.78548789,1.25157904
5ab13380e9f9280001e1725d,114,2,2024-02-27T11:41:37.082Z,english_304.wav,0,pill,1112,27,4,5,Français,homme,3,0.3,85.79520644,0.76195837
5ab13380e9f9280001e1725d,114,2,2024-02-27T11:41:37.082Z,english_304.wav,0,pill,1112,27,4,5,Français,homme,4,0.32341667,-29.32737886,0.20991234
5ab13380e9f9280001e1725d,115,2,2024-02-27T11:41:37.082Z,english_738.wav,0,peel,1167,27,4,5,Français,homme,0,0.0,-37.88087101,1.83397703
5ab13380e9f9280001e1725d,115,2,2024-02-27T11:41:37.082Z,english_738.wav,0,peel,1167,27,4,5,Français,homme,1,0.1,-16.85966727,1.52099356
5ab13380e9f9280001e1725d,115,2,2024-02-27T11:41:37.082Z,english_738.wav,0,peel,1167,27,4,5,Français,homme,2,0.2,-79.76891938,1.69283951
5ab13380e9f9280001e1725d,115,2,2024-02-27T11:41:37.082Z,english_738.wav,0,peel,1167,27,4,5,Français,homme,3,0.3,-82.30918252,1.81957343
5ab13380e9f9280001e1725d,115,2,2024-02-27T11:41:37.082Z,english_738.wav,0,peel,1167,27,4,5,Français,homme,4,0.32341667,59.65991076,0.75908376
5ab13380e9f9280001e1725d,116,2,2024-02-27T11:41:37.082Z,english_586.wav,0,pill,834,27,4,5,Français,homme,0,0.0,-62.23642036,1.06144709
5ab13380e9f9280001e1725d,116,2,2024-02-27T11:41:37.082Z,english_586.wav,0,pill,834,27,4,5,Français,homme,1,0.1,79.13201234,0.54207142
5ab13380e9f9280001e1725d,116,2,2024-02-27T11:41:37.082Z,english_586.wav,0,pill,834,27,4,5,Français,homme,2,0.2,-89.54923437,0.72134233
5ab13380e9f9280001e1725d,116,2,2024-02-27T11:41:37.082Z,english_586.wav,0,pill,834,27,4,5,Français,homme,3,0.3,-19.27573078,0.33417878
5ab13380e9f9280001e1725d,116,2,2024-02-27T11:41:37.082Z,english_586.wav,0,pill,834,27,4,5,Français,homme,4,0.32341667,-62.71214645,1.54129631
5ab13380e9f9280001e1725d,117,2,2024-02-27T11:41:37.082Z,english_108.wav,0,pill,809,27,4,5,Français,homme,0,0.0,-20.69942707,0.77052949
5ab13380e9f9280001e1725d,117,2,2024-02-27T11:41:37.082Z,english_108.wav,0,pill,809,27,4,5,Français,homme,1,0.1,-59.42152954,1.01445352
5ab13380e9f9280001e1725d,117,2,2024-02-27T11:41:37.082Z,english_108.wav,0,pill,809,27,4,5,Français,homme,2,0.2,-8.09170222,0.42363715
5ab13380e9f9280001e1725d,117,2,2024-02-27T11:41:37.082Z,english_108.wav,0,pill,809,27,4,5,Français,homme,3,0.3,21.99826779,1.45799831
5ab13380e9f9280001e1725d,117,2,2024-02-27T11:41:37.082Z,english_108.wav,0,pill,809,27,4,5,Français,homme,4,0.32341667,56.38973361,1.71498507
5ab13380e9f9280001e1725d,118,2,2024-02-27T11:41:37.082Z,english_600.wav,0,peel,517,27,4,5,Français,homme,0,0.0,37.30285492,1.23507691
5ab13380e9f9280001e1725d,118,2,2024-02-27T11:41:37.082Z,english_600.wav,0,peel,517,27,4,5,Français,homme,1,0.1,57.58729363,0.65453179
5ab13380e9f9280001e1725d,118,2,2024-02-27T11:41:37.082Z,english_600.wav,0,peel,517,27,4,5,Français,homme,2,0.2,-74.33256695,1.70226061
5ab13380e9f9280001e1725d,118,2,2024-02-27T11:41:37.082Z,english_600.wav,0,peel,517,27,4,5,Français,homme,3,0.3,-35.711252,0.4723836
5ab13380e9f9280001e1725d,118,2,2024-02-27T11:41:37.082Z,english_600.wav,0,peel,517,27,4,5,Français,homme,4,0.32341667,3.54782198,0.49080622
5ab13380e9f9280001e1725d,119,2,2024-02-27T11:41:37.082Z,english_916.wav,0,peel,574,27,4,5,Français,homme,0,0.0,-50.62314768,0.5519299
5ab13380e9f9280001e1725d,119,2,2024-02-27T11:41:37.082Z,english_916.wav,0,peel,574,27,4,5,Français,homme,1,0.1,-52.55300278,1.16723516
5ab13380e9f9280001e1725d,119,2,2024-02-27T11:41:37.082Z,english_916.wav,0,peel,574,27,4,5,Français,homme,2,0.2,54.298582,1.72376738
5ab13380e9f9280001e1725d,119,2,2024-02-27T11:41:37.082Z,english_916.wav,0,peel,574,27,4,5,Français,homme,3,0.3,-23.99088857,0.41493786
5ab13380e9f9280001e1725d,119,2,2024-02-27T11:41:37.082Z,english_916.wav,0,peel,574,27,4,5,Français,homme,4,0.32341667,4.88948607,1.97918138
5ab13380e9f9280001e1725d,120,2,2024-02-27T11:41:37.082Z,english_111.wav,0,pill,547,27,4,5,Français,homme,0,0.0,43.12539807,1.84745579
5ab13380e9f9280001e1725d,120,2,2024-02-27T11:41:37.082Z,english_111.wav,0,pill,547,27,4,5,Français,homme,1,0.1,63.99665526,0.92577031
5ab13380e9f9280001e1725d,120,2,2024-02-27T11:41:37.082Z,english_111.wav,0,pill,547,27,4,5,Français,homme,2,0.2,86.04570556,0.31264784
5ab13380e9f9280001e1725d,120,2,2024-02-27T11:41:37.082Z,english_111.wav,0,pill,547,27,4,5,Français,homme,3,0.3,-25.76798659,0.89352032
5ab13380e9f9280001e1725d,120,2,2024-02-27T11:41:37.082Z,english_111.wav,0,pill,547,27,4,5,Français,homme,4,0.32341667,-36.14422463,0.32138535
5ab13380e9f9280001e1725d,121,2,2024-02-27T11:41:37.082Z,english_553.wav,0,peel,527,27,4,5,Français,homme,0,0.0,-18.85071283,1.30647824
5ab13380e9f9280001e1725d,121,2,2024-02-27T11:41:37.082Z,english_553.wav,0,peel,527,27,4,5,Français,homme,1,0.1,56.72439372,1.55205535
5ab13380e9f9280001e1725d,121,2,2024-02-27T11:41:37.082Z,english_553.wav,0,peel,527,27,4,5,Français,homme,2,0.2,-32.51510613,1.79127341
5ab13380e9f9280001e1725d,121,2,2024-02-27T11:41:37.082Z,english_553.wav,0,peel,527,27,4,5,Français,homme,3,0.3,-81.56708954,0.1795284
5ab13380e9f9280001e1725d,121,2,2024-02-27T11:41:37.082Z,english_553.wav,0,peel,527,27,4,5,Français,homme,4,0.32341667,42.80590219,0.48805839
5ab13380e9f9280001e1725d,122,2,2024-02-27T11:41:37.082Z,english_821.wav,0,peel,594,27,4,5,Français,homme,0,0.0,-4.04234253,1.62928948
5ab13380e9f9280001e1725d,122,2,2024-02-27T11:41:37.082Z,english_821.wav,0,peel,594,27,4,5,Français,homme,1,0.1,50.39518932,0.78033958
5ab13380e9f9280001e1725d,122,2,2024-02-27T11:41:37.082Z,english_821.wav,0,peel,594,27,4,5,Français,homme,2,0.2,58.18996785,1.56476115
5ab13380e9f9280001e1725d,122,2,2024-02-27T11:41:37.082Z,english_821.wav,0,peel,594,27,4,5,Français,homme,3,0.3,-22.07293427,0.56557752
5ab13380e9f9280001e1725d,122,2,2024-02-27T11:41:37.082Z,english_821.wav,0,peel,594,27,4,5,Français,homme,4,0.32341667,56.43229939,0.93389964
5ab13380e9f9280001e1725d,123,2,2024-02-27T11:41:37.082Z,english_394.wav,0,peel,537,27,4,5,Français,homme,0,0.0,73.08757955,1.29313131
5ab13380e9f9280001e1725d,123,2,2024-02-27T11:41:37.082Z,english_394.wav,0,peel,537,27,4,5,Français,homme,1,0.1,5.60908311,0.62691873
5ab13380e9f9280001e1725d,123,2,2024-02-27T11:41:37.082Z,english_394.wav,0,peel,537,27,4,5,Français,homme,2,0.2,76.56705043,1.4938005
5ab13380e9f9280001e1725d,123,2,2024-02-27T11:41:37.082Z,english_394.wav,0,peel,537,27,4,5,Français,homme,3,0.3,18.85166324,1.2266925
5ab13380e9f9280001e1725d,123,2,2024-02-27T11:41:37.082Z,english_394.wav,0,peel,537,27,4,5,Français,homme,4,0.32341667,8.45052692,0.67844158
5ab13380e9f9280001e1725d,124,2,2024-02-27T11:41:37.082Z,english_389.wav,0,peel,585,27,4,5,Français,homme,0,0.0,36.16487693,1.25286497
5ab13380e9f9280001e1725d,124,2,2024-02-27T11:41:37.082Z,english_389.wav,0,peel,585,27,4,5,Français,homme,1,0.1,-97.36259769,1.31396789
5ab13380e9f9280001e1725d,124,2,2024-02-27T11:41:37.082Z,english_389.wav,0,peel,585,27,4,5,Français,homme,2,0.2,24.50411951,1.84060757
5ab13380e9f9280001e1725d,124,2,2024-02-27T11:41:37.082Z,english_389.wav,0,peel,585,27,4,5,Français,homme,3,0.3,43.1395046,0.64046023
5ab13380e9f9280001e1725d,124,2,2024-02-27T11:41:37.082Z,english_389.wav,0,peel,585,27,4,5,Français,homme,4,0.32341667,85.14605982,1.47992762
5ab13380e9f9280001e1725d,125,2,2024-02-27T11:41:37.082Z,english_393.wav,0,pill,604,27,4,5,Français,homme,0,0.0,3.63201436,1.68653621
5ab13380e9f9280001e1725d,125,2,2024-02-27T11:41:37.082Z,english_393.wav,0,pill,604,27,4,5,Français,homme,1,0.1,64.52667935,0.22518435
5ab13380e9f9280001e1725d,125,2,2024-02-27T11:41:37.082Z,english_393.wav,0,pill,604,27,4,5,Français,homme,2,0.2,-51.23523019,0.07728703
5ab13380e9f9280001e1725d,125,2,2024-02-27T11:41:37.082Z,english_393.wav,0,pill,604,27,4,5,Français,homme,3,0.3,-89.75219839,0.70962284
5ab13380e9f9280001e1725d,125,2,2024-02-27T11:41:37.082Z,english_393.wav,0,pill,604,27,4,5,Français,homme,4,0.32341667,-66.06218428,0.7432397
5ab13380e9f9280001e1725d,126,2,2024-02-27T11:41:37.082Z,english_820.wav,0,peel,888,27,4,5,Français,homme,0,0.0,-46.83321603,0.84618107
5ab13380e9f9280001e1725d,126,2,2024-02-27T11:41:37.082Z,english_820.wav,0,peel,888,27,4,5,Français,homme,1,0.1,41.6487922,0.98544532
5ab13380e9f9280001e1725d,126,2,2024-02-27T11:41:37.082Z,english_820.wav,0,peel,888,27,4,5,Français,homme,2,0.2,8.4156442,0.7701051
5ab13380e9f9280001e1725d,126,2,2024-02-27T11:41:37.082Z,english_820.wav,0,peel,888,27,4,5,Français,homme,3,0.3,-54.82963666,1.20043732
5ab13380e9f9280001e1725d,126,2,2024-02-27T11:41:37.082Z,english_820.wav,0,peel,888,27,4,5,Français,homme,4,0.32341667,30.43602938,1.85489027
5ab13380e9f9280001e1725d,127,2,2024-02-27T11:41:37.082Z,english_980.wav,0,pill,753,27,4,5,Français,homme,0,0.0,-32.33629208,1.21290567
5ab13380e9f9280001e1725d,127,2,2024-02-27T11:41:37.082Z,english_980.wav,0,pill,753,27,4,5,Français,homme,1,0.1,-4.4140807,0.22350007
5ab13380e9f9280001e1725d,127,2,2024-02-27T11:41:37.082Z,english_980.wav,0,pill,753,27,4,5,Français,homme,2,0.2,76.81412515,1.68078519
5ab13380e9f9280001e1725d,127,2,2024-02-27T11:41:37.082Z,english_980.wav,0,pill,753,27,4,5,Français,homme,3,0.3,-16.24877133,0.16816052
5ab13380e9f9280001e1725d,127,2,2024-02-27T11:41:37.082Z,english_980.wav,0,pill,753,27,4,5,Français,homme,4,0.32341667,-26.44128118,1.48722631
5ab13380e9f9280001e1725d,128,2,2024-02-27T11:41:37.082Z,english_966.wav,0,pill,639,27,4,5,Français,homme,0,0.0,23.00954068,1.02848684
5ab13380e9f9280001e1725d,128,2,2024-02-27T11:41:37.082Z,english_966.wav,0,pill,639,27,4,5,Français,homme,1,0.1,-2.7733657,1.22612364
5ab13380e9f9280001e1725d,128,2,2024-02-27T11:41:37.082Z,english_966.wav,0,pill,639,27,4,5,Français,homme,2,0.2,-6.00176123,0.03461529
5ab13380e9f9280001e1725d,128,2,2024-02-27T11:41:37.082Z,english_966.wav,0,pill,639,27,4,5,Français,homme,3,0.3,-64.80320904,0.22357585
5ab13380e9f9280001e1725d,128,2,2024-02-27T11:41:37.082Z,english_966.wav,0,pill,639,27,4,5,Français,homme,4,0.32341667,94.15296916,0.55383001
5ab13380e9f9280001e1725d,129,2,2024-02-27T11:41:37.082Z,english_610.wav,0,pill,613,27,4,5,Français,homme,0,0.0,-14.96432812,0.5672697
5ab13380e9f9280001e1725d,129,2,2024-02-27T11:41:37.082Z,english_610.wav,0,pill,613,27,4,5,Français,homme,1,0.1,48.51886955,0.75156182
5ab13380e9f9280001e1725d,129,2,2024-02-27T11:41:37.082Z,english_610.wav,0,pill,613,27,4,5,Français,homme,2,0.2,47.07358548,0.38846335
5ab13380e9f9280001e1725d,129,2,2024-02-27T11:41:37.082Z,english_610.wav,0,pill,613,27,4,5,Français,homme,3,0.3,17.30383174,1.52072292
5ab13380e9f9280001e1725d,129,2,2024-02-27T11:41:37.082Z,english_610.wav,0,pill,613,27,4,5,Français,homme,4,0.32341667,1.51764356,1.56024836
5ab13380e9f9280001e1725d,130,2,2024-02-27T11:41:37.082Z,english_407.wav,0,peel,631,27,4,5,Français,homme,0,0.0,-13.68776922,0.77658743
5ab13380e9f9280001e1725d,130,2,2024-02-27T11:41:37.082Z,english_407.wav,0,peel,631,27,4,5,Français,homme,1,0.1,-57.11899702,1.53398674
5ab13380e9f9280001e1725d,130,2,2024-02-27T11:41:37.082Z,english_407.wav,0,peel,631,27,4,5,Français,homme,2,0.2,62.94325807,0.70379875
5ab13380e9f9280001e1725d,130,2,2024-02-27T11:41:37.082Z,english_407.wav,0,peel,631,27,4,5,Français,homme,3,0.3,-27.77030003,0.72470084
5ab13380e9f9280001e1725d,130,2,2024-02-27T11:41:37.082Z,english_407.wav,0,peel,631,27,4,5,Français,homme,4,0.32341667,-61.90605897,0.771678
5ab13380e9f9280001e1725d,131,2,2024-02-27T11:41:37.082Z,english_204.wav,0,peel,569,27,4,5,Français,homme,0,0.0,67.46317025,1.58701212
5ab13380e9f9280001e1725d,131,2,2024-02-27T11:41:37.082Z,english_204.wav,0,peel,569,27,4,5,Français,homme,1,0.1,38.91463365,1.82178317
5ab13380e9f9280001e1725d,131,2,2024-02-27T11:41:37.082Z,english_204.wav,0,peel,569,27,4,5,Français,homme,2,0.2,-85.28377865,1.60361911
5ab13380e9f9280001e1725d,131,2,2024-02-27T11:41:37.082Z,english_204.wav,0,peel,569,27,4,5,Français,homme,3,0.3,55.65505401,0.21823774
5ab13380e9f9280001e1725d,131,2,2024-02-27T11:41:37.082Z,english_204.wav,0,peel,569,27,4,5,Français,homme,4,0.32341667,56.32983288,0.04661671
5ab13380e9f9280001e1725d,132,2,2024-02-27T11:41:37.082Z,english_866.wav,0,pill,519,27,4,5,Français,homme,0,0.0,-75.90204766,0.10539101
5ab13380e9f9280001e1725d,132,2,2024-02-27T11:41:37.082Z,english_866.wav,0,pill,519,27,4,5,Français,homme,1,0.1,-89.66881049,1.63294926
5ab13380e9f9280001e1725d,132,2,2024-02-27T11:41:37.082Z,english_866.wav,0,pill,519,27,4,5,Français,homme,2,0.2,-86.78535298,0.21421971
5ab13380e9f9280001e1725d,132,2,2024-02-27T11:41:37.082Z,english_866.wav,0,pill,519,27,4,5,Français,homme,3,0.3,50.96369643,1.47001367
5ab13380e9f9280001e1725d,132,2,2024-02-27T11:41:37.082Z,english_866.wav,0,pill,519,27,4,5,Français,homme,4,0.32341667,36.94157773,1.56453662
5ab13380e9f9280001e1725d,133,2,2024-02-27T11:41:37.082Z,english_405.wav,0,pill,762,27,4,5,Français,homme,0,0.0,-94.88566807,1.97726842
5ab13380e9f9280001e1725d,133,2,2024-02-27T11:41:37.082Z,english_405.wav,0,pill,762,27,4,5,Français,homme,1,0.1,45.39575719,1.2658567
5ab13380e9f9280001e1725d,133,2,2024-02-27T11:41:37.082Z,english_405.wav,0,pill,762,27,4,5,Français,homme,2,0.2,-94.78509898,0.10443365
5ab13380e9f9280001e1725d,133,2,2024-02-27T11:41:37.082Z,english_405.wav,0,pill,762,27,4,5,Français,homme,3,0.3,54.14618135,0.24635614
5ab13380e9f9280001e1725d,133,2,2024-02-27T11:41:37.082Z,english_405.wav,0,pill,762,27,4,5,Français,homme,4,0.32341667,-20.18916124,0.76836832
5ab13380e9f9280001e1725d,134,2,2024-02-27T11:41:37.082Z,english_552.wav,0,peel,515,27,4,5,Français,homme,0,0.0,-54.22317773,0.14479657
5ab13380e9f9280001e1725d,134,2,2024-02-27T11:41:37.082Z,english_552.wav,0,peel,515,27,4,5,Français,homme,1,0.1,23.75537749,1.96762023
5ab13380e9f9280001e1725d,134,2,2024-02-27T11:41:37.082Z,english_552.wav,0,peel,515,27,4,5,Français,homme,2,0.2,-67.43154965,0.75812729
5ab13380e9f9280001e1725d,134,2,2024-02-27T11:41:37.082Z,english_552.wav,0,peel,515,27,4,5,Français,homme,3,0.3,-83.62242399,0.84420129
5ab13380e9f9280001e1725d,134,2,2024-02-27T11:41:37.082Z,english_552.wav,0,peel,515,27,4,5,Français,homme,4,0.32341667,64.2322812,0.73382384
5ab13380e9f9280001e1725d,135,2,2024-02-27T11:41:37.082Z,english_383.wav,0,pill,588,27,4,5,Français,homme,0,0.0,-1.49759031,0.61403304
5ab13380e9f9280001e1725d,135,2,2024-02-27T11:41:37.082Z,english_383.wav,0,pill,588,27,4,5,Français,homme,1,0.1,48.0809444,0.69225556
5ab13380e9f9280001e1725d,135,2,2024-02-27T11:41:37.082Z,english_383.wav,0,pill,588,27,4,5,Français,homme,2,0.2,-84.09524499,0.33452268
5ab13380e9f9280001e1725d,135,2,2024-02-27T11:41:37.082Z,english_383.wav,0,pill,588,27,4,5,Français,homme,3,0.3,95.23220486,1.06792504
5ab13380e9f9280001e1725d,135,2,2024-02-27T11:41:37.082Z,english_383.wav,0,pill,588,27,4,5,Français,homme,4,0.32341667,64.91086902,0.58483827
5ab13380e9f9280001e1725d,136,2,2024-02-27T11:41:37.082Z,english_840.wav,0,pill,642,27,4,5,Français,homme,0,0.0,-27.11425843,1.31301797
5ab13380e9f9280001e1725d,136,2,2024-02-27T11:41:37.082Z,english_840.wav,0,pill,642,27,4,5,Français,homme,1,0.1,-47.31494811,0.54280133
5ab13380e9f9280001e1725d,136,2,2024-02-27T11:41:37.082Z,english_840.wav,0,pill,642,27,4,5,Français,homme,2,0.2,-88.66887426,0.14090987
5ab13380e9f9280001e1725d,136,2,2024-02-27T11:41:37.082Z,english_840.wav,0,pill,642,27,4,5,Français,homme,3,0.3,7.86940595,0.11950116
5ab13380e9f9280001e1725d,136,2,2024-02-27T11:41:37.082Z,english_840.wav,0,pill,642,27,4,5,Français,homme,4,0.32341667,87.61758205,1.48166624
5ab13380e9f9280001e1725d,137,2,2024-02-27T11:41:37.082Z,english_463.wav,0,peel,421,27,4,5,Français,homme,0,0.0,-17.89775534,1.84132871
5ab13380e9f9280001e1725d,137,2,2024-02-27T11:41:37.082Z,english_463.wav,0,peel,421,27,4,5,Français,homme,1,0.1,-21.51631701,1.66361617
5ab13380e9f9280001e1725d,137,2,2024-02-27T11:41:37.082Z,english_463.wav,0,peel,421,27,4,5,Français,homme,2,0.2,-12.53951077,0.64060514
5ab13380e9f9280001e1725d,137,2,2024-02-27T11:41:37.082Z,english_463.wav,0,peel,421,27,4,5,Français,homme,3,0.3,33.47501925,1.01091097
5ab13380e9f9280001e1725d,137,2,2024-02-27T11:41:37.082Z,english_463.wav,0,peel,421,27,4,5,Français,homme,4,0.32341667,-93.09525534,0.69499506
5ab13380e9f9280001e1725d,138,2,2024-02-27T11:41:37.082Z,english_155.wav,0,peel,400,27,4,5,Français,homme,0,0.0,53.87474094,1.93436975
5ab13380e9f9280001e1725d,138,2,2024-02-27T11:41:37.082Z,english_155.wav,0,peel,400,27,4,5,Français,homme,1,0.1,74.81745726,0.64472983
5ab13380e9f9280001e1725d,138,2,2024-02-27T11:41:37.082Z,english_155.wav,0,peel,400,27,4,5,Français,homme,2,0.2,8.25192738,1.6098708
5ab13380e9f9280001e1725d,138,2,2024-02-27T11:41:37.082Z,english_155.wav,0,peel,400,27,4,5,Français,homme,3,0.3,-52.88121257,1.15705679
5ab13380e9f9280001e1725d,138,2,2024-02-27T11:41:37.082Z,english_155.wav,0,peel,400,27,4,5,Français,homme,4,0.32341667,48.31209788,0.66500292
5ab13380e9f9280001e1725d,139,2,2024-02-27T11:41:37.082Z,english_203.wav,0,peel,494,27,4,5,Français,homme,0,0.0,-22.28277813,1.31475846
5ab13380e9f9280001e1725d,139,2,2024-02-27T11:41:37.082Z,english_203.wav,0,peel,494,27,4,5,Français,homme,1,0.1,13.21695477,1.08922412
5ab13380e9f9280001e1725d,139,2,2024-02-27T11:41:37.082Z,english_203.wav,0,peel,494,27,4,5,Français,homme,2,0.2,63.23651974,0.55450355
5ab13380e9f9280001e1725d,139,2,2024-02-27T11:41:37.082Z,english_203.wav,0,peel,494,27,4,5,Français,homme,3,0.3,-20.14830746,1.72034007
5ab13380e9f9280001e1725d,139,2,2024-02-27T11:41:37.082Z,english_203.wav,0,peel,494,27,4,5,Français,homme,4,0.32341667,-78.55276631,0.92481053
5ab13380e9f9280001e1725d,140,2,2024-02-27T11:41:37.082Z,english_948.wav,0,peel,452,27,4,5,Français,homme,0,0.0,12.28616187,1.33435242
5ab13380e9f9280001e1725d,140,2,2024-02-27T11:41:37.082Z,english_948.wav,0,peel,452,27,4,5,Français,homme,1,0.1,33.44634687,1.33862855
5ab13380e9f9280001e1725d,140,2,2024-02-27T11:41:37.082Z,english_948.wav,0,peel,452,27,4,5,Français,homme,2,0.2,98.80566767,1.25876505
5ab13380e9f9280001e1725d,140,2,2024-02-27T11:41:37.082Z,english_948.wav,0,peel,452,27,4,5,Français,homme,3,0.3,-93.57044844,1.87938727
5ab13380e9f9280001e1725d,140,2,2024-02-27T11:41:37.082Z,english_948.wav,0,peel,452,27,4,5,Français,homme,4,0.32341667,-51.09398555,1.88731406
5ab13380e9f9280001e1725d,141,2,2024-02-27T11:41:37.082Z,english_41.wav,0,pill,418,27,4,5,Français,homme,0,0.0,42.21237724,0.98996482
5ab13380e9f9280001e1725d,141,2,2024-02-27T11:41:37.082Z,english_41.wav,0,pill,418,27,4,5,Français,homme,1,0.1,33.8271633,0.77076848
5ab13380e9f9280001e1725d,141,2,2024-02-27T11:41:37.082Z,english_41.wav,0,pill,418,27,4,5,Français,homme,2,0.2,20.96644351,0.37402384
5ab13380e9f9280001e1725d,141,2,2024-02-27T11:41:37.082Z,english_41.wav,0,pill,418,27,4,5,Français,homme,3,0.3,-53.61985723,1.98545705
5ab13380e9f9280001e1725d,141,2,2024-02-27T11:41:37.082Z,english_41.wav,0,pill,418,27,4,5,Français,homme,4,0.32341667,-55.68725705,1.53352273
5ab13380e9f9280001e1725d,142,2,2024-02-27T11:41:37.082Z,english_53.wav,0,pill,369,27,4,5,Français,homme,0,0.0,5.97237457,0.42230306
5ab13380e9f9280001e1725d,142,2,2024-02-27T11:41:37.082Z,english_53.wav,0,pill,369,27,4,5,Français,homme,1,0.1,-76.12131912,0.60624646
5ab13380e9f9280001e1725d,142,2,2024-02-27T11:41:37.082Z,english_53.wav,0,pill,369,27,4,5,Français,homme,2,0.2,55.18337216,0.26369256
5ab13380e9f9280001e1725d,142,2,2024-02-27T11:41:37.082Z,english_53.wav,0,pill,369,27,4,5,Français,homme,3,0.3,70.32610425,1.07400525
5ab13380e9f9280001e1725d,142,2,2024-02-27T11:41:37.082Z,english_53.wav,0,pill,369,27,4,5,Français,homme,4,0.32341667,26.40450832,0.2721545
5ab13380e9f9280001e1725d,143,2,2024-02-27T11:41:37.082Z,english_227.wav,0,pill,364,27,4,5,Français,homme,0,0.0,-56.39318384,1.7541365
5ab13380e9f9280001e1725d,143,2,2024-02-27T11:41:37.082Z,english_227.wav,0,pill,364,27,4,5,Français,homme,1,0.1,90.87442764,0.66011804
5ab13380e9f9280001e1725d,143,2,2024-02-27T11:41:37.082Z,english_227.wav,0,pill,364,27,4,5,Français,homme,2,0.2,-39.94082392,0.16454365
5ab13380e9f9280001e1725d,143,2,2024-02-27T11:41:37.082Z,english_227.wav,0,pill,364,27,4,5,Français,homme,3,0.3,31.5093861,0.63744506
5ab13380e9f9280001e1725d,143,2,2024-02-27T11:41:37.082Z,english_227.wav,0,pill,364,27,4,5,Français,homme,4,0.32341667,70.38847456,0.55874538
5ab13380e9f9280001e1725d,144,2,2024-02-27T11:41:37.082Z,english_232.wav,0,pill,595,27,4,5,Français,homme,0,0.0,15.13134779,0.53160298
5ab13380e9f9280001e1725d,144,2,2024-02-27T11:41:37.082Z,english_232.wav,0,pill,595,27,4,5,Français,homme,1,0.1,-49.29605083,0.4519978
5ab13380e9f9280001e1725d,144,2,2024-02-27T11:41:37.082Z,english_232.wav,0,pill,595,27,4,5,Français,homme,2,0.2,59.10606455,0.39260156
5ab13380e9f9280001e1725d,144,2,2024-02-27T11:41:37.082Z,english_232.wav,0,pill,595,27,4,5,Français,homme,3,0.3,48.81708847,0.4692084
5ab13380e9f9280001e1725d,144,2,2024-02-27T11:41:37.082Z,english_232.wav,0,pill,595,27,4,5,Français,homme,4,0.32341667,14.83590121,0.46233459
5ab13380e9f9280001e1725d,145,2,2024-02-27T11:41:37.082Z,english_260.wav,0,peel,478,27,4,5,Français,homme,0,0.0,-45.73422918,1.75247731
5ab13380e9f9280001e1725d,145,2,2024-02-27T11:41:37.082Z,english_260.wav,0,peel,478,27,4,5,Français,homme,1,0.1,-23.757295,1.29821829
5ab13380e9f9280001e1725d,145,2,2024-02-27T11:41:37.082Z,english_260.wav,0,peel,478,27,4,5,Français,homme,2,0.2,-1.17180464,0.50372963
5ab13380e9f9280001e1725d,145,2,2024-02-27T11:41:37.082Z,english_260.wav,0,peel,478,27,4,5,Français,homme,3,0.3,42.98000529,1.19905143
5ab13380e9f9280001e1725d,145,2,2024-02-27T11:41:37.082Z,english_260.wav,0,peel,478,27,4,5,Français,homme,4,0.32341667,7.49715463,0.66690199
5ab13380e9f9280001e1725d,146,2,2024-02-27T11:41:37.082Z,english_70.wav,0,peel,593,27,4,5,Français,homme,0,0.0,-53.09237622,1.21678364
5ab13380e9f9280001e1725d,146,2,2024-02-27T11:41:37.082Z,english_70.wav,0,peel,593,27,4,5,Français,homme,1,0.1,85.97526897,0.94111324
5ab13380e9f9280001e1725d,146,2,2024-02-27T11:41:37.082Z,english_70.wav,0,peel,593,27,4,5,Français,homme,2,0.2,25.5645184,1.03926055
5ab13380e9f9280001e1725d,146,2,2024-02-27T11:41:37.082Z,english_70.wav,0,peel,593,27,4,5,Français,homme,3,0.3,1.25172137,0.29519406
5ab13380e9f9280001e1725d,146,2,2024-02-27T11:41:37.082Z,english_70.wav,0,peel,593,27,4,5,Français,homme,4,0.32341667,93.59431896,0.80175783
5ab13380e9f9280001e1725d,147,2,2024-02-27T11:41:37.082Z,english_695.wav,0,pill,444,27,4,5,Français,homme,0,0.0,-74.02191529,1.19534619
5ab13380e9f9280001e1725d,147,2,2024-02-27T11:41:37.082Z,english_695.wav,0,pill,444,27,4,5,Français,homme,1,0.1,54.28596986,0.93917139
5ab13380e9f9280001e1725d,147,2,2024-02-27T11:41:37.082Z,english_695.wav,0,pill,444,27,4,5,Français,homme,2,0.2,-13.22196683,0.1241488
