subj,trial,block,date,stim,stim_order,response,rt,age,english,french,language,sex,param_index,segment,pitch,stretch
5eae48f0f3540c5177f3474c,0,0,2024-02-27T12:00:06.669Z,english_530.wav,0,pill,8175,48,4,5,français,m,0,0.0,21.55057906,0.25130805
5eae48f0f3540c5177f3474c,0,0,2024-02-27T12:00:06.669Z,english_530.wav,0,pill,8175,48,4,5,français,m,1,0.1,-20.17265513,0.96020899
5eae48f0f3540c5177f3474c,0,0,2024-02-27T12:00:06.669Z,english_530.wav,0,pill,8175,48,4,5,français,m,2,0.2,-52.07974762,1.55252741
5eae48f0f3540c5177f3474c,0,0,2024-02-27T12:00:06.669Z,english_530.wav,0,pill,8175,48,4,5,français,m,3,0.3,87.36384387,1.19622655
5eae48f0f3540c5177f3474c,0,0,2024-02-27T12:00:06.669Z,english_530.wav,0,pill,8175,48,4,5,français,m,4,0.32341667,-72.92256984,0.75880724
5eae48f0f3540c5177f3474c,1,0,2024-02-27T12:00:06.669Z,english_674.wav,0,peel,14130,48,4,5,français,m,0,0.0,-38.60253285,0.25488683
5eae48f0f3540c5177f3474c,1,0,2024-02-27T12:00:06.669Z,english_674.wav,0,peel,14130,48,4,5,français,m,1,0.1,46.14948962,1.80679583
5eae48f0f3540c5177f3474c,1,0,2024-02-27T12:00:06.669Z,english_674.wav,0,peel,14130,48,4,5,français,m,2,0.2,-49.76414787,1.59420413
5eae48f0f3540c5177f3474c,1,0,2024-02-27T12:00:06.669Z,english_674.wav,0,peel,14130,48,4,5,français,m,3,0.3,-66.16492387,1.25714797
5eae48f0f3540c5177f3474c,1,0,2024-02-27T12:00:06.669Z,english_674.wav,0,peel,14130,48,4,5,français,m,4,0.32341667,28.37583826,1.20557216
5eae48f0f3540c5177f3474c,2,0,2024-02-27T12:00:06.669Z,english_219.wav,0,peel,2495,48,4,5,français,m,0,0.0,38.40040381,1.09142553
5eae48f0f3540c5177f3474c,2,0,2024-02-27T12:00:06.669Z,english_219.wav,0,peel,2495,48,4,5,français,m,1,0.1,-26.23926727,0.5740428
5eae48f0f3540c5177f3474c,2,0,2024-02-27T12:00:06.669Z,english_219.wav,0,peel,2495,48,4,5,français,m,2,0.2,-57.67558578,1.19056911
5eae48f0f3540c5177f3474c,2,0,2024-02-27T12:00:06.669Z,english_219.wav,0,peel,2495,48,4,5,français,m,3,0.3,50.56926795,1.87089358
5eae48f0f3540c5177f3474c,2,0,2024-02-27T12:00:06.669Z,english_219.wav,0,peel,2495,48,4,5,français,m,4,0.32341667,64.39220397,1.06933149
5eae48f0f3540c5177f3474c,3,0,2024-02-27T12:00:06.669Z,english_281.wav,0,pill,2334,48,4,5,français,m,0,0.0,-55.42099824,1.64310908
5eae48f0f3540c5177f3474c,3,0,2024-02-27T12:00:06.669Z,english_281.wav,0,pill,2334,48,4,5,français,m,1,0.1,30.44020676,0.76997124
5eae48f0f3540c5177f3474c,3,0,2024-02-27T12:00:06.669Z,english_281.wav,0,pill,2334,48,4,5,français,m,2,0.2,53.34739709,0.1940809
5eae48f0f3540c5177f3474c,3,0,2024-02-27T12:00:06.669Z,english_281.wav,0,pill,2334,48,4,5,français,m,3,0.3,-32.26512488,0.25794937
5eae48f0f3540c5177f3474c,3,0,2024-02-27T12:00:06.669Z,english_281.wav,0,pill,2334,48,4,5,français,m,4,0.32341667,-59.86883114,1.27043487
5eae48f0f3540c5177f3474c,4,0,2024-02-27T12:00:06.669Z,english_303.wav,0,peel,1224,48,4,5,français,m,0,0.0,67.00540241,1.22520816
5eae48f0f3540c5177f3474c,4,0,2024-02-27T12:00:06.669Z,english_303.wav,0,peel,1224,48,4,5,français,m,1,0.1,32.95821842,1.22732479
5eae48f0f3540c5177f3474c,4,0,2024-02-27T12:00:06.669Z,english_303.wav,0,peel,1224,48,4,5,français,m,2,0.2,-23.67517146,0.54923068
5eae48f0f3540c5177f3474c,4,0,2024-02-27T12:00:06.669Z,english_303.wav,0,peel,1224,48,4,5,français,m,3,0.3,-66.94926695,0.8977578
5eae48f0f3540c5177f3474c,4,0,2024-02-27T12:00:06.669Z,english_303.wav,0,peel,1224,48,4,5,français,m,4,0.32341667,65.71723135,1.41807679
5eae48f0f3540c5177f3474c,5,0,2024-02-27T12:00:06.669Z,english_147.wav,0,peel,1283,48,4,5,français,m,0,0.0,-14.37625717,1.08714974
5eae48f0f3540c5177f3474c,5,0,2024-02-27T12:00:06.669Z,english_147.wav,0,peel,1283,48,4,5,français,m,1,0.1,-48.99147792,1.05600262
5eae48f0f3540c5177f3474c,5,0,2024-02-27T12:00:06.669Z,english_147.wav,0,peel,1283,48,4,5,français,m,2,0.2,-76.025031,0.62193731
5eae48f0f3540c5177f3474c,5,0,2024-02-27T12:00:06.669Z,english_147.wav,0,peel,1283,48,4,5,français,m,3,0.3,-4.271985,1.23272935
5eae48f0f3540c5177f3474c,5,0,2024-02-27T12:00:06.669Z,english_147.wav,0,peel,1283,48,4,5,français,m,4,0.32341667,90.36670579,0.90867663
5eae48f0f3540c5177f3474c,6,0,2024-02-27T12:00:06.669Z,english_788.wav,0,peel,857,48,4,5,français,m,0,0.0,-93.79628683,0.67330318
5eae48f0f3540c5177f3474c,6,0,2024-02-27T12:00:06.669Z,english_788.wav,0,peel,857,48,4,5,français,m,1,0.1,-45.29703147,1.33385595
5eae48f0f3540c5177f3474c,6,0,2024-02-27T12:00:06.669Z,english_788.wav,0,peel,857,48,4,5,français,m,2,0.2,-46.01001772,1.35248941
5eae48f0f3540c5177f3474c,6,0,2024-02-27T12:00:06.669Z,english_788.wav,0,peel,857,48,4,5,français,m,3,0.3,-56.6729179,1.33220146
5eae48f0f3540c5177f3474c,6,0,2024-02-27T12:00:06.669Z,english_788.wav,0,peel,857,48,4,5,français,m,4,0.32341667,51.29020462,1.32468206
5eae48f0f3540c5177f3474c,7,0,2024-02-27T12:00:06.669Z,english_719.wav,0,peel,699,48,4,5,français,m,0,0.0,-32.14306232,1.4431753
5eae48f0f3540c5177f3474c,7,0,2024-02-27T12:00:06.669Z,english_719.wav,0,peel,699,48,4,5,français,m,1,0.1,-81.40439332,0.46175707
5eae48f0f3540c5177f3474c,7,0,2024-02-27T12:00:06.669Z,english_719.wav,0,peel,699,48,4,5,français,m,2,0.2,-20.1172293,1.86886769
5eae48f0f3540c5177f3474c,7,0,2024-02-27T12:00:06.669Z,english_719.wav,0,peel,699,48,4,5,français,m,3,0.3,67.63048238,0.67969247
5eae48f0f3540c5177f3474c,7,0,2024-02-27T12:00:06.669Z,english_719.wav,0,peel,699,48,4,5,français,m,4,0.32341667,50.83305788,1.68151983
5eae48f0f3540c5177f3474c,8,0,2024-02-27T12:00:06.669Z,english_74.wav,0,peel,523,48,4,5,français,m,0,0.0,86.29588785,1.196208
5eae48f0f3540c5177f3474c,8,0,2024-02-27T12:00:06.669Z,english_74.wav,0,peel,523,48,4,5,français,m,1,0.1,-14.52381687,1.63208143
5eae48f0f3540c5177f3474c,8,0,2024-02-27T12:00:06.669Z,english_74.wav,0,peel,523,48,4,5,français,m,2,0.2,77.94321906,0.46125368
5eae48f0f3540c5177f3474c,8,0,2024-02-27T12:00:06.669Z,english_74.wav,0,peel,523,48,4,5,français,m,3,0.3,-32.33104188,1.38278461
5eae48f0f3540c5177f3474c,8,0,2024-02-27T12:00:06.669Z,english_74.wav,0,peel,523,48,4,5,français,m,4,0.32341667,9.46602754,0.83147108
5eae48f0f3540c5177f3474c,9,0,2024-02-27T12:00:06.669Z,english_621.wav,0,peel,462,48,4,5,français,m,0,0.0,-58.25251841,1.01186344
5eae48f0f3540c5177f3474c,9,0,2024-02-27T12:00:06.669Z,english_621.wav,0,peel,462,48,4,5,français,m,1,0.1,21.8974524,1.03560921
5eae48f0f3540c5177f3474c,9,0,2024-02-27T12:00:06.669Z,english_621.wav,0,peel,462,48,4,5,français,m,2,0.2,-22.03552483,0.97057504
5eae48f0f3540c5177f3474c,9,0,2024-02-27T12:00:06.669Z,english_621.wav,0,peel,462,48,4,5,français,m,3,0.3,-56.80446909,1.33131235
5eae48f0f3540c5177f3474c,9,0,2024-02-27T12:00:06.669Z,english_621.wav,0,peel,462,48,4,5,français,m,4,0.32341667,-23.41760562,0.49151525
5eae48f0f3540c5177f3474c,10,0,2024-02-27T12:00:06.669Z,english_492.wav,0,peel,608,48,4,5,français,m,0,0.0,-66.2832746,0.52930651
5eae48f0f3540c5177f3474c,10,0,2024-02-27T12:00:06.669Z,english_492.wav,0,peel,608,48,4,5,français,m,1,0.1,-19.36008054,1.11739795
5eae48f0f3540c5177f3474c,10,0,2024-02-27T12:00:06.669Z,english_492.wav,0,peel,608,48,4,5,français,m,2,0.2,95.25769545,1.86018292
5eae48f0f3540c5177f3474c,10,0,2024-02-27T12:00:06.669Z,english_492.wav,0,peel,608,48,4,5,français,m,3,0.3,-42.69351484,0.07313262
5eae48f0f3540c5177f3474c,10,0,2024-02-27T12:00:06.669Z,english_492.wav,0,peel,608,48,4,5,français,m,4,0.32341667,48.13359561,0.30480454
5eae48f0f3540c5177f3474c,11,0,2024-02-27T12:00:06.669Z,english_99.wav,0,pill,2031,48,4,5,français,m,0,0.0,9.75149611,0.79411887
5eae48f0f3540c5177f3474c,11,0,2024-02-27T12:00:06.669Z,english_99.wav,0,pill,2031,48,4,5,français,m,1,0.1,-7.37998228,0.53064308
5eae48f0f3540c5177f3474c,11,0,2024-02-27T12:00:06.669Z,english_99.wav,0,pill,2031,48,4,5,français,m,2,0.2,29.15889261,0.10254027
5eae48f0f3540c5177f3474c,11,0,2024-02-27T12:00:06.669Z,english_99.wav,0,pill,2031,48,4,5,français,m,3,0.3,-23.23230809,0.53999741
5eae48f0f3540c5177f3474c,11,0,2024-02-27T12:00:06.669Z,english_99.wav,0,pill,2031,48,4,5,français,m,4,0.32341667,51.25937721,0.74302856
5eae48f0f3540c5177f3474c,12,0,2024-02-27T12:00:06.669Z,english_339.wav,0,peel,1948,48,4,5,français,m,0,0.0,-58.67599578,0.13141934
5eae48f0f3540c5177f3474c,12,0,2024-02-27T12:00:06.669Z,english_339.wav,0,peel,1948,48,4,5,français,m,1,0.1,-13.30258388,0.16133177
5eae48f0f3540c5177f3474c,12,0,2024-02-27T12:00:06.669Z,english_339.wav,0,peel,1948,48,4,5,français,m,2,0.2,-52.40820381,1.13500643
5eae48f0f3540c5177f3474c,12,0,2024-02-27T12:00:06.669Z,english_339.wav,0,peel,1948,48,4,5,français,m,3,0.3,11.33062491,0.98717522
5eae48f0f3540c5177f3474c,12,0,2024-02-27T12:00:06.669Z,english_339.wav,0,peel,1948,48,4,5,français,m,4,0.32341667,9.6385593,0.10332776
5eae48f0f3540c5177f3474c,13,0,2024-02-27T12:00:06.669Z,english_16.wav,0,peel,752,48,4,5,français,m,0,0.0,-86.84797814,0.47796166
5eae48f0f3540c5177f3474c,13,0,2024-02-27T12:00:06.669Z,english_16.wav,0,peel,752,48,4,5,français,m,1,0.1,29.78439304,1.82902446
5eae48f0f3540c5177f3474c,13,0,2024-02-27T12:00:06.669Z,english_16.wav,0,peel,752,48,4,5,français,m,2,0.2,93.37667148,1.57835565
5eae48f0f3540c5177f3474c,13,0,2024-02-27T12:00:06.669Z,english_16.wav,0,peel,752,48,4,5,français,m,3,0.3,-84.28086854,0.98546729
5eae48f0f3540c5177f3474c,13,0,2024-02-27T12:00:06.669Z,english_16.wav,0,peel,752,48,4,5,français,m,4,0.32341667,-8.77302982,0.88950072
5eae48f0f3540c5177f3474c,14,0,2024-02-27T12:00:06.669Z,english_36.wav,0,pill,1340,48,4,5,français,m,0,0.0,8.79498818,0.0614271
5eae48f0f3540c5177f3474c,14,0,2024-02-27T12:00:06.669Z,english_36.wav,0,pill,1340,48,4,5,français,m,1,0.1,-18.99628775,0.22652961
5eae48f0f3540c5177f3474c,14,0,2024-02-27T12:00:06.669Z,english_36.wav,0,pill,1340,48,4,5,français,m,2,0.2,-17.40156662,0.46484299
5eae48f0f3540c5177f3474c,14,0,2024-02-27T12:00:06.669Z,english_36.wav,0,pill,1340,48,4,5,français,m,3,0.3,-85.73958234,0.81464033
5eae48f0f3540c5177f3474c,14,0,2024-02-27T12:00:06.669Z,english_36.wav,0,pill,1340,48,4,5,français,m,4,0.32341667,45.44069908,0.21843777
5eae48f0f3540c5177f3474c,15,0,2024-02-27T12:00:06.669Z,english_358.wav,0,peel,806,48,4,5,français,m,0,0.0,-24.40280242,0.64702298
5eae48f0f3540c5177f3474c,15,0,2024-02-27T12:00:06.669Z,english_358.wav,0,peel,806,48,4,5,français,m,1,0.1,62.18566088,0.86836285
5eae48f0f3540c5177f3474c,15,0,2024-02-27T12:00:06.669Z,english_358.wav,0,peel,806,48,4,5,français,m,2,0.2,5.26675109,1.05826104
5eae48f0f3540c5177f3474c,15,0,2024-02-27T12:00:06.669Z,english_358.wav,0,peel,806,48,4,5,français,m,3,0.3,-31.91571391,1.98011631
5eae48f0f3540c5177f3474c,15,0,2024-02-27T12:00:06.669Z,english_358.wav,0,peel,806,48,4,5,français,m,4,0.32341667,27.35112364,0.35058307
5eae48f0f3540c5177f3474c,16,0,2024-02-27T12:00:06.669Z,english_994.wav,0,peel,815,48,4,5,français,m,0,0.0,53.6083957,1.72152032
5eae48f0f3540c5177f3474c,16,0,2024-02-27T12:00:06.669Z,english_994.wav,0,peel,815,48,4,5,français,m,1,0.1,62.5650281,0.97077126
5eae48f0f3540c5177f3474c,16,0,2024-02-27T12:00:06.669Z,english_994.wav,0,peel,815,48,4,5,français,m,2,0.2,91.00734213,1.1154275
5eae48f0f3540c5177f3474c,16,0,2024-02-27T12:00:06.669Z,english_994.wav,0,peel,815,48,4,5,français,m,3,0.3,-14.6853323,0.93534142
5eae48f0f3540c5177f3474c,16,0,2024-02-27T12:00:06.669Z,english_994.wav,0,peel,815,48,4,5,français,m,4,0.32341667,42.94025292,1.51312842
5eae48f0f3540c5177f3474c,17,0,2024-02-27T12:00:06.669Z,english_566.wav,0,peel,483,48,4,5,français,m,0,0.0,70.56000247,1.04698608
5eae48f0f3540c5177f3474c,17,0,2024-02-27T12:00:06.669Z,english_566.wav,0,peel,483,48,4,5,français,m,1,0.1,-0.18246418,1.13826263
5eae48f0f3540c5177f3474c,17,0,2024-02-27T12:00:06.669Z,english_566.wav,0,peel,483,48,4,5,français,m,2,0.2,-23.7188651,1.91259561
5eae48f0f3540c5177f3474c,17,0,2024-02-27T12:00:06.669Z,english_566.wav,0,peel,483,48,4,5,français,m,3,0.3,12.5469797,1.08561121
5eae48f0f3540c5177f3474c,17,0,2024-02-27T12:00:06.669Z,english_566.wav,0,peel,483,48,4,5,français,m,4,0.32341667,-84.37997634,1.98926692
5eae48f0f3540c5177f3474c,18,0,2024-02-27T12:00:06.669Z,english_657.wav,0,pill,1089,48,4,5,français,m,0,0.0,30.03208284,1.42095662
5eae48f0f3540c5177f3474c,18,0,2024-02-27T12:00:06.669Z,english_657.wav,0,pill,1089,48,4,5,français,m,1,0.1,-5.57127058,1.29790323
5eae48f0f3540c5177f3474c,18,0,2024-02-27T12:00:06.669Z,english_657.wav,0,pill,1089,48,4,5,français,m,2,0.2,9.55793083,0.51612643
5eae48f0f3540c5177f3474c,18,0,2024-02-27T12:00:06.669Z,english_657.wav,0,pill,1089,48,4,5,français,m,3,0.3,3.39766504,0.37671101
5eae48f0f3540c5177f3474c,18,0,2024-02-27T12:00:06.669Z,english_657.wav,0,pill,1089,48,4,5,français,m,4,0.32341667,84.38659916,1.20124021
5eae48f0f3540c5177f3474c,19,0,2024-02-27T12:00:06.669Z,english_483.wav,0,pill,841,48,4,5,français,m,0,0.0,-5.76716701,0.46419013
5eae48f0f3540c5177f3474c,19,0,2024-02-27T12:00:06.669Z,english_483.wav,0,pill,841,48,4,5,français,m,1,0.1,70.49761143,1.51640771
5eae48f0f3540c5177f3474c,19,0,2024-02-27T12:00:06.669Z,english_483.wav,0,pill,841,48,4,5,français,m,2,0.2,-45.60331281,0.16811565
5eae48f0f3540c5177f3474c,19,0,2024-02-27T12:00:06.669Z,english_483.wav,0,pill,841,48,4,5,français,m,3,0.3,83.6717315,0.53401791
5eae48f0f3540c5177f3474c,19,0,2024-02-27T12:00:06.669Z,english_483.wav,0,pill,841,48,4,5,français,m,4,0.32341667,-49.24362833,1.0404632
5eae48f0f3540c5177f3474c,20,0,2024-02-27T12:00:06.669Z,english_823.wav,0,pill,473,48,4,5,français,m,0,0.0,24.6891334,1.19409205
5eae48f0f3540c5177f3474c,20,0,2024-02-27T12:00:06.669Z,english_823.wav,0,pill,473,48,4,5,français,m,1,0.1,86.03794788,0.72053846
5eae48f0f3540c5177f3474c,20,0,2024-02-27T12:00:06.669Z,english_823.wav,0,pill,473,48,4,5,français,m,2,0.2,45.97308045,0.2138623
5eae48f0f3540c5177f3474c,20,0,2024-02-27T12:00:06.669Z,english_823.wav,0,pill,473,48,4,5,français,m,3,0.3,39.11596791,1.56743943
5eae48f0f3540c5177f3474c,20,0,2024-02-27T12:00:06.669Z,english_823.wav,0,pill,473,48,4,5,français,m,4,0.32341667,10.29734006,1.24065623
5eae48f0f3540c5177f3474c,21,0,2024-02-27T12:00:06.669Z,english_1000.wav,0,pill,477,48,4,5,français,m,0,0.0,27.35321797,1.01803417
5eae48f0f3540c5177f3474c,21,0,2024-02-27T12:00:06.669Z,english_1000.wav,0,pill,477,48,4,5,français,m,1,0.1,42.13438871,0.4558176
5eae48f0f3540c5177f3474c,21,0,2024-02-27T12:00:06.669Z,english_1000.wav,0,pill,477,48,4,5,français,m,2,0.2,95.34760893,0.52251179
5eae48f0f3540c5177f3474c,21,0,2024-02-27T12:00:06.669Z,english_1000.wav,0,pill,477,48,4,5,français,m,3,0.3,-34.10168873,0.90165507
5eae48f0f3540c5177f3474c,21,0,2024-02-27T12:00:06.669Z,english_1000.wav,0,pill,477,48,4,5,français,m,4,0.32341667,64.49689477,0.38395199
5eae48f0f3540c5177f3474c,22,0,2024-02-27T12:00:06.669Z,english_904.wav,0,peel,2156,48,4,5,français,m,0,0.0,54.28678019,0.96279628
5eae48f0f3540c5177f3474c,22,0,2024-02-27T12:00:06.669Z,english_904.wav,0,peel,2156,48,4,5,français,m,1,0.1,-13.24417266,0.20212872
5eae48f0f3540c5177f3474c,22,0,2024-02-27T12:00:06.669Z,english_904.wav,0,peel,2156,48,4,5,français,m,2,0.2,18.94666669,1.39381084
5eae48f0f3540c5177f3474c,22,0,2024-02-27T12:00:06.669Z,english_904.wav,0,peel,2156,48,4,5,français,m,3,0.3,-21.97018078,1.57516234
5eae48f0f3540c5177f3474c,22,0,2024-02-27T12:00:06.669Z,english_904.wav,0,peel,2156,48,4,5,français,m,4,0.32341667,4.05624244,0.97228596
5eae48f0f3540c5177f3474c,23,0,2024-02-27T12:00:06.669Z,english_725.wav,0,pill,930,48,4,5,français,m,0,0.0,26.80600371,0.25466557
5eae48f0f3540c5177f3474c,23,0,2024-02-27T12:00:06.669Z,english_725.wav,0,pill,930,48,4,5,français,m,1,0.1,82.24352357,0.77088778
5eae48f0f3540c5177f3474c,23,0,2024-02-27T12:00:06.669Z,english_725.wav,0,pill,930,48,4,5,français,m,2,0.2,-3.79901328,0.70697722
5eae48f0f3540c5177f3474c,23,0,2024-02-27T12:00:06.669Z,english_725.wav,0,pill,930,48,4,5,français,m,3,0.3,68.54562933,1.24247197
5eae48f0f3540c5177f3474c,23,0,2024-02-27T12:00:06.669Z,english_725.wav,0,pill,930,48,4,5,français,m,4,0.32341667,-39.79698803,1.34526742
5eae48f0f3540c5177f3474c,24,0,2024-02-27T12:00:06.669Z,english_80.wav,0,pill,1566,48,4,5,français,m,0,0.0,33.21374474,1.09809668
5eae48f0f3540c5177f3474c,24,0,2024-02-27T12:00:06.669Z,english_80.wav,0,pill,1566,48,4,5,français,m,1,0.1,-72.2618742,1.73594877
5eae48f0f3540c5177f3474c,24,0,2024-02-27T12:00:06.669Z,english_80.wav,0,pill,1566,48,4,5,français,m,2,0.2,-29.44860443,0.30037535
5eae48f0f3540c5177f3474c,24,0,2024-02-27T12:00:06.669Z,english_80.wav,0,pill,1566,48,4,5,français,m,3,0.3,-33.36418129,0.36613598
5eae48f0f3540c5177f3474c,24,0,2024-02-27T12:00:06.669Z,english_80.wav,0,pill,1566,48,4,5,français,m,4,0.32341667,-65.11319145,0.50687614
5eae48f0f3540c5177f3474c,25,0,2024-02-27T12:00:06.669Z,english_24.wav,0,peel,764,48,4,5,français,m,0,0.0,83.82729659,0.31203725
5eae48f0f3540c5177f3474c,25,0,2024-02-27T12:00:06.669Z,english_24.wav,0,peel,764,48,4,5,français,m,1,0.1,-2.54724082,1.56948954
5eae48f0f3540c5177f3474c,25,0,2024-02-27T12:00:06.669Z,english_24.wav,0,peel,764,48,4,5,français,m,2,0.2,88.70909739,0.87333864
5eae48f0f3540c5177f3474c,25,0,2024-02-27T12:00:06.669Z,english_24.wav,0,peel,764,48,4,5,français,m,3,0.3,48.93770926,0.88535019
5eae48f0f3540c5177f3474c,25,0,2024-02-27T12:00:06.669Z,english_24.wav,0,peel,764,48,4,5,français,m,4,0.32341667,53.25190048,0.66112496
5eae48f0f3540c5177f3474c,26,0,2024-02-27T12:00:06.669Z,english_668.wav,0,pill,484,48,4,5,français,m,0,0.0,48.8265236,0.43768829
5eae48f0f3540c5177f3474c,26,0,2024-02-27T12:00:06.669Z,english_668.wav,0,pill,484,48,4,5,français,m,1,0.1,97.68090991,0.31983773
5eae48f0f3540c5177f3474c,26,0,2024-02-27T12:00:06.669Z,english_668.wav,0,pill,484,48,4,5,français,m,2,0.2,47.50182685,1.24438546
5eae48f0f3540c5177f3474c,26,0,2024-02-27T12:00:06.669Z,english_668.wav,0,pill,484,48,4,5,français,m,3,0.3,81.7432518,0.49120307
5eae48f0f3540c5177f3474c,26,0,2024-02-27T12:00:06.669Z,english_668.wav,0,pill,484,48,4,5,français,m,4,0.32341667,28.08178094,0.60639718
5eae48f0f3540c5177f3474c,27,0,2024-02-27T12:00:06.669Z,english_10.wav,0,peel,372,48,4,5,français,m,0,0.0,-80.92247099,1.33142191
5eae48f0f3540c5177f3474c,27,0,2024-02-27T12:00:06.669Z,english_10.wav,0,peel,372,48,4,5,français,m,1,0.1,11.56157957,0.6588087
5eae48f0f3540c5177f3474c,27,0,2024-02-27T12:00:06.669Z,english_10.wav,0,peel,372,48,4,5,français,m,2,0.2,72.61501241,1.62851887
5eae48f0f3540c5177f3474c,27,0,2024-02-27T12:00:06.669Z,english_10.wav,0,peel,372,48,4,5,français,m,3,0.3,91.01400741,1.4109269
5eae48f0f3540c5177f3474c,27,0,2024-02-27T12:00:06.669Z,english_10.wav,0,peel,372,48,4,5,français,m,4,0.32341667,-64.58672822,0.76235223
5eae48f0f3540c5177f3474c,28,0,2024-02-27T12:00:06.669Z,english_561.wav,0,peel,445,48,4,5,français,m,0,0.0,62.21065415,1.32725493
5eae48f0f3540c5177f3474c,28,0,2024-02-27T12:00:06.669Z,english_561.wav,0,peel,445,48,4,5,français,m,1,0.1,-9.84770717,1.15871491
5eae48f0f3540c5177f3474c,28,0,2024-02-27T12:00:06.669Z,english_561.wav,0,peel,445,48,4,5,français,m,2,0.2,-12.92274306,0.82816789
5eae48f0f3540c5177f3474c,28,0,2024-02-27T12:00:06.669Z,english_561.wav,0,peel,445,48,4,5,français,m,3,0.3,16.08334811,1.72308293
5eae48f0f3540c5177f3474c,28,0,2024-02-27T12:00:06.669Z,english_561.wav,0,peel,445,48,4,5,français,m,4,0.32341667,-22.38830035,0.72943893
5eae48f0f3540c5177f3474c,29,0,2024-02-27T12:00:06.669Z,english_290.wav,0,peel,357,48,4,5,français,m,0,0.0,73.71968657,0.30552726
5eae48f0f3540c5177f3474c,29,0,2024-02-27T12:00:06.669Z,english_290.wav,0,peel,357,48,4,5,français,m,1,0.1,-59.85317413,1.31636279
5eae48f0f3540c5177f3474c,29,0,2024-02-27T12:00:06.669Z,english_290.wav,0,peel,357,48,4,5,français,m,2,0.2,71.1426587,0.54925413
5eae48f0f3540c5177f3474c,29,0,2024-02-27T12:00:06.669Z,english_290.wav,0,peel,357,48,4,5,français,m,3,0.3,-18.50007061,1.26204455
5eae48f0f3540c5177f3474c,29,0,2024-02-27T12:00:06.669Z,english_290.wav,0,peel,357,48,4,5,français,m,4,0.32341667,-65.91143137,0.60528556
5eae48f0f3540c5177f3474c,30,0,2024-02-27T12:00:06.669Z,english_521.wav,0,peel,556,48,4,5,français,m,0,0.0,-39.78859965,1.84590666
5eae48f0f3540c5177f3474c,30,0,2024-02-27T12:00:06.669Z,english_521.wav,0,peel,556,48,4,5,français,m,1,0.1,94.65680132,0.33665341
5eae48f0f3540c5177f3474c,30,0,2024-02-27T12:00:06.669Z,english_521.wav,0,peel,556,48,4,5,français,m,2,0.2,-68.68225016,1.01474729
5eae48f0f3540c5177f3474c,30,0,2024-02-27T12:00:06.669Z,english_521.wav,0,peel,556,48,4,5,français,m,3,0.3,19.56493677,0.73624599
5eae48f0f3540c5177f3474c,30,0,2024-02-27T12:00:06.669Z,english_521.wav,0,peel,556,48,4,5,français,m,4,0.32341667,69.42990376,1.4391639
5eae48f0f3540c5177f3474c,31,0,2024-02-27T12:00:06.669Z,english_100.wav,0,peel,464,48,4,5,français,m,0,0.0,-66.86198445,0.79522553
5eae48f0f3540c5177f3474c,31,0,2024-02-27T12:00:06.669Z,english_100.wav,0,peel,464,48,4,5,français,m,1,0.1,32.23990363,0.27784591
5eae48f0f3540c5177f3474c,31,0,2024-02-27T12:00:06.669Z,english_100.wav,0,peel,464,48,4,5,français,m,2,0.2,-63.31896149,1.76330212
5eae48f0f3540c5177f3474c,31,0,2024-02-27T12:00:06.669Z,english_100.wav,0,peel,464,48,4,5,français,m,3,0.3,-73.00038049,0.60946618
5eae48f0f3540c5177f3474c,31,0,2024-02-27T12:00:06.669Z,english_100.wav,0,peel,464,48,4,5,français,m,4,0.32341667,32.15710315,0.42695433
5eae48f0f3540c5177f3474c,32,0,2024-02-27T12:00:06.669Z,english_153.wav,0,peel,557,48,4,5,français,m,0,0.0,1.34878197,1.20280718
5eae48f0f3540c5177f3474c,32,0,2024-02-27T12:00:06.669Z,english_153.wav,0,peel,557,48,4,5,français,m,1,0.1,-86.14475674,1.60924223
5eae48f0f3540c5177f3474c,32,0,2024-02-27T12:00:06.669Z,english_153.wav,0,peel,557,48,4,5,français,m,2,0.2,3.24582423,0.94422247
5eae48f0f3540c5177f3474c,32,0,2024-02-27T12:00:06.669Z,english_153.wav,0,peel,557,48,4,5,français,m,3,0.3,-6.94068795,0.98008297
5eae48f0f3540c5177f3474c,32,0,2024-02-27T12:00:06.669Z,english_153.wav,0,peel,557,48,4,5,français,m,4,0.32341667,-76.91560753,0.34988026
5eae48f0f3540c5177f3474c,33,0,2024-02-27T12:00:06.669Z,english_31.wav,0,peel,460,48,4,5,français,m,0,0.0,21.28810337,1.2057056
5eae48f0f3540c5177f3474c,33,0,2024-02-27T12:00:06.669Z,english_31.wav,0,peel,460,48,4,5,français,m,1,0.1,68.821868,0.99381392
5eae48f0f3540c5177f3474c,33,0,2024-02-27T12:00:06.669Z,english_31.wav,0,peel,460,48,4,5,français,m,2,0.2,-73.02143346,0.87600828
5eae48f0f3540c5177f3474c,33,0,2024-02-27T12:00:06.669Z,english_31.wav,0,peel,460,48,4,5,français,m,3,0.3,68.60173581,1.15844697
5eae48f0f3540c5177f3474c,33,0,2024-02-27T12:00:06.669Z,english_31.wav,0,peel,460,48,4,5,français,m,4,0.32341667,51.47999234,1.3722803
5eae48f0f3540c5177f3474c,34,0,2024-02-27T12:00:06.669Z,english_874.wav,0,peel,431,48,4,5,français,m,0,0.0,32.94582558,0.77720789
5eae48f0f3540c5177f3474c,34,0,2024-02-27T12:00:06.669Z,english_874.wav,0,peel,431,48,4,5,français,m,1,0.1,73.76521909,1.44852608
5eae48f0f3540c5177f3474c,34,0,2024-02-27T12:00:06.669Z,english_874.wav,0,peel,431,48,4,5,français,m,2,0.2,-83.94992572,1.18086928
5eae48f0f3540c5177f3474c,34,0,2024-02-27T12:00:06.669Z,english_874.wav,0,peel,431,48,4,5,français,m,3,0.3,-61.86791133,0.75042975
5eae48f0f3540c5177f3474c,34,0,2024-02-27T12:00:06.669Z,english_874.wav,0,peel,431,48,4,5,français,m,4,0.32341667,-94.71312943,1.11461748
5eae48f0f3540c5177f3474c,35,0,2024-02-27T12:00:06.669Z,english_750.wav,0,peel,477,48,4,5,français,m,0,0.0,54.68497377,0.76623701
5eae48f0f3540c5177f3474c,35,0,2024-02-27T12:00:06.669Z,english_750.wav,0,peel,477,48,4,5,français,m,1,0.1,0.91792919,1.58478782
5eae48f0f3540c5177f3474c,35,0,2024-02-27T12:00:06.669Z,english_750.wav,0,peel,477,48,4,5,français,m,2,0.2,-67.69423006,0.74884996
5eae48f0f3540c5177f3474c,35,0,2024-02-27T12:00:06.669Z,english_750.wav,0,peel,477,48,4,5,français,m,3,0.3,20.92985273,0.15814923
5eae48f0f3540c5177f3474c,35,0,2024-02-27T12:00:06.669Z,english_750.wav,0,peel,477,48,4,5,français,m,4,0.32341667,-39.60032316,1.58320499
5eae48f0f3540c5177f3474c,36,0,2024-02-27T12:00:06.669Z,english_946.wav,0,pill,1316,48,4,5,français,m,0,0.0,-74.23479435,1.22824298
5eae48f0f3540c5177f3474c,36,0,2024-02-27T12:00:06.669Z,english_946.wav,0,pill,1316,48,4,5,français,m,1,0.1,-11.3601526,0.85784227
5eae48f0f3540c5177f3474c,36,0,2024-02-27T12:00:06.669Z,english_946.wav,0,pill,1316,48,4,5,français,m,2,0.2,36.50675361,0.09585286
5eae48f0f3540c5177f3474c,36,0,2024-02-27T12:00:06.669Z,english_946.wav,0,pill,1316,48,4,5,français,m,3,0.3,-13.94845552,0.43829102
5eae48f0f3540c5177f3474c,36,0,2024-02-27T12:00:06.669Z,english_946.wav,0,pill,1316,48,4,5,français,m,4,0.32341667,-6.97265347,0.86422506
5eae48f0f3540c5177f3474c,37,0,2024-02-27T12:00:06.669Z,english_47.wav,0,peel,549,48,4,5,français,m,0,0.0,70.62381491,1.36620222
5eae48f0f3540c5177f3474c,37,0,2024-02-27T12:00:06.669Z,english_47.wav,0,peel,549,48,4,5,français,m,1,0.1,-43.60565268,0.47559644
5eae48f0f3540c5177f3474c,37,0,2024-02-27T12:00:06.669Z,english_47.wav,0,peel,549,48,4,5,français,m,2,0.2,29.54670776,0.92078875
5eae48f0f3540c5177f3474c,37,0,2024-02-27T12:00:06.669Z,english_47.wav,0,peel,549,48,4,5,français,m,3,0.3,95.208653,0.83015506
5eae48f0f3540c5177f3474c,37,0,2024-02-27T12:00:06.669Z,english_47.wav,0,peel,549,48,4,5,français,m,4,0.32341667,-87.83630424,1.40747595
5eae48f0f3540c5177f3474c,38,0,2024-02-27T12:00:06.669Z,english_460.wav,0,peel,418,48,4,5,français,m,0,0.0,-93.21492338,1.97422145
5eae48f0f3540c5177f3474c,38,0,2024-02-27T12:00:06.669Z,english_460.wav,0,peel,418,48,4,5,français,m,1,0.1,-65.59669931,0.48313428
5eae48f0f3540c5177f3474c,38,0,2024-02-27T12:00:06.669Z,english_460.wav,0,peel,418,48,4,5,français,m,2,0.2,76.47030005,0.91916034
5eae48f0f3540c5177f3474c,38,0,2024-02-27T12:00:06.669Z,english_460.wav,0,peel,418,48,4,5,français,m,3,0.3,-24.62267943,0.34121923
5eae48f0f3540c5177f3474c,38,0,2024-02-27T12:00:06.669Z,english_460.wav,0,peel,418,48,4,5,français,m,4,0.32341667,17.6428759,0.75894887
5eae48f0f3540c5177f3474c,39,0,2024-02-27T12:00:06.669Z,english_864.wav,0,peel,494,48,4,5,français,m,0,0.0,-41.66547405,0.15536101
5eae48f0f3540c5177f3474c,39,0,2024-02-27T12:00:06.669Z,english_864.wav,0,peel,494,48,4,5,français,m,1,0.1,47.36949562,1.78739046
5eae48f0f3540c5177f3474c,39,0,2024-02-27T12:00:06.669Z,english_864.wav,0,peel,494,48,4,5,français,m,2,0.2,87.97635609,1.48310956
5eae48f0f3540c5177f3474c,39,0,2024-02-27T12:00:06.669Z,english_864.wav,0,peel,494,48,4,5,français,m,3,0.3,-18.88921291,0.35838492
5eae48f0f3540c5177f3474c,39,0,2024-02-27T12:00:06.669Z,english_864.wav,0,peel,494,48,4,5,français,m,4,0.32341667,13.88839096,0.21709894
5eae48f0f3540c5177f3474c,40,0,2024-02-27T12:00:06.669Z,english_876.wav,0,pill,636,48,4,5,français,m,0,0.0,-20.36884991,0.97958319
5eae48f0f3540c5177f3474c,40,0,2024-02-27T12:00:06.669Z,english_876.wav,0,pill,636,48,4,5,français,m,1,0.1,-12.16725052,0.93484439
5eae48f0f3540c5177f3474c,40,0,2024-02-27T12:00:06.669Z,english_876.wav,0,pill,636,48,4,5,français,m,2,0.2,-26.42868614,0.43422731
5eae48f0f3540c5177f3474c,40,0,2024-02-27T12:00:06.669Z,english_876.wav,0,pill,636,48,4,5,français,m,3,0.3,-15.16942384,0.12359811
5eae48f0f3540c5177f3474c,40,0,2024-02-27T12:00:06.669Z,english_876.wav,0,pill,636,48,4,5,français,m,4,0.32341667,-52.65446315,1.31629037
5eae48f0f3540c5177f3474c,41,0,2024-02-27T12:00:06.669Z,english_939.wav,0,peel,470,48,4,5,français,m,0,0.0,-23.2558256,0.1774722
5eae48f0f3540c5177f3474c,41,0,2024-02-27T12:00:06.669Z,english_939.wav,0,peel,470,48,4,5,français,m,1,0.1,-16.62065377,0.56271239
5eae48f0f3540c5177f3474c,41,0,2024-02-27T12:00:06.669Z,english_939.wav,0,peel,470,48,4,5,français,m,2,0.2,-49.54734698,1.42782479
5eae48f0f3540c5177f3474c,41,0,2024-02-27T12:00:06.669Z,english_939.wav,0,peel,470,48,4,5,français,m,3,0.3,22.82101289,0.76516147
5eae48f0f3540c5177f3474c,41,0,2024-02-27T12:00:06.669Z,english_939.wav,0,peel,470,48,4,5,français,m,4,0.32341667,28.63490654,1.70219777
5eae48f0f3540c5177f3474c,42,0,2024-02-27T12:00:06.669Z,english_575.wav,0,peel,522,48,4,5,français,m,0,0.0,61.73461998,1.8510319
5eae48f0f3540c5177f3474c,42,0,2024-02-27T12:00:06.669Z,english_575.wav,0,peel,522,48,4,5,français,m,1,0.1,-88.57549656,1.54102878
5eae48f0f3540c5177f3474c,42,0,2024-02-27T12:00:06.669Z,english_575.wav,0,peel,522,48,4,5,français,m,2,0.2,-30.88461278,1.19801244
5eae48f0f3540c5177f3474c,42,0,2024-02-27T12:00:06.669Z,english_575.wav,0,peel,522,48,4,5,français,m,3,0.3,-63.73327026,1.20026237
5eae48f0f3540c5177f3474c,42,0,2024-02-27T12:00:06.669Z,english_575.wav,0,peel,522,48,4,5,français,m,4,0.32341667,-0.55806298,1.04112184
5eae48f0f3540c5177f3474c,43,0,2024-02-27T12:00:06.669Z,english_852.wav,0,pill,530,48,4,5,français,m,0,0.0,-59.21906832,1.76087743
5eae48f0f3540c5177f3474c,43,0,2024-02-27T12:00:06.669Z,english_852.wav,0,pill,530,48,4,5,français,m,1,0.1,5.96662808,0.85304022
5eae48f0f3540c5177f3474c,43,0,2024-02-27T12:00:06.669Z,english_852.wav,0,pill,530,48,4,5,français,m,2,0.2,12.29830648,0.5029047
5eae48f0f3540c5177f3474c,43,0,2024-02-27T12:00:06.669Z,english_852.wav,0,pill,530,48,4,5,français,m,3,0.3,-98.20735767,0.66544939
5eae48f0f3540c5177f3474c,43,0,2024-02-27T12:00:06.669Z,english_852.wav,0,pill,530,48,4,5,français,m,4,0.32341667,-0.5186354,0.26669214
5eae48f0f3540c5177f3474c,44,0,2024-02-27T12:00:06.669Z,english_587.wav,0,peel,332,48,4,5,français,m,0,0.0,-33.32102811,0.7972352
5eae48f0f3540c5177f3474c,44,0,2024-02-27T12:00:06.669Z,english_587.wav,0,peel,332,48,4,5,français,m,1,0.1,46.1287001,1.97425238
5eae48f0f3540c5177f3474c,44,0,2024-02-27T12:00:06.669Z,english_587.wav,0,peel,332,48,4,5,français,m,2,0.2,-62.23894368,0.99609006
5eae48f0f3540c5177f3474c,44,0,2024-02-27T12:00:06.669Z,english_587.wav,0,peel,332,48,4,5,français,m,3,0.3,36.67711132,1.18577707
5eae48f0f3540c5177f3474c,44,0,2024-02-27T12:00:06.669Z,english_587.wav,0,peel,332,48,4,5,français,m,4,0.32341667,-11.53320103,1.64089558
5eae48f0f3540c5177f3474c,45,0,2024-02-27T12:00:06.669Z,english_545.wav,0,peel,484,48,4,5,français,m,0,0.0,42.99494118,1.37740168
5eae48f0f3540c5177f3474c,45,0,2024-02-27T12:00:06.669Z,english_545.wav,0,peel,484,48,4,5,français,m,1,0.1,72.53025652,0.91972232
5eae48f0f3540c5177f3474c,45,0,2024-02-27T12:00:06.669Z,english_545.wav,0,peel,484,48,4,5,français,m,2,0.2,4.60849844,0.73226975
5eae48f0f3540c5177f3474c,45,0,2024-02-27T12:00:06.669Z,english_545.wav,0,peel,484,48,4,5,français,m,3,0.3,9.93291538,1.52934768
5eae48f0f3540c5177f3474c,45,0,2024-02-27T12:00:06.669Z,english_545.wav,0,peel,484,48,4,5,français,m,4,0.32341667,-11.25611892,0.18478607
5eae48f0f3540c5177f3474c,46,0,2024-02-27T12:00:06.669Z,english_366.wav,0,pill,421,48,4,5,français,m,0,0.0,30.08929792,0.87054072
5eae48f0f3540c5177f3474c,46,0,2024-02-27T12:00:06.669Z,english_366.wav,0,pill,421,48,4,5,français,m,1,0.1,-17.9139155,0.34658018
5eae48f0f3540c5177f3474c,46,0,2024-02-27T12:00:06.669Z,english_366.wav,0,pill,421,48,4,5,français,m,2,0.2,-66.75779592,0.49970414
5eae48f0f3540c5177f3474c,46,0,2024-02-27T12:00:06.669Z,english_366.wav,0,pill,421,48,4,5,français,m,3,0.3,77.64459909,1.94720887
5eae48f0f3540c5177f3474c,46,0,2024-02-27T12:00:06.669Z,english_366.wav,0,pill,421,48,4,5,français,m,4,0.32341667,72.64294537,1.76390144
5eae48f0f3540c5177f3474c,47,0,2024-02-27T12:00:06.669Z,english_78.wav,0,peel,320,48,4,5,français,m,0,0.0,57.57509383,0.85738581
5eae48f0f3540c5177f3474c,47,0,2024-02-27T12:00:06.669Z,english_78.wav,0,peel,320,48,4,5,français,m,1,0.1,8.37611797,1.59375359
5eae48f0f3540c5177f3474c,47,0,2024-02-27T12:00:06.669Z,english_78.wav,0,peel,320,48,4,5,français,m,2,0.2,-42.8518908,1.65756647
5eae48f0f3540c5177f3474c,47,0,2024-02-27T12:00:06.669Z,english_78.wav,0,peel,320,48,4,5,français,m,3,0.3,26.19415986,0.53011742
5eae48f0f3540c5177f3474c,47,0,2024-02-27T12:00:06.669Z,english_78.wav,0,peel,320,48,4,5,français,m,4,0.32341667,65.52498429,1.5323802
5eae48f0f3540c5177f3474c,48,0,2024-02-27T12:00:06.669Z,english_810.wav,0,pill,1165,48,4,5,français,m,0,0.0,44.6757801,0.77700382
5eae48f0f3540c5177f3474c,48,0,2024-02-27T12:00:06.669Z,english_810.wav,0,pill,1165,48,4,5,français,m,1,0.1,-98.4252216,1.25917073
5eae48f0f3540c5177f3474c,48,0,2024-02-27T12:00:06.669Z,english_810.wav,0,pill,1165,48,4,5,français,m,2,0.2,55.4106213,0.78203472
5eae48f0f3540c5177f3474c,48,0,2024-02-27T12:00:06.669Z,english_810.wav,0,pill,1165,48,4,5,français,m,3,0.3,-18.4676839,1.13021068
5eae48f0f3540c5177f3474c,48,0,2024-02-27T12:00:06.669Z,english_810.wav,0,pill,1165,48,4,5,français,m,4,0.323416667,0.0259169543,0.14578676
5eae48f0f3540c5177f3474c,49,0,2024-02-27T12:00:06.669Z,english_871.wav,0,pill,601,48,4,5,français,m,0,0.0,84.63625516,0.21643415
5eae48f0f3540c5177f3474c,49,0,2024-02-27T12:00:06.669Z,english_871.wav,0,pill,601,48,4,5,français,m,1,0.1,-19.11058767,1.23538017
5eae48f0f3540c5177f3474c,49,0,2024-02-27T12:00:06.669Z,english_871.wav,0,pill,601,48,4,5,français,m,2,0.2,49.1497137,1.26375285
5eae48f0f3540c5177f3474c,49,0,2024-02-27T12:00:06.669Z,english_871.wav,0,pill,601,48,4,5,français,m,3,0.3,-83.07816512,0.03257235
5eae48f0f3540c5177f3474c,49,0,2024-02-27T12:00:06.669Z,english_871.wav,0,pill,601,48,4,5,français,m,4,0.32341667,11.22002909,1.90703832
5eae48f0f3540c5177f3474c,50,1,2024-02-27T12:00:06.669Z,english_329.wav,0,peel,335,48,4,5,français,m,0,0.0,-48.89108629,1.2424848
5eae48f0f3540c5177f3474c,50,1,2024-02-27T12:00:06.669Z,english_329.wav,0,peel,335,48,4,5,français,m,1,0.1,55.67852038,1.73811564
5eae48f0f3540c5177f3474c,50,1,2024-02-27T12:00:06.669Z,english_329.wav,0,peel,335,48,4,5,français,m,2,0.2,48.16827585,0.4928271
5eae48f0f3540c5177f3474c,50,1,2024-02-27T12:00:06.669Z,english_329.wav,0,peel,335,48,4,5,français,m,3,0.3,73.70818564,0.68407289
5eae48f0f3540c5177f3474c,50,1,2024-02-27T12:00:06.669Z,english_329.wav,0,peel,335,48,4,5,français,m,4,0.32341667,85.70797026,1.92917435
5eae48f0f3540c5177f3474c,51,1,2024-02-27T12:00:06.669Z,english_34.wav,0,peel,606,48,4,5,français,m,0,0.0,-48.07924103,1.44836266
5eae48f0f3540c5177f3474c,51,1,2024-02-27T12:00:06.669Z,english_34.wav,0,peel,606,48,4,5,français,m,1,0.1,-64.84739183,1.89580324
5eae48f0f3540c5177f3474c,51,1,2024-02-27T12:00:06.669Z,english_34.wav,0,peel,606,48,4,5,français,m,2,0.2,-20.81716265,0.64308549
5eae48f0f3540c5177f3474c,51,1,2024-02-27T12:00:06.669Z,english_34.wav,0,peel,606,48,4,5,français,m,3,0.3,91.13652067,0.0848332
5eae48f0f3540c5177f3474c,51,1,2024-02-27T12:00:06.669Z,english_34.wav,0,peel,606,48,4,5,français,m,4,0.32341667,-54.46543937,0.8036564
5eae48f0f3540c5177f3474c,52,1,2024-02-27T12:00:06.669Z,english_498.wav,0,pill,612,48,4,5,français,m,0,0.0,2.49020902,0.78964515
5eae48f0f3540c5177f3474c,52,1,2024-02-27T12:00:06.669Z,english_498.wav,0,pill,612,48,4,5,français,m,1,0.1,-20.55300452,0.24391593
5eae48f0f3540c5177f3474c,52,1,2024-02-27T12:00:06.669Z,english_498.wav,0,pill,612,48,4,5,français,m,2,0.2,-34.14985779,0.11401041
5eae48f0f3540c5177f3474c,52,1,2024-02-27T12:00:06.669Z,english_498.wav,0,pill,612,48,4,5,français,m,3,0.3,79.54997135,1.52582154
5eae48f0f3540c5177f3474c,52,1,2024-02-27T12:00:06.669Z,english_498.wav,0,pill,612,48,4,5,français,m,4,0.32341667,20.54695207,0.62547878
5eae48f0f3540c5177f3474c,53,1,2024-02-27T12:00:06.669Z,english_458.wav,0,pill,1304,48,4,5,français,m,0,0.0,-49.69821038,0.39452057
5eae48f0f3540c5177f3474c,53,1,2024-02-27T12:00:06.669Z,english_458.wav,0,pill,1304,48,4,5,français,m,1,0.1,-49.80647014,1.24604375
5eae48f0f3540c5177f3474c,53,1,2024-02-27T12:00:06.669Z,english_458.wav,0,pill,1304,48,4,5,français,m,2,0.2,11.98261521,0.42272405
5eae48f0f3540c5177f3474c,53,1,2024-02-27T12:00:06.669Z,english_458.wav,0,pill,1304,48,4,5,français,m,3,0.3,59.43319096,0.21259233
5eae48f0f3540c5177f3474c,53,1,2024-02-27T12:00:06.669Z,english_458.wav,0,pill,1304,48,4,5,français,m,4,0.32341667,-34.5671642,1.13235362
5eae48f0f3540c5177f3474c,54,1,2024-02-27T12:00:06.669Z,english_493.wav,0,peel,318,48,4,5,français,m,0,0.0,42.62366846,0.72879325
5eae48f0f3540c5177f3474c,54,1,2024-02-27T12:00:06.669Z,english_493.wav,0,peel,318,48,4,5,français,m,1,0.1,-24.95330968,1.87742997
5eae48f0f3540c5177f3474c,54,1,2024-02-27T12:00:06.669Z,english_493.wav,0,peel,318,48,4,5,français,m,2,0.2,82.3526737,1.69463318
5eae48f0f3540c5177f3474c,54,1,2024-02-27T12:00:06.669Z,english_493.wav,0,peel,318,48,4,5,français,m,3,0.3,53.78370402,0.82529142
5eae48f0f3540c5177f3474c,54,1,2024-02-27T12:00:06.669Z,english_493.wav,0,peel,318,48,4,5,français,m,4,0.32341667,-52.5410085,0.10126548
5eae48f0f3540c5177f3474c,55,1,2024-02-27T12:00:06.669Z,english_393.wav,0,pill,627,48,4,5,français,m,0,0.0,3.63201436,1.68653621
5eae48f0f3540c5177f3474c,55,1,2024-02-27T12:00:06.669Z,english_393.wav,0,pill,627,48,4,5,français,m,1,0.1,64.52667935,0.22518435
5eae48f0f3540c5177f3474c,55,1,2024-02-27T12:00:06.669Z,english_393.wav,0,pill,627,48,4,5,français,m,2,0.2,-51.23523019,0.07728703
5eae48f0f3540c5177f3474c,55,1,2024-02-27T12:00:06.669Z,english_393.wav,0,pill,627,48,4,5,français,m,3,0.3,-89.75219839,0.70962284
5eae48f0f3540c5177f3474c,55,1,2024-02-27T12:00:06.669Z,english_393.wav,0,pill,627,48,4,5,français,m,4,0.32341667,-66.06218428,0.7432397
5eae48f0f3540c5177f3474c,56,1,2024-02-27T12:00:06.669Z,english_69.wav,0,pill,570,48,4,5,français,m,0,0.0,-57.18730239,0.11878381
5eae48f0f3540c5177f3474c,56,1,2024-02-27T12:00:06.669Z,english_69.wav,0,pill,570,48,4,5,français,m,1,0.1,16.22212469,1.00797921
5eae48f0f3540c5177f3474c,56,1,2024-02-27T12:00:06.669Z,english_69.wav,0,pill,570,48,4,5,français,m,2,0.2,-44.28071093,0.42082068
5eae48f0f3540c5177f3474c,56,1,2024-02-27T12:00:06.669Z,english_69.wav,0,pill,570,48,4,5,français,m,3,0.3,-70.80378082,0.50205716
5eae48f0f3540c5177f3474c,56,1,2024-02-27T12:00:06.669Z,english_69.wav,0,pill,570,48,4,5,français,m,4,0.32341667,-58.3439892,0.68985838
5eae48f0f3540c5177f3474c,57,1,2024-02-27T12:00:06.669Z,english_549.wav,0,pill,484,48,4,5,français,m,0,0.0,80.71270499,0.69011393
5eae48f0f3540c5177f3474c,57,1,2024-02-27T12:00:06.669Z,english_549.wav,0,pill,484,48,4,5,français,m,1,0.1,-71.31396277,1.1141308
5eae48f0f3540c5177f3474c,57,1,2024-02-27T12:00:06.669Z,english_549.wav,0,pill,484,48,4,5,français,m,2,0.2,48.34518996,0.72072674
5eae48f0f3540c5177f3474c,57,1,2024-02-27T12:00:06.669Z,english_549.wav,0,pill,484,48,4,5,français,m,3,0.3,-66.07502609,0.60045359
5eae48f0f3540c5177f3474c,57,1,2024-02-27T12:00:06.669Z,english_549.wav,0,pill,484,48,4,5,français,m,4,0.32341667,-52.28087662,0.77200176
5eae48f0f3540c5177f3474c,58,1,2024-02-27T12:00:06.669Z,english_140.wav,0,pill,545,48,4,5,français,m,0,0.0,-63.97366245,1.49783115
5eae48f0f3540c5177f3474c,58,1,2024-02-27T12:00:06.669Z,english_140.wav,0,pill,545,48,4,5,français,m,1,0.1,-84.90656008,1.37250299
5eae48f0f3540c5177f3474c,58,1,2024-02-27T12:00:06.669Z,english_140.wav,0,pill,545,48,4,5,français,m,2,0.2,93.42782744,0.10650492
5eae48f0f3540c5177f3474c,58,1,2024-02-27T12:00:06.669Z,english_140.wav,0,pill,545,48,4,5,français,m,3,0.3,11.57634117,0.84315206
5eae48f0f3540c5177f3474c,58,1,2024-02-27T12:00:06.669Z,english_140.wav,0,pill,545,48,4,5,français,m,4,0.32341667,80.35905055,1.26233419
5eae48f0f3540c5177f3474c,59,1,2024-02-27T12:00:06.669Z,english_682.wav,0,peel,328,48,4,5,français,m,0,0.0,-19.80167737,1.6131825
5eae48f0f3540c5177f3474c,59,1,2024-02-27T12:00:06.669Z,english_682.wav,0,peel,328,48,4,5,français,m,1,0.1,-30.98220326,1.03205672
5eae48f0f3540c5177f3474c,59,1,2024-02-27T12:00:06.669Z,english_682.wav,0,peel,328,48,4,5,français,m,2,0.2,26.07010201,1.08357256
5eae48f0f3540c5177f3474c,59,1,2024-02-27T12:00:06.669Z,english_682.wav,0,peel,328,48,4,5,français,m,3,0.3,-7.79776739,1.70642947
5eae48f0f3540c5177f3474c,59,1,2024-02-27T12:00:06.669Z,english_682.wav,0,peel,328,48,4,5,français,m,4,0.32341667,-10.9148898,0.86858281
5eae48f0f3540c5177f3474c,60,1,2024-02-27T12:00:06.669Z,english_572.wav,0,pill,666,48,4,5,français,m,0,0.0,-16.16189062,1.82210005
5eae48f0f3540c5177f3474c,60,1,2024-02-27T12:00:06.669Z,english_572.wav,0,pill,666,48,4,5,français,m,1,0.1,-40.8511413,0.80249033
5eae48f0f3540c5177f3474c,60,1,2024-02-27T12:00:06.669Z,english_572.wav,0,pill,666,48,4,5,français,m,2,0.2,-77.3747243,0.69959732
5eae48f0f3540c5177f3474c,60,1,2024-02-27T12:00:06.669Z,english_572.wav,0,pill,666,48,4,5,français,m,3,0.3,87.62803369,0.43311894
5eae48f0f3540c5177f3474c,60,1,2024-02-27T12:00:06.669Z,english_572.wav,0,pill,666,48,4,5,français,m,4,0.32341667,81.6005998,1.25204325
5eae48f0f3540c5177f3474c,61,1,2024-02-27T12:00:06.669Z,english_562.wav,0,peel,446,48,4,5,français,m,0,0.0,-40.22672309,0.64031882
5eae48f0f3540c5177f3474c,61,1,2024-02-27T12:00:06.669Z,english_562.wav,0,peel,446,48,4,5,français,m,1,0.1,77.961849,0.7637006
5eae48f0f3540c5177f3474c,61,1,2024-02-27T12:00:06.669Z,english_562.wav,0,peel,446,48,4,5,français,m,2,0.2,25.52463525,0.87632482
5eae48f0f3540c5177f3474c,61,1,2024-02-27T12:00:06.669Z,english_562.wav,0,peel,446,48,4,5,français,m,3,0.3,84.62788358,0.98972612
5eae48f0f3540c5177f3474c,61,1,2024-02-27T12:00:06.669Z,english_562.wav,0,peel,446,48,4,5,français,m,4,0.32341667,-53.67427145,0.74010285
5eae48f0f3540c5177f3474c,62,1,2024-02-27T12:00:06.669Z,english_892.wav,0,pill,391,48,4,5,français,m,0,0.0,38.63128374,0.97893944
5eae48f0f3540c5177f3474c,62,1,2024-02-27T12:00:06.669Z,english_892.wav,0,pill,391,48,4,5,français,m,1,0.1,22.49899687,0.66551001
5eae48f0f3540c5177f3474c,62,1,2024-02-27T12:00:06.669Z,english_892.wav,0,pill,391,48,4,5,français,m,2,0.2,28.84135264,0.36795179
5eae48f0f3540c5177f3474c,62,1,2024-02-27T12:00:06.669Z,english_892.wav,0,pill,391,48,4,5,français,m,3,0.3,81.19740532,1.0840826
5eae48f0f3540c5177f3474c,62,1,2024-02-27T12:00:06.669Z,english_892.wav,0,pill,391,48,4,5,français,m,4,0.32341667,22.37782167,0.83637256
5eae48f0f3540c5177f3474c,63,1,2024-02-27T12:00:06.669Z,english_793.wav,0,pill,406,48,4,5,français,m,0,0.0,-3.59370976,0.95327953
5eae48f0f3540c5177f3474c,63,1,2024-02-27T12:00:06.669Z,english_793.wav,0,pill,406,48,4,5,français,m,1,0.1,-92.44382947,0.8890172
5eae48f0f3540c5177f3474c,63,1,2024-02-27T12:00:06.669Z,english_793.wav,0,pill,406,48,4,5,français,m,2,0.2,-89.84008222,0.47547445
5eae48f0f3540c5177f3474c,63,1,2024-02-27T12:00:06.669Z,english_793.wav,0,pill,406,48,4,5,français,m,3,0.3,96.09352514,1.09208031
5eae48f0f3540c5177f3474c,63,1,2024-02-27T12:00:06.669Z,english_793.wav,0,pill,406,48,4,5,français,m,4,0.32341667,42.94050617,0.63383093
5eae48f0f3540c5177f3474c,64,1,2024-02-27T12:00:06.669Z,english_913.wav,0,peel,409,48,4,5,français,m,0,0.0,27.9375346,0.72243167
5eae48f0f3540c5177f3474c,64,1,2024-02-27T12:00:06.669Z,english_913.wav,0,peel,409,48,4,5,français,m,1,0.1,41.67879689,1.59129257
5eae48f0f3540c5177f3474c,64,1,2024-02-27T12:00:06.669Z,english_913.wav,0,peel,409,48,4,5,français,m,2,0.2,-50.96955224,1.19382874
5eae48f0f3540c5177f3474c,64,1,2024-02-27T12:00:06.669Z,english_913.wav,0,peel,409,48,4,5,français,m,3,0.3,93.1868058,0.86840853
5eae48f0f3540c5177f3474c,64,1,2024-02-27T12:00:06.669Z,english_913.wav,0,peel,409,48,4,5,français,m,4,0.32341667,83.79752677,0.21021697
5eae48f0f3540c5177f3474c,65,1,2024-02-27T12:00:06.669Z,english_402.wav,0,peel,495,48,4,5,français,m,0,0.0,-69.75327375,0.88104294
5eae48f0f3540c5177f3474c,65,1,2024-02-27T12:00:06.669Z,english_402.wav,0,peel,495,48,4,5,français,m,1,0.1,-37.13247603,1.50830761
5eae48f0f3540c5177f3474c,65,1,2024-02-27T12:00:06.669Z,english_402.wav,0,peel,495,48,4,5,français,m,2,0.2,95.06865819,0.86613458
5eae48f0f3540c5177f3474c,65,1,2024-02-27T12:00:06.669Z,english_402.wav,0,peel,495,48,4,5,français,m,3,0.3,-83.65219271,1.46195184
5eae48f0f3540c5177f3474c,65,1,2024-02-27T12:00:06.669Z,english_402.wav,0,peel,495,48,4,5,français,m,4,0.32341667,-39.65623645,1.78030697
5eae48f0f3540c5177f3474c,66,1,2024-02-27T12:00:06.669Z,english_53.wav,0,pill,455,48,4,5,français,m,0,0.0,5.97237457,0.42230306
5eae48f0f3540c5177f3474c,66,1,2024-02-27T12:00:06.669Z,english_53.wav,0,pill,455,48,4,5,français,m,1,0.1,-76.12131912,0.60624646
5eae48f0f3540c5177f3474c,66,1,2024-02-27T12:00:06.669Z,english_53.wav,0,pill,455,48,4,5,français,m,2,0.2,55.18337216,0.26369256
5eae48f0f3540c5177f3474c,66,1,2024-02-27T12:00:06.669Z,english_53.wav,0,pill,455,48,4,5,français,m,3,0.3,70.32610425,1.07400525
5eae48f0f3540c5177f3474c,66,1,2024-02-27T12:00:06.669Z,english_53.wav,0,pill,455,48,4,5,français,m,4,0.32341667,26.40450832,0.2721545
5eae48f0f3540c5177f3474c,67,1,2024-02-27T12:00:06.669Z,english_705.wav,0,peel,351,48,4,5,français,m,0,0.0,3.76426423,0.9500377
5eae48f0f3540c5177f3474c,67,1,2024-02-27T12:00:06.669Z,english_705.wav,0,peel,351,48,4,5,français,m,1,0.1,90.96696755,0.74173997
5eae48f0f3540c5177f3474c,67,1,2024-02-27T12:00:06.669Z,english_705.wav,0,peel,351,48,4,5,français,m,2,0.2,-32.86898574,1.78776637
5eae48f0f3540c5177f3474c,67,1,2024-02-27T12:00:06.669Z,english_705.wav,0,peel,351,48,4,5,français,m,3,0.3,-21.12550784,0.8178788
5eae48f0f3540c5177f3474c,67,1,2024-02-27T12:00:06.669Z,english_705.wav,0,peel,351,48,4,5,français,m,4,0.32341667,39.74077299,1.54913024
5eae48f0f3540c5177f3474c,68,1,2024-02-27T12:00:06.669Z,english_362.wav,0,peel,301,48,4,5,français,m,0,0.0,12.71485551,1.44490364
5eae48f0f3540c5177f3474c,68,1,2024-02-27T12:00:06.669Z,english_362.wav,0,peel,301,48,4,5,français,m,1,0.1,-18.83660308,1.3029027
5eae48f0f3540c5177f3474c,68,1,2024-02-27T12:00:06.669Z,english_362.wav,0,peel,301,48,4,5,français,m,2,0.2,-52.07271323,1.10609828
5eae48f0f3540c5177f3474c,68,1,2024-02-27T12:00:06.669Z,english_362.wav,0,peel,301,48,4,5,français,m,3,0.3,-29.96931661,1.18379787
5eae48f0f3540c5177f3474c,68,1,2024-02-27T12:00:06.669Z,english_362.wav,0,peel,301,48,4,5,français,m,4,0.32341667,-9.99178163,1.80996789
5eae48f0f3540c5177f3474c,69,1,2024-02-27T12:00:06.669Z,english_173.wav,0,pill,431,48,4,5,français,m,0,0.0,11.1251521,0.60172576
5eae48f0f3540c5177f3474c,69,1,2024-02-27T12:00:06.669Z,english_173.wav,0,pill,431,48,4,5,français,m,1,0.1,94.22411188,0.44802145
5eae48f0f3540c5177f3474c,69,1,2024-02-27T12:00:06.669Z,english_173.wav,0,pill,431,48,4,5,français,m,2,0.2,89.44753043,1.27552997
5eae48f0f3540c5177f3474c,69,1,2024-02-27T12:00:06.669Z,english_173.wav,0,pill,431,48,4,5,français,m,3,0.3,74.30769895,1.09756939
5eae48f0f3540c5177f3474c,69,1,2024-02-27T12:00:06.669Z,english_173.wav,0,pill,431,48,4,5,français,m,4,0.32341667,-37.47679669,0.7907315
5eae48f0f3540c5177f3474c,70,1,2024-02-27T12:00:06.669Z,english_751.wav,0,peel,972,48,4,5,français,m,0,0.0,45.03630887,0.43450625
5eae48f0f3540c5177f3474c,70,1,2024-02-27T12:00:06.669Z,english_751.wav,0,peel,972,48,4,5,français,m,1,0.1,46.59103402,1.30072592
5eae48f0f3540c5177f3474c,70,1,2024-02-27T12:00:06.669Z,english_751.wav,0,peel,972,48,4,5,français,m,2,0.2,-30.90440374,1.20093797
5eae48f0f3540c5177f3474c,70,1,2024-02-27T12:00:06.669Z,english_751.wav,0,peel,972,48,4,5,français,m,3,0.3,-61.26470289,0.81911259
5eae48f0f3540c5177f3474c,70,1,2024-02-27T12:00:06.669Z,english_751.wav,0,peel,972,48,4,5,français,m,4,0.32341667,34.91384756,0.19140491
5eae48f0f3540c5177f3474c,71,1,2024-02-27T12:00:06.669Z,english_608.wav,0,peel,374,48,4,5,français,m,0,0.0,78.8022196,1.54390555
5eae48f0f3540c5177f3474c,71,1,2024-02-27T12:00:06.669Z,english_608.wav,0,peel,374,48,4,5,français,m,1,0.1,59.03316834,1.36513164
5eae48f0f3540c5177f3474c,71,1,2024-02-27T12:00:06.669Z,english_608.wav,0,peel,374,48,4,5,français,m,2,0.2,-13.94961152,0.78716897
5eae48f0f3540c5177f3474c,71,1,2024-02-27T12:00:06.669Z,english_608.wav,0,peel,374,48,4,5,français,m,3,0.3,55.83681575,1.29889886
5eae48f0f3540c5177f3474c,71,1,2024-02-27T12:00:06.669Z,english_608.wav,0,peel,374,48,4,5,français,m,4,0.32341667,-13.77656228,0.44376749
5eae48f0f3540c5177f3474c,72,1,2024-02-27T12:00:06.669Z,english_410.wav,0,pill,446,48,4,5,français,m,0,0.0,-74.64506245,0.42358098
5eae48f0f3540c5177f3474c,72,1,2024-02-27T12:00:06.669Z,english_410.wav,0,pill,446,48,4,5,français,m,1,0.1,65.24401488,0.42526697
5eae48f0f3540c5177f3474c,72,1,2024-02-27T12:00:06.669Z,english_410.wav,0,pill,446,48,4,5,français,m,2,0.2,-65.86471953,1.12385183
5eae48f0f3540c5177f3474c,72,1,2024-02-27T12:00:06.669Z,english_410.wav,0,pill,446,48,4,5,français,m,3,0.3,98.79489106,0.33588109
5eae48f0f3540c5177f3474c,72,1,2024-02-27T12:00:06.669Z,english_410.wav,0,pill,446,48,4,5,français,m,4,0.32341667,14.95451541,1.7246864
5eae48f0f3540c5177f3474c,73,1,2024-02-27T12:00:06.669Z,english_714.wav,0,peel,316,48,4,5,français,m,0,0.0,6.62463448,0.98205871
5eae48f0f3540c5177f3474c,73,1,2024-02-27T12:00:06.669Z,english_714.wav,0,peel,316,48,4,5,français,m,1,0.1,-7.37775178,1.90018259
5eae48f0f3540c5177f3474c,73,1,2024-02-27T12:00:06.669Z,english_714.wav,0,peel,316,48,4,5,français,m,2,0.2,-58.74003357,1.33033281
5eae48f0f3540c5177f3474c,73,1,2024-02-27T12:00:06.669Z,english_714.wav,0,peel,316,48,4,5,français,m,3,0.3,-38.84014254,0.20009115
5eae48f0f3540c5177f3474c,73,1,2024-02-27T12:00:06.669Z,english_714.wav,0,peel,316,48,4,5,français,m,4,0.32341667,-23.67047323,0.44650169
5eae48f0f3540c5177f3474c,74,1,2024-02-27T12:00:06.669Z,english_462.wav,0,peel,148,48,4,5,français,m,0,0.0,-35.73318704,1.53267708
5eae48f0f3540c5177f3474c,74,1,2024-02-27T12:00:06.669Z,english_462.wav,0,peel,148,48,4,5,français,m,1,0.1,-5.65949109,1.98369384
5eae48f0f3540c5177f3474c,74,1,2024-02-27T12:00:06.669Z,english_462.wav,0,peel,148,48,4,5,français,m,2,0.2,-49.47542688,1.31270994
5eae48f0f3540c5177f3474c,74,1,2024-02-27T12:00:06.669Z,english_462.wav,0,peel,148,48,4,5,français,m,3,0.3,-98.18570674,1.26289606
5eae48f0f3540c5177f3474c,74,1,2024-02-27T12:00:06.669Z,english_462.wav,0,peel,148,48,4,5,français,m,4,0.32341667,-16.34927785,1.36496903
5eae48f0f3540c5177f3474c,75,1,2024-02-27T12:00:06.669Z,english_685.wav,0,peel,666,48,4,5,français,m,0,0.0,91.61032892,0.4504418
5eae48f0f3540c5177f3474c,75,1,2024-02-27T12:00:06.669Z,english_685.wav,0,peel,666,48,4,5,français,m,1,0.1,39.6206555,1.04279806
5eae48f0f3540c5177f3474c,75,1,2024-02-27T12:00:06.669Z,english_685.wav,0,peel,666,48,4,5,français,m,2,0.2,-3.19880539,1.33634651
5eae48f0f3540c5177f3474c,75,1,2024-02-27T12:00:06.669Z,english_685.wav,0,peel,666,48,4,5,français,m,3,0.3,-72.84721689,1.25094987
5eae48f0f3540c5177f3474c,75,1,2024-02-27T12:00:06.669Z,english_685.wav,0,peel,666,48,4,5,français,m,4,0.32341667,98.11411302,0.37726169
5eae48f0f3540c5177f3474c,76,1,2024-02-27T12:00:06.669Z,english_768.wav,0,pill,424,48,4,5,français,m,0,0.0,-28.93145359,1.5002074
5eae48f0f3540c5177f3474c,76,1,2024-02-27T12:00:06.669Z,english_768.wav,0,pill,424,48,4,5,français,m,1,0.1,59.49166151,1.15432208
5eae48f0f3540c5177f3474c,76,1,2024-02-27T12:00:06.669Z,english_768.wav,0,pill,424,48,4,5,français,m,2,0.2,41.87955621,0.01731471
5eae48f0f3540c5177f3474c,76,1,2024-02-27T12:00:06.669Z,english_768.wav,0,pill,424,48,4,5,français,m,3,0.3,-92.17589111,0.98337229
5eae48f0f3540c5177f3474c,76,1,2024-02-27T12:00:06.669Z,english_768.wav,0,pill,424,48,4,5,français,m,4,0.32341667,15.2364545,0.4381055
5eae48f0f3540c5177f3474c,77,1,2024-02-27T12:00:06.669Z,english_376.wav,0,peel,295,48,4,5,français,m,0,0.0,-10.66231765,0.83936518
5eae48f0f3540c5177f3474c,77,1,2024-02-27T12:00:06.669Z,english_376.wav,0,peel,295,48,4,5,français,m,1,0.1,-53.95799634,1.7265478
5eae48f0f3540c5177f3474c,77,1,2024-02-27T12:00:06.669Z,english_376.wav,0,peel,295,48,4,5,français,m,2,0.2,-44.60014177,0.44309389
5eae48f0f3540c5177f3474c,77,1,2024-02-27T12:00:06.669Z,english_376.wav,0,peel,295,48,4,5,français,m,3,0.3,-84.32777745,1.91772458
5eae48f0f3540c5177f3474c,77,1,2024-02-27T12:00:06.669Z,english_376.wav,0,peel,295,48,4,5,français,m,4,0.32341667,-2.76179289,0.76255227
5eae48f0f3540c5177f3474c,78,1,2024-02-27T12:00:06.669Z,english_108.wav,0,pill,365,48,4,5,français,m,0,0.0,-20.69942707,0.77052949
5eae48f0f3540c5177f3474c,78,1,2024-02-27T12:00:06.669Z,english_108.wav,0,pill,365,48,4,5,français,m,1,0.1,-59.42152954,1.01445352
5eae48f0f3540c5177f3474c,78,1,2024-02-27T12:00:06.669Z,english_108.wav,0,pill,365,48,4,5,français,m,2,0.2,-8.09170222,0.42363715
5eae48f0f3540c5177f3474c,78,1,2024-02-27T12:00:06.669Z,english_108.wav,0,pill,365,48,4,5,français,m,3,0.3,21.99826779,1.45799831
5eae48f0f3540c5177f3474c,78,1,2024-02-27T12:00:06.669Z,english_108.wav,0,pill,365,48,4,5,français,m,4,0.32341667,56.38973361,1.71498507
5eae48f0f3540c5177f3474c,79,1,2024-02-27T12:00:06.669Z,english_909.wav,0,peel,642,48,4,5,français,m,0,0.0,-19.4205152,0.17681169
5eae48f0f3540c5177f3474c,79,1,2024-02-27T12:00:06.669Z,english_909.wav,0,peel,642,48,4,5,français,m,1,0.1,-31.830868,1.02014656
5eae48f0f3540c5177f3474c,79,1,2024-02-27T12:00:06.669Z,english_909.wav,0,peel,642,48,4,5,français,m,2,0.2,71.05598051,1.59945112
5eae48f0f3540c5177f3474c,79,1,2024-02-27T12:00:06.669Z,english_909.wav,0,peel,642,48,4,5,français,m,3,0.3,-13.09259164,1.33685121
5eae48f0f3540c5177f3474c,79,1,2024-02-27T12:00:06.669Z,english_909.wav,0,peel,642,48,4,5,français,m,4,0.32341667,-99.47743822,0.41114962
5eae48f0f3540c5177f3474c,80,1,2024-02-27T12:00:06.669Z,english_214.wav,0,peel,359,48,4,5,français,m,0,0.0,58.82847816,1.81864401
5eae48f0f3540c5177f3474c,80,1,2024-02-27T12:00:06.669Z,english_214.wav,0,peel,359,48,4,5,français,m,1,0.1,87.26801489,0.97241975
5eae48f0f3540c5177f3474c,80,1,2024-02-27T12:00:06.669Z,english_214.wav,0,peel,359,48,4,5,français,m,2,0.2,-28.10234025,1.91423566
5eae48f0f3540c5177f3474c,80,1,2024-02-27T12:00:06.669Z,english_214.wav,0,peel,359,48,4,5,français,m,3,0.3,-36.12188516,1.71940232
5eae48f0f3540c5177f3474c,80,1,2024-02-27T12:00:06.669Z,english_214.wav,0,peel,359,48,4,5,français,m,4,0.32341667,-45.93983978,0.68694042
5eae48f0f3540c5177f3474c,81,1,2024-02-27T12:00:06.669Z,english_898.wav,0,peel,337,48,4,5,français,m,0,0.0,77.23607787,0.41308158
5eae48f0f3540c5177f3474c,81,1,2024-02-27T12:00:06.669Z,english_898.wav,0,peel,337,48,4,5,français,m,1,0.1,-36.99854877,1.59324842
5eae48f0f3540c5177f3474c,81,1,2024-02-27T12:00:06.669Z,english_898.wav,0,peel,337,48,4,5,français,m,2,0.2,16.09723403,1.42339693
5eae48f0f3540c5177f3474c,81,1,2024-02-27T12:00:06.669Z,english_898.wav,0,peel,337,48,4,5,français,m,3,0.3,29.12208023,1.17478291
5eae48f0f3540c5177f3474c,81,1,2024-02-27T12:00:06.669Z,english_898.wav,0,peel,337,48,4,5,français,m,4,0.32341667,-69.45423228,1.88393163
5eae48f0f3540c5177f3474c,82,1,2024-02-27T12:00:06.669Z,english_1.wav,0,peel,1618,48,4,5,français,m,0,0.0,53.99031816,1.91732561
5eae48f0f3540c5177f3474c,82,1,2024-02-27T12:00:06.669Z,english_1.wav,0,peel,1618,48,4,5,français,m,1,0.1,-58.32145174,0.75352701
5eae48f0f3540c5177f3474c,82,1,2024-02-27T12:00:06.669Z,english_1.wav,0,peel,1618,48,4,5,français,m,2,0.2,-86.75659624,1.40297919
5eae48f0f3540c5177f3474c,82,1,2024-02-27T12:00:06.669Z,english_1.wav,0,peel,1618,48,4,5,français,m,3,0.3,-31.84945767,0.12157709
5eae48f0f3540c5177f3474c,82,1,2024-02-27T12:00:06.669Z,english_1.wav,0,peel,1618,48,4,5,français,m,4,0.32341667,-59.21997754,1.57687546
5eae48f0f3540c5177f3474c,83,1,2024-02-27T12:00:06.669Z,english_933.wav,0,peel,511,48,4,5,français,m,0,0.0,-48.12258855,1.54767366
5eae48f0f3540c5177f3474c,83,1,2024-02-27T12:00:06.669Z,english_933.wav,0,peel,511,48,4,5,français,m,1,0.1,27.26905516,0.30219473
5eae48f0f3540c5177f3474c,83,1,2024-02-27T12:00:06.669Z,english_933.wav,0,peel,511,48,4,5,français,m,2,0.2,0.35087756,1.50410475
5eae48f0f3540c5177f3474c,83,1,2024-02-27T12:00:06.669Z,english_933.wav,0,peel,511,48,4,5,français,m,3,0.3,94.96402149,1.44820406
5eae48f0f3540c5177f3474c,83,1,2024-02-27T12:00:06.669Z,english_933.wav,0,peel,511,48,4,5,français,m,4,0.32341667,61.52669097,0.05049928
5eae48f0f3540c5177f3474c,84,1,2024-02-27T12:00:06.669Z,english_610.wav,0,pill,348,48,4,5,français,m,0,0.0,-14.96432812,0.5672697
5eae48f0f3540c5177f3474c,84,1,2024-02-27T12:00:06.669Z,english_610.wav,0,pill,348,48,4,5,français,m,1,0.1,48.51886955,0.75156182
5eae48f0f3540c5177f3474c,84,1,2024-02-27T12:00:06.669Z,english_610.wav,0,pill,348,48,4,5,français,m,2,0.2,47.07358548,0.38846335
5eae48f0f3540c5177f3474c,84,1,2024-02-27T12:00:06.669Z,english_610.wav,0,pill,348,48,4,5,français,m,3,0.3,17.30383174,1.52072292
5eae48f0f3540c5177f3474c,84,1,2024-02-27T12:00:06.669Z,english_610.wav,0,pill,348,48,4,5,français,m,4,0.32341667,1.51764356,1.56024836
5eae48f0f3540c5177f3474c,85,1,2024-02-27T12:00:06.669Z,english_490.wav,0,peel,382,48,4,5,français,m,0,0.0,39.23640548,0.12600295
5eae48f0f3540c5177f3474c,85,1,2024-02-27T12:00:06.669Z,english_490.wav,0,peel,382,48,4,5,français,m,1,0.1,-42.18123516,0.88631808
5eae48f0f3540c5177f3474c,85,1,2024-02-27T12:00:06.669Z,english_490.wav,0,peel,382,48,4,5,français,m,2,0.2,53.94030347,1.76218548
5eae48f0f3540c5177f3474c,85,1,2024-02-27T12:00:06.669Z,english_490.wav,0,peel,382,48,4,5,français,m,3,0.3,-65.41993581,1.86160188
5eae48f0f3540c5177f3474c,85,1,2024-02-27T12:00:06.669Z,english_490.wav,0,peel,382,48,4,5,français,m,4,0.32341667,90.15742696,1.03493088
5eae48f0f3540c5177f3474c,86,1,2024-02-27T12:00:06.669Z,english_218.wav,0,peel,532,48,4,5,français,m,0,0.0,87.3373499,1.94084006
5eae48f0f3540c5177f3474c,86,1,2024-02-27T12:00:06.669Z,english_218.wav,0,peel,532,48,4,5,français,m,1,0.1,-14.87903436,0.13305972
5eae48f0f3540c5177f3474c,86,1,2024-02-27T12:00:06.669Z,english_218.wav,0,peel,532,48,4,5,français,m,2,0.2,-31.97943339,1.11441312
5eae48f0f3540c5177f3474c,86,1,2024-02-27T12:00:06.669Z,english_218.wav,0,peel,532,48,4,5,français,m,3,0.3,-60.49311609,1.83933377
5eae48f0f3540c5177f3474c,86,1,2024-02-27T12:00:06.669Z,english_218.wav,0,peel,532,48,4,5,français,m,4,0.32341667,-63.68242647,1.41053301
5eae48f0f3540c5177f3474c,87,1,2024-02-27T12:00:06.669Z,english_425.wav,0,pill,538,48,4,5,français,m,0,0.0,52.16022051,1.95369626
5eae48f0f3540c5177f3474c,87,1,2024-02-27T12:00:06.669Z,english_425.wav,0,pill,538,48,4,5,français,m,1,0.1,-4.0342476,0.01224448
5eae48f0f3540c5177f3474c,87,1,2024-02-27T12:00:06.669Z,english_425.wav,0,pill,538,48,4,5,français,m,2,0.2,71.82190917,1.45838463
5eae48f0f3540c5177f3474c,87,1,2024-02-27T12:00:06.669Z,english_425.wav,0,pill,538,48,4,5,français,m,3,0.3,77.8432037,1.1656734
5eae48f0f3540c5177f3474c,87,1,2024-02-27T12:00:06.669Z,english_425.wav,0,pill,538,48,4,5,français,m,4,0.32341667,29.14791909,1.54078916
5eae48f0f3540c5177f3474c,88,1,2024-02-27T12:00:06.669Z,english_936.wav,0,peel,352,48,4,5,français,m,0,0.0,48.39129511,0.54114143
5eae48f0f3540c5177f3474c,88,1,2024-02-27T12:00:06.669Z,english_936.wav,0,peel,352,48,4,5,français,m,1,0.1,-60.21618585,1.68728974
5eae48f0f3540c5177f3474c,88,1,2024-02-27T12:00:06.669Z,english_936.wav,0,peel,352,48,4,5,français,m,2,0.2,21.92845445,1.39155326
5eae48f0f3540c5177f3474c,88,1,2024-02-27T12:00:06.669Z,english_936.wav,0,peel,352,48,4,5,français,m,3,0.3,72.85258749,0.90488419
5eae48f0f3540c5177f3474c,88,1,2024-02-27T12:00:06.669Z,english_936.wav,0,peel,352,48,4,5,français,m,4,0.32341667,60.11152814,1.20326098
5eae48f0f3540c5177f3474c,89,1,2024-02-27T12:00:06.669Z,english_209.wav,0,peel,228,48,4,5,français,m,0,0.0,14.15361396,1.44232267
5eae48f0f3540c5177f3474c,89,1,2024-02-27T12:00:06.669Z,english_209.wav,0,peel,228,48,4,5,français,m,1,0.1,85.95109622,1.49291498
5eae48f0f3540c5177f3474c,89,1,2024-02-27T12:00:06.669Z,english_209.wav,0,peel,228,48,4,5,français,m,2,0.2,18.04804687,1.19611731
5eae48f0f3540c5177f3474c,89,1,2024-02-27T12:00:06.669Z,english_209.wav,0,peel,228,48,4,5,français,m,3,0.3,28.2522976,1.49647535
5eae48f0f3540c5177f3474c,89,1,2024-02-27T12:00:06.669Z,english_209.wav,0,peel,228,48,4,5,français,m,4,0.32341667,5.36776296,0.30324849
5eae48f0f3540c5177f3474c,90,1,2024-02-27T12:00:06.669Z,english_82.wav,0,peel,776,48,4,5,français,m,0,0.0,-21.02351082,0.76668052
5eae48f0f3540c5177f3474c,90,1,2024-02-27T12:00:06.669Z,english_82.wav,0,peel,776,48,4,5,français,m,1,0.1,1.53612588,0.94640395
5eae48f0f3540c5177f3474c,90,1,2024-02-27T12:00:06.669Z,english_82.wav,0,peel,776,48,4,5,français,m,2,0.2,82.9198569,1.02754902
5eae48f0f3540c5177f3474c,90,1,2024-02-27T12:00:06.669Z,english_82.wav,0,peel,776,48,4,5,français,m,3,0.3,67.34737065,1.57368428
5eae48f0f3540c5177f3474c,90,1,2024-02-27T12:00:06.669Z,english_82.wav,0,peel,776,48,4,5,français,m,4,0.32341667,-34.9418752,0.67195212
5eae48f0f3540c5177f3474c,91,1,2024-02-27T12:00:06.669Z,english_661.wav,0,peel,282,48,4,5,français,m,0,0.0,14.15805194,1.06290545
5eae48f0f3540c5177f3474c,91,1,2024-02-27T12:00:06.669Z,english_661.wav,0,peel,282,48,4,5,français,m,1,0.1,-77.97020538,1.12952287
5eae48f0f3540c5177f3474c,91,1,2024-02-27T12:00:06.669Z,english_661.wav,0,peel,282,48,4,5,français,m,2,0.2,-31.78835068,1.47556517
5eae48f0f3540c5177f3474c,91,1,2024-02-27T12:00:06.669Z,english_661.wav,0,peel,282,48,4,5,français,m,3,0.3,1.84085651,0.41137052
5eae48f0f3540c5177f3474c,91,1,2024-02-27T12:00:06.669Z,english_661.wav,0,peel,282,48,4,5,français,m,4,0.32341667,31.49677972,1.48872703
5eae48f0f3540c5177f3474c,92,1,2024-02-27T12:00:06.669Z,english_532.wav,0,pill,392,48,4,5,français,m,0,0.0,-19.59321792,1.69826346
5eae48f0f3540c5177f3474c,92,1,2024-02-27T12:00:06.669Z,english_532.wav,0,pill,392,48,4,5,français,m,1,0.1,84.44945775,1.19849103
5eae48f0f3540c5177f3474c,92,1,2024-02-27T12:00:06.669Z,english_532.wav,0,pill,392,48,4,5,français,m,2,0.2,-5.6477907,0.05164805
5eae48f0f3540c5177f3474c,92,1,2024-02-27T12:00:06.669Z,english_532.wav,0,pill,392,48,4,5,français,m,3,0.3,-66.11375502,0.74129516
5eae48f0f3540c5177f3474c,92,1,2024-02-27T12:00:06.669Z,english_532.wav,0,pill,392,48,4,5,français,m,4,0.32341667,-46.16722618,0.11393119
5eae48f0f3540c5177f3474c,93,1,2024-02-27T12:00:06.669Z,english_499.wav,0,peel,222,48,4,5,français,m,0,0.0,-62.75547094,0.4212983
5eae48f0f3540c5177f3474c,93,1,2024-02-27T12:00:06.669Z,english_499.wav,0,peel,222,48,4,5,français,m,1,0.1,28.73361796,1.54082224
5eae48f0f3540c5177f3474c,93,1,2024-02-27T12:00:06.669Z,english_499.wav,0,peel,222,48,4,5,français,m,2,0.2,-71.86053711,1.07919976
5eae48f0f3540c5177f3474c,93,1,2024-02-27T12:00:06.669Z,english_499.wav,0,peel,222,48,4,5,français,m,3,0.3,-44.40399931,1.20425095
5eae48f0f3540c5177f3474c,93,1,2024-02-27T12:00:06.669Z,english_499.wav,0,peel,222,48,4,5,français,m,4,0.32341667,-2.72335033,0.4618338
5eae48f0f3540c5177f3474c,94,1,2024-02-27T12:00:06.669Z,english_746.wav,0,peel,204,48,4,5,français,m,0,0.0,-1.32395796,1.72273729
5eae48f0f3540c5177f3474c,94,1,2024-02-27T12:00:06.669Z,english_746.wav,0,peel,204,48,4,5,français,m,1,0.1,-67.07117971,1.22961235
5eae48f0f3540c5177f3474c,94,1,2024-02-27T12:00:06.669Z,english_746.wav,0,peel,204,48,4,5,français,m,2,0.2,75.09604974,1.29107068
5eae48f0f3540c5177f3474c,94,1,2024-02-27T12:00:06.669Z,english_746.wav,0,peel,204,48,4,5,français,m,3,0.3,-48.59278454,1.34694816
5eae48f0f3540c5177f3474c,94,1,2024-02-27T12:00:06.669Z,english_746.wav,0,peel,204,48,4,5,français,m,4,0.32341667,-6.52080997,0.94274536
5eae48f0f3540c5177f3474c,95,1,2024-02-27T12:00:06.669Z,english_349.wav,0,peel,560,48,4,5,français,m,0,0.0,-10.00495534,0.36915768
5eae48f0f3540c5177f3474c,95,1,2024-02-27T12:00:06.669Z,english_349.wav,0,peel,560,48,4,5,français,m,1,0.1,54.31199814,0.83111041
5eae48f0f3540c5177f3474c,95,1,2024-02-27T12:00:06.669Z,english_349.wav,0,peel,560,48,4,5,français,m,2,0.2,48.17968705,1.70147194
5eae48f0f3540c5177f3474c,95,1,2024-02-27T12:00:06.669Z,english_349.wav,0,peel,560,48,4,5,français,m,3,0.3,8.48926652,1.08588898
5eae48f0f3540c5177f3474c,95,1,2024-02-27T12:00:06.669Z,english_349.wav,0,peel,560,48,4,5,français,m,4,0.32341667,42.05620052,0.02584958
5eae48f0f3540c5177f3474c,96,1,2024-02-27T12:00:06.669Z,english_277.wav,0,pill,1497,48,4,5,français,m,0,0.0,57.10742469,0.00973607
5eae48f0f3540c5177f3474c,96,1,2024-02-27T12:00:06.669Z,english_277.wav,0,pill,1497,48,4,5,français,m,1,0.1,-91.86277199,0.30409245
5eae48f0f3540c5177f3474c,96,1,2024-02-27T12:00:06.669Z,english_277.wav,0,pill,1497,48,4,5,français,m,2,0.2,15.18492706,1.04533503
5eae48f0f3540c5177f3474c,96,1,2024-02-27T12:00:06.669Z,english_277.wav,0,pill,1497,48,4,5,français,m,3,0.3,-70.52173838,1.32138987
5eae48f0f3540c5177f3474c,96,1,2024-02-27T12:00:06.669Z,english_277.wav,0,pill,1497,48,4,5,français,m,4,0.32341667,87.41438228,0.22027268
5eae48f0f3540c5177f3474c,97,1,2024-02-27T12:00:06.669Z,english_775.wav,0,peel,367,48,4,5,français,m,0,0.0,58.00753923,1.75560269
5eae48f0f3540c5177f3474c,97,1,2024-02-27T12:00:06.669Z,english_775.wav,0,peel,367,48,4,5,français,m,1,0.1,88.61433734,0.86519841
5eae48f0f3540c5177f3474c,97,1,2024-02-27T12:00:06.669Z,english_775.wav,0,peel,367,48,4,5,français,m,2,0.2,97.9031651,0.93867241
5eae48f0f3540c5177f3474c,97,1,2024-02-27T12:00:06.669Z,english_775.wav,0,peel,367,48,4,5,français,m,3,0.3,14.61974867,1.86901891
5eae48f0f3540c5177f3474c,97,1,2024-02-27T12:00:06.669Z,english_775.wav,0,peel,367,48,4,5,français,m,4,0.32341667,-5.44703254,0.0946911
5eae48f0f3540c5177f3474c,98,1,2024-02-27T12:00:06.669Z,english_59.wav,0,pill,1404,48,4,5,français,m,0,0.0,30.26604033,1.5973148
5eae48f0f3540c5177f3474c,98,1,2024-02-27T12:00:06.669Z,english_59.wav,0,pill,1404,48,4,5,français,m,1,0.1,25.69112756,0.24758472
5eae48f0f3540c5177f3474c,98,1,2024-02-27T12:00:06.669Z,english_59.wav,0,pill,1404,48,4,5,français,m,2,0.2,-24.85549033,0.1547886
5eae48f0f3540c5177f3474c,98,1,2024-02-27T12:00:06.669Z,english_59.wav,0,pill,1404,48,4,5,français,m,3,0.3,-31.2790444,0.30754036
5eae48f0f3540c5177f3474c,98,1,2024-02-27T12:00:06.669Z,english_59.wav,0,pill,1404,48,4,5,français,m,4,0.32341667,86.30355152,0.40312024
5eae48f0f3540c5177f3474c,99,1,2024-02-27T12:00:06.669Z,english_112.wav,0,peel,412,48,4,5,français,m,0,0.0,-98.7507832,1.62855774
5eae48f0f3540c5177f3474c,99,1,2024-02-27T12:00:06.669Z,english_112.wav,0,peel,412,48,4,5,français,m,1,0.1,-92.72198769,1.23374737
5eae48f0f3540c5177f3474c,99,1,2024-02-27T12:00:06.669Z,english_112.wav,0,peel,412,48,4,5,français,m,2,0.2,15.54821062,0.76022921
5eae48f0f3540c5177f3474c,99,1,2024-02-27T12:00:06.669Z,english_112.wav,0,peel,412,48,4,5,français,m,3,0.3,-40.54151432,0.49860071
5eae48f0f3540c5177f3474c,99,1,2024-02-27T12:00:06.669Z,english_112.wav,0,peel,412,48,4,5,français,m,4,0.32341667,-42.89167932,0.23801633
5eae48f0f3540c5177f3474c,100,2,2024-02-27T12:00:06.669Z,english_279.wav,0,peel,452,48,4,5,français,m,0,0.0,-20.90398108,0.60114424
5eae48f0f3540c5177f3474c,100,2,2024-02-27T12:00:06.669Z,english_279.wav,0,peel,452,48,4,5,français,m,1,0.1,98.83098338,0.92336304
5eae48f0f3540c5177f3474c,100,2,2024-02-27T12:00:06.669Z,english_279.wav,0,peel,452,48,4,5,français,m,2,0.2,-95.37608427,1.39045705
5eae48f0f3540c5177f3474c,100,2,2024-02-27T12:00:06.669Z,english_279.wav,0,peel,452,48,4,5,français,m,3,0.3,-52.65380993,0.64938935
5eae48f0f3540c5177f3474c,100,2,2024-02-27T12:00:06.669Z,english_279.wav,0,peel,452,48,4,5,français,m,4,0.32341667,47.72500112,1.57478054
5eae48f0f3540c5177f3474c,101,2,2024-02-27T12:00:06.669Z,english_54.wav,0,peel,261,48,4,5,français,m,0,0.0,1.86764875,1.47639799
5eae48f0f3540c5177f3474c,101,2,2024-02-27T12:00:06.669Z,english_54.wav,0,peel,261,48,4,5,français,m,1,0.1,-1.78672474,1.92944336
5eae48f0f3540c5177f3474c,101,2,2024-02-27T12:00:06.669Z,english_54.wav,0,peel,261,48,4,5,français,m,2,0.2,-26.58380414,0.76292987
5eae48f0f3540c5177f3474c,101,2,2024-02-27T12:00:06.669Z,english_54.wav,0,peel,261,48,4,5,français,m,3,0.3,-2.56688864,1.78735236
5eae48f0f3540c5177f3474c,101,2,2024-02-27T12:00:06.669Z,english_54.wav,0,peel,261,48,4,5,français,m,4,0.32341667,-76.29238916,0.80366269
5eae48f0f3540c5177f3474c,102,2,2024-02-27T12:00:06.669Z,english_595.wav,0,peel,212,48,4,5,français,m,0,0.0,-39.84727911,1.6526444
5eae48f0f3540c5177f3474c,102,2,2024-02-27T12:00:06.669Z,english_595.wav,0,peel,212,48,4,5,français,m,1,0.1,-68.85607622,1.11711065
5eae48f0f3540c5177f3474c,102,2,2024-02-27T12:00:06.669Z,english_595.wav,0,peel,212,48,4,5,français,m,2,0.2,23.68364187,1.96516016
5eae48f0f3540c5177f3474c,102,2,2024-02-27T12:00:06.669Z,english_595.wav,0,peel,212,48,4,5,français,m,3,0.3,-80.51887658,0.34053421
5eae48f0f3540c5177f3474c,102,2,2024-02-27T12:00:06.669Z,english_595.wav,0,peel,212,48,4,5,français,m,4,0.32341667,-94.66311932,1.22603371
5eae48f0f3540c5177f3474c,103,2,2024-02-27T12:00:06.669Z,english_123.wav,0,peel,326,48,4,5,français,m,0,0.0,67.91608163,1.13046919
5eae48f0f3540c5177f3474c,103,2,2024-02-27T12:00:06.669Z,english_123.wav,0,peel,326,48,4,5,français,m,1,0.1,-92.32097988,1.99597614
5eae48f0f3540c5177f3474c,103,2,2024-02-27T12:00:06.669Z,english_123.wav,0,peel,326,48,4,5,français,m,2,0.2,57.07371841,1.53523853
5eae48f0f3540c5177f3474c,103,2,2024-02-27T12:00:06.669Z,english_123.wav,0,peel,326,48,4,5,français,m,3,0.3,19.28317816,0.24385811
5eae48f0f3540c5177f3474c,103,2,2024-02-27T12:00:06.669Z,english_123.wav,0,peel,326,48,4,5,français,m,4,0.32341667,15.30546887,0.39158976
5eae48f0f3540c5177f3474c,104,2,2024-02-27T12:00:06.669Z,english_709.wav,0,peel,301,48,4,5,français,m,0,0.0,-57.85840644,1.64294201
5eae48f0f3540c5177f3474c,104,2,2024-02-27T12:00:06.669Z,english_709.wav,0,peel,301,48,4,5,français,m,1,0.1,-9.03046344,1.39808038
5eae48f0f3540c5177f3474c,104,2,2024-02-27T12:00:06.669Z,english_709.wav,0,peel,301,48,4,5,français,m,2,0.2,-83.08592789,1.46645034
5eae48f0f3540c5177f3474c,104,2,2024-02-27T12:00:06.669Z,english_709.wav,0,peel,301,48,4,5,français,m,3,0.3,-30.28779026,1.11724372
5eae48f0f3540c5177f3474c,104,2,2024-02-27T12:00:06.669Z,english_709.wav,0,peel,301,48,4,5,français,m,4,0.32341667,-42.69418167,0.30195694
5eae48f0f3540c5177f3474c,105,2,2024-02-27T12:00:06.669Z,english_656.wav,0,peel,510,48,4,5,français,m,0,0.0,-4.15957802,0.9962349
5eae48f0f3540c5177f3474c,105,2,2024-02-27T12:00:06.669Z,english_656.wav,0,peel,510,48,4,5,français,m,1,0.1,-31.70283109,1.16669679
5eae48f0f3540c5177f3474c,105,2,2024-02-27T12:00:06.669Z,english_656.wav,0,peel,510,48,4,5,français,m,2,0.2,-35.90055673,0.85512169
5eae48f0f3540c5177f3474c,105,2,2024-02-27T12:00:06.669Z,english_656.wav,0,peel,510,48,4,5,français,m,3,0.3,-27.39202404,1.68840921
5eae48f0f3540c5177f3474c,105,2,2024-02-27T12:00:06.669Z,english_656.wav,0,peel,510,48,4,5,français,m,4,0.32341667,-5.54715508,1.5699395
5eae48f0f3540c5177f3474c,106,2,2024-02-27T12:00:06.669Z,english_599.wav,0,peel,380,48,4,5,français,m,0,0.0,-57.09760884,1.03382432
5eae48f0f3540c5177f3474c,106,2,2024-02-27T12:00:06.669Z,english_599.wav,0,peel,380,48,4,5,français,m,1,0.1,31.85682387,1.26885403
5eae48f0f3540c5177f3474c,106,2,2024-02-27T12:00:06.669Z,english_599.wav,0,peel,380,48,4,5,français,m,2,0.2,-6.73425875,1.24717465
5eae48f0f3540c5177f3474c,106,2,2024-02-27T12:00:06.669Z,english_599.wav,0,peel,380,48,4,5,français,m,3,0.3,47.95830633,1.34338376
5eae48f0f3540c5177f3474c,106,2,2024-02-27T12:00:06.669Z,english_599.wav,0,peel,380,48,4,5,français,m,4,0.32341667,-83.8084816,0.34550335
5eae48f0f3540c5177f3474c,107,2,2024-02-27T12:00:06.669Z,english_136.wav,0,pill,802,48,4,5,français,m,0,0.0,12.04186247,0.70846626
5eae48f0f3540c5177f3474c,107,2,2024-02-27T12:00:06.669Z,english_136.wav,0,pill,802,48,4,5,français,m,1,0.1,-56.97950323,1.3229906
5eae48f0f3540c5177f3474c,107,2,2024-02-27T12:00:06.669Z,english_136.wav,0,pill,802,48,4,5,français,m,2,0.2,32.29793995,0.25119571
5eae48f0f3540c5177f3474c,107,2,2024-02-27T12:00:06.669Z,english_136.wav,0,pill,802,48,4,5,français,m,3,0.3,40.05814767,1.28510755
5eae48f0f3540c5177f3474c,107,2,2024-02-27T12:00:06.669Z,english_136.wav,0,pill,802,48,4,5,français,m,4,0.32341667,61.40693937,1.20697433
5eae48f0f3540c5177f3474c,108,2,2024-02-27T12:00:06.669Z,english_642.wav,0,pill,557,48,4,5,français,m,0,0.0,31.40946548,0.21393667
5eae48f0f3540c5177f3474c,108,2,2024-02-27T12:00:06.669Z,english_642.wav,0,pill,557,48,4,5,français,m,1,0.1,4.73018903,1.31302396
5eae48f0f3540c5177f3474c,108,2,2024-02-27T12:00:06.669Z,english_642.wav,0,pill,557,48,4,5,français,m,2,0.2,85.2390777,0.95537026
5eae48f0f3540c5177f3474c,108,2,2024-02-27T12:00:06.669Z,english_642.wav,0,pill,557,48,4,5,français,m,3,0.3,-59.81643451,1.00167733
5eae48f0f3540c5177f3474c,108,2,2024-02-27T12:00:06.669Z,english_642.wav,0,pill,557,48,4,5,français,m,4,0.32341667,-42.92691369,0.89750156
5eae48f0f3540c5177f3474c,109,2,2024-02-27T12:00:06.669Z,english_359.wav,0,pill,517,48,4,5,français,m,0,0.0,95.13315851,1.5844105
5eae48f0f3540c5177f3474c,109,2,2024-02-27T12:00:06.669Z,english_359.wav,0,pill,517,48,4,5,français,m,1,0.1,95.71495863,0.46491803
5eae48f0f3540c5177f3474c,109,2,2024-02-27T12:00:06.669Z,english_359.wav,0,pill,517,48,4,5,français,m,2,0.2,4.56295435,1.17107987
5eae48f0f3540c5177f3474c,109,2,2024-02-27T12:00:06.669Z,english_359.wav,0,pill,517,48,4,5,français,m,3,0.3,-11.93773809,0.63485582
5eae48f0f3540c5177f3474c,109,2,2024-02-27T12:00:06.669Z,english_359.wav,0,pill,517,48,4,5,français,m,4,0.32341667,-75.72789111,0.10666132
5eae48f0f3540c5177f3474c,110,2,2024-02-27T12:00:06.669Z,english_787.wav,0,pill,434,48,4,5,français,m,0,0.0,57.99353047,1.96251481
5eae48f0f3540c5177f3474c,110,2,2024-02-27T12:00:06.669Z,english_787.wav,0,pill,434,48,4,5,français,m,1,0.1,-40.79525362,0.94444479
5eae48f0f3540c5177f3474c,110,2,2024-02-27T12:00:06.669Z,english_787.wav,0,pill,434,48,4,5,français,m,2,0.2,23.78072576,0.924778
5eae48f0f3540c5177f3474c,110,2,2024-02-27T12:00:06.669Z,english_787.wav,0,pill,434,48,4,5,français,m,3,0.3,72.96982422,0.31383508
5eae48f0f3540c5177f3474c,110,2,2024-02-27T12:00:06.669Z,english_787.wav,0,pill,434,48,4,5,français,m,4,0.32341667,53.76957631,0.68947425
5eae48f0f3540c5177f3474c,111,2,2024-02-27T12:00:06.669Z,english_805.wav,0,peel,540,48,4,5,français,m,0,0.0,-11.97504695,0.06029378
5eae48f0f3540c5177f3474c,111,2,2024-02-27T12:00:06.669Z,english_805.wav,0,peel,540,48,4,5,français,m,1,0.1,96.82911573,0.81391401
5eae48f0f3540c5177f3474c,111,2,2024-02-27T12:00:06.669Z,english_805.wav,0,peel,540,48,4,5,français,m,2,0.2,7.51835152,1.33531055
5eae48f0f3540c5177f3474c,111,2,2024-02-27T12:00:06.669Z,english_805.wav,0,peel,540,48,4,5,français,m,3,0.3,2.47378187,1.7608484
5eae48f0f3540c5177f3474c,111,2,2024-02-27T12:00:06.669Z,english_805.wav,0,peel,540,48,4,5,français,m,4,0.32341667,-43.26336213,1.4289718
5eae48f0f3540c5177f3474c,112,2,2024-02-27T12:00:06.669Z,english_757.wav,0,peel,296,48,4,5,français,m,0,0.0,-71.37581006,0.57944866
5eae48f0f3540c5177f3474c,112,2,2024-02-27T12:00:06.669Z,english_757.wav,0,peel,296,48,4,5,français,m,1,0.1,-34.89028362,1.76833087
5eae48f0f3540c5177f3474c,112,2,2024-02-27T12:00:06.669Z,english_757.wav,0,peel,296,48,4,5,français,m,2,0.2,97.72444176,0.43040584
5eae48f0f3540c5177f3474c,112,2,2024-02-27T12:00:06.669Z,english_757.wav,0,peel,296,48,4,5,français,m,3,0.3,8.64322444,1.84780211
5eae48f0f3540c5177f3474c,112,2,2024-02-27T12:00:06.669Z,english_757.wav,0,peel,296,48,4,5,français,m,4,0.32341667,-59.15215987,0.21714226
5eae48f0f3540c5177f3474c,113,2,2024-02-27T12:00:06.669Z,english_27.wav,0,peel,291,48,4,5,français,m,0,0.0,-6.18374659,1.89085405
5eae48f0f3540c5177f3474c,113,2,2024-02-27T12:00:06.669Z,english_27.wav,0,peel,291,48,4,5,français,m,1,0.1,32.21095844,0.80138328
5eae48f0f3540c5177f3474c,113,2,2024-02-27T12:00:06.669Z,english_27.wav,0,peel,291,48,4,5,français,m,2,0.2,21.02729748,1.01248602
5eae48f0f3540c5177f3474c,113,2,2024-02-27T12:00:06.669Z,english_27.wav,0,peel,291,48,4,5,français,m,3,0.3,4.79829383,1.67412938
5eae48f0f3540c5177f3474c,113,2,2024-02-27T12:00:06.669Z,english_27.wav,0,peel,291,48,4,5,français,m,4,0.32341667,-70.7577659,0.3387802
5eae48f0f3540c5177f3474c,114,2,2024-02-27T12:00:06.669Z,english_469.wav,0,peel,189,48,4,5,français,m,0,0.0,-12.92877168,0.59007764
5eae48f0f3540c5177f3474c,114,2,2024-02-27T12:00:06.669Z,english_469.wav,0,peel,189,48,4,5,français,m,1,0.1,-67.35237443,1.36577084
5eae48f0f3540c5177f3474c,114,2,2024-02-27T12:00:06.669Z,english_469.wav,0,peel,189,48,4,5,français,m,2,0.2,-70.76493751,1.86337992
5eae48f0f3540c5177f3474c,114,2,2024-02-27T12:00:06.669Z,english_469.wav,0,peel,189,48,4,5,français,m,3,0.3,86.785725,1.85233296
5eae48f0f3540c5177f3474c,114,2,2024-02-27T12:00:06.669Z,english_469.wav,0,peel,189,48,4,5,français,m,4,0.32341667,-36.33255728,1.108986
5eae48f0f3540c5177f3474c,115,2,2024-02-27T12:00:06.669Z,english_896.wav,0,pill,439,48,4,5,français,m,0,0.0,-76.63716622,1.08893336
5eae48f0f3540c5177f3474c,115,2,2024-02-27T12:00:06.669Z,english_896.wav,0,pill,439,48,4,5,français,m,1,0.1,-73.11298951,0.41748987
5eae48f0f3540c5177f3474c,115,2,2024-02-27T12:00:06.669Z,english_896.wav,0,pill,439,48,4,5,français,m,2,0.2,48.53347054,0.32012442
5eae48f0f3540c5177f3474c,115,2,2024-02-27T12:00:06.669Z,english_896.wav,0,pill,439,48,4,5,français,m,3,0.3,-4.46661278,0.63387312
5eae48f0f3540c5177f3474c,115,2,2024-02-27T12:00:06.669Z,english_896.wav,0,pill,439,48,4,5,français,m,4,0.32341667,-44.69533701,1.27766005
5eae48f0f3540c5177f3474c,116,2,2024-02-27T12:00:06.669Z,english_245.wav,0,peel,161,48,4,5,français,m,0,0.0,74.89239003,1.30710747
5eae48f0f3540c5177f3474c,116,2,2024-02-27T12:00:06.669Z,english_245.wav,0,peel,161,48,4,5,français,m,1,0.1,41.98679172,0.93119149
5eae48f0f3540c5177f3474c,116,2,2024-02-27T12:00:06.669Z,english_245.wav,0,peel,161,48,4,5,français,m,2,0.2,99.42105985,1.84379828
5eae48f0f3540c5177f3474c,116,2,2024-02-27T12:00:06.669Z,english_245.wav,0,peel,161,48,4,5,français,m,3,0.3,-75.11958538,1.72828743
5eae48f0f3540c5177f3474c,116,2,2024-02-27T12:00:06.669Z,english_245.wav,0,peel,161,48,4,5,français,m,4,0.32341667,-62.10664415,0.50124118
5eae48f0f3540c5177f3474c,117,2,2024-02-27T12:00:06.669Z,english_696.wav,0,peel,313,48,4,5,français,m,0,0.0,-48.45243871,0.15817179
5eae48f0f3540c5177f3474c,117,2,2024-02-27T12:00:06.669Z,english_696.wav,0,peel,313,48,4,5,français,m,1,0.1,82.41340646,0.69939178
5eae48f0f3540c5177f3474c,117,2,2024-02-27T12:00:06.669Z,english_696.wav,0,peel,313,48,4,5,français,m,2,0.2,-7.53339347,1.28466279
5eae48f0f3540c5177f3474c,117,2,2024-02-27T12:00:06.669Z,english_696.wav,0,peel,313,48,4,5,français,m,3,0.3,-30.87957178,1.90686052
5eae48f0f3540c5177f3474c,117,2,2024-02-27T12:00:06.669Z,english_696.wav,0,peel,313,48,4,5,français,m,4,0.32341667,75.39947922,0.63235415
5eae48f0f3540c5177f3474c,118,2,2024-02-27T12:00:06.669Z,english_553.wav,0,peel,232,48,4,5,français,m,0,0.0,-18.85071283,1.30647824
5eae48f0f3540c5177f3474c,118,2,2024-02-27T12:00:06.669Z,english_553.wav,0,peel,232,48,4,5,français,m,1,0.1,56.72439372,1.55205535
5eae48f0f3540c5177f3474c,118,2,2024-02-27T12:00:06.669Z,english_553.wav,0,peel,232,48,4,5,français,m,2,0.2,-32.51510613,1.79127341
5eae48f0f3540c5177f3474c,118,2,2024-02-27T12:00:06.669Z,english_553.wav,0,peel,232,48,4,5,français,m,3,0.3,-81.56708954,0.1795284
5eae48f0f3540c5177f3474c,118,2,2024-02-27T12:00:06.669Z,english_553.wav,0,peel,232,48,4,5,français,m,4,0.32341667,42.80590219,0.48805839
5eae48f0f3540c5177f3474c,119,2,2024-02-27T12:00:06.669Z,english_734.wav,0,pill,961,48,4,5,français,m,0,0.0,23.12527103,1.15728247
5eae48f0f3540c5177f3474c,119,2,2024-02-27T12:00:06.669Z,english_734.wav,0,pill,961,48,4,5,français,m,1,0.1,70.97885261,1.10975856
5eae48f0f3540c5177f3474c,119,2,2024-02-27T12:00:06.669Z,english_734.wav,0,pill,961,48,4,5,français,m,2,0.2,-68.62860591,0.41126476
5eae48f0f3540c5177f3474c,119,2,2024-02-27T12:00:06.669Z,english_734.wav,0,pill,961,48,4,5,français,m,3,0.3,-14.81239301,1.45213782
5eae48f0f3540c5177f3474c,119,2,2024-02-27T12:00:06.669Z,english_734.wav,0,pill,961,48,4,5,français,m,4,0.32341667,-74.40513958,1.98917216
5eae48f0f3540c5177f3474c,120,2,2024-02-27T12:00:06.669Z,english_408.wav,0,pill,460,48,4,5,français,m,0,0.0,-0.16211679,1.52185603
5eae48f0f3540c5177f3474c,120,2,2024-02-27T12:00:06.669Z,english_408.wav,0,pill,460,48,4,5,français,m,1,0.1,16.68246491,0.27925492
5eae48f0f3540c5177f3474c,120,2,2024-02-27T12:00:06.669Z,english_408.wav,0,pill,460,48,4,5,français,m,2,0.2,-84.31504289,0.96179544
5eae48f0f3540c5177f3474c,120,2,2024-02-27T12:00:06.669Z,english_408.wav,0,pill,460,48,4,5,français,m,3,0.3,20.95362966,1.64669203
5eae48f0f3540c5177f3474c,120,2,2024-02-27T12:00:06.669Z,english_408.wav,0,pill,460,48,4,5,français,m,4,0.32341667,15.25079186,1.54793764
5eae48f0f3540c5177f3474c,121,2,2024-02-27T12:00:06.669Z,english_438.wav,0,pill,630,48,4,5,français,m,0,0.0,31.75305261,1.38451981
5eae48f0f3540c5177f3474c,121,2,2024-02-27T12:00:06.669Z,english_438.wav,0,pill,630,48,4,5,français,m,1,0.1,20.27112767,1.99020027
5eae48f0f3540c5177f3474c,121,2,2024-02-27T12:00:06.669Z,english_438.wav,0,pill,630,48,4,5,français,m,2,0.2,66.65258945,0.15645945
5eae48f0f3540c5177f3474c,121,2,2024-02-27T12:00:06.669Z,english_438.wav,0,pill,630,48,4,5,français,m,3,0.3,70.72003494,1.37678514
5eae48f0f3540c5177f3474c,121,2,2024-02-27T12:00:06.669Z,english_438.wav,0,pill,630,48,4,5,français,m,4,0.32341667,59.11013505,0.82730153
5eae48f0f3540c5177f3474c,122,2,2024-02-27T12:00:06.669Z,english_391.wav,0,pill,688,48,4,5,français,m,0,0.0,67.64906061,0.41951577
5eae48f0f3540c5177f3474c,122,2,2024-02-27T12:00:06.669Z,english_391.wav,0,pill,688,48,4,5,français,m,1,0.1,79.28195584,0.03526883
5eae48f0f3540c5177f3474c,122,2,2024-02-27T12:00:06.669Z,english_391.wav,0,pill,688,48,4,5,français,m,2,0.2,62.27299227,0.81828659
5eae48f0f3540c5177f3474c,122,2,2024-02-27T12:00:06.669Z,english_391.wav,0,pill,688,48,4,5,français,m,3,0.3,-11.10764883,1.2900604
5eae48f0f3540c5177f3474c,122,2,2024-02-27T12:00:06.669Z,english_391.wav,0,pill,688,48,4,5,français,m,4,0.32341667,57.41338752,1.95373865
5eae48f0f3540c5177f3474c,123,2,2024-02-27T12:00:06.669Z,english_489.wav,0,pill,624,48,4,5,français,m,0,0.0,5.7057461,0.60142671
5eae48f0f3540c5177f3474c,123,2,2024-02-27T12:00:06.669Z,english_489.wav,0,pill,624,48,4,5,français,m,1,0.1,-88.87009038,1.38499056
5eae48f0f3540c5177f3474c,123,2,2024-02-27T12:00:06.669Z,english_489.wav,0,pill,624,48,4,5,français,m,2,0.2,73.69789316,0.38073994
5eae48f0f3540c5177f3474c,123,2,2024-02-27T12:00:06.669Z,english_489.wav,0,pill,624,48,4,5,français,m,3,0.3,8.66804208,0.90212706
5eae48f0f3540c5177f3474c,123,2,2024-02-27T12:00:06.669Z,english_489.wav,0,pill,624,48,4,5,français,m,4,0.32341667,-19.53009002,1.00729778
5eae48f0f3540c5177f3474c,124,2,2024-02-27T12:00:06.669Z,english_836.wav,0,pill,646,48,4,5,français,m,0,0.0,34.85846782,1.04017402
5eae48f0f3540c5177f3474c,124,2,2024-02-27T12:00:06.669Z,english_836.wav,0,pill,646,48,4,5,français,m,1,0.1,41.54458908,0.35535359
5eae48f0f3540c5177f3474c,124,2,2024-02-27T12:00:06.669Z,english_836.wav,0,pill,646,48,4,5,français,m,2,0.2,23.27363575,0.10471693
5eae48f0f3540c5177f3474c,124,2,2024-02-27T12:00:06.669Z,english_836.wav,0,pill,646,48,4,5,français,m,3,0.3,86.83996211,0.55523491
5eae48f0f3540c5177f3474c,124,2,2024-02-27T12:00:06.669Z,english_836.wav,0,pill,646,48,4,5,français,m,4,0.32341667,-32.25656931,0.70311776
5eae48f0f3540c5177f3474c,125,2,2024-02-27T12:00:06.669Z,english_947.wav,0,peel,262,48,4,5,français,m,0,0.0,73.13113362,0.1925557
5eae48f0f3540c5177f3474c,125,2,2024-02-27T12:00:06.669Z,english_947.wav,0,peel,262,48,4,5,français,m,1,0.1,-55.13077299,1.89478059
5eae48f0f3540c5177f3474c,125,2,2024-02-27T12:00:06.669Z,english_947.wav,0,peel,262,48,4,5,français,m,2,0.2,59.32217849,0.99662771
5eae48f0f3540c5177f3474c,125,2,2024-02-27T12:00:06.669Z,english_947.wav,0,peel,262,48,4,5,français,m,3,0.3,-71.25946194,0.61263341
5eae48f0f3540c5177f3474c,125,2,2024-02-27T12:00:06.669Z,english_947.wav,0,peel,262,48,4,5,français,m,4,0.32341667,39.2274254,0.46373334
5eae48f0f3540c5177f3474c,126,2,2024-02-27T12:00:06.669Z,english_565.wav,0,peel,252,48,4,5,français,m,0,0.0,-89.95965492,1.93181176
5eae48f0f3540c5177f3474c,126,2,2024-02-27T12:00:06.669Z,english_565.wav,0,peel,252,48,4,5,français,m,1,0.1,67.55938023,1.29027557
5eae48f0f3540c5177f3474c,126,2,2024-02-27T12:00:06.669Z,english_565.wav,0,peel,252,48,4,5,français,m,2,0.2,26.6208604,0.36054668
5eae48f0f3540c5177f3474c,126,2,2024-02-27T12:00:06.669Z,english_565.wav,0,peel,252,48,4,5,français,m,3,0.3,-54.20230035,1.25973455
5eae48f0f3540c5177f3474c,126,2,2024-02-27T12:00:06.669Z,english_565.wav,0,peel,252,48,4,5,français,m,4,0.32341667,-98.16020256,0.92743077
5eae48f0f3540c5177f3474c,127,2,2024-02-27T12:00:06.669Z,english_312.wav,0,pill,420,48,4,5,français,m,0,0.0,44.01610098,1.36033213
5eae48f0f3540c5177f3474c,127,2,2024-02-27T12:00:06.669Z,english_312.wav,0,pill,420,48,4,5,français,m,1,0.1,-34.76139374,0.08557756
5eae48f0f3540c5177f3474c,127,2,2024-02-27T12:00:06.669Z,english_312.wav,0,pill,420,48,4,5,français,m,2,0.2,-43.47986862,1.06509633
5eae48f0f3540c5177f3474c,127,2,2024-02-27T12:00:06.669Z,english_312.wav,0,pill,420,48,4,5,français,m,3,0.3,-9.79517271,0.67257935
5eae48f0f3540c5177f3474c,127,2,2024-02-27T12:00:06.669Z,english_312.wav,0,pill,420,48,4,5,français,m,4,0.32341667,85.48914895,0.12614926
5eae48f0f3540c5177f3474c,128,2,2024-02-27T12:00:06.669Z,english_392.wav,0,pill,356,48,4,5,français,m,0,0.0,-12.90562814,1.13144201
5eae48f0f3540c5177f3474c,128,2,2024-02-27T12:00:06.669Z,english_392.wav,0,pill,356,48,4,5,français,m,1,0.1,-1.29416779,0.98893381
5eae48f0f3540c5177f3474c,128,2,2024-02-27T12:00:06.669Z,english_392.wav,0,pill,356,48,4,5,français,m,2,0.2,-53.34155903,0.07204825
5eae48f0f3540c5177f3474c,128,2,2024-02-27T12:00:06.669Z,english_392.wav,0,pill,356,48,4,5,français,m,3,0.3,-48.65153398,1.52779633
5eae48f0f3540c5177f3474c,128,2,2024-02-27T12:00:06.669Z,english_392.wav,0,pill,356,48,4,5,français,m,4,0.32341667,-43.47653164,1.32355089
5eae48f0f3540c5177f3474c,129,2,2024-02-27T12:00:06.669Z,english_760.wav,0,pill,774,48,4,5,français,m,0,0.0,24.3902693,0.67210823
5eae48f0f3540c5177f3474c,129,2,2024-02-27T12:00:06.669Z,english_760.wav,0,pill,774,48,4,5,français,m,1,0.1,-0.0247174936,1.89588113
5eae48f0f3540c5177f3474c,129,2,2024-02-27T12:00:06.669Z,english_760.wav,0,pill,774,48,4,5,français,m,2,0.2,82.8662613,0.23432987
5eae48f0f3540c5177f3474c,129,2,2024-02-27T12:00:06.669Z,english_760.wav,0,pill,774,48,4,5,français,m,3,0.3,-7.97314524,1.20797246
5eae48f0f3540c5177f3474c,129,2,2024-02-27T12:00:06.669Z,english_760.wav,0,pill,774,48,4,5,français,m,4,0.323416667,-6.32438983,1.72866971
5eae48f0f3540c5177f3474c,130,2,2024-02-27T12:00:06.669Z,english_510.wav,0,peel,554,48,4,5,français,m,0,0.0,-39.77235695,0.97080384
5eae48f0f3540c5177f3474c,130,2,2024-02-27T12:00:06.669Z,english_510.wav,0,peel,554,48,4,5,français,m,1,0.1,-55.9025784,0.1022914
5eae48f0f3540c5177f3474c,130,2,2024-02-27T12:00:06.669Z,english_510.wav,0,peel,554,48,4,5,français,m,2,0.2,42.12378864,1.56878682
5eae48f0f3540c5177f3474c,130,2,2024-02-27T12:00:06.669Z,english_510.wav,0,peel,554,48,4,5,français,m,3,0.3,-5.9333084,1.19302163
5eae48f0f3540c5177f3474c,130,2,2024-02-27T12:00:06.669Z,english_510.wav,0,peel,554,48,4,5,français,m,4,0.32341667,84.8199861,1.45606517
5eae48f0f3540c5177f3474c,131,2,2024-02-27T12:00:06.669Z,english_920.wav,0,peel,161,48,4,5,français,m,0,0.0,95.7501832,1.54313256
5eae48f0f3540c5177f3474c,131,2,2024-02-27T12:00:06.669Z,english_920.wav,0,peel,161,48,4,5,français,m,1,0.1,-3.19831823,1.33500472
5eae48f0f3540c5177f3474c,131,2,2024-02-27T12:00:06.669Z,english_920.wav,0,peel,161,48,4,5,français,m,2,0.2,-16.96134457,1.12819963
5eae48f0f3540c5177f3474c,131,2,2024-02-27T12:00:06.669Z,english_920.wav,0,peel,161,48,4,5,français,m,3,0.3,-28.81747413,1.72147256
5eae48f0f3540c5177f3474c,131,2,2024-02-27T12:00:06.669Z,english_920.wav,0,peel,161,48,4,5,français,m,4,0.32341667,42.63505928,0.57593815
5eae48f0f3540c5177f3474c,132,2,2024-02-27T12:00:06.669Z,english_877.wav,0,pill,551,48,4,5,français,m,0,0.0,49.36401037,1.25510861
5eae48f0f3540c5177f3474c,132,2,2024-02-27T12:00:06.669Z,english_877.wav,0,pill,551,48,4,5,français,m,1,0.1,15.17280231,0.84700305
5eae48f0f3540c5177f3474c,132,2,2024-02-27T12:00:06.669Z,english_877.wav,0,pill,551,48,4,5,français,m,2,0.2,22.36436744,0.32703774
5eae48f0f3540c5177f3474c,132,2,2024-02-27T12:00:06.669Z,english_877.wav,0,pill,551,48,4,5,français,m,3,0.3,-25.51979868,1.72637958
5eae48f0f3540c5177f3474c,132,2,2024-02-27T12:00:06.669Z,english_877.wav,0,pill,551,48,4,5,français,m,4,0.32341667,-55.72443313,0.52117686
5eae48f0f3540c5177f3474c,133,2,2024-02-27T12:00:06.669Z,english_249.wav,0,pill,473,48,4,5,français,m,0,0.0,78.40227579,1.91339694
5eae48f0f3540c5177f3474c,133,2,2024-02-27T12:00:06.669Z,english_249.wav,0,pill,473,48,4,5,français,m,1,0.1,-55.1129652,1.00834957
5eae48f0f3540c5177f3474c,133,2,2024-02-27T12:00:06.669Z,english_249.wav,0,pill,473,48,4,5,français,m,2,0.2,6.74447168,0.29418026
5eae48f0f3540c5177f3474c,133,2,2024-02-27T12:00:06.669Z,english_249.wav,0,pill,473,48,4,5,français,m,3,0.3,27.3376716,1.53256547
5eae48f0f3540c5177f3474c,133,2,2024-02-27T12:00:06.669Z,english_249.wav,0,pill,473,48,4,5,français,m,4,0.32341667,-97.08031886,0.99264532
5eae48f0f3540c5177f3474c,134,2,2024-02-27T12:00:06.669Z,english_45.wav,0,peel,198,48,4,5,français,m,0,0.0,72.55677234,0.302627
5eae48f0f3540c5177f3474c,134,2,2024-02-27T12:00:06.669Z,english_45.wav,0,peel,198,48,4,5,français,m,1,0.1,34.43244276,1.957389
5eae48f0f3540c5177f3474c,134,2,2024-02-27T12:00:06.669Z,english_45.wav,0,peel,198,48,4,5,français,m,2,0.2,12.66368291,1.1456601
5eae48f0f3540c5177f3474c,134,2,2024-02-27T12:00:06.669Z,english_45.wav,0,peel,198,48,4,5,français,m,3,0.3,47.17471186,1.77472104
5eae48f0f3540c5177f3474c,134,2,2024-02-27T12:00:06.669Z,english_45.wav,0,peel,198,48,4,5,français,m,4,0.32341667,-48.2883803,1.7760992
5eae48f0f3540c5177f3474c,135,2,2024-02-27T12:00:06.669Z,english_938.wav,0,pill,432,48,4,5,français,m,0,0.0,55.68553541,1.13527087
5eae48f0f3540c5177f3474c,135,2,2024-02-27T12:00:06.669Z,english_938.wav,0,pill,432,48,4,5,français,m,1,0.1,19.57508628,0.57526943
5eae48f0f3540c5177f3474c,135,2,2024-02-27T12:00:06.669Z,english_938.wav,0,pill,432,48,4,5,français,m,2,0.2,99.59707332,0.71873046
5eae48f0f3540c5177f3474c,135,2,2024-02-27T12:00:06.669Z,english_938.wav,0,pill,432,48,4,5,français,m,3,0.3,-43.3789335,0.88566698
5eae48f0f3540c5177f3474c,135,2,2024-02-27T12:00:06.669Z,english_938.wav,0,pill,432,48,4,5,français,m,4,0.32341667,90.00594125,0.39461425
5eae48f0f3540c5177f3474c,136,2,2024-02-27T12:00:06.669Z,english_728.wav,0,peel,197,48,4,5,français,m,0,0.0,-6.4565561,1.7247049
5eae48f0f3540c5177f3474c,136,2,2024-02-27T12:00:06.669Z,english_728.wav,0,peel,197,48,4,5,français,m,1,0.1,2.02882612,1.95158608
5eae48f0f3540c5177f3474c,136,2,2024-02-27T12:00:06.669Z,english_728.wav,0,peel,197,48,4,5,français,m,2,0.2,-40.29513079,0.21085377
5eae48f0f3540c5177f3474c,136,2,2024-02-27T12:00:06.669Z,english_728.wav,0,peel,197,48,4,5,français,m,3,0.3,-29.37287389,0.85434083
5eae48f0f3540c5177f3474c,136,2,2024-02-27T12:00:06.669Z,english_728.wav,0,peel,197,48,4,5,français,m,4,0.32341667,-32.17490136,1.52436666
5eae48f0f3540c5177f3474c,137,2,2024-02-27T12:00:06.669Z,english_821.wav,0,peel,177,48,4,5,français,m,0,0.0,-4.04234253,1.62928948
5eae48f0f3540c5177f3474c,137,2,2024-02-27T12:00:06.669Z,english_821.wav,0,peel,177,48,4,5,français,m,1,0.1,50.39518932,0.78033958
5eae48f0f3540c5177f3474c,137,2,2024-02-27T12:00:06.669Z,english_821.wav,0,peel,177,48,4,5,français,m,2,0.2,58.18996785,1.56476115
5eae48f0f3540c5177f3474c,137,2,2024-02-27T12:00:06.669Z,english_821.wav,0,peel,177,48,4,5,français,m,3,0.3,-22.07293427,0.56557752
5eae48f0f3540c5177f3474c,137,2,2024-02-27T12:00:06.669Z,english_821.wav,0,peel,177,48,4,5,français,m,4,0.32341667,56.43229939,0.93389964
5eae48f0f3540c5177f3474c,138,2,2024-02-27T12:00:06.669Z,english_485.wav,0,peel,256,48,4,5,français,m,0,0.0,-7.08941798,1.8206563
5eae48f0f3540c5177f3474c,138,2,2024-02-27T12:00:06.669Z,english_485.wav,0,peel,256,48,4,5,français,m,1,0.1,-70.64579204,0.10660577
5eae48f0f3540c5177f3474c,138,2,2024-02-27T12:00:06.669Z,english_485.wav,0,peel,256,48,4,5,français,m,2,0.2,23.79115045,1.92760945
5eae48f0f3540c5177f3474c,138,2,2024-02-27T12:00:06.669Z,english_485.wav,0,peel,256,48,4,5,français,m,3,0.3,0.80487994,0.77499174
5eae48f0f3540c5177f3474c,138,2,2024-02-27T12:00:06.669Z,english_485.wav,0,peel,256,48,4,5,français,m,4,0.32341667,4.72097057,1.20070888
5eae48f0f3540c5177f3474c,139,2,2024-02-27T12:00:06.669Z,english_155.wav,0,peel,183,48,4,5,français,m,0,0.0,53.87474094,1.93436975
5eae48f0f3540c5177f3474c,139,2,2024-02-27T12:00:06.669Z,english_155.wav,0,peel,183,48,4,5,français,m,1,0.1,74.81745726,0.64472983
5eae48f0f3540c5177f3474c,139,2,2024-02-27T12:00:06.669Z,english_155.wav,0,peel,183,48,4,5,français,m,2,0.2,8.25192738,1.6098708
5eae48f0f3540c5177f3474c,139,2,2024-02-27T12:00:06.669Z,english_155.wav,0,peel,183,48,4,5,français,m,3,0.3,-52.88121257,1.15705679
5eae48f0f3540c5177f3474c,139,2,2024-02-27T12:00:06.669Z,english_155.wav,0,peel,183,48,4,5,français,m,4,0.32341667,48.31209788,0.66500292
5eae48f0f3540c5177f3474c,140,2,2024-02-27T12:00:06.669Z,english_568.wav,0,pill,318,48,4,5,français,m,0,0.0,-80.38325009,1.52383372
5eae48f0f3540c5177f3474c,140,2,2024-02-27T12:00:06.669Z,english_568.wav,0,pill,318,48,4,5,français,m,1,0.1,65.28340143,0.37337456
5eae48f0f3540c5177f3474c,140,2,2024-02-27T12:00:06.669Z,english_568.wav,0,pill,318,48,4,5,français,m,2,0.2,22.57833022,0.67023469
5eae48f0f3540c5177f3474c,140,2,2024-02-27T12:00:06.669Z,english_568.wav,0,pill,318,48,4,5,français,m,3,0.3,-55.44872251,1.98652091
5eae48f0f3540c5177f3474c,140,2,2024-02-27T12:00:06.669Z,english_568.wav,0,pill,318,48,4,5,français,m,4,0.32341667,-94.3142815,1.15861726
5eae48f0f3540c5177f3474c,141,2,2024-02-27T12:00:06.669Z,english_373.wav,0,peel,134,48,4,5,français,m,0,0.0,-63.66458186,0.61104768
5eae48f0f3540c5177f3474c,141,2,2024-02-27T12:00:06.669Z,english_373.wav,0,peel,134,48,4,5,français,m,1,0.1,-61.42386056,1.64905001
5eae48f0f3540c5177f3474c,141,2,2024-02-27T12:00:06.669Z,english_373.wav,0,peel,134,48,4,5,français,m,2,0.2,-78.74831974,1.44355649
5eae48f0f3540c5177f3474c,141,2,2024-02-27T12:00:06.669Z,english_373.wav,0,peel,134,48,4,5,français,m,3,0.3,-23.23108213,1.63671726
5eae48f0f3540c5177f3474c,141,2,2024-02-27T12:00:06.669Z,english_373.wav,0,peel,134,48,4,5,français,m,4,0.32341667,-77.15694383,1.96911306
5eae48f0f3540c5177f3474c,142,2,2024-02-27T12:00:06.669Z,english_138.wav,0,pill,325,48,4,5,français,m,0,0.0,-79.80620147,0.37063564
5eae48f0f3540c5177f3474c,142,2,2024-02-27T12:00:06.669Z,english_138.wav,0,pill,325,48,4,5,français,m,1,0.1,-15.42889109,0.81801141
5eae48f0f3540c5177f3474c,142,2,2024-02-27T12:00:06.669Z,english_138.wav,0,pill,325,48,4,5,français,m,2,0.2,-88.31677226,0.0634538
5eae48f0f3540c5177f3474c,142,2,2024-02-27T12:00:06.669Z,english_138.wav,0,pill,325,48,4,5,français,m,3,0.3,26.6486106,1.85131452
5eae48f0f3540c5177f3474c,142,2,2024-02-27T12:00:06.669Z,english_138.wav,0,pill,325,48,4,5,français,m,4,0.32341667,-42.18894711,1.66059024
5eae48f0f3540c5177f3474c,143,2,2024-02-27T12:00:06.669Z,english_704.wav,0,peel,166,48,4,5,français,m,0,0.0,-24.48288207,0.92043902
5eae48f0f3540c5177f3474c,143,2,2024-02-27T12:00:06.669Z,english_704.wav,0,peel,166,48,4,5,français,m,1,0.1,-9.94163531,0.96595902
5eae48f0f3540c5177f3474c,143,2,2024-02-27T12:00:06.669Z,english_704.wav,0,peel,166,48,4,5,français,m,2,0.2,74.85271107,1.40327859
5eae48f0f3540c5177f3474c,143,2,2024-02-27T12:00:06.669Z,english_704.wav,0,peel,166,48,4,5,français,m,3,0.3,-38.44921803,1.07325586
5eae48f0f3540c5177f3474c,143,2,2024-02-27T12:00:06.669Z,english_704.wav,0,peel,166,48,4,5,français,m,4,0.32341667,-21.20994959,1.87555588
5eae48f0f3540c5177f3474c,144,2,2024-02-27T12:00:06.669Z,english_12.wav,0,pill,293,48,4,5,français,m,0,0.0,48.33680056,1.48429429
5eae48f0f3540c5177f3474c,144,2,2024-02-27T12:00:06.669Z,english_12.wav,0,pill,293,48,4,5,français,m,1,0.1,27.41870997,0.15715938
5eae48f0f3540c5177f3474c,144,2,2024-02-27T12:00:06.669Z,english_12.wav,0,pill,293,48,4,5,français,m,2,0.2,-39.95667364,0.62940339
5eae48f0f3540c5177f3474c,144,2,2024-02-27T12:00:06.669Z,english_12.wav,0,pill,293,48,4,5,français,m,3,0.3,73.52964836,0.05281398
5eae48f0f3540c5177f3474c,144,2,2024-02-27T12:00:06.669Z,english_12.wav,0,pill,293,48,4,5,français,m,4,0.32341667,-36.35494906,1.6412938
5eae48f0f3540c5177f3474c,145,2,2024-02-27T12:00:06.669Z,english_992.wav,0,pill,410,48,4,5,français,m,0,0.0,-6.68189934,0.46848529
5eae48f0f3540c5177f3474c,145,2,2024-02-27T12:00:06.669Z,english_992.wav,0,pill,410,48,4,5,français,m,1,0.1,78.76679047,0.9874556
5eae48f0f3540c5177f3474c,145,2,2024-02-27T12:00:06.669Z,english_992.wav,0,pill,410,48,4,5,français,m,2,0.2,-58.5917679,0.57881803
5eae48f0f3540c5177f3474c,145,2,2024-02-27T12:00:06.669Z,english_992.wav,0,pill,410,48,4,5,français,m,3,0.3,-98.64651588,0.88425299
5eae48f0f3540c5177f3474c,145,2,2024-02-27T12:00:06.669Z,english_992.wav,0,pill,410,48,4,5,français,m,4,0.32341667,73.76402904,0.6994588
5eae48f0f3540c5177f3474c,146,2,2024-02-27T12:00:06.669Z,english_703.wav,0,peel,536,48,4,5,français,m,0,0.0,21.25560127,1.22587136
5eae48f0f3540c5177f3474c,146,2,2024-02-27T12:00:06.669Z,english_703.wav,0,peel,536,48,4,5,français,m,1,0.1,-5.61566417,1.28752652
5eae48f0f3540c5177f3474c,146,2,2024-02-27T12:00:06.669Z,english_703.wav,0,peel,536,48,4,5,français,m,2,0.2,-88.15973778,1.61643937
5eae48f0f3540c5177f3474c,146,2,2024-02-27T12:00:06.669Z,english_703.wav,0,peel,536,48,4,5,français,m,3,0.3,39.86499493,1.32560109
5eae48f0f3540c5177f3474c,146,2,2024-02-27T12:00:06.669Z,english_703.wav,0,peel,536,48,4,5,français,m,4,0.32341667,64.67338156,0.74206522
5eae48f0f3540c5177f3474c,147,2,2024-02-27T12:00:06.669Z,english_328.wav,0,pill,318,48,4,5,français,m,0,0.0,-24.96515822,0.68772771
5eae48f0f3540c5177f3474c,147,2,2024-02-27T12:00:06.669Z,english_328.wav,0,pill,318,48,4,5,français,m,1,0.1,36.64267249,0.30369637
5eae48f0f3540c5177f3474c,147,2,2024-02-27T12:00:06.669Z,english_328.wav,0,pill,318,48,4,5,français,m,2,0.2,-93.60804347,1.16330199
5eae48f0f3540c5177f3474c,147,2,2024-02-27T12:00:06.669Z,english_328.wav,0,pill,318,48,4,5,français,m,3,0.3,9.86556644,0.69001341
5eae48f0f3540c5177f3474c,147,2,2024-02-27T12:00:06.669Z,english_328.wav,0,pill,318,48,4,5,français,m,4,0.32341667,-17.13685423,0.54642887
5eae48f0f3540c5177f3474c,148,2,2024-02-27T12:00:06.669Z,english_76.wav,0,peel,129,48,4,5,français,m,0,0.0,24.78743387,1.26829138
5eae48f0f3540c5177f3474c,148,2,2024-02-27T12:00:06.669Z,english_76.wav,0,peel,129,48,4,5,français,m,1,0.1,-7.95135802,1.4446717
5eae48f0f3540c5177f3474c,148,2,2024-02-27T12:00:06.669Z,english_76.wav,0,peel,129,48,4,5,français,m,2,0.2,-9.56689875,0.88177173
5eae48f0f3540c5177f3474c,148,2,2024-02-27T12:00:06.669Z,english_76.wav,0,peel,129,48,4,5,français,m,3,0.3,-78.25819759,1.63003096
5eae48f0f3540c5177f3474c,148,2,2024-02-27T12:00:06.669Z,english_76.wav,0,peel,129,48,4,5,français,m,4,0.32341667,26.4311908,1.97074408
5eae48f0f3540c5177f3474c,149,2,2024-02-27T12:00:06.669Z,english_58.wav,0,pill,262,48,4,5,français,m,0,0.0,20.12478601,1.19415515
5eae48f0f3540c5177f3474c,149,2,2024-02-27T12:00:06.669Z,english_58.wav,0,pill,262,48,4,5,français,m,1,0.1,-22.60038942,0.26098942
5eae48f0f3540c5177f3474c,149,2,2024-02-27T12:00:06.669Z,english_58.wav,0,pill,262,48,4,5,français,m,2,0.2,34.38627512,1.99195241
5eae48f0f3540c5177f3474c,149,2,2024-02-27T12:00:06.669Z,english_58.wav,0,pill,262,48,4,5,français,m,3,0.3,30.90369434,0.42925074
5eae48f0f3540c5177f3474c,149,2,2024-02-27T12:00:06.669Z,english_58.wav,0,pill,262,48,4,5,français,m,4,0.32341667,11.39971337,0.50368767
5eae48f0f3540c5177f3474c,150,3,2024-02-27T12:00:06.669Z,english_635.wav,0,pill,560,48,4,5,français,m,0,0.0,27.7169436,1.98702335
5eae48f0f3540c5177f3474c,150,3,2024-02-27T12:00:06.669Z,english_635.wav,0,pill,560,48,4,5,français,m,1,0.1,-44.8292656,1.27737447
5eae48f0f3540c5177f3474c,150,3,2024-02-27T12:00:06.669Z,english_635.wav,0,pill,560,48,4,5,français,m,2,0.2,67.97685769,0.57401651
5eae48f0f3540c5177f3474c,150,3,2024-02-27T12:00:06.669Z,english_635.wav,0,pill,560,48,4,5,français,m,3,0.3,82.0264667,0.46134276
5eae48f0f3540c5177f3474c,150,3,2024-02-27T12:00:06.669Z,english_635.wav,0,pill,560,48,4,5,français,m,4,0.32341667,84.34985253,0.71235155
5eae48f0f3540c5177f3474c,151,3,2024-02-27T12:00:06.669Z,english_215.wav,0,peel,382,48,4,5,français,m,0,0.0,-93.71362427,1.31176069
5eae48f0f3540c5177f3474c,151,3,2024-02-27T12:00:06.669Z,english_215.wav,0,peel,382,48,4,5,français,m,1,0.1,20.4696733,1.25536714
5eae48f0f3540c5177f3474c,151,3,2024-02-27T12:00:06.669Z,english_215.wav,0,peel,382,48,4,5,français,m,2,0.2,-66.57352715,1.5696385
5eae48f0f3540c5177f3474c,151,3,2024-02-27T12:00:06.669Z,english_215.wav,0,peel,382,48,4,5,français,m,3,0.3,-0.6079782,0.03144419
5eae48f0f3540c5177f3474c,151,3,2024-02-27T12:00:06.669Z,english_215.wav,0,peel,382,48,4,5,français,m,4,0.32341667,-5.73921948,0.79048669
5eae48f0f3540c5177f3474c,152,3,2024-02-27T12:00:06.669Z,english_149.wav,0,peel,164,48,4,5,français,m,0,0.0,84.22842235,1.59516341
5eae48f0f3540c5177f3474c,152,3,2024-02-27T12:00:06.669Z,english_149.wav,0,peel,164,48,4,5,français,m,1,0.1,-27.4405272,0.66089578
5eae48f0f3540c5177f3474c,152,3,2024-02-27T12:00:06.669Z,english_149.wav,0,peel,164,48,4,5,français,m,2,0.2,-61.08664731,1.85372623
