subj,trial,block,date,stim,stim_order,response,rt,age,english,french,language,sex,param_index,segment,pitch,stretch
5e29fd5f2bec3b065e9a729e,0,0,2024-02-27T12:17:40.975Z,english_517.wav,0,pill,2959,46,5,5,français,f,0,0.0,11.23661905,0.76208972
5e29fd5f2bec3b065e9a729e,0,0,2024-02-27T12:17:40.975Z,english_517.wav,0,pill,2959,46,5,5,français,f,1,0.1,58.81241605,0.18193562
5e29fd5f2bec3b065e9a729e,0,0,2024-02-27T12:17:40.975Z,english_517.wav,0,pill,2959,46,5,5,français,f,2,0.2,38.38790279,1.85963831
5e29fd5f2bec3b065e9a729e,0,0,2024-02-27T12:17:40.975Z,english_517.wav,0,pill,2959,46,5,5,français,f,3,0.3,-74.61462092,0.20223028
5e29fd5f2bec3b065e9a729e,0,0,2024-02-27T12:17:40.975Z,english_517.wav,0,pill,2959,46,5,5,français,f,4,0.32341667,-36.69086471,1.46287498
5e29fd5f2bec3b065e9a729e,1,0,2024-02-27T12:17:40.975Z,english_295.wav,0,pill,2958,46,5,5,français,f,0,0.0,-76.51454746,1.12273409
5e29fd5f2bec3b065e9a729e,1,0,2024-02-27T12:17:40.975Z,english_295.wav,0,pill,2958,46,5,5,français,f,1,0.1,-96.9380047,0.2018376
5e29fd5f2bec3b065e9a729e,1,0,2024-02-27T12:17:40.975Z,english_295.wav,0,pill,2958,46,5,5,français,f,2,0.2,-72.79782389,1.81703153
5e29fd5f2bec3b065e9a729e,1,0,2024-02-27T12:17:40.975Z,english_295.wav,0,pill,2958,46,5,5,français,f,3,0.3,-31.86888898,0.31799467
5e29fd5f2bec3b065e9a729e,1,0,2024-02-27T12:17:40.975Z,english_295.wav,0,pill,2958,46,5,5,français,f,4,0.32341667,-51.47839766,0.71777059
5e29fd5f2bec3b065e9a729e,2,0,2024-02-27T12:17:40.975Z,english_704.wav,0,pill,890,46,5,5,français,f,0,0.0,-24.48288207,0.92043902
5e29fd5f2bec3b065e9a729e,2,0,2024-02-27T12:17:40.975Z,english_704.wav,0,pill,890,46,5,5,français,f,1,0.1,-9.94163531,0.96595902
5e29fd5f2bec3b065e9a729e,2,0,2024-02-27T12:17:40.975Z,english_704.wav,0,pill,890,46,5,5,français,f,2,0.2,74.85271107,1.40327859
5e29fd5f2bec3b065e9a729e,2,0,2024-02-27T12:17:40.975Z,english_704.wav,0,pill,890,46,5,5,français,f,3,0.3,-38.44921803,1.07325586
5e29fd5f2bec3b065e9a729e,2,0,2024-02-27T12:17:40.975Z,english_704.wav,0,pill,890,46,5,5,français,f,4,0.32341667,-21.20994959,1.87555588
5e29fd5f2bec3b065e9a729e,3,0,2024-02-27T12:17:40.975Z,english_359.wav,0,pill,519,46,5,5,français,f,0,0.0,95.13315851,1.5844105
5e29fd5f2bec3b065e9a729e,3,0,2024-02-27T12:17:40.975Z,english_359.wav,0,pill,519,46,5,5,français,f,1,0.1,95.71495863,0.46491803
5e29fd5f2bec3b065e9a729e,3,0,2024-02-27T12:17:40.975Z,english_359.wav,0,pill,519,46,5,5,français,f,2,0.2,4.56295435,1.17107987
5e29fd5f2bec3b065e9a729e,3,0,2024-02-27T12:17:40.975Z,english_359.wav,0,pill,519,46,5,5,français,f,3,0.3,-11.93773809,0.63485582
5e29fd5f2bec3b065e9a729e,3,0,2024-02-27T12:17:40.975Z,english_359.wav,0,pill,519,46,5,5,français,f,4,0.32341667,-75.72789111,0.10666132
5e29fd5f2bec3b065e9a729e,4,0,2024-02-27T12:17:40.975Z,english_365.wav,0,pill,838,46,5,5,français,f,0,0.0,58.11205919,0.53708026
5e29fd5f2bec3b065e9a729e,4,0,2024-02-27T12:17:40.975Z,english_365.wav,0,pill,838,46,5,5,français,f,1,0.1,-61.04014877,1.10456153
5e29fd5f2bec3b065e9a729e,4,0,2024-02-27T12:17:40.975Z,english_365.wav,0,pill,838,46,5,5,français,f,2,0.2,12.43042802,1.31731937
5e29fd5f2bec3b065e9a729e,4,0,2024-02-27T12:17:40.975Z,english_365.wav,0,pill,838,46,5,5,français,f,3,0.3,17.00746388,1.02387946
5e29fd5f2bec3b065e9a729e,4,0,2024-02-27T12:17:40.975Z,english_365.wav,0,pill,838,46,5,5,français,f,4,0.32341667,-69.10644956,1.31633463
5e29fd5f2bec3b065e9a729e,5,0,2024-02-27T12:17:40.975Z,english_570.wav,0,pill,939,46,5,5,français,f,0,0.0,79.72420881,1.67561776
5e29fd5f2bec3b065e9a729e,5,0,2024-02-27T12:17:40.975Z,english_570.wav,0,pill,939,46,5,5,français,f,1,0.1,-10.34227762,1.50139893
5e29fd5f2bec3b065e9a729e,5,0,2024-02-27T12:17:40.975Z,english_570.wav,0,pill,939,46,5,5,français,f,2,0.2,18.32754659,1.41834695
5e29fd5f2bec3b065e9a729e,5,0,2024-02-27T12:17:40.975Z,english_570.wav,0,pill,939,46,5,5,français,f,3,0.3,15.23919529,1.12876239
5e29fd5f2bec3b065e9a729e,5,0,2024-02-27T12:17:40.975Z,english_570.wav,0,pill,939,46,5,5,français,f,4,0.32341667,-28.05357781,0.72546523
5e29fd5f2bec3b065e9a729e,6,0,2024-02-27T12:17:40.975Z,english_695.wav,0,pill,1403,46,5,5,français,f,0,0.0,-74.02191529,1.19534619
5e29fd5f2bec3b065e9a729e,6,0,2024-02-27T12:17:40.975Z,english_695.wav,0,pill,1403,46,5,5,français,f,1,0.1,54.28596986,0.93917139
5e29fd5f2bec3b065e9a729e,6,0,2024-02-27T12:17:40.975Z,english_695.wav,0,pill,1403,46,5,5,français,f,2,0.2,-13.22196683,0.1241488
5e29fd5f2bec3b065e9a729e,6,0,2024-02-27T12:17:40.975Z,english_695.wav,0,pill,1403,46,5,5,français,f,3,0.3,1.82272444,1.20091234
5e29fd5f2bec3b065e9a729e,6,0,2024-02-27T12:17:40.975Z,english_695.wav,0,pill,1403,46,5,5,français,f,4,0.32341667,-11.74905262,0.46222147
5e29fd5f2bec3b065e9a729e,7,0,2024-02-27T12:17:40.975Z,english_211.wav,0,pill,565,46,5,5,français,f,0,0.0,37.34807541,1.77380832
5e29fd5f2bec3b065e9a729e,7,0,2024-02-27T12:17:40.975Z,english_211.wav,0,pill,565,46,5,5,français,f,1,0.1,97.98979508,1.35747523
5e29fd5f2bec3b065e9a729e,7,0,2024-02-27T12:17:40.975Z,english_211.wav,0,pill,565,46,5,5,français,f,2,0.2,-20.02981109,1.74013371
5e29fd5f2bec3b065e9a729e,7,0,2024-02-27T12:17:40.975Z,english_211.wav,0,pill,565,46,5,5,français,f,3,0.3,-69.8116311,0.94808553
5e29fd5f2bec3b065e9a729e,7,0,2024-02-27T12:17:40.975Z,english_211.wav,0,pill,565,46,5,5,français,f,4,0.32341667,35.11126142,0.23094119
5e29fd5f2bec3b065e9a729e,8,0,2024-02-27T12:17:40.975Z,english_7.wav,0,pill,965,46,5,5,français,f,0,0.0,-21.06405819,1.08184232
5e29fd5f2bec3b065e9a729e,8,0,2024-02-27T12:17:40.975Z,english_7.wav,0,pill,965,46,5,5,français,f,1,0.1,52.71042782,0.36719269
5e29fd5f2bec3b065e9a729e,8,0,2024-02-27T12:17:40.975Z,english_7.wav,0,pill,965,46,5,5,français,f,2,0.2,-75.60464889,0.43185312
5e29fd5f2bec3b065e9a729e,8,0,2024-02-27T12:17:40.975Z,english_7.wav,0,pill,965,46,5,5,français,f,3,0.3,-40.56941306,0.01474265
5e29fd5f2bec3b065e9a729e,8,0,2024-02-27T12:17:40.975Z,english_7.wav,0,pill,965,46,5,5,français,f,4,0.32341667,63.70656894,0.90880476
5e29fd5f2bec3b065e9a729e,9,0,2024-02-27T12:17:40.975Z,english_397.wav,0,pill,640,46,5,5,français,f,0,0.0,89.67962381,0.42719638
5e29fd5f2bec3b065e9a729e,9,0,2024-02-27T12:17:40.975Z,english_397.wav,0,pill,640,46,5,5,français,f,1,0.1,-80.29722345,0.89466904
5e29fd5f2bec3b065e9a729e,9,0,2024-02-27T12:17:40.975Z,english_397.wav,0,pill,640,46,5,5,français,f,2,0.2,60.53564011,0.56174568
5e29fd5f2bec3b065e9a729e,9,0,2024-02-27T12:17:40.975Z,english_397.wav,0,pill,640,46,5,5,français,f,3,0.3,9.94565725,0.1553242
5e29fd5f2bec3b065e9a729e,9,0,2024-02-27T12:17:40.975Z,english_397.wav,0,pill,640,46,5,5,français,f,4,0.32341667,0.1319882,1.89079641
5e29fd5f2bec3b065e9a729e,10,0,2024-02-27T12:17:40.975Z,english_641.wav,0,pill,324,46,5,5,français,f,0,0.0,-90.88934322,1.28926835
5e29fd5f2bec3b065e9a729e,10,0,2024-02-27T12:17:40.975Z,english_641.wav,0,pill,324,46,5,5,français,f,1,0.1,13.36673253,0.02464493
5e29fd5f2bec3b065e9a729e,10,0,2024-02-27T12:17:40.975Z,english_641.wav,0,pill,324,46,5,5,français,f,2,0.2,-36.70414591,0.5505433
5e29fd5f2bec3b065e9a729e,10,0,2024-02-27T12:17:40.975Z,english_641.wav,0,pill,324,46,5,5,français,f,3,0.3,-4.62417375,0.52188675
5e29fd5f2bec3b065e9a729e,10,0,2024-02-27T12:17:40.975Z,english_641.wav,0,pill,324,46,5,5,français,f,4,0.32341667,15.34366305,0.01360039
5e29fd5f2bec3b065e9a729e,11,0,2024-02-27T12:17:40.975Z,english_223.wav,0,peel,804,46,5,5,français,f,0,0.0,-51.58222533,0.62889348
5e29fd5f2bec3b065e9a729e,11,0,2024-02-27T12:17:40.975Z,english_223.wav,0,peel,804,46,5,5,français,f,1,0.1,-36.02700064,1.73736573
5e29fd5f2bec3b065e9a729e,11,0,2024-02-27T12:17:40.975Z,english_223.wav,0,peel,804,46,5,5,français,f,2,0.2,-35.4915315,1.20130681
5e29fd5f2bec3b065e9a729e,11,0,2024-02-27T12:17:40.975Z,english_223.wav,0,peel,804,46,5,5,français,f,3,0.3,1.26892628,0.53176439
5e29fd5f2bec3b065e9a729e,11,0,2024-02-27T12:17:40.975Z,english_223.wav,0,peel,804,46,5,5,français,f,4,0.32341667,72.37143842,1.24562253
5e29fd5f2bec3b065e9a729e,12,0,2024-02-27T12:17:40.975Z,english_697.wav,0,pill,1505,46,5,5,français,f,0,0.0,34.8877197,0.10761674
5e29fd5f2bec3b065e9a729e,12,0,2024-02-27T12:17:40.975Z,english_697.wav,0,pill,1505,46,5,5,français,f,1,0.1,-0.0129750448,0.88035305
5e29fd5f2bec3b065e9a729e,12,0,2024-02-27T12:17:40.975Z,english_697.wav,0,pill,1505,46,5,5,français,f,2,0.2,48.8877829,0.12183403
5e29fd5f2bec3b065e9a729e,12,0,2024-02-27T12:17:40.975Z,english_697.wav,0,pill,1505,46,5,5,français,f,3,0.3,68.5745634,0.55306263
5e29fd5f2bec3b065e9a729e,12,0,2024-02-27T12:17:40.975Z,english_697.wav,0,pill,1505,46,5,5,français,f,4,0.323416667,18.9536775,1.83833688
5e29fd5f2bec3b065e9a729e,13,0,2024-02-27T12:17:40.975Z,english_969.wav,0,pill,1086,46,5,5,français,f,0,0.0,0.27440165,1.49550116
5e29fd5f2bec3b065e9a729e,13,0,2024-02-27T12:17:40.975Z,english_969.wav,0,pill,1086,46,5,5,français,f,1,0.1,32.90941676,1.08086357
5e29fd5f2bec3b065e9a729e,13,0,2024-02-27T12:17:40.975Z,english_969.wav,0,pill,1086,46,5,5,français,f,2,0.2,65.54691775,0.25687245
5e29fd5f2bec3b065e9a729e,13,0,2024-02-27T12:17:40.975Z,english_969.wav,0,pill,1086,46,5,5,français,f,3,0.3,38.11090315,0.33107225
5e29fd5f2bec3b065e9a729e,13,0,2024-02-27T12:17:40.975Z,english_969.wav,0,pill,1086,46,5,5,français,f,4,0.32341667,-66.49311905,0.72842933
5e29fd5f2bec3b065e9a729e,14,0,2024-02-27T12:17:40.975Z,english_526.wav,0,peel,2065,46,5,5,français,f,0,0.0,-32.34532461,0.924261
5e29fd5f2bec3b065e9a729e,14,0,2024-02-27T12:17:40.975Z,english_526.wav,0,peel,2065,46,5,5,français,f,1,0.1,-46.6208459,0.25414499
5e29fd5f2bec3b065e9a729e,14,0,2024-02-27T12:17:40.975Z,english_526.wav,0,peel,2065,46,5,5,français,f,2,0.2,-42.84927068,1.01925886
5e29fd5f2bec3b065e9a729e,14,0,2024-02-27T12:17:40.975Z,english_526.wav,0,peel,2065,46,5,5,français,f,3,0.3,3.47643827,0.65966822
5e29fd5f2bec3b065e9a729e,14,0,2024-02-27T12:17:40.975Z,english_526.wav,0,peel,2065,46,5,5,français,f,4,0.32341667,52.79087598,1.50872035
5e29fd5f2bec3b065e9a729e,15,0,2024-02-27T12:17:40.975Z,english_662.wav,0,pill,1504,46,5,5,français,f,0,0.0,-34.20942979,0.58122658
5e29fd5f2bec3b065e9a729e,15,0,2024-02-27T12:17:40.975Z,english_662.wav,0,pill,1504,46,5,5,français,f,1,0.1,-64.9220759,0.35407044
5e29fd5f2bec3b065e9a729e,15,0,2024-02-27T12:17:40.975Z,english_662.wav,0,pill,1504,46,5,5,français,f,2,0.2,-46.13526655,1.02300599
5e29fd5f2bec3b065e9a729e,15,0,2024-02-27T12:17:40.975Z,english_662.wav,0,pill,1504,46,5,5,français,f,3,0.3,16.61128262,0.09808433
5e29fd5f2bec3b065e9a729e,15,0,2024-02-27T12:17:40.975Z,english_662.wav,0,pill,1504,46,5,5,français,f,4,0.32341667,-72.42442326,0.71975239
5e29fd5f2bec3b065e9a729e,16,0,2024-02-27T12:17:40.975Z,english_657.wav,0,pill,1121,46,5,5,français,f,0,0.0,30.03208284,1.42095662
5e29fd5f2bec3b065e9a729e,16,0,2024-02-27T12:17:40.975Z,english_657.wav,0,pill,1121,46,5,5,français,f,1,0.1,-5.57127058,1.29790323
5e29fd5f2bec3b065e9a729e,16,0,2024-02-27T12:17:40.975Z,english_657.wav,0,pill,1121,46,5,5,français,f,2,0.2,9.55793083,0.51612643
5e29fd5f2bec3b065e9a729e,16,0,2024-02-27T12:17:40.975Z,english_657.wav,0,pill,1121,46,5,5,français,f,3,0.3,3.39766504,0.37671101
5e29fd5f2bec3b065e9a729e,16,0,2024-02-27T12:17:40.975Z,english_657.wav,0,pill,1121,46,5,5,français,f,4,0.32341667,84.38659916,1.20124021
5e29fd5f2bec3b065e9a729e,17,0,2024-02-27T12:17:40.975Z,english_881.wav,0,pill,970,46,5,5,français,f,0,0.0,7.28069095,1.60234882
5e29fd5f2bec3b065e9a729e,17,0,2024-02-27T12:17:40.975Z,english_881.wav,0,pill,970,46,5,5,français,f,1,0.1,-64.28928902,0.93497238
5e29fd5f2bec3b065e9a729e,17,0,2024-02-27T12:17:40.975Z,english_881.wav,0,pill,970,46,5,5,français,f,2,0.2,-2.07432692,0.58107235
5e29fd5f2bec3b065e9a729e,17,0,2024-02-27T12:17:40.975Z,english_881.wav,0,pill,970,46,5,5,français,f,3,0.3,51.5536886,1.34691236
5e29fd5f2bec3b065e9a729e,17,0,2024-02-27T12:17:40.975Z,english_881.wav,0,pill,970,46,5,5,français,f,4,0.32341667,65.74991707,0.85842561
5e29fd5f2bec3b065e9a729e,18,0,2024-02-27T12:17:40.975Z,english_115.wav,0,peel,865,46,5,5,français,f,0,0.0,-6.4126324,0.37361158
5e29fd5f2bec3b065e9a729e,18,0,2024-02-27T12:17:40.975Z,english_115.wav,0,peel,865,46,5,5,français,f,1,0.1,-78.70213007,1.5865766
5e29fd5f2bec3b065e9a729e,18,0,2024-02-27T12:17:40.975Z,english_115.wav,0,peel,865,46,5,5,français,f,2,0.2,-0.36204046,1.00360432
5e29fd5f2bec3b065e9a729e,18,0,2024-02-27T12:17:40.975Z,english_115.wav,0,peel,865,46,5,5,français,f,3,0.3,-47.97210547,1.3933449
5e29fd5f2bec3b065e9a729e,18,0,2024-02-27T12:17:40.975Z,english_115.wav,0,peel,865,46,5,5,français,f,4,0.32341667,3.06964689,1.1205092
5e29fd5f2bec3b065e9a729e,19,0,2024-02-27T12:17:40.975Z,english_588.wav,0,pill,1590,46,5,5,français,f,0,0.0,99.95047602,0.54608042
5e29fd5f2bec3b065e9a729e,19,0,2024-02-27T12:17:40.975Z,english_588.wav,0,pill,1590,46,5,5,français,f,1,0.1,6.8401109,0.86340392
5e29fd5f2bec3b065e9a729e,19,0,2024-02-27T12:17:40.975Z,english_588.wav,0,pill,1590,46,5,5,français,f,2,0.2,-15.9093749,0.01522231
5e29fd5f2bec3b065e9a729e,19,0,2024-02-27T12:17:40.975Z,english_588.wav,0,pill,1590,46,5,5,français,f,3,0.3,-95.80500507,0.86017392
5e29fd5f2bec3b065e9a729e,19,0,2024-02-27T12:17:40.975Z,english_588.wav,0,pill,1590,46,5,5,français,f,4,0.32341667,23.59255786,0.36914066
5e29fd5f2bec3b065e9a729e,20,0,2024-02-27T12:17:40.975Z,english_10.wav,0,pill,2180,46,5,5,français,f,0,0.0,-80.92247099,1.33142191
5e29fd5f2bec3b065e9a729e,20,0,2024-02-27T12:17:40.975Z,english_10.wav,0,pill,2180,46,5,5,français,f,1,0.1,11.56157957,0.6588087
5e29fd5f2bec3b065e9a729e,20,0,2024-02-27T12:17:40.975Z,english_10.wav,0,pill,2180,46,5,5,français,f,2,0.2,72.61501241,1.62851887
5e29fd5f2bec3b065e9a729e,20,0,2024-02-27T12:17:40.975Z,english_10.wav,0,pill,2180,46,5,5,français,f,3,0.3,91.01400741,1.4109269
5e29fd5f2bec3b065e9a729e,20,0,2024-02-27T12:17:40.975Z,english_10.wav,0,pill,2180,46,5,5,français,f,4,0.32341667,-64.58672822,0.76235223
5e29fd5f2bec3b065e9a729e,21,0,2024-02-27T12:17:40.975Z,english_642.wav,0,pill,3343,46,5,5,français,f,0,0.0,31.40946548,0.21393667
5e29fd5f2bec3b065e9a729e,21,0,2024-02-27T12:17:40.975Z,english_642.wav,0,pill,3343,46,5,5,français,f,1,0.1,4.73018903,1.31302396
5e29fd5f2bec3b065e9a729e,21,0,2024-02-27T12:17:40.975Z,english_642.wav,0,pill,3343,46,5,5,français,f,2,0.2,85.2390777,0.95537026
5e29fd5f2bec3b065e9a729e,21,0,2024-02-27T12:17:40.975Z,english_642.wav,0,pill,3343,46,5,5,français,f,3,0.3,-59.81643451,1.00167733
5e29fd5f2bec3b065e9a729e,21,0,2024-02-27T12:17:40.975Z,english_642.wav,0,pill,3343,46,5,5,français,f,4,0.32341667,-42.92691369,0.89750156
5e29fd5f2bec3b065e9a729e,22,0,2024-02-27T12:17:40.975Z,english_626.wav,0,pill,1325,46,5,5,français,f,0,0.0,4.25415757,0.7037323
5e29fd5f2bec3b065e9a729e,22,0,2024-02-27T12:17:40.975Z,english_626.wav,0,pill,1325,46,5,5,français,f,1,0.1,-41.27415217,1.26912647
5e29fd5f2bec3b065e9a729e,22,0,2024-02-27T12:17:40.975Z,english_626.wav,0,pill,1325,46,5,5,français,f,2,0.2,-74.74598363,0.17760594
5e29fd5f2bec3b065e9a729e,22,0,2024-02-27T12:17:40.975Z,english_626.wav,0,pill,1325,46,5,5,français,f,3,0.3,-15.94741517,1.12963497
5e29fd5f2bec3b065e9a729e,22,0,2024-02-27T12:17:40.975Z,english_626.wav,0,pill,1325,46,5,5,français,f,4,0.32341667,43.51897949,0.85087029
5e29fd5f2bec3b065e9a729e,23,0,2024-02-27T12:17:40.975Z,english_481.wav,0,peel,681,46,5,5,français,f,0,0.0,-1.07793215,1.34620279
5e29fd5f2bec3b065e9a729e,23,0,2024-02-27T12:17:40.975Z,english_481.wav,0,peel,681,46,5,5,français,f,1,0.1,72.11929458,0.4682023
5e29fd5f2bec3b065e9a729e,23,0,2024-02-27T12:17:40.975Z,english_481.wav,0,peel,681,46,5,5,français,f,2,0.2,-0.36002545,1.2575358
5e29fd5f2bec3b065e9a729e,23,0,2024-02-27T12:17:40.975Z,english_481.wav,0,peel,681,46,5,5,français,f,3,0.3,11.70252104,1.51306824
5e29fd5f2bec3b065e9a729e,23,0,2024-02-27T12:17:40.975Z,english_481.wav,0,peel,681,46,5,5,français,f,4,0.32341667,-16.16595736,1.86086011
5e29fd5f2bec3b065e9a729e,24,0,2024-02-27T12:17:40.975Z,english_117.wav,0,peel,4133,46,5,5,français,f,0,0.0,-98.72491255,1.42659946
5e29fd5f2bec3b065e9a729e,24,0,2024-02-27T12:17:40.975Z,english_117.wav,0,peel,4133,46,5,5,français,f,1,0.1,-15.15642563,1.64599539
5e29fd5f2bec3b065e9a729e,24,0,2024-02-27T12:17:40.975Z,english_117.wav,0,peel,4133,46,5,5,français,f,2,0.2,24.45806353,0.97767705
5e29fd5f2bec3b065e9a729e,24,0,2024-02-27T12:17:40.975Z,english_117.wav,0,peel,4133,46,5,5,français,f,3,0.3,-80.67224668,0.37962884
5e29fd5f2bec3b065e9a729e,24,0,2024-02-27T12:17:40.975Z,english_117.wav,0,peel,4133,46,5,5,français,f,4,0.32341667,-97.50349755,0.74274723
5e29fd5f2bec3b065e9a729e,25,0,2024-02-27T12:17:40.975Z,english_549.wav,0,pill,2915,46,5,5,français,f,0,0.0,80.71270499,0.69011393
5e29fd5f2bec3b065e9a729e,25,0,2024-02-27T12:17:40.975Z,english_549.wav,0,pill,2915,46,5,5,français,f,1,0.1,-71.31396277,1.1141308
5e29fd5f2bec3b065e9a729e,25,0,2024-02-27T12:17:40.975Z,english_549.wav,0,pill,2915,46,5,5,français,f,2,0.2,48.34518996,0.72072674
5e29fd5f2bec3b065e9a729e,25,0,2024-02-27T12:17:40.975Z,english_549.wav,0,pill,2915,46,5,5,français,f,3,0.3,-66.07502609,0.60045359
5e29fd5f2bec3b065e9a729e,25,0,2024-02-27T12:17:40.975Z,english_549.wav,0,pill,2915,46,5,5,français,f,4,0.32341667,-52.28087662,0.77200176
5e29fd5f2bec3b065e9a729e,26,0,2024-02-27T12:17:40.975Z,english_534.wav,0,peel,2134,46,5,5,français,f,0,0.0,-42.4271338,1.1267565
5e29fd5f2bec3b065e9a729e,26,0,2024-02-27T12:17:40.975Z,english_534.wav,0,peel,2134,46,5,5,français,f,1,0.1,-80.6424644,0.6842577
5e29fd5f2bec3b065e9a729e,26,0,2024-02-27T12:17:40.975Z,english_534.wav,0,peel,2134,46,5,5,français,f,2,0.2,59.29592388,0.01459656
5e29fd5f2bec3b065e9a729e,26,0,2024-02-27T12:17:40.975Z,english_534.wav,0,peel,2134,46,5,5,français,f,3,0.3,75.02007223,1.03701198
5e29fd5f2bec3b065e9a729e,26,0,2024-02-27T12:17:40.975Z,english_534.wav,0,peel,2134,46,5,5,français,f,4,0.32341667,-57.55026449,1.25840342
5e29fd5f2bec3b065e9a729e,27,0,2024-02-27T12:17:40.975Z,english_100.wav,0,peel,2668,46,5,5,français,f,0,0.0,-66.86198445,0.79522553
5e29fd5f2bec3b065e9a729e,27,0,2024-02-27T12:17:40.975Z,english_100.wav,0,peel,2668,46,5,5,français,f,1,0.1,32.23990363,0.27784591
5e29fd5f2bec3b065e9a729e,27,0,2024-02-27T12:17:40.975Z,english_100.wav,0,peel,2668,46,5,5,français,f,2,0.2,-63.31896149,1.76330212
5e29fd5f2bec3b065e9a729e,27,0,2024-02-27T12:17:40.975Z,english_100.wav,0,peel,2668,46,5,5,français,f,3,0.3,-73.00038049,0.60946618
5e29fd5f2bec3b065e9a729e,27,0,2024-02-27T12:17:40.975Z,english_100.wav,0,peel,2668,46,5,5,français,f,4,0.32341667,32.15710315,0.42695433
5e29fd5f2bec3b065e9a729e,28,0,2024-02-27T12:17:40.975Z,english_635.wav,0,peel,1555,46,5,5,français,f,0,0.0,27.7169436,1.98702335
5e29fd5f2bec3b065e9a729e,28,0,2024-02-27T12:17:40.975Z,english_635.wav,0,peel,1555,46,5,5,français,f,1,0.1,-44.8292656,1.27737447
5e29fd5f2bec3b065e9a729e,28,0,2024-02-27T12:17:40.975Z,english_635.wav,0,peel,1555,46,5,5,français,f,2,0.2,67.97685769,0.57401651
5e29fd5f2bec3b065e9a729e,28,0,2024-02-27T12:17:40.975Z,english_635.wav,0,peel,1555,46,5,5,français,f,3,0.3,82.0264667,0.46134276
5e29fd5f2bec3b065e9a729e,28,0,2024-02-27T12:17:40.975Z,english_635.wav,0,peel,1555,46,5,5,français,f,4,0.32341667,84.34985253,0.71235155
5e29fd5f2bec3b065e9a729e,29,0,2024-02-27T12:17:40.975Z,english_187.wav,0,peel,1188,46,5,5,français,f,0,0.0,-18.35695568,0.61755768
5e29fd5f2bec3b065e9a729e,29,0,2024-02-27T12:17:40.975Z,english_187.wav,0,peel,1188,46,5,5,français,f,1,0.1,10.21632188,1.6626445
5e29fd5f2bec3b065e9a729e,29,0,2024-02-27T12:17:40.975Z,english_187.wav,0,peel,1188,46,5,5,français,f,2,0.2,0.69047377,0.70950015
5e29fd5f2bec3b065e9a729e,29,0,2024-02-27T12:17:40.975Z,english_187.wav,0,peel,1188,46,5,5,français,f,3,0.3,67.68385624,0.8856252
5e29fd5f2bec3b065e9a729e,29,0,2024-02-27T12:17:40.975Z,english_187.wav,0,peel,1188,46,5,5,français,f,4,0.32341667,48.15291114,1.92627472
5e29fd5f2bec3b065e9a729e,30,0,2024-02-27T12:17:40.975Z,english_543.wav,0,peel,778,46,5,5,français,f,0,0.0,13.74009622,0.63900578
5e29fd5f2bec3b065e9a729e,30,0,2024-02-27T12:17:40.975Z,english_543.wav,0,peel,778,46,5,5,français,f,1,0.1,51.80972721,1.6206981
5e29fd5f2bec3b065e9a729e,30,0,2024-02-27T12:17:40.975Z,english_543.wav,0,peel,778,46,5,5,français,f,2,0.2,86.3964352,0.03304675
5e29fd5f2bec3b065e9a729e,30,0,2024-02-27T12:17:40.975Z,english_543.wav,0,peel,778,46,5,5,français,f,3,0.3,-66.39783761,1.7049324
5e29fd5f2bec3b065e9a729e,30,0,2024-02-27T12:17:40.975Z,english_543.wav,0,peel,778,46,5,5,français,f,4,0.32341667,31.11863834,1.46507556
5e29fd5f2bec3b065e9a729e,31,0,2024-02-27T12:17:40.975Z,english_562.wav,0,peel,782,46,5,5,français,f,0,0.0,-40.22672309,0.64031882
5e29fd5f2bec3b065e9a729e,31,0,2024-02-27T12:17:40.975Z,english_562.wav,0,peel,782,46,5,5,français,f,1,0.1,77.961849,0.7637006
5e29fd5f2bec3b065e9a729e,31,0,2024-02-27T12:17:40.975Z,english_562.wav,0,peel,782,46,5,5,français,f,2,0.2,25.52463525,0.87632482
5e29fd5f2bec3b065e9a729e,31,0,2024-02-27T12:17:40.975Z,english_562.wav,0,peel,782,46,5,5,français,f,3,0.3,84.62788358,0.98972612
5e29fd5f2bec3b065e9a729e,31,0,2024-02-27T12:17:40.975Z,english_562.wav,0,peel,782,46,5,5,français,f,4,0.32341667,-53.67427145,0.74010285
5e29fd5f2bec3b065e9a729e,32,0,2024-02-27T12:17:40.975Z,english_823.wav,0,peel,1243,46,5,5,français,f,0,0.0,24.6891334,1.19409205
5e29fd5f2bec3b065e9a729e,32,0,2024-02-27T12:17:40.975Z,english_823.wav,0,peel,1243,46,5,5,français,f,1,0.1,86.03794788,0.72053846
5e29fd5f2bec3b065e9a729e,32,0,2024-02-27T12:17:40.975Z,english_823.wav,0,peel,1243,46,5,5,français,f,2,0.2,45.97308045,0.2138623
5e29fd5f2bec3b065e9a729e,32,0,2024-02-27T12:17:40.975Z,english_823.wav,0,peel,1243,46,5,5,français,f,3,0.3,39.11596791,1.56743943
5e29fd5f2bec3b065e9a729e,32,0,2024-02-27T12:17:40.975Z,english_823.wav,0,peel,1243,46,5,5,français,f,4,0.32341667,10.29734006,1.24065623
5e29fd5f2bec3b065e9a729e,33,0,2024-02-27T12:17:40.975Z,english_351.wav,0,peel,778,46,5,5,français,f,0,0.0,-56.55455818,0.98366365
5e29fd5f2bec3b065e9a729e,33,0,2024-02-27T12:17:40.975Z,english_351.wav,0,peel,778,46,5,5,français,f,1,0.1,-81.1333892,1.13800808
5e29fd5f2bec3b065e9a729e,33,0,2024-02-27T12:17:40.975Z,english_351.wav,0,peel,778,46,5,5,français,f,2,0.2,70.95296343,1.04915948
5e29fd5f2bec3b065e9a729e,33,0,2024-02-27T12:17:40.975Z,english_351.wav,0,peel,778,46,5,5,français,f,3,0.3,-82.79021433,1.70890302
5e29fd5f2bec3b065e9a729e,33,0,2024-02-27T12:17:40.975Z,english_351.wav,0,peel,778,46,5,5,français,f,4,0.32341667,-21.34496407,1.83807055
5e29fd5f2bec3b065e9a729e,34,0,2024-02-27T12:17:40.975Z,english_624.wav,0,peel,803,46,5,5,français,f,0,0.0,-66.94889137,0.79130031
5e29fd5f2bec3b065e9a729e,34,0,2024-02-27T12:17:40.975Z,english_624.wav,0,peel,803,46,5,5,français,f,1,0.1,-6.87427926,1.85178888
5e29fd5f2bec3b065e9a729e,34,0,2024-02-27T12:17:40.975Z,english_624.wav,0,peel,803,46,5,5,français,f,2,0.2,69.52298075,0.79988954
5e29fd5f2bec3b065e9a729e,34,0,2024-02-27T12:17:40.975Z,english_624.wav,0,peel,803,46,5,5,français,f,3,0.3,-45.26015132,0.87521033
5e29fd5f2bec3b065e9a729e,34,0,2024-02-27T12:17:40.975Z,english_624.wav,0,peel,803,46,5,5,français,f,4,0.32341667,-50.37935108,1.50754026
5e29fd5f2bec3b065e9a729e,35,0,2024-02-27T12:17:40.975Z,english_33.wav,0,peel,757,46,5,5,français,f,0,0.0,13.53683954,1.37746345
5e29fd5f2bec3b065e9a729e,35,0,2024-02-27T12:17:40.975Z,english_33.wav,0,peel,757,46,5,5,français,f,1,0.1,-23.61599557,1.14776292
5e29fd5f2bec3b065e9a729e,35,0,2024-02-27T12:17:40.975Z,english_33.wav,0,peel,757,46,5,5,français,f,2,0.2,60.58241295,1.15899553
5e29fd5f2bec3b065e9a729e,35,0,2024-02-27T12:17:40.975Z,english_33.wav,0,peel,757,46,5,5,français,f,3,0.3,-2.03686091,0.64766031
5e29fd5f2bec3b065e9a729e,35,0,2024-02-27T12:17:40.975Z,english_33.wav,0,peel,757,46,5,5,français,f,4,0.32341667,79.90239576,1.69768968
5e29fd5f2bec3b065e9a729e,36,0,2024-02-27T12:17:40.975Z,english_909.wav,0,peel,538,46,5,5,français,f,0,0.0,-19.4205152,0.17681169
5e29fd5f2bec3b065e9a729e,36,0,2024-02-27T12:17:40.975Z,english_909.wav,0,peel,538,46,5,5,français,f,1,0.1,-31.830868,1.02014656
5e29fd5f2bec3b065e9a729e,36,0,2024-02-27T12:17:40.975Z,english_909.wav,0,peel,538,46,5,5,français,f,2,0.2,71.05598051,1.59945112
5e29fd5f2bec3b065e9a729e,36,0,2024-02-27T12:17:40.975Z,english_909.wav,0,peel,538,46,5,5,français,f,3,0.3,-13.09259164,1.33685121
5e29fd5f2bec3b065e9a729e,36,0,2024-02-27T12:17:40.975Z,english_909.wav,0,peel,538,46,5,5,français,f,4,0.32341667,-99.47743822,0.41114962
5e29fd5f2bec3b065e9a729e,37,0,2024-02-27T12:17:40.975Z,english_232.wav,0,peel,2268,46,5,5,français,f,0,0.0,15.13134779,0.53160298
5e29fd5f2bec3b065e9a729e,37,0,2024-02-27T12:17:40.975Z,english_232.wav,0,peel,2268,46,5,5,français,f,1,0.1,-49.29605083,0.4519978
5e29fd5f2bec3b065e9a729e,37,0,2024-02-27T12:17:40.975Z,english_232.wav,0,peel,2268,46,5,5,français,f,2,0.2,59.10606455,0.39260156
5e29fd5f2bec3b065e9a729e,37,0,2024-02-27T12:17:40.975Z,english_232.wav,0,peel,2268,46,5,5,français,f,3,0.3,48.81708847,0.4692084
5e29fd5f2bec3b065e9a729e,37,0,2024-02-27T12:17:40.975Z,english_232.wav,0,peel,2268,46,5,5,français,f,4,0.32341667,14.83590121,0.46233459
5e29fd5f2bec3b065e9a729e,38,0,2024-02-27T12:17:40.975Z,english_663.wav,0,peel,639,46,5,5,français,f,0,0.0,55.84438863,1.29444713
5e29fd5f2bec3b065e9a729e,38,0,2024-02-27T12:17:40.975Z,english_663.wav,0,peel,639,46,5,5,français,f,1,0.1,-89.02249371,0.90215198
5e29fd5f2bec3b065e9a729e,38,0,2024-02-27T12:17:40.975Z,english_663.wav,0,peel,639,46,5,5,français,f,2,0.2,-13.61345685,1.61104603
5e29fd5f2bec3b065e9a729e,38,0,2024-02-27T12:17:40.975Z,english_663.wav,0,peel,639,46,5,5,français,f,3,0.3,14.50375693,0.31375715
5e29fd5f2bec3b065e9a729e,38,0,2024-02-27T12:17:40.975Z,english_663.wav,0,peel,639,46,5,5,français,f,4,0.32341667,80.63633164,1.01784406
5e29fd5f2bec3b065e9a729e,39,0,2024-02-27T12:17:40.975Z,english_531.wav,0,peel,792,46,5,5,français,f,0,0.0,-79.40575395,0.23141906
5e29fd5f2bec3b065e9a729e,39,0,2024-02-27T12:17:40.975Z,english_531.wav,0,peel,792,46,5,5,français,f,1,0.1,24.69139357,1.34739197
5e29fd5f2bec3b065e9a729e,39,0,2024-02-27T12:17:40.975Z,english_531.wav,0,peel,792,46,5,5,français,f,2,0.2,31.85465478,0.44473315
5e29fd5f2bec3b065e9a729e,39,0,2024-02-27T12:17:40.975Z,english_531.wav,0,peel,792,46,5,5,français,f,3,0.3,0.37788074,1.31624907
5e29fd5f2bec3b065e9a729e,39,0,2024-02-27T12:17:40.975Z,english_531.wav,0,peel,792,46,5,5,français,f,4,0.32341667,-42.85922685,0.82105614
5e29fd5f2bec3b065e9a729e,40,0,2024-02-27T12:17:40.975Z,english_652.wav,0,peel,3140,46,5,5,français,f,0,0.0,4.27736911,0.30427218
5e29fd5f2bec3b065e9a729e,40,0,2024-02-27T12:17:40.975Z,english_652.wav,0,peel,3140,46,5,5,français,f,1,0.1,18.79087972,0.67520162
5e29fd5f2bec3b065e9a729e,40,0,2024-02-27T12:17:40.975Z,english_652.wav,0,peel,3140,46,5,5,français,f,2,0.2,61.32163128,0.66270689
5e29fd5f2bec3b065e9a729e,40,0,2024-02-27T12:17:40.975Z,english_652.wav,0,peel,3140,46,5,5,français,f,3,0.3,45.76092148,0.93987847
5e29fd5f2bec3b065e9a729e,40,0,2024-02-27T12:17:40.975Z,english_652.wav,0,peel,3140,46,5,5,français,f,4,0.32341667,-45.08671386,1.10617978
5e29fd5f2bec3b065e9a729e,41,0,2024-02-27T12:17:40.975Z,english_52.wav,0,peel,514,46,5,5,français,f,0,0.0,54.63859099,0.91426261
5e29fd5f2bec3b065e9a729e,41,0,2024-02-27T12:17:40.975Z,english_52.wav,0,peel,514,46,5,5,français,f,1,0.1,-85.67195477,1.20728413
5e29fd5f2bec3b065e9a729e,41,0,2024-02-27T12:17:40.975Z,english_52.wav,0,peel,514,46,5,5,français,f,2,0.2,2.4878885,0.71733995
5e29fd5f2bec3b065e9a729e,41,0,2024-02-27T12:17:40.975Z,english_52.wav,0,peel,514,46,5,5,français,f,3,0.3,86.13143505,1.54149443
5e29fd5f2bec3b065e9a729e,41,0,2024-02-27T12:17:40.975Z,english_52.wav,0,peel,514,46,5,5,français,f,4,0.32341667,-53.30399902,1.3376245
5e29fd5f2bec3b065e9a729e,42,0,2024-02-27T12:17:40.975Z,english_297.wav,0,pill,900,46,5,5,français,f,0,0.0,43.84745313,1.28698197
5e29fd5f2bec3b065e9a729e,42,0,2024-02-27T12:17:40.975Z,english_297.wav,0,pill,900,46,5,5,français,f,1,0.1,-76.77337823,0.55126404
5e29fd5f2bec3b065e9a729e,42,0,2024-02-27T12:17:40.975Z,english_297.wav,0,pill,900,46,5,5,français,f,2,0.2,52.72097055,0.14077967
5e29fd5f2bec3b065e9a729e,42,0,2024-02-27T12:17:40.975Z,english_297.wav,0,pill,900,46,5,5,français,f,3,0.3,-53.36684977,1.29889067
5e29fd5f2bec3b065e9a729e,42,0,2024-02-27T12:17:40.975Z,english_297.wav,0,pill,900,46,5,5,français,f,4,0.32341667,81.15212258,1.30715655
5e29fd5f2bec3b065e9a729e,43,0,2024-02-27T12:17:40.975Z,english_508.wav,0,pill,1110,46,5,5,français,f,0,0.0,-21.23116318,1.79614382
5e29fd5f2bec3b065e9a729e,43,0,2024-02-27T12:17:40.975Z,english_508.wav,0,pill,1110,46,5,5,français,f,1,0.1,-27.56583205,0.60449395
5e29fd5f2bec3b065e9a729e,43,0,2024-02-27T12:17:40.975Z,english_508.wav,0,pill,1110,46,5,5,français,f,2,0.2,64.21774851,0.56582153
5e29fd5f2bec3b065e9a729e,43,0,2024-02-27T12:17:40.975Z,english_508.wav,0,pill,1110,46,5,5,français,f,3,0.3,-9.24056951,1.01665474
5e29fd5f2bec3b065e9a729e,43,0,2024-02-27T12:17:40.975Z,english_508.wav,0,pill,1110,46,5,5,français,f,4,0.32341667,-9.74670904,0.78905044
5e29fd5f2bec3b065e9a729e,44,0,2024-02-27T12:17:40.975Z,english_189.wav,0,peel,2031,46,5,5,français,f,0,0.0,-22.70456848,0.82906961
5e29fd5f2bec3b065e9a729e,44,0,2024-02-27T12:17:40.975Z,english_189.wav,0,peel,2031,46,5,5,français,f,1,0.1,-12.00888723,0.58408113
5e29fd5f2bec3b065e9a729e,44,0,2024-02-27T12:17:40.975Z,english_189.wav,0,peel,2031,46,5,5,français,f,2,0.2,15.14046376,0.19058783
5e29fd5f2bec3b065e9a729e,44,0,2024-02-27T12:17:40.975Z,english_189.wav,0,peel,2031,46,5,5,français,f,3,0.3,-19.30106293,0.57788611
5e29fd5f2bec3b065e9a729e,44,0,2024-02-27T12:17:40.975Z,english_189.wav,0,peel,2031,46,5,5,français,f,4,0.32341667,-20.57313834,0.32577637
5e29fd5f2bec3b065e9a729e,45,0,2024-02-27T12:17:40.975Z,english_172.wav,0,peel,594,46,5,5,français,f,0,0.0,8.59493981,0.93080222
5e29fd5f2bec3b065e9a729e,45,0,2024-02-27T12:17:40.975Z,english_172.wav,0,peel,594,46,5,5,français,f,1,0.1,-56.34346079,0.53387901
5e29fd5f2bec3b065e9a729e,45,0,2024-02-27T12:17:40.975Z,english_172.wav,0,peel,594,46,5,5,français,f,2,0.2,-95.76423912,0.34406097
5e29fd5f2bec3b065e9a729e,45,0,2024-02-27T12:17:40.975Z,english_172.wav,0,peel,594,46,5,5,français,f,3,0.3,11.69646411,0.74935371
5e29fd5f2bec3b065e9a729e,45,0,2024-02-27T12:17:40.975Z,english_172.wav,0,peel,594,46,5,5,français,f,4,0.32341667,-55.10661496,0.42041327
5e29fd5f2bec3b065e9a729e,46,0,2024-02-27T12:17:40.975Z,english_615.wav,0,peel,1287,46,5,5,français,f,0,0.0,76.05955912,1.68553334
5e29fd5f2bec3b065e9a729e,46,0,2024-02-27T12:17:40.975Z,english_615.wav,0,peel,1287,46,5,5,français,f,1,0.1,54.62950786,1.5058876
5e29fd5f2bec3b065e9a729e,46,0,2024-02-27T12:17:40.975Z,english_615.wav,0,peel,1287,46,5,5,français,f,2,0.2,-31.02204933,1.66676809
5e29fd5f2bec3b065e9a729e,46,0,2024-02-27T12:17:40.975Z,english_615.wav,0,peel,1287,46,5,5,français,f,3,0.3,-3.27946314,1.09840801
5e29fd5f2bec3b065e9a729e,46,0,2024-02-27T12:17:40.975Z,english_615.wav,0,peel,1287,46,5,5,français,f,4,0.32341667,51.350795,0.25314986
5e29fd5f2bec3b065e9a729e,47,0,2024-02-27T12:17:40.975Z,english_73.wav,0,peel,531,46,5,5,français,f,0,0.0,-73.49165063,1.41947215
5e29fd5f2bec3b065e9a729e,47,0,2024-02-27T12:17:40.975Z,english_73.wav,0,peel,531,46,5,5,français,f,1,0.1,65.54847429,1.68852165
5e29fd5f2bec3b065e9a729e,47,0,2024-02-27T12:17:40.975Z,english_73.wav,0,peel,531,46,5,5,français,f,2,0.2,-55.11967081,0.59259525
5e29fd5f2bec3b065e9a729e,47,0,2024-02-27T12:17:40.975Z,english_73.wav,0,peel,531,46,5,5,français,f,3,0.3,68.77466141,0.85140805
5e29fd5f2bec3b065e9a729e,47,0,2024-02-27T12:17:40.975Z,english_73.wav,0,peel,531,46,5,5,français,f,4,0.32341667,-37.79888894,1.17745107
5e29fd5f2bec3b065e9a729e,48,0,2024-02-27T12:17:40.975Z,english_898.wav,0,pill,1763,46,5,5,français,f,0,0.0,77.23607787,0.41308158
5e29fd5f2bec3b065e9a729e,48,0,2024-02-27T12:17:40.975Z,english_898.wav,0,pill,1763,46,5,5,français,f,1,0.1,-36.99854877,1.59324842
5e29fd5f2bec3b065e9a729e,48,0,2024-02-27T12:17:40.975Z,english_898.wav,0,pill,1763,46,5,5,français,f,2,0.2,16.09723403,1.42339693
5e29fd5f2bec3b065e9a729e,48,0,2024-02-27T12:17:40.975Z,english_898.wav,0,pill,1763,46,5,5,français,f,3,0.3,29.12208023,1.17478291
5e29fd5f2bec3b065e9a729e,48,0,2024-02-27T12:17:40.975Z,english_898.wav,0,pill,1763,46,5,5,français,f,4,0.32341667,-69.45423228,1.88393163
5e29fd5f2bec3b065e9a729e,49,0,2024-02-27T12:17:40.975Z,english_243.wav,0,peel,1286,46,5,5,français,f,0,0.0,-74.41503345,0.65151457
5e29fd5f2bec3b065e9a729e,49,0,2024-02-27T12:17:40.975Z,english_243.wav,0,peel,1286,46,5,5,français,f,1,0.1,-16.65530333,0.20623253
5e29fd5f2bec3b065e9a729e,49,0,2024-02-27T12:17:40.975Z,english_243.wav,0,peel,1286,46,5,5,français,f,2,0.2,-1.41224798,0.87153721
5e29fd5f2bec3b065e9a729e,49,0,2024-02-27T12:17:40.975Z,english_243.wav,0,peel,1286,46,5,5,français,f,3,0.3,37.30419975,0.28583671
5e29fd5f2bec3b065e9a729e,49,0,2024-02-27T12:17:40.975Z,english_243.wav,0,peel,1286,46,5,5,français,f,4,0.32341667,-3.40378668,1.90700275
5e29fd5f2bec3b065e9a729e,50,1,2024-02-27T12:17:40.975Z,english_214.wav,0,peel,1437,46,5,5,français,f,0,0.0,58.82847816,1.81864401
5e29fd5f2bec3b065e9a729e,50,1,2024-02-27T12:17:40.975Z,english_214.wav,0,peel,1437,46,5,5,français,f,1,0.1,87.26801489,0.97241975
5e29fd5f2bec3b065e9a729e,50,1,2024-02-27T12:17:40.975Z,english_214.wav,0,peel,1437,46,5,5,français,f,2,0.2,-28.10234025,1.91423566
5e29fd5f2bec3b065e9a729e,50,1,2024-02-27T12:17:40.975Z,english_214.wav,0,peel,1437,46,5,5,français,f,3,0.3,-36.12188516,1.71940232
5e29fd5f2bec3b065e9a729e,50,1,2024-02-27T12:17:40.975Z,english_214.wav,0,peel,1437,46,5,5,français,f,4,0.32341667,-45.93983978,0.68694042
5e29fd5f2bec3b065e9a729e,51,1,2024-02-27T12:17:40.975Z,english_429.wav,0,peel,1723,46,5,5,français,f,0,0.0,-70.82827187,0.34305232
5e29fd5f2bec3b065e9a729e,51,1,2024-02-27T12:17:40.975Z,english_429.wav,0,peel,1723,46,5,5,français,f,1,0.1,79.2644825,1.15525787
5e29fd5f2bec3b065e9a729e,51,1,2024-02-27T12:17:40.975Z,english_429.wav,0,peel,1723,46,5,5,français,f,2,0.2,14.29027084,1.85610569
5e29fd5f2bec3b065e9a729e,51,1,2024-02-27T12:17:40.975Z,english_429.wav,0,peel,1723,46,5,5,français,f,3,0.3,-47.65971945,0.19828098
5e29fd5f2bec3b065e9a729e,51,1,2024-02-27T12:17:40.975Z,english_429.wav,0,peel,1723,46,5,5,français,f,4,0.32341667,8.9954872,1.51767034
5e29fd5f2bec3b065e9a729e,52,1,2024-02-27T12:17:40.975Z,english_679.wav,0,pill,1317,46,5,5,français,f,0,0.0,37.61966445,0.05085037
5e29fd5f2bec3b065e9a729e,52,1,2024-02-27T12:17:40.975Z,english_679.wav,0,pill,1317,46,5,5,français,f,1,0.1,51.99791738,0.83446012
5e29fd5f2bec3b065e9a729e,52,1,2024-02-27T12:17:40.975Z,english_679.wav,0,pill,1317,46,5,5,français,f,2,0.2,47.28862711,0.17034906
5e29fd5f2bec3b065e9a729e,52,1,2024-02-27T12:17:40.975Z,english_679.wav,0,pill,1317,46,5,5,français,f,3,0.3,96.96405016,1.15010704
5e29fd5f2bec3b065e9a729e,52,1,2024-02-27T12:17:40.975Z,english_679.wav,0,pill,1317,46,5,5,français,f,4,0.32341667,17.22990972,1.32170415
5e29fd5f2bec3b065e9a729e,53,1,2024-02-27T12:17:40.975Z,english_158.wav,0,peel,3880,46,5,5,français,f,0,0.0,33.09785739,1.71128449
5e29fd5f2bec3b065e9a729e,53,1,2024-02-27T12:17:40.975Z,english_158.wav,0,peel,3880,46,5,5,français,f,1,0.1,-85.08083727,1.56145129
5e29fd5f2bec3b065e9a729e,53,1,2024-02-27T12:17:40.975Z,english_158.wav,0,peel,3880,46,5,5,français,f,2,0.2,97.70701203,0.69707892
5e29fd5f2bec3b065e9a729e,53,1,2024-02-27T12:17:40.975Z,english_158.wav,0,peel,3880,46,5,5,français,f,3,0.3,2.54261044,1.19647348
5e29fd5f2bec3b065e9a729e,53,1,2024-02-27T12:17:40.975Z,english_158.wav,0,peel,3880,46,5,5,français,f,4,0.32341667,-59.73934841,1.17782448
5e29fd5f2bec3b065e9a729e,54,1,2024-02-27T12:17:40.975Z,english_168.wav,0,peel,1949,46,5,5,français,f,0,0.0,-69.10300998,1.14537751
5e29fd5f2bec3b065e9a729e,54,1,2024-02-27T12:17:40.975Z,english_168.wav,0,peel,1949,46,5,5,français,f,1,0.1,-24.44784794,1.06854972
5e29fd5f2bec3b065e9a729e,54,1,2024-02-27T12:17:40.975Z,english_168.wav,0,peel,1949,46,5,5,français,f,2,0.2,35.31321785,0.45192262
5e29fd5f2bec3b065e9a729e,54,1,2024-02-27T12:17:40.975Z,english_168.wav,0,peel,1949,46,5,5,français,f,3,0.3,-41.77498511,0.2846318
5e29fd5f2bec3b065e9a729e,54,1,2024-02-27T12:17:40.975Z,english_168.wav,0,peel,1949,46,5,5,français,f,4,0.32341667,19.92389913,0.9853942
5e29fd5f2bec3b065e9a729e,55,1,2024-02-27T12:17:40.975Z,english_173.wav,0,peel,1470,46,5,5,français,f,0,0.0,11.1251521,0.60172576
5e29fd5f2bec3b065e9a729e,55,1,2024-02-27T12:17:40.975Z,english_173.wav,0,peel,1470,46,5,5,français,f,1,0.1,94.22411188,0.44802145
5e29fd5f2bec3b065e9a729e,55,1,2024-02-27T12:17:40.975Z,english_173.wav,0,peel,1470,46,5,5,français,f,2,0.2,89.44753043,1.27552997
5e29fd5f2bec3b065e9a729e,55,1,2024-02-27T12:17:40.975Z,english_173.wav,0,peel,1470,46,5,5,français,f,3,0.3,74.30769895,1.09756939
5e29fd5f2bec3b065e9a729e,55,1,2024-02-27T12:17:40.975Z,english_173.wav,0,peel,1470,46,5,5,français,f,4,0.32341667,-37.47679669,0.7907315
5e29fd5f2bec3b065e9a729e,56,1,2024-02-27T12:17:40.975Z,english_779.wav,0,peel,1125,46,5,5,français,f,0,0.0,-66.48303018,1.22216448
5e29fd5f2bec3b065e9a729e,56,1,2024-02-27T12:17:40.975Z,english_779.wav,0,peel,1125,46,5,5,français,f,1,0.1,55.33592885,1.30288261
5e29fd5f2bec3b065e9a729e,56,1,2024-02-27T12:17:40.975Z,english_779.wav,0,peel,1125,46,5,5,français,f,2,0.2,67.38671669,0.25409759
5e29fd5f2bec3b065e9a729e,56,1,2024-02-27T12:17:40.975Z,english_779.wav,0,peel,1125,46,5,5,français,f,3,0.3,65.49052189,1.76174581
5e29fd5f2bec3b065e9a729e,56,1,2024-02-27T12:17:40.975Z,english_779.wav,0,peel,1125,46,5,5,français,f,4,0.32341667,-12.12955258,0.12280057
5e29fd5f2bec3b065e9a729e,57,1,2024-02-27T12:17:40.975Z,english_324.wav,0,peel,1534,46,5,5,français,f,0,0.0,49.07155908,0.10864525
5e29fd5f2bec3b065e9a729e,57,1,2024-02-27T12:17:40.975Z,english_324.wav,0,peel,1534,46,5,5,français,f,1,0.1,-58.77252084,1.61132735
5e29fd5f2bec3b065e9a729e,57,1,2024-02-27T12:17:40.975Z,english_324.wav,0,peel,1534,46,5,5,français,f,2,0.2,-55.40155542,0.60180616
5e29fd5f2bec3b065e9a729e,57,1,2024-02-27T12:17:40.975Z,english_324.wav,0,peel,1534,46,5,5,français,f,3,0.3,19.02224292,0.93555132
5e29fd5f2bec3b065e9a729e,57,1,2024-02-27T12:17:40.975Z,english_324.wav,0,peel,1534,46,5,5,français,f,4,0.32341667,21.20382854,0.34417591
5e29fd5f2bec3b065e9a729e,58,1,2024-02-27T12:17:40.975Z,english_1.wav,0,peel,697,46,5,5,français,f,0,0.0,53.99031816,1.91732561
5e29fd5f2bec3b065e9a729e,58,1,2024-02-27T12:17:40.975Z,english_1.wav,0,peel,697,46,5,5,français,f,1,0.1,-58.32145174,0.75352701
5e29fd5f2bec3b065e9a729e,58,1,2024-02-27T12:17:40.975Z,english_1.wav,0,peel,697,46,5,5,français,f,2,0.2,-86.75659624,1.40297919
5e29fd5f2bec3b065e9a729e,58,1,2024-02-27T12:17:40.975Z,english_1.wav,0,peel,697,46,5,5,français,f,3,0.3,-31.84945767,0.12157709
5e29fd5f2bec3b065e9a729e,58,1,2024-02-27T12:17:40.975Z,english_1.wav,0,peel,697,46,5,5,français,f,4,0.32341667,-59.21997754,1.57687546
5e29fd5f2bec3b065e9a729e,59,1,2024-02-27T12:17:40.975Z,english_226.wav,0,peel,826,46,5,5,français,f,0,0.0,-56.53605181,0.51185795
5e29fd5f2bec3b065e9a729e,59,1,2024-02-27T12:17:40.975Z,english_226.wav,0,peel,826,46,5,5,français,f,1,0.1,-5.93547338,0.73377568
5e29fd5f2bec3b065e9a729e,59,1,2024-02-27T12:17:40.975Z,english_226.wav,0,peel,826,46,5,5,français,f,2,0.2,-81.0596442,1.62034912
5e29fd5f2bec3b065e9a729e,59,1,2024-02-27T12:17:40.975Z,english_226.wav,0,peel,826,46,5,5,français,f,3,0.3,-12.14261426,0.19474782
5e29fd5f2bec3b065e9a729e,59,1,2024-02-27T12:17:40.975Z,english_226.wav,0,peel,826,46,5,5,français,f,4,0.32341667,40.67667876,0.1395898
5e29fd5f2bec3b065e9a729e,60,1,2024-02-27T12:17:40.975Z,english_585.wav,0,peel,1034,46,5,5,français,f,0,0.0,-47.47167609,0.91486293
5e29fd5f2bec3b065e9a729e,60,1,2024-02-27T12:17:40.975Z,english_585.wav,0,peel,1034,46,5,5,français,f,1,0.1,-85.73018253,0.8051019
5e29fd5f2bec3b065e9a729e,60,1,2024-02-27T12:17:40.975Z,english_585.wav,0,peel,1034,46,5,5,français,f,2,0.2,4.69567907,1.25289508
5e29fd5f2bec3b065e9a729e,60,1,2024-02-27T12:17:40.975Z,english_585.wav,0,peel,1034,46,5,5,français,f,3,0.3,51.83381109,0.83258124
5e29fd5f2bec3b065e9a729e,60,1,2024-02-27T12:17:40.975Z,english_585.wav,0,peel,1034,46,5,5,français,f,4,0.32341667,14.12777642,1.43411439
5e29fd5f2bec3b065e9a729e,61,1,2024-02-27T12:17:40.975Z,english_676.wav,0,peel,975,46,5,5,français,f,0,0.0,3.93099148,1.7716209
5e29fd5f2bec3b065e9a729e,61,1,2024-02-27T12:17:40.975Z,english_676.wav,0,peel,975,46,5,5,français,f,1,0.1,73.76311644,1.97281878
5e29fd5f2bec3b065e9a729e,61,1,2024-02-27T12:17:40.975Z,english_676.wav,0,peel,975,46,5,5,français,f,2,0.2,-26.92634129,1.42487848
5e29fd5f2bec3b065e9a729e,61,1,2024-02-27T12:17:40.975Z,english_676.wav,0,peel,975,46,5,5,français,f,3,0.3,51.70874443,1.45099775
5e29fd5f2bec3b065e9a729e,61,1,2024-02-27T12:17:40.975Z,english_676.wav,0,peel,975,46,5,5,français,f,4,0.32341667,-48.7675791,1.84822532
5e29fd5f2bec3b065e9a729e,62,1,2024-02-27T12:17:40.975Z,english_564.wav,0,pill,665,46,5,5,français,f,0,0.0,-4.16228192,1.35245187
5e29fd5f2bec3b065e9a729e,62,1,2024-02-27T12:17:40.975Z,english_564.wav,0,pill,665,46,5,5,français,f,1,0.1,-8.38376801,0.24798142
5e29fd5f2bec3b065e9a729e,62,1,2024-02-27T12:17:40.975Z,english_564.wav,0,pill,665,46,5,5,français,f,2,0.2,52.82752554,1.26376743
5e29fd5f2bec3b065e9a729e,62,1,2024-02-27T12:17:40.975Z,english_564.wav,0,pill,665,46,5,5,français,f,3,0.3,-92.64870354,0.73548171
5e29fd5f2bec3b065e9a729e,62,1,2024-02-27T12:17:40.975Z,english_564.wav,0,pill,665,46,5,5,français,f,4,0.32341667,-48.86146536,0.1394123
5e29fd5f2bec3b065e9a729e,63,1,2024-02-27T12:17:40.975Z,english_753.wav,0,peel,1045,46,5,5,français,f,0,0.0,38.61944715,0.75641923
5e29fd5f2bec3b065e9a729e,63,1,2024-02-27T12:17:40.975Z,english_753.wav,0,peel,1045,46,5,5,français,f,1,0.1,-76.3398938,1.17320485
5e29fd5f2bec3b065e9a729e,63,1,2024-02-27T12:17:40.975Z,english_753.wav,0,peel,1045,46,5,5,français,f,2,0.2,-80.92813522,0.63072958
5e29fd5f2bec3b065e9a729e,63,1,2024-02-27T12:17:40.975Z,english_753.wav,0,peel,1045,46,5,5,français,f,3,0.3,-16.48508052,1.96252246
5e29fd5f2bec3b065e9a729e,63,1,2024-02-27T12:17:40.975Z,english_753.wav,0,peel,1045,46,5,5,français,f,4,0.32341667,16.23487259,1.97125296
5e29fd5f2bec3b065e9a729e,64,1,2024-02-27T12:17:40.975Z,english_710.wav,0,peel,459,46,5,5,français,f,0,0.0,-75.8732007,1.76991952
5e29fd5f2bec3b065e9a729e,64,1,2024-02-27T12:17:40.975Z,english_710.wav,0,peel,459,46,5,5,français,f,1,0.1,-57.22858583,1.84377411
5e29fd5f2bec3b065e9a729e,64,1,2024-02-27T12:17:40.975Z,english_710.wav,0,peel,459,46,5,5,français,f,2,0.2,28.4956072,1.20069914
5e29fd5f2bec3b065e9a729e,64,1,2024-02-27T12:17:40.975Z,english_710.wav,0,peel,459,46,5,5,français,f,3,0.3,-96.06281818,0.06088286
5e29fd5f2bec3b065e9a729e,64,1,2024-02-27T12:17:40.975Z,english_710.wav,0,peel,459,46,5,5,français,f,4,0.32341667,12.57492899,1.86160088
5e29fd5f2bec3b065e9a729e,65,1,2024-02-27T12:17:40.975Z,english_888.wav,0,peel,962,46,5,5,français,f,0,0.0,-75.11317729,0.15619421
5e29fd5f2bec3b065e9a729e,65,1,2024-02-27T12:17:40.975Z,english_888.wav,0,peel,962,46,5,5,français,f,1,0.1,-15.41916561,1.45351631
5e29fd5f2bec3b065e9a729e,65,1,2024-02-27T12:17:40.975Z,english_888.wav,0,peel,962,46,5,5,français,f,2,0.2,30.82770832,1.60154734
5e29fd5f2bec3b065e9a729e,65,1,2024-02-27T12:17:40.975Z,english_888.wav,0,peel,962,46,5,5,français,f,3,0.3,69.72581111,1.09787436
5e29fd5f2bec3b065e9a729e,65,1,2024-02-27T12:17:40.975Z,english_888.wav,0,peel,962,46,5,5,français,f,4,0.32341667,-21.6620698,1.3760261
5e29fd5f2bec3b065e9a729e,66,1,2024-02-27T12:17:40.975Z,english_154.wav,0,peel,320,46,5,5,français,f,0,0.0,69.79630433,0.95543174
5e29fd5f2bec3b065e9a729e,66,1,2024-02-27T12:17:40.975Z,english_154.wav,0,peel,320,46,5,5,français,f,1,0.1,-67.81892388,1.87835363
5e29fd5f2bec3b065e9a729e,66,1,2024-02-27T12:17:40.975Z,english_154.wav,0,peel,320,46,5,5,français,f,2,0.2,14.97335347,1.19287874
5e29fd5f2bec3b065e9a729e,66,1,2024-02-27T12:17:40.975Z,english_154.wav,0,peel,320,46,5,5,français,f,3,0.3,8.47433965,1.12321966
5e29fd5f2bec3b065e9a729e,66,1,2024-02-27T12:17:40.975Z,english_154.wav,0,peel,320,46,5,5,français,f,4,0.32341667,32.47098569,0.66995817
5e29fd5f2bec3b065e9a729e,67,1,2024-02-27T12:17:40.975Z,english_204.wav,0,peel,277,46,5,5,français,f,0,0.0,67.46317025,1.58701212
5e29fd5f2bec3b065e9a729e,67,1,2024-02-27T12:17:40.975Z,english_204.wav,0,peel,277,46,5,5,français,f,1,0.1,38.91463365,1.82178317
5e29fd5f2bec3b065e9a729e,67,1,2024-02-27T12:17:40.975Z,english_204.wav,0,peel,277,46,5,5,français,f,2,0.2,-85.28377865,1.60361911
5e29fd5f2bec3b065e9a729e,67,1,2024-02-27T12:17:40.975Z,english_204.wav,0,peel,277,46,5,5,français,f,3,0.3,55.65505401,0.21823774
5e29fd5f2bec3b065e9a729e,67,1,2024-02-27T12:17:40.975Z,english_204.wav,0,peel,277,46,5,5,français,f,4,0.32341667,56.32983288,0.04661671
5e29fd5f2bec3b065e9a729e,68,1,2024-02-27T12:17:40.975Z,english_512.wav,0,peel,666,46,5,5,français,f,0,0.0,92.76608442,1.91273189
5e29fd5f2bec3b065e9a729e,68,1,2024-02-27T12:17:40.975Z,english_512.wav,0,peel,666,46,5,5,français,f,1,0.1,-20.68005196,1.02897077
5e29fd5f2bec3b065e9a729e,68,1,2024-02-27T12:17:40.975Z,english_512.wav,0,peel,666,46,5,5,français,f,2,0.2,-55.10098951,0.7965214
5e29fd5f2bec3b065e9a729e,68,1,2024-02-27T12:17:40.975Z,english_512.wav,0,peel,666,46,5,5,français,f,3,0.3,79.8086149,1.98502062
5e29fd5f2bec3b065e9a729e,68,1,2024-02-27T12:17:40.975Z,english_512.wav,0,peel,666,46,5,5,français,f,4,0.32341667,-91.21136492,0.13323305
5e29fd5f2bec3b065e9a729e,69,1,2024-02-27T12:17:40.975Z,english_333.wav,0,peel,812,46,5,5,français,f,0,0.0,61.26933292,0.50090252
5e29fd5f2bec3b065e9a729e,69,1,2024-02-27T12:17:40.975Z,english_333.wav,0,peel,812,46,5,5,français,f,1,0.1,38.65533839,1.61630161
5e29fd5f2bec3b065e9a729e,69,1,2024-02-27T12:17:40.975Z,english_333.wav,0,peel,812,46,5,5,français,f,2,0.2,-27.91605269,1.73322278
5e29fd5f2bec3b065e9a729e,69,1,2024-02-27T12:17:40.975Z,english_333.wav,0,peel,812,46,5,5,français,f,3,0.3,36.00101096,0.67742762
5e29fd5f2bec3b065e9a729e,69,1,2024-02-27T12:17:40.975Z,english_333.wav,0,peel,812,46,5,5,français,f,4,0.32341667,-78.35943708,0.46993908
5e29fd5f2bec3b065e9a729e,70,1,2024-02-27T12:17:40.975Z,english_772.wav,0,peel,357,46,5,5,français,f,0,0.0,-76.23750274,0.54712598
5e29fd5f2bec3b065e9a729e,70,1,2024-02-27T12:17:40.975Z,english_772.wav,0,peel,357,46,5,5,français,f,1,0.1,54.42820472,1.66698734
5e29fd5f2bec3b065e9a729e,70,1,2024-02-27T12:17:40.975Z,english_772.wav,0,peel,357,46,5,5,français,f,2,0.2,26.41325181,1.761061
5e29fd5f2bec3b065e9a729e,70,1,2024-02-27T12:17:40.975Z,english_772.wav,0,peel,357,46,5,5,français,f,3,0.3,14.10037165,1.80899506
5e29fd5f2bec3b065e9a729e,70,1,2024-02-27T12:17:40.975Z,english_772.wav,0,peel,357,46,5,5,français,f,4,0.32341667,-75.83605273,1.29882268
5e29fd5f2bec3b065e9a729e,71,1,2024-02-27T12:17:40.975Z,english_674.wav,0,peel,403,46,5,5,français,f,0,0.0,-38.60253285,0.25488683
5e29fd5f2bec3b065e9a729e,71,1,2024-02-27T12:17:40.975Z,english_674.wav,0,peel,403,46,5,5,français,f,1,0.1,46.14948962,1.80679583
5e29fd5f2bec3b065e9a729e,71,1,2024-02-27T12:17:40.975Z,english_674.wav,0,peel,403,46,5,5,français,f,2,0.2,-49.76414787,1.59420413
5e29fd5f2bec3b065e9a729e,71,1,2024-02-27T12:17:40.975Z,english_674.wav,0,peel,403,46,5,5,français,f,3,0.3,-66.16492387,1.25714797
5e29fd5f2bec3b065e9a729e,71,1,2024-02-27T12:17:40.975Z,english_674.wav,0,peel,403,46,5,5,français,f,4,0.32341667,28.37583826,1.20557216
5e29fd5f2bec3b065e9a729e,72,1,2024-02-27T12:17:40.975Z,english_787.wav,0,peel,343,46,5,5,français,f,0,0.0,57.99353047,1.96251481
5e29fd5f2bec3b065e9a729e,72,1,2024-02-27T12:17:40.975Z,english_787.wav,0,peel,343,46,5,5,français,f,1,0.1,-40.79525362,0.94444479
5e29fd5f2bec3b065e9a729e,72,1,2024-02-27T12:17:40.975Z,english_787.wav,0,peel,343,46,5,5,français,f,2,0.2,23.78072576,0.924778
5e29fd5f2bec3b065e9a729e,72,1,2024-02-27T12:17:40.975Z,english_787.wav,0,peel,343,46,5,5,français,f,3,0.3,72.96982422,0.31383508
5e29fd5f2bec3b065e9a729e,72,1,2024-02-27T12:17:40.975Z,english_787.wav,0,peel,343,46,5,5,français,f,4,0.32341667,53.76957631,0.68947425
5e29fd5f2bec3b065e9a729e,73,1,2024-02-27T12:17:40.975Z,english_692.wav,0,pill,984,46,5,5,français,f,0,0.0,-29.13306787,0.55849531
5e29fd5f2bec3b065e9a729e,73,1,2024-02-27T12:17:40.975Z,english_692.wav,0,pill,984,46,5,5,français,f,1,0.1,-41.86406343,1.96517265
5e29fd5f2bec3b065e9a729e,73,1,2024-02-27T12:17:40.975Z,english_692.wav,0,pill,984,46,5,5,français,f,2,0.2,-94.94051661,0.19953253
5e29fd5f2bec3b065e9a729e,73,1,2024-02-27T12:17:40.975Z,english_692.wav,0,pill,984,46,5,5,français,f,3,0.3,78.40426091,1.89357941
5e29fd5f2bec3b065e9a729e,73,1,2024-02-27T12:17:40.975Z,english_692.wav,0,pill,984,46,5,5,français,f,4,0.32341667,-47.11562344,1.37874109
5e29fd5f2bec3b065e9a729e,74,1,2024-02-27T12:17:40.975Z,english_877.wav,0,pill,720,46,5,5,français,f,0,0.0,49.36401037,1.25510861
5e29fd5f2bec3b065e9a729e,74,1,2024-02-27T12:17:40.975Z,english_877.wav,0,pill,720,46,5,5,français,f,1,0.1,15.17280231,0.84700305
5e29fd5f2bec3b065e9a729e,74,1,2024-02-27T12:17:40.975Z,english_877.wav,0,pill,720,46,5,5,français,f,2,0.2,22.36436744,0.32703774
5e29fd5f2bec3b065e9a729e,74,1,2024-02-27T12:17:40.975Z,english_877.wav,0,pill,720,46,5,5,français,f,3,0.3,-25.51979868,1.72637958
5e29fd5f2bec3b065e9a729e,74,1,2024-02-27T12:17:40.975Z,english_877.wav,0,pill,720,46,5,5,français,f,4,0.32341667,-55.72443313,0.52117686
5e29fd5f2bec3b065e9a729e,75,1,2024-02-27T12:17:40.975Z,english_974.wav,0,peel,1432,46,5,5,français,f,0,0.0,29.63575745,0.7371821
5e29fd5f2bec3b065e9a729e,75,1,2024-02-27T12:17:40.975Z,english_974.wav,0,peel,1432,46,5,5,français,f,1,0.1,-49.63946334,1.15838362
5e29fd5f2bec3b065e9a729e,75,1,2024-02-27T12:17:40.975Z,english_974.wav,0,peel,1432,46,5,5,français,f,2,0.2,87.75163431,1.66312363
5e29fd5f2bec3b065e9a729e,75,1,2024-02-27T12:17:40.975Z,english_974.wav,0,peel,1432,46,5,5,français,f,3,0.3,-62.39844007,0.85783748
5e29fd5f2bec3b065e9a729e,75,1,2024-02-27T12:17:40.975Z,english_974.wav,0,peel,1432,46,5,5,français,f,4,0.32341667,-98.5513891,1.53033297
5e29fd5f2bec3b065e9a729e,76,1,2024-02-27T12:17:40.975Z,english_208.wav,0,peel,1455,46,5,5,français,f,0,0.0,-16.36413188,1.19542909
5e29fd5f2bec3b065e9a729e,76,1,2024-02-27T12:17:40.975Z,english_208.wav,0,peel,1455,46,5,5,français,f,1,0.1,25.67725806,0.42717457
5e29fd5f2bec3b065e9a729e,76,1,2024-02-27T12:17:40.975Z,english_208.wav,0,peel,1455,46,5,5,français,f,2,0.2,15.43722313,1.01088833
5e29fd5f2bec3b065e9a729e,76,1,2024-02-27T12:17:40.975Z,english_208.wav,0,peel,1455,46,5,5,français,f,3,0.3,-39.3158007,1.09044814
5e29fd5f2bec3b065e9a729e,76,1,2024-02-27T12:17:40.975Z,english_208.wav,0,peel,1455,46,5,5,français,f,4,0.32341667,38.48956167,1.60091335
5e29fd5f2bec3b065e9a729e,77,1,2024-02-27T12:17:40.975Z,english_498.wav,0,peel,1456,46,5,5,français,f,0,0.0,2.49020902,0.78964515
5e29fd5f2bec3b065e9a729e,77,1,2024-02-27T12:17:40.975Z,english_498.wav,0,peel,1456,46,5,5,français,f,1,0.1,-20.55300452,0.24391593
5e29fd5f2bec3b065e9a729e,77,1,2024-02-27T12:17:40.975Z,english_498.wav,0,peel,1456,46,5,5,français,f,2,0.2,-34.14985779,0.11401041
5e29fd5f2bec3b065e9a729e,77,1,2024-02-27T12:17:40.975Z,english_498.wav,0,peel,1456,46,5,5,français,f,3,0.3,79.54997135,1.52582154
5e29fd5f2bec3b065e9a729e,77,1,2024-02-27T12:17:40.975Z,english_498.wav,0,peel,1456,46,5,5,français,f,4,0.32341667,20.54695207,0.62547878
5e29fd5f2bec3b065e9a729e,78,1,2024-02-27T12:17:40.975Z,english_174.wav,0,peel,496,46,5,5,français,f,0,0.0,-14.93169449,0.27768215
5e29fd5f2bec3b065e9a729e,78,1,2024-02-27T12:17:40.975Z,english_174.wav,0,peel,496,46,5,5,français,f,1,0.1,-60.50222611,0.13809097
5e29fd5f2bec3b065e9a729e,78,1,2024-02-27T12:17:40.975Z,english_174.wav,0,peel,496,46,5,5,français,f,2,0.2,-88.67347191,0.18584848
5e29fd5f2bec3b065e9a729e,78,1,2024-02-27T12:17:40.975Z,english_174.wav,0,peel,496,46,5,5,français,f,3,0.3,-20.58504224,1.46718454
5e29fd5f2bec3b065e9a729e,78,1,2024-02-27T12:17:40.975Z,english_174.wav,0,peel,496,46,5,5,français,f,4,0.32341667,-52.28073567,0.17567705
5e29fd5f2bec3b065e9a729e,79,1,2024-02-27T12:17:40.975Z,english_458.wav,0,peel,590,46,5,5,français,f,0,0.0,-49.69821038,0.39452057
5e29fd5f2bec3b065e9a729e,79,1,2024-02-27T12:17:40.975Z,english_458.wav,0,peel,590,46,5,5,français,f,1,0.1,-49.80647014,1.24604375
5e29fd5f2bec3b065e9a729e,79,1,2024-02-27T12:17:40.975Z,english_458.wav,0,peel,590,46,5,5,français,f,2,0.2,11.98261521,0.42272405
5e29fd5f2bec3b065e9a729e,79,1,2024-02-27T12:17:40.975Z,english_458.wav,0,peel,590,46,5,5,français,f,3,0.3,59.43319096,0.21259233
5e29fd5f2bec3b065e9a729e,79,1,2024-02-27T12:17:40.975Z,english_458.wav,0,peel,590,46,5,5,français,f,4,0.32341667,-34.5671642,1.13235362
5e29fd5f2bec3b065e9a729e,80,1,2024-02-27T12:17:40.975Z,english_423.wav,0,peel,1224,46,5,5,français,f,0,0.0,48.83941012,1.35290702
5e29fd5f2bec3b065e9a729e,80,1,2024-02-27T12:17:40.975Z,english_423.wav,0,peel,1224,46,5,5,français,f,1,0.1,26.57948938,1.33919202
5e29fd5f2bec3b065e9a729e,80,1,2024-02-27T12:17:40.975Z,english_423.wav,0,peel,1224,46,5,5,français,f,2,0.2,56.70545245,1.37149513
5e29fd5f2bec3b065e9a729e,80,1,2024-02-27T12:17:40.975Z,english_423.wav,0,peel,1224,46,5,5,français,f,3,0.3,-62.41131033,1.11357765
5e29fd5f2bec3b065e9a729e,80,1,2024-02-27T12:17:40.975Z,english_423.wav,0,peel,1224,46,5,5,français,f,4,0.32341667,78.49803502,1.20699722
5e29fd5f2bec3b065e9a729e,81,1,2024-02-27T12:17:40.975Z,english_321.wav,0,peel,478,46,5,5,français,f,0,0.0,2.07721816,1.69623759
5e29fd5f2bec3b065e9a729e,81,1,2024-02-27T12:17:40.975Z,english_321.wav,0,peel,478,46,5,5,français,f,1,0.1,59.48735819,1.35736687
5e29fd5f2bec3b065e9a729e,81,1,2024-02-27T12:17:40.975Z,english_321.wav,0,peel,478,46,5,5,français,f,2,0.2,64.78149714,1.92920457
5e29fd5f2bec3b065e9a729e,81,1,2024-02-27T12:17:40.975Z,english_321.wav,0,peel,478,46,5,5,français,f,3,0.3,65.58393414,0.66559077
5e29fd5f2bec3b065e9a729e,81,1,2024-02-27T12:17:40.975Z,english_321.wav,0,peel,478,46,5,5,français,f,4,0.32341667,14.66673939,1.66523208
5e29fd5f2bec3b065e9a729e,82,1,2024-02-27T12:17:40.975Z,english_614.wav,0,pill,2128,46,5,5,français,f,0,0.0,78.57791509,1.76663636
5e29fd5f2bec3b065e9a729e,82,1,2024-02-27T12:17:40.975Z,english_614.wav,0,pill,2128,46,5,5,français,f,1,0.1,-6.15631212,0.7337869
5e29fd5f2bec3b065e9a729e,82,1,2024-02-27T12:17:40.975Z,english_614.wav,0,pill,2128,46,5,5,français,f,2,0.2,-15.34092719,1.62880485
5e29fd5f2bec3b065e9a729e,82,1,2024-02-27T12:17:40.975Z,english_614.wav,0,pill,2128,46,5,5,français,f,3,0.3,21.91351344,0.61213133
5e29fd5f2bec3b065e9a729e,82,1,2024-02-27T12:17:40.975Z,english_614.wav,0,pill,2128,46,5,5,français,f,4,0.32341667,-10.50820757,0.41097232
5e29fd5f2bec3b065e9a729e,83,1,2024-02-27T12:17:40.975Z,english_14.wav,0,pill,620,46,5,5,français,f,0,0.0,98.00979643,0.92494293
5e29fd5f2bec3b065e9a729e,83,1,2024-02-27T12:17:40.975Z,english_14.wav,0,pill,620,46,5,5,français,f,1,0.1,-39.90204919,0.80403915
5e29fd5f2bec3b065e9a729e,83,1,2024-02-27T12:17:40.975Z,english_14.wav,0,pill,620,46,5,5,français,f,2,0.2,51.0517473,0.29426005
5e29fd5f2bec3b065e9a729e,83,1,2024-02-27T12:17:40.975Z,english_14.wav,0,pill,620,46,5,5,français,f,3,0.3,-8.39716694,0.14957292
5e29fd5f2bec3b065e9a729e,83,1,2024-02-27T12:17:40.975Z,english_14.wav,0,pill,620,46,5,5,français,f,4,0.32341667,82.54419716,0.1717279
5e29fd5f2bec3b065e9a729e,84,1,2024-02-27T12:17:40.975Z,english_389.wav,0,peel,420,46,5,5,français,f,0,0.0,36.16487693,1.25286497
5e29fd5f2bec3b065e9a729e,84,1,2024-02-27T12:17:40.975Z,english_389.wav,0,peel,420,46,5,5,français,f,1,0.1,-97.36259769,1.31396789
5e29fd5f2bec3b065e9a729e,84,1,2024-02-27T12:17:40.975Z,english_389.wav,0,peel,420,46,5,5,français,f,2,0.2,24.50411951,1.84060757
5e29fd5f2bec3b065e9a729e,84,1,2024-02-27T12:17:40.975Z,english_389.wav,0,peel,420,46,5,5,français,f,3,0.3,43.1395046,0.64046023
5e29fd5f2bec3b065e9a729e,84,1,2024-02-27T12:17:40.975Z,english_389.wav,0,peel,420,46,5,5,français,f,4,0.32341667,85.14605982,1.47992762
5e29fd5f2bec3b065e9a729e,85,1,2024-02-27T12:17:40.975Z,english_138.wav,0,peel,774,46,5,5,français,f,0,0.0,-79.80620147,0.37063564
5e29fd5f2bec3b065e9a729e,85,1,2024-02-27T12:17:40.975Z,english_138.wav,0,peel,774,46,5,5,français,f,1,0.1,-15.42889109,0.81801141
5e29fd5f2bec3b065e9a729e,85,1,2024-02-27T12:17:40.975Z,english_138.wav,0,peel,774,46,5,5,français,f,2,0.2,-88.31677226,0.0634538
5e29fd5f2bec3b065e9a729e,85,1,2024-02-27T12:17:40.975Z,english_138.wav,0,peel,774,46,5,5,français,f,3,0.3,26.6486106,1.85131452
5e29fd5f2bec3b065e9a729e,85,1,2024-02-27T12:17:40.975Z,english_138.wav,0,peel,774,46,5,5,français,f,4,0.32341667,-42.18894711,1.66059024
5e29fd5f2bec3b065e9a729e,86,1,2024-02-27T12:17:40.975Z,english_82.wav,0,peel,415,46,5,5,français,f,0,0.0,-21.02351082,0.76668052
5e29fd5f2bec3b065e9a729e,86,1,2024-02-27T12:17:40.975Z,english_82.wav,0,peel,415,46,5,5,français,f,1,0.1,1.53612588,0.94640395
5e29fd5f2bec3b065e9a729e,86,1,2024-02-27T12:17:40.975Z,english_82.wav,0,peel,415,46,5,5,français,f,2,0.2,82.9198569,1.02754902
5e29fd5f2bec3b065e9a729e,86,1,2024-02-27T12:17:40.975Z,english_82.wav,0,peel,415,46,5,5,français,f,3,0.3,67.34737065,1.57368428
5e29fd5f2bec3b065e9a729e,86,1,2024-02-27T12:17:40.975Z,english_82.wav,0,peel,415,46,5,5,français,f,4,0.32341667,-34.9418752,0.67195212
5e29fd5f2bec3b065e9a729e,87,1,2024-02-27T12:17:40.975Z,english_914.wav,0,peel,795,46,5,5,français,f,0,0.0,37.51857345,0.04486829
5e29fd5f2bec3b065e9a729e,87,1,2024-02-27T12:17:40.975Z,english_914.wav,0,peel,795,46,5,5,français,f,1,0.1,-30.53068311,1.18486584
5e29fd5f2bec3b065e9a729e,87,1,2024-02-27T12:17:40.975Z,english_914.wav,0,peel,795,46,5,5,français,f,2,0.2,-12.980452,1.58356311
5e29fd5f2bec3b065e9a729e,87,1,2024-02-27T12:17:40.975Z,english_914.wav,0,peel,795,46,5,5,français,f,3,0.3,-99.09260462,1.35478251
5e29fd5f2bec3b065e9a729e,87,1,2024-02-27T12:17:40.975Z,english_914.wav,0,peel,795,46,5,5,français,f,4,0.32341667,-34.91402533,1.16671671
5e29fd5f2bec3b065e9a729e,88,1,2024-02-27T12:17:40.975Z,english_597.wav,0,peel,695,46,5,5,français,f,0,0.0,-83.66792118,0.17389721
5e29fd5f2bec3b065e9a729e,88,1,2024-02-27T12:17:40.975Z,english_597.wav,0,peel,695,46,5,5,français,f,1,0.1,-19.98744657,0.39349672
5e29fd5f2bec3b065e9a729e,88,1,2024-02-27T12:17:40.975Z,english_597.wav,0,peel,695,46,5,5,français,f,2,0.2,-30.38458549,1.97590818
5e29fd5f2bec3b065e9a729e,88,1,2024-02-27T12:17:40.975Z,english_597.wav,0,peel,695,46,5,5,français,f,3,0.3,-63.4406446,1.84988074
5e29fd5f2bec3b065e9a729e,88,1,2024-02-27T12:17:40.975Z,english_597.wav,0,peel,695,46,5,5,français,f,4,0.32341667,25.67812426,1.17620678
5e29fd5f2bec3b065e9a729e,89,1,2024-02-27T12:17:40.975Z,english_837.wav,0,peel,593,46,5,5,français,f,0,0.0,-10.72674788,0.56055933
5e29fd5f2bec3b065e9a729e,89,1,2024-02-27T12:17:40.975Z,english_837.wav,0,peel,593,46,5,5,français,f,1,0.1,33.60933966,1.16716927
5e29fd5f2bec3b065e9a729e,89,1,2024-02-27T12:17:40.975Z,english_837.wav,0,peel,593,46,5,5,français,f,2,0.2,-1.37827911,1.02731607
5e29fd5f2bec3b065e9a729e,89,1,2024-02-27T12:17:40.975Z,english_837.wav,0,peel,593,46,5,5,français,f,3,0.3,29.3498758,1.96665864
5e29fd5f2bec3b065e9a729e,89,1,2024-02-27T12:17:40.975Z,english_837.wav,0,peel,593,46,5,5,français,f,4,0.32341667,31.86641091,0.45425732
5e29fd5f2bec3b065e9a729e,90,1,2024-02-27T12:17:40.975Z,english_576.wav,0,peel,393,46,5,5,français,f,0,0.0,70.71636046,1.40655209
5e29fd5f2bec3b065e9a729e,90,1,2024-02-27T12:17:40.975Z,english_576.wav,0,peel,393,46,5,5,français,f,1,0.1,-53.10414049,0.7609351
5e29fd5f2bec3b065e9a729e,90,1,2024-02-27T12:17:40.975Z,english_576.wav,0,peel,393,46,5,5,français,f,2,0.2,34.4374047,1.0155723
5e29fd5f2bec3b065e9a729e,90,1,2024-02-27T12:17:40.975Z,english_576.wav,0,peel,393,46,5,5,français,f,3,0.3,19.64113521,1.45906276
5e29fd5f2bec3b065e9a729e,90,1,2024-02-27T12:17:40.975Z,english_576.wav,0,peel,393,46,5,5,français,f,4,0.32341667,36.63265498,1.49724695
5e29fd5f2bec3b065e9a729e,91,1,2024-02-27T12:17:40.975Z,english_785.wav,0,peel,449,46,5,5,français,f,0,0.0,41.51350967,0.93543931
5e29fd5f2bec3b065e9a729e,91,1,2024-02-27T12:17:40.975Z,english_785.wav,0,peel,449,46,5,5,français,f,1,0.1,26.23517368,1.17819894
5e29fd5f2bec3b065e9a729e,91,1,2024-02-27T12:17:40.975Z,english_785.wav,0,peel,449,46,5,5,français,f,2,0.2,-12.63822228,1.98833146
5e29fd5f2bec3b065e9a729e,91,1,2024-02-27T12:17:40.975Z,english_785.wav,0,peel,449,46,5,5,français,f,3,0.3,-30.66588474,0.80021218
5e29fd5f2bec3b065e9a729e,91,1,2024-02-27T12:17:40.975Z,english_785.wav,0,peel,449,46,5,5,français,f,4,0.32341667,26.08399401,1.2737519
5e29fd5f2bec3b065e9a729e,92,1,2024-02-27T12:17:40.975Z,english_760.wav,0,peel,29,46,5,5,français,f,0,0.0,24.3902693,0.67210823
5e29fd5f2bec3b065e9a729e,92,1,2024-02-27T12:17:40.975Z,english_760.wav,0,peel,29,46,5,5,français,f,1,0.1,-0.0247174936,1.89588113
5e29fd5f2bec3b065e9a729e,92,1,2024-02-27T12:17:40.975Z,english_760.wav,0,peel,29,46,5,5,français,f,2,0.2,82.8662613,0.23432987
5e29fd5f2bec3b065e9a729e,92,1,2024-02-27T12:17:40.975Z,english_760.wav,0,peel,29,46,5,5,français,f,3,0.3,-7.97314524,1.20797246
5e29fd5f2bec3b065e9a729e,92,1,2024-02-27T12:17:40.975Z,english_760.wav,0,peel,29,46,5,5,français,f,4,0.323416667,-6.32438983,1.72866971
5e29fd5f2bec3b065e9a729e,93,1,2024-02-27T12:17:40.975Z,english_247.wav,0,peel,82,46,5,5,français,f,0,0.0,48.65693284,0.25539499
5e29fd5f2bec3b065e9a729e,93,1,2024-02-27T12:17:40.975Z,english_247.wav,0,peel,82,46,5,5,français,f,1,0.1,-27.64572099,1.09429421
5e29fd5f2bec3b065e9a729e,93,1,2024-02-27T12:17:40.975Z,english_247.wav,0,peel,82,46,5,5,français,f,2,0.2,-20.19701808,0.88115619
5e29fd5f2bec3b065e9a729e,93,1,2024-02-27T12:17:40.975Z,english_247.wav,0,peel,82,46,5,5,français,f,3,0.3,-10.74442668,1.97859338
5e29fd5f2bec3b065e9a729e,93,1,2024-02-27T12:17:40.975Z,english_247.wav,0,peel,82,46,5,5,français,f,4,0.32341667,91.42432082,0.10638235
5e29fd5f2bec3b065e9a729e,94,1,2024-02-27T12:17:40.975Z,english_858.wav,0,peel,534,46,5,5,français,f,0,0.0,45.12570132,0.50395823
5e29fd5f2bec3b065e9a729e,94,1,2024-02-27T12:17:40.975Z,english_858.wav,0,peel,534,46,5,5,français,f,1,0.1,-46.71359417,1.50658612
5e29fd5f2bec3b065e9a729e,94,1,2024-02-27T12:17:40.975Z,english_858.wav,0,peel,534,46,5,5,français,f,2,0.2,-60.32464978,0.86887416
5e29fd5f2bec3b065e9a729e,94,1,2024-02-27T12:17:40.975Z,english_858.wav,0,peel,534,46,5,5,français,f,3,0.3,-70.46241098,0.20520469
5e29fd5f2bec3b065e9a729e,94,1,2024-02-27T12:17:40.975Z,english_858.wav,0,peel,534,46,5,5,français,f,4,0.32341667,76.51169453,1.05885662
5e29fd5f2bec3b065e9a729e,95,1,2024-02-27T12:17:40.975Z,english_645.wav,0,peel,989,46,5,5,français,f,0,0.0,44.09023725,0.24999948
5e29fd5f2bec3b065e9a729e,95,1,2024-02-27T12:17:40.975Z,english_645.wav,0,peel,989,46,5,5,français,f,1,0.1,53.49741331,0.20669006
5e29fd5f2bec3b065e9a729e,95,1,2024-02-27T12:17:40.975Z,english_645.wav,0,peel,989,46,5,5,français,f,2,0.2,28.7784214,0.13451906
5e29fd5f2bec3b065e9a729e,95,1,2024-02-27T12:17:40.975Z,english_645.wav,0,peel,989,46,5,5,français,f,3,0.3,-38.38386911,0.64617788
5e29fd5f2bec3b065e9a729e,95,1,2024-02-27T12:17:40.975Z,english_645.wav,0,peel,989,46,5,5,français,f,4,0.32341667,30.31484035,0.83061833
5e29fd5f2bec3b065e9a729e,96,1,2024-02-27T12:17:40.975Z,english_203.wav,0,peel,593,46,5,5,français,f,0,0.0,-22.28277813,1.31475846
5e29fd5f2bec3b065e9a729e,96,1,2024-02-27T12:17:40.975Z,english_203.wav,0,peel,593,46,5,5,français,f,1,0.1,13.21695477,1.08922412
5e29fd5f2bec3b065e9a729e,96,1,2024-02-27T12:17:40.975Z,english_203.wav,0,peel,593,46,5,5,français,f,2,0.2,63.23651974,0.55450355
5e29fd5f2bec3b065e9a729e,96,1,2024-02-27T12:17:40.975Z,english_203.wav,0,peel,593,46,5,5,français,f,3,0.3,-20.14830746,1.72034007
5e29fd5f2bec3b065e9a729e,96,1,2024-02-27T12:17:40.975Z,english_203.wav,0,peel,593,46,5,5,français,f,4,0.32341667,-78.55276631,0.92481053
5e29fd5f2bec3b065e9a729e,97,1,2024-02-27T12:17:40.975Z,english_106.wav,0,peel,2047,46,5,5,français,f,0,0.0,-46.25200282,0.21046793
5e29fd5f2bec3b065e9a729e,97,1,2024-02-27T12:17:40.975Z,english_106.wav,0,peel,2047,46,5,5,français,f,1,0.1,-83.38564728,1.42142181
5e29fd5f2bec3b065e9a729e,97,1,2024-02-27T12:17:40.975Z,english_106.wav,0,peel,2047,46,5,5,français,f,2,0.2,68.00501759,0.86156936
5e29fd5f2bec3b065e9a729e,97,1,2024-02-27T12:17:40.975Z,english_106.wav,0,peel,2047,46,5,5,français,f,3,0.3,49.15199267,0.65348811
5e29fd5f2bec3b065e9a729e,97,1,2024-02-27T12:17:40.975Z,english_106.wav,0,peel,2047,46,5,5,français,f,4,0.32341667,-5.93966373,0.76273979
5e29fd5f2bec3b065e9a729e,98,1,2024-02-27T12:17:40.975Z,english_586.wav,0,pill,679,46,5,5,français,f,0,0.0,-62.23642036,1.06144709
5e29fd5f2bec3b065e9a729e,98,1,2024-02-27T12:17:40.975Z,english_586.wav,0,pill,679,46,5,5,français,f,1,0.1,79.13201234,0.54207142
5e29fd5f2bec3b065e9a729e,98,1,2024-02-27T12:17:40.975Z,english_586.wav,0,pill,679,46,5,5,français,f,2,0.2,-89.54923437,0.72134233
5e29fd5f2bec3b065e9a729e,98,1,2024-02-27T12:17:40.975Z,english_586.wav,0,pill,679,46,5,5,français,f,3,0.3,-19.27573078,0.33417878
5e29fd5f2bec3b065e9a729e,98,1,2024-02-27T12:17:40.975Z,english_586.wav,0,pill,679,46,5,5,français,f,4,0.32341667,-62.71214645,1.54129631
5e29fd5f2bec3b065e9a729e,99,1,2024-02-27T12:17:40.975Z,english_636.wav,0,peel,217,46,5,5,français,f,0,0.0,-20.37295141,1.69276631
5e29fd5f2bec3b065e9a729e,99,1,2024-02-27T12:17:40.975Z,english_636.wav,0,peel,217,46,5,5,français,f,1,0.1,-84.7288786,1.69908726
5e29fd5f2bec3b065e9a729e,99,1,2024-02-27T12:17:40.975Z,english_636.wav,0,peel,217,46,5,5,français,f,2,0.2,24.84265136,1.44836333
5e29fd5f2bec3b065e9a729e,99,1,2024-02-27T12:17:40.975Z,english_636.wav,0,peel,217,46,5,5,français,f,3,0.3,-9.2443485,1.36647816
5e29fd5f2bec3b065e9a729e,99,1,2024-02-27T12:17:40.975Z,english_636.wav,0,peel,217,46,5,5,français,f,4,0.32341667,49.04875774,0.88112598
5e29fd5f2bec3b065e9a729e,100,2,2024-02-27T12:17:40.975Z,english_527.wav,0,pill,1078,46,5,5,français,f,0,0.0,-32.70996179,0.06646481
5e29fd5f2bec3b065e9a729e,100,2,2024-02-27T12:17:40.975Z,english_527.wav,0,pill,1078,46,5,5,français,f,1,0.1,-61.96334317,1.75268105
5e29fd5f2bec3b065e9a729e,100,2,2024-02-27T12:17:40.975Z,english_527.wav,0,pill,1078,46,5,5,français,f,2,0.2,86.46317242,0.41061726
5e29fd5f2bec3b065e9a729e,100,2,2024-02-27T12:17:40.975Z,english_527.wav,0,pill,1078,46,5,5,français,f,3,0.3,-18.9429262,1.43024268
5e29fd5f2bec3b065e9a729e,100,2,2024-02-27T12:17:40.975Z,english_527.wav,0,pill,1078,46,5,5,français,f,4,0.32341667,-59.75355058,0.73468543
5e29fd5f2bec3b065e9a729e,101,2,2024-02-27T12:17:40.975Z,english_230.wav,0,pill,791,46,5,5,français,f,0,0.0,59.01519707,0.66464778
5e29fd5f2bec3b065e9a729e,101,2,2024-02-27T12:17:40.975Z,english_230.wav,0,pill,791,46,5,5,français,f,1,0.1,-74.67447784,1.09498554
5e29fd5f2bec3b065e9a729e,101,2,2024-02-27T12:17:40.975Z,english_230.wav,0,pill,791,46,5,5,français,f,2,0.2,78.11378701,0.24708562
5e29fd5f2bec3b065e9a729e,101,2,2024-02-27T12:17:40.975Z,english_230.wav,0,pill,791,46,5,5,français,f,3,0.3,26.79367619,1.40152246
5e29fd5f2bec3b065e9a729e,101,2,2024-02-27T12:17:40.975Z,english_230.wav,0,pill,791,46,5,5,français,f,4,0.32341667,29.92451654,1.02203861
5e29fd5f2bec3b065e9a729e,102,2,2024-02-27T12:17:40.975Z,english_917.wav,0,pill,560,46,5,5,français,f,0,0.0,-2.28432431,0.51220006
5e29fd5f2bec3b065e9a729e,102,2,2024-02-27T12:17:40.975Z,english_917.wav,0,pill,560,46,5,5,français,f,1,0.1,-50.4941454,0.3783057
5e29fd5f2bec3b065e9a729e,102,2,2024-02-27T12:17:40.975Z,english_917.wav,0,pill,560,46,5,5,français,f,2,0.2,86.41176613,0.52629226
5e29fd5f2bec3b065e9a729e,102,2,2024-02-27T12:17:40.975Z,english_917.wav,0,pill,560,46,5,5,français,f,3,0.3,-50.97734163,0.68389314
5e29fd5f2bec3b065e9a729e,102,2,2024-02-27T12:17:40.975Z,english_917.wav,0,pill,560,46,5,5,français,f,4,0.32341667,97.13453513,1.73708117
5e29fd5f2bec3b065e9a729e,103,2,2024-02-27T12:17:40.975Z,english_928.wav,0,peel,1028,46,5,5,français,f,0,0.0,55.07207497,1.22706758
5e29fd5f2bec3b065e9a729e,103,2,2024-02-27T12:17:40.975Z,english_928.wav,0,peel,1028,46,5,5,français,f,1,0.1,83.71672672,0.97206042
5e29fd5f2bec3b065e9a729e,103,2,2024-02-27T12:17:40.975Z,english_928.wav,0,peel,1028,46,5,5,français,f,2,0.2,-43.28929986,0.16969859
5e29fd5f2bec3b065e9a729e,103,2,2024-02-27T12:17:40.975Z,english_928.wav,0,peel,1028,46,5,5,français,f,3,0.3,-17.1692271,0.90092586
5e29fd5f2bec3b065e9a729e,103,2,2024-02-27T12:17:40.975Z,english_928.wav,0,peel,1028,46,5,5,français,f,4,0.32341667,-36.644272,0.43024518
5e29fd5f2bec3b065e9a729e,104,2,2024-02-27T12:17:40.975Z,english_824.wav,0,peel,499,46,5,5,français,f,0,0.0,80.46503136,1.43025592
5e29fd5f2bec3b065e9a729e,104,2,2024-02-27T12:17:40.975Z,english_824.wav,0,peel,499,46,5,5,français,f,1,0.1,-48.668347,0.89138167
5e29fd5f2bec3b065e9a729e,104,2,2024-02-27T12:17:40.975Z,english_824.wav,0,peel,499,46,5,5,français,f,2,0.2,37.27765876,1.91281619
5e29fd5f2bec3b065e9a729e,104,2,2024-02-27T12:17:40.975Z,english_824.wav,0,peel,499,46,5,5,français,f,3,0.3,-91.29945309,0.71335031
5e29fd5f2bec3b065e9a729e,104,2,2024-02-27T12:17:40.975Z,english_824.wav,0,peel,499,46,5,5,français,f,4,0.32341667,14.46507007,0.89780818
5e29fd5f2bec3b065e9a729e,105,2,2024-02-27T12:17:40.975Z,english_428.wav,0,peel,597,46,5,5,français,f,0,0.0,-98.34466569,1.83106884
5e29fd5f2bec3b065e9a729e,105,2,2024-02-27T12:17:40.975Z,english_428.wav,0,peel,597,46,5,5,français,f,1,0.1,-10.51162175,1.34345266
5e29fd5f2bec3b065e9a729e,105,2,2024-02-27T12:17:40.975Z,english_428.wav,0,peel,597,46,5,5,français,f,2,0.2,97.93427859,0.65853672
5e29fd5f2bec3b065e9a729e,105,2,2024-02-27T12:17:40.975Z,english_428.wav,0,peel,597,46,5,5,français,f,3,0.3,35.61870537,1.28105878
5e29fd5f2bec3b065e9a729e,105,2,2024-02-27T12:17:40.975Z,english_428.wav,0,peel,597,46,5,5,français,f,4,0.32341667,-12.49352836,0.15324236
5e29fd5f2bec3b065e9a729e,106,2,2024-02-27T12:17:40.975Z,english_604.wav,0,peel,676,46,5,5,français,f,0,0.0,11.37360706,1.9162078
5e29fd5f2bec3b065e9a729e,106,2,2024-02-27T12:17:40.975Z,english_604.wav,0,peel,676,46,5,5,français,f,1,0.1,-50.20832577,0.59247461
5e29fd5f2bec3b065e9a729e,106,2,2024-02-27T12:17:40.975Z,english_604.wav,0,peel,676,46,5,5,français,f,2,0.2,-34.39542541,1.79911242
5e29fd5f2bec3b065e9a729e,106,2,2024-02-27T12:17:40.975Z,english_604.wav,0,peel,676,46,5,5,français,f,3,0.3,-9.87560088,0.998763
5e29fd5f2bec3b065e9a729e,106,2,2024-02-27T12:17:40.975Z,english_604.wav,0,peel,676,46,5,5,français,f,4,0.32341667,34.71454295,0.76768671
5e29fd5f2bec3b065e9a729e,107,2,2024-02-27T12:17:40.975Z,english_39.wav,0,peel,856,46,5,5,français,f,0,0.0,28.0167149,1.3269735
5e29fd5f2bec3b065e9a729e,107,2,2024-02-27T12:17:40.975Z,english_39.wav,0,peel,856,46,5,5,français,f,1,0.1,0.73047565,0.59121622
5e29fd5f2bec3b065e9a729e,107,2,2024-02-27T12:17:40.975Z,english_39.wav,0,peel,856,46,5,5,français,f,2,0.2,-55.83763262,0.32613901
5e29fd5f2bec3b065e9a729e,107,2,2024-02-27T12:17:40.975Z,english_39.wav,0,peel,856,46,5,5,français,f,3,0.3,-59.78026112,1.39661139
5e29fd5f2bec3b065e9a729e,107,2,2024-02-27T12:17:40.975Z,english_39.wav,0,peel,856,46,5,5,français,f,4,0.32341667,81.1603589,0.76065887
5e29fd5f2bec3b065e9a729e,108,2,2024-02-27T12:17:40.975Z,english_893.wav,0,pill,1216,46,5,5,français,f,0,0.0,17.19699967,0.82427167
5e29fd5f2bec3b065e9a729e,108,2,2024-02-27T12:17:40.975Z,english_893.wav,0,pill,1216,46,5,5,français,f,1,0.1,57.52525856,1.49866988
5e29fd5f2bec3b065e9a729e,108,2,2024-02-27T12:17:40.975Z,english_893.wav,0,pill,1216,46,5,5,français,f,2,0.2,13.30661706,0.84536161
5e29fd5f2bec3b065e9a729e,108,2,2024-02-27T12:17:40.975Z,english_893.wav,0,pill,1216,46,5,5,français,f,3,0.3,33.02687073,0.10168024
5e29fd5f2bec3b065e9a729e,108,2,2024-02-27T12:17:40.975Z,english_893.wav,0,pill,1216,46,5,5,français,f,4,0.32341667,-64.43392463,0.7117056
5e29fd5f2bec3b065e9a729e,109,2,2024-02-27T12:17:40.975Z,english_130.wav,0,pill,864,46,5,5,français,f,0,0.0,-27.4951122,0.83907871
5e29fd5f2bec3b065e9a729e,109,2,2024-02-27T12:17:40.975Z,english_130.wav,0,pill,864,46,5,5,français,f,1,0.1,-38.07775804,1.38560413
5e29fd5f2bec3b065e9a729e,109,2,2024-02-27T12:17:40.975Z,english_130.wav,0,pill,864,46,5,5,français,f,2,0.2,-9.69340922,0.50531735
5e29fd5f2bec3b065e9a729e,109,2,2024-02-27T12:17:40.975Z,english_130.wav,0,pill,864,46,5,5,français,f,3,0.3,-88.09187015,0.53414674
5e29fd5f2bec3b065e9a729e,109,2,2024-02-27T12:17:40.975Z,english_130.wav,0,pill,864,46,5,5,français,f,4,0.32341667,-47.45461314,1.10107345
5e29fd5f2bec3b065e9a729e,110,2,2024-02-27T12:17:40.975Z,english_485.wav,0,peel,499,46,5,5,français,f,0,0.0,-7.08941798,1.8206563
5e29fd5f2bec3b065e9a729e,110,2,2024-02-27T12:17:40.975Z,english_485.wav,0,peel,499,46,5,5,français,f,1,0.1,-70.64579204,0.10660577
5e29fd5f2bec3b065e9a729e,110,2,2024-02-27T12:17:40.975Z,english_485.wav,0,peel,499,46,5,5,français,f,2,0.2,23.79115045,1.92760945
5e29fd5f2bec3b065e9a729e,110,2,2024-02-27T12:17:40.975Z,english_485.wav,0,peel,499,46,5,5,français,f,3,0.3,0.80487994,0.77499174
5e29fd5f2bec3b065e9a729e,110,2,2024-02-27T12:17:40.975Z,english_485.wav,0,peel,499,46,5,5,français,f,4,0.32341667,4.72097057,1.20070888
5e29fd5f2bec3b065e9a729e,111,2,2024-02-27T12:17:40.975Z,english_769.wav,0,peel,1156,46,5,5,français,f,0,0.0,-12.68288087,1.59358978
5e29fd5f2bec3b065e9a729e,111,2,2024-02-27T12:17:40.975Z,english_769.wav,0,peel,1156,46,5,5,français,f,1,0.1,13.58895245,0.16681031
5e29fd5f2bec3b065e9a729e,111,2,2024-02-27T12:17:40.975Z,english_769.wav,0,peel,1156,46,5,5,français,f,2,0.2,-5.57429841,0.74292099
5e29fd5f2bec3b065e9a729e,111,2,2024-02-27T12:17:40.975Z,english_769.wav,0,peel,1156,46,5,5,français,f,3,0.3,-26.44516544,0.17250104
5e29fd5f2bec3b065e9a729e,111,2,2024-02-27T12:17:40.975Z,english_769.wav,0,peel,1156,46,5,5,français,f,4,0.32341667,85.93285426,0.16730253
5e29fd5f2bec3b065e9a729e,112,2,2024-02-27T12:17:40.975Z,english_509.wav,0,peel,624,46,5,5,français,f,0,0.0,58.37136146,0.93627824
5e29fd5f2bec3b065e9a729e,112,2,2024-02-27T12:17:40.975Z,english_509.wav,0,peel,624,46,5,5,français,f,1,0.1,-30.59588084,1.268957
5e29fd5f2bec3b065e9a729e,112,2,2024-02-27T12:17:40.975Z,english_509.wav,0,peel,624,46,5,5,français,f,2,0.2,-42.62400689,0.87018438
5e29fd5f2bec3b065e9a729e,112,2,2024-02-27T12:17:40.975Z,english_509.wav,0,peel,624,46,5,5,français,f,3,0.3,58.46483968,1.67134466
5e29fd5f2bec3b065e9a729e,112,2,2024-02-27T12:17:40.975Z,english_509.wav,0,peel,624,46,5,5,français,f,4,0.32341667,44.09610342,1.96584472
5e29fd5f2bec3b065e9a729e,113,2,2024-02-27T12:17:40.975Z,english_383.wav,0,peel,498,46,5,5,français,f,0,0.0,-1.49759031,0.61403304
5e29fd5f2bec3b065e9a729e,113,2,2024-02-27T12:17:40.975Z,english_383.wav,0,peel,498,46,5,5,français,f,1,0.1,48.0809444,0.69225556
5e29fd5f2bec3b065e9a729e,113,2,2024-02-27T12:17:40.975Z,english_383.wav,0,peel,498,46,5,5,français,f,2,0.2,-84.09524499,0.33452268
5e29fd5f2bec3b065e9a729e,113,2,2024-02-27T12:17:40.975Z,english_383.wav,0,peel,498,46,5,5,français,f,3,0.3,95.23220486,1.06792504
5e29fd5f2bec3b065e9a729e,113,2,2024-02-27T12:17:40.975Z,english_383.wav,0,peel,498,46,5,5,français,f,4,0.32341667,64.91086902,0.58483827
5e29fd5f2bec3b065e9a729e,114,2,2024-02-27T12:17:40.975Z,english_148.wav,0,peel,406,46,5,5,français,f,0,0.0,-15.87588743,0.13468567
5e29fd5f2bec3b065e9a729e,114,2,2024-02-27T12:17:40.975Z,english_148.wav,0,peel,406,46,5,5,français,f,1,0.1,66.05332506,1.11017862
5e29fd5f2bec3b065e9a729e,114,2,2024-02-27T12:17:40.975Z,english_148.wav,0,peel,406,46,5,5,français,f,2,0.2,50.59551539,0.42983488
5e29fd5f2bec3b065e9a729e,114,2,2024-02-27T12:17:40.975Z,english_148.wav,0,peel,406,46,5,5,français,f,3,0.3,-59.45276716,0.2729575
5e29fd5f2bec3b065e9a729e,114,2,2024-02-27T12:17:40.975Z,english_148.wav,0,peel,406,46,5,5,français,f,4,0.32341667,58.4155276,0.65396017
5e29fd5f2bec3b065e9a729e,115,2,2024-02-27T12:17:40.975Z,english_927.wav,0,peel,1183,46,5,5,français,f,0,0.0,81.66311017,1.3783001
5e29fd5f2bec3b065e9a729e,115,2,2024-02-27T12:17:40.975Z,english_927.wav,0,peel,1183,46,5,5,français,f,1,0.1,0.87570902,0.51323502
5e29fd5f2bec3b065e9a729e,115,2,2024-02-27T12:17:40.975Z,english_927.wav,0,peel,1183,46,5,5,français,f,2,0.2,-59.21619647,0.98265958
5e29fd5f2bec3b065e9a729e,115,2,2024-02-27T12:17:40.975Z,english_927.wav,0,peel,1183,46,5,5,français,f,3,0.3,-57.6787773,0.30790993
5e29fd5f2bec3b065e9a729e,115,2,2024-02-27T12:17:40.975Z,english_927.wav,0,peel,1183,46,5,5,français,f,4,0.32341667,-30.87043146,1.17222751
5e29fd5f2bec3b065e9a729e,116,2,2024-02-27T12:17:40.975Z,english_908.wav,0,peel,614,46,5,5,français,f,0,0.0,48.62867987,1.27180628
5e29fd5f2bec3b065e9a729e,116,2,2024-02-27T12:17:40.975Z,english_908.wav,0,peel,614,46,5,5,français,f,1,0.1,15.18588807,0.65893562
5e29fd5f2bec3b065e9a729e,116,2,2024-02-27T12:17:40.975Z,english_908.wav,0,peel,614,46,5,5,français,f,2,0.2,-42.37345339,1.07678682
5e29fd5f2bec3b065e9a729e,116,2,2024-02-27T12:17:40.975Z,english_908.wav,0,peel,614,46,5,5,français,f,3,0.3,10.74033392,1.66111239
5e29fd5f2bec3b065e9a729e,116,2,2024-02-27T12:17:40.975Z,english_908.wav,0,peel,614,46,5,5,français,f,4,0.32341667,-40.14378972,0.30218678
5e29fd5f2bec3b065e9a729e,117,2,2024-02-27T12:17:40.975Z,english_465.wav,0,peel,516,46,5,5,français,f,0,0.0,40.04056426,1.33778995
5e29fd5f2bec3b065e9a729e,117,2,2024-02-27T12:17:40.975Z,english_465.wav,0,peel,516,46,5,5,français,f,1,0.1,-97.28817369,0.1899685
5e29fd5f2bec3b065e9a729e,117,2,2024-02-27T12:17:40.975Z,english_465.wav,0,peel,516,46,5,5,français,f,2,0.2,-58.72937184,1.35609136
5e29fd5f2bec3b065e9a729e,117,2,2024-02-27T12:17:40.975Z,english_465.wav,0,peel,516,46,5,5,français,f,3,0.3,82.2448524,1.94032164
5e29fd5f2bec3b065e9a729e,117,2,2024-02-27T12:17:40.975Z,english_465.wav,0,peel,516,46,5,5,français,f,4,0.32341667,-29.20233879,0.27858753
5e29fd5f2bec3b065e9a729e,118,2,2024-02-27T12:17:40.975Z,english_369.wav,0,peel,413,46,5,5,français,f,0,0.0,-12.14177447,1.64093778
5e29fd5f2bec3b065e9a729e,118,2,2024-02-27T12:17:40.975Z,english_369.wav,0,peel,413,46,5,5,français,f,1,0.1,76.29699147,1.47479283
5e29fd5f2bec3b065e9a729e,118,2,2024-02-27T12:17:40.975Z,english_369.wav,0,peel,413,46,5,5,français,f,2,0.2,-85.49552365,1.31757561
5e29fd5f2bec3b065e9a729e,118,2,2024-02-27T12:17:40.975Z,english_369.wav,0,peel,413,46,5,5,français,f,3,0.3,-68.94608988,1.92077404
5e29fd5f2bec3b065e9a729e,118,2,2024-02-27T12:17:40.975Z,english_369.wav,0,peel,413,46,5,5,français,f,4,0.32341667,40.32615784,1.4628922
5e29fd5f2bec3b065e9a729e,119,2,2024-02-27T12:17:40.975Z,english_50.wav,0,pill,1734,46,5,5,français,f,0,0.0,-72.72872807,1.68140442
5e29fd5f2bec3b065e9a729e,119,2,2024-02-27T12:17:40.975Z,english_50.wav,0,pill,1734,46,5,5,français,f,1,0.1,-88.33626222,1.82728433
5e29fd5f2bec3b065e9a729e,119,2,2024-02-27T12:17:40.975Z,english_50.wav,0,pill,1734,46,5,5,français,f,2,0.2,-2.18882928,0.80476824
5e29fd5f2bec3b065e9a729e,119,2,2024-02-27T12:17:40.975Z,english_50.wav,0,pill,1734,46,5,5,français,f,3,0.3,60.61456424,0.21215651
5e29fd5f2bec3b065e9a729e,119,2,2024-02-27T12:17:40.975Z,english_50.wav,0,pill,1734,46,5,5,français,f,4,0.32341667,95.28335061,1.87644163
5e29fd5f2bec3b065e9a729e,120,2,2024-02-27T12:17:40.975Z,english_272.wav,0,peel,1124,46,5,5,français,f,0,0.0,61.82030971,1.51341556
5e29fd5f2bec3b065e9a729e,120,2,2024-02-27T12:17:40.975Z,english_272.wav,0,peel,1124,46,5,5,français,f,1,0.1,4.16580657,0.43290826
5e29fd5f2bec3b065e9a729e,120,2,2024-02-27T12:17:40.975Z,english_272.wav,0,peel,1124,46,5,5,français,f,2,0.2,-53.2567432,1.82734584
5e29fd5f2bec3b065e9a729e,120,2,2024-02-27T12:17:40.975Z,english_272.wav,0,peel,1124,46,5,5,français,f,3,0.3,-52.99830768,0.22094446
5e29fd5f2bec3b065e9a729e,120,2,2024-02-27T12:17:40.975Z,english_272.wav,0,peel,1124,46,5,5,français,f,4,0.32341667,-92.9943793,1.88040337
5e29fd5f2bec3b065e9a729e,121,2,2024-02-27T12:17:40.975Z,english_643.wav,0,peel,1844,46,5,5,français,f,0,0.0,-40.15003434,1.60262153
5e29fd5f2bec3b065e9a729e,121,2,2024-02-27T12:17:40.975Z,english_643.wav,0,peel,1844,46,5,5,français,f,1,0.1,-24.12893917,1.7682358
5e29fd5f2bec3b065e9a729e,121,2,2024-02-27T12:17:40.975Z,english_643.wav,0,peel,1844,46,5,5,français,f,2,0.2,-40.66556796,0.31725537
5e29fd5f2bec3b065e9a729e,121,2,2024-02-27T12:17:40.975Z,english_643.wav,0,peel,1844,46,5,5,français,f,3,0.3,75.01987067,0.56722121
5e29fd5f2bec3b065e9a729e,121,2,2024-02-27T12:17:40.975Z,english_643.wav,0,peel,1844,46,5,5,français,f,4,0.32341667,29.71481383,1.87277365
5e29fd5f2bec3b065e9a729e,122,2,2024-02-27T12:17:40.975Z,english_269.wav,0,peel,504,46,5,5,français,f,0,0.0,61.09556447,1.11606818
5e29fd5f2bec3b065e9a729e,122,2,2024-02-27T12:17:40.975Z,english_269.wav,0,peel,504,46,5,5,français,f,1,0.1,-3.97684721,1.55443041
5e29fd5f2bec3b065e9a729e,122,2,2024-02-27T12:17:40.975Z,english_269.wav,0,peel,504,46,5,5,français,f,2,0.2,-87.59080112,1.78173809
5e29fd5f2bec3b065e9a729e,122,2,2024-02-27T12:17:40.975Z,english_269.wav,0,peel,504,46,5,5,français,f,3,0.3,78.47165079,1.73012946
5e29fd5f2bec3b065e9a729e,122,2,2024-02-27T12:17:40.975Z,english_269.wav,0,peel,504,46,5,5,français,f,4,0.32341667,-52.74135522,0.88090417
5e29fd5f2bec3b065e9a729e,123,2,2024-02-27T12:17:40.975Z,english_496.wav,0,peel,572,46,5,5,français,f,0,0.0,-50.36729616,1.24588939
5e29fd5f2bec3b065e9a729e,123,2,2024-02-27T12:17:40.975Z,english_496.wav,0,peel,572,46,5,5,français,f,1,0.1,43.15166092,1.651593
5e29fd5f2bec3b065e9a729e,123,2,2024-02-27T12:17:40.975Z,english_496.wav,0,peel,572,46,5,5,français,f,2,0.2,-89.08132341,0.94120535
5e29fd5f2bec3b065e9a729e,123,2,2024-02-27T12:17:40.975Z,english_496.wav,0,peel,572,46,5,5,français,f,3,0.3,-31.93753525,0.55989053
5e29fd5f2bec3b065e9a729e,123,2,2024-02-27T12:17:40.975Z,english_496.wav,0,peel,572,46,5,5,français,f,4,0.32341667,-79.66514086,1.95233748
5e29fd5f2bec3b065e9a729e,124,2,2024-02-27T12:17:40.975Z,english_104.wav,0,peel,634,46,5,5,français,f,0,0.0,42.44693926,0.1741435
5e29fd5f2bec3b065e9a729e,124,2,2024-02-27T12:17:40.975Z,english_104.wav,0,peel,634,46,5,5,français,f,1,0.1,82.22484934,0.11379641
5e29fd5f2bec3b065e9a729e,124,2,2024-02-27T12:17:40.975Z,english_104.wav,0,peel,634,46,5,5,français,f,2,0.2,7.21737924,1.60376175
5e29fd5f2bec3b065e9a729e,124,2,2024-02-27T12:17:40.975Z,english_104.wav,0,peel,634,46,5,5,français,f,3,0.3,26.54640215,1.08059257
5e29fd5f2bec3b065e9a729e,124,2,2024-02-27T12:17:40.975Z,english_104.wav,0,peel,634,46,5,5,français,f,4,0.32341667,-33.4974026,1.8061622
5e29fd5f2bec3b065e9a729e,125,2,2024-02-27T12:17:40.975Z,english_99.wav,0,pill,409,46,5,5,français,f,0,0.0,9.75149611,0.79411887
5e29fd5f2bec3b065e9a729e,125,2,2024-02-27T12:17:40.975Z,english_99.wav,0,pill,409,46,5,5,français,f,1,0.1,-7.37998228,0.53064308
5e29fd5f2bec3b065e9a729e,125,2,2024-02-27T12:17:40.975Z,english_99.wav,0,pill,409,46,5,5,français,f,2,0.2,29.15889261,0.10254027
5e29fd5f2bec3b065e9a729e,125,2,2024-02-27T12:17:40.975Z,english_99.wav,0,pill,409,46,5,5,français,f,3,0.3,-23.23230809,0.53999741
5e29fd5f2bec3b065e9a729e,125,2,2024-02-27T12:17:40.975Z,english_99.wav,0,pill,409,46,5,5,français,f,4,0.32341667,51.25937721,0.74302856
5e29fd5f2bec3b065e9a729e,126,2,2024-02-27T12:17:40.975Z,english_773.wav,0,peel,454,46,5,5,français,f,0,0.0,-97.46951928,0.54003315
5e29fd5f2bec3b065e9a729e,126,2,2024-02-27T12:17:40.975Z,english_773.wav,0,peel,454,46,5,5,français,f,1,0.1,85.58858853,1.35505424
5e29fd5f2bec3b065e9a729e,126,2,2024-02-27T12:17:40.975Z,english_773.wav,0,peel,454,46,5,5,français,f,2,0.2,-54.69649905,1.09283168
5e29fd5f2bec3b065e9a729e,126,2,2024-02-27T12:17:40.975Z,english_773.wav,0,peel,454,46,5,5,français,f,3,0.3,-97.24656559,1.42526307
5e29fd5f2bec3b065e9a729e,126,2,2024-02-27T12:17:40.975Z,english_773.wav,0,peel,454,46,5,5,français,f,4,0.32341667,40.28006613,0.69844725
5e29fd5f2bec3b065e9a729e,127,2,2024-02-27T12:17:40.975Z,english_539.wav,0,peel,677,46,5,5,français,f,0,0.0,-67.77604021,0.83598486
5e29fd5f2bec3b065e9a729e,127,2,2024-02-27T12:17:40.975Z,english_539.wav,0,peel,677,46,5,5,français,f,1,0.1,61.22104537,1.51877163
5e29fd5f2bec3b065e9a729e,127,2,2024-02-27T12:17:40.975Z,english_539.wav,0,peel,677,46,5,5,français,f,2,0.2,38.09257369,1.73578169
5e29fd5f2bec3b065e9a729e,127,2,2024-02-27T12:17:40.975Z,english_539.wav,0,peel,677,46,5,5,français,f,3,0.3,-20.76875757,0.52680037
5e29fd5f2bec3b065e9a729e,127,2,2024-02-27T12:17:40.975Z,english_539.wav,0,peel,677,46,5,5,français,f,4,0.32341667,-47.71444482,1.99278149
5e29fd5f2bec3b065e9a729e,128,2,2024-02-27T12:17:40.975Z,english_345.wav,0,peel,1983,46,5,5,français,f,0,0.0,-46.00579497,1.58751342
5e29fd5f2bec3b065e9a729e,128,2,2024-02-27T12:17:40.975Z,english_345.wav,0,peel,1983,46,5,5,français,f,1,0.1,-45.5805492,1.0202646
5e29fd5f2bec3b065e9a729e,128,2,2024-02-27T12:17:40.975Z,english_345.wav,0,peel,1983,46,5,5,français,f,2,0.2,-14.04378539,0.61561299
5e29fd5f2bec3b065e9a729e,128,2,2024-02-27T12:17:40.975Z,english_345.wav,0,peel,1983,46,5,5,français,f,3,0.3,63.72413351,1.21547564
5e29fd5f2bec3b065e9a729e,128,2,2024-02-27T12:17:40.975Z,english_345.wav,0,peel,1983,46,5,5,français,f,4,0.32341667,18.03717792,1.47127253
5e29fd5f2bec3b065e9a729e,129,2,2024-02-27T12:17:40.975Z,english_301.wav,0,peel,693,46,5,5,français,f,0,0.0,-78.18927369,1.31935747
5e29fd5f2bec3b065e9a729e,129,2,2024-02-27T12:17:40.975Z,english_301.wav,0,peel,693,46,5,5,français,f,1,0.1,-3.52439177,1.41636911
5e29fd5f2bec3b065e9a729e,129,2,2024-02-27T12:17:40.975Z,english_301.wav,0,peel,693,46,5,5,français,f,2,0.2,-23.22473782,1.38842862
5e29fd5f2bec3b065e9a729e,129,2,2024-02-27T12:17:40.975Z,english_301.wav,0,peel,693,46,5,5,français,f,3,0.3,-11.7220967,1.25169603
5e29fd5f2bec3b065e9a729e,129,2,2024-02-27T12:17:40.975Z,english_301.wav,0,peel,693,46,5,5,français,f,4,0.32341667,-5.78047748,1.38740104
5e29fd5f2bec3b065e9a729e,130,2,2024-02-27T12:17:40.975Z,english_413.wav,0,peel,736,46,5,5,français,f,0,0.0,-9.66675054,1.82887045
5e29fd5f2bec3b065e9a729e,130,2,2024-02-27T12:17:40.975Z,english_413.wav,0,peel,736,46,5,5,français,f,1,0.1,15.27504309,0.80668743
5e29fd5f2bec3b065e9a729e,130,2,2024-02-27T12:17:40.975Z,english_413.wav,0,peel,736,46,5,5,français,f,2,0.2,-94.93171401,0.90586838
5e29fd5f2bec3b065e9a729e,130,2,2024-02-27T12:17:40.975Z,english_413.wav,0,peel,736,46,5,5,français,f,3,0.3,-42.87800999,1.3937681
5e29fd5f2bec3b065e9a729e,130,2,2024-02-27T12:17:40.975Z,english_413.wav,0,peel,736,46,5,5,français,f,4,0.32341667,-63.39385234,0.34165264
5e29fd5f2bec3b065e9a729e,131,2,2024-02-27T12:17:40.975Z,english_209.wav,0,peel,869,46,5,5,français,f,0,0.0,14.15361396,1.44232267
5e29fd5f2bec3b065e9a729e,131,2,2024-02-27T12:17:40.975Z,english_209.wav,0,peel,869,46,5,5,français,f,1,0.1,85.95109622,1.49291498
5e29fd5f2bec3b065e9a729e,131,2,2024-02-27T12:17:40.975Z,english_209.wav,0,peel,869,46,5,5,français,f,2,0.2,18.04804687,1.19611731
5e29fd5f2bec3b065e9a729e,131,2,2024-02-27T12:17:40.975Z,english_209.wav,0,peel,869,46,5,5,français,f,3,0.3,28.2522976,1.49647535
5e29fd5f2bec3b065e9a729e,131,2,2024-02-27T12:17:40.975Z,english_209.wav,0,peel,869,46,5,5,français,f,4,0.32341667,5.36776296,0.30324849
5e29fd5f2bec3b065e9a729e,132,2,2024-02-27T12:17:40.975Z,english_385.wav,0,peel,530,46,5,5,français,f,0,0.0,-55.07910634,1.75648555
5e29fd5f2bec3b065e9a729e,132,2,2024-02-27T12:17:40.975Z,english_385.wav,0,peel,530,46,5,5,français,f,1,0.1,-94.47680079,1.20856462
5e29fd5f2bec3b065e9a729e,132,2,2024-02-27T12:17:40.975Z,english_385.wav,0,peel,530,46,5,5,français,f,2,0.2,38.70414457,0.98103352
5e29fd5f2bec3b065e9a729e,132,2,2024-02-27T12:17:40.975Z,english_385.wav,0,peel,530,46,5,5,français,f,3,0.3,-46.17691,1.45745263
5e29fd5f2bec3b065e9a729e,132,2,2024-02-27T12:17:40.975Z,english_385.wav,0,peel,530,46,5,5,français,f,4,0.32341667,2.5941508,0.88353815
5e29fd5f2bec3b065e9a729e,133,2,2024-02-27T12:17:40.975Z,english_786.wav,0,peel,767,46,5,5,français,f,0,0.0,50.77560123,0.9907589
5e29fd5f2bec3b065e9a729e,133,2,2024-02-27T12:17:40.975Z,english_786.wav,0,peel,767,46,5,5,français,f,1,0.1,-87.08435808,0.48193409
5e29fd5f2bec3b065e9a729e,133,2,2024-02-27T12:17:40.975Z,english_786.wav,0,peel,767,46,5,5,français,f,2,0.2,-36.07136163,1.01949061
5e29fd5f2bec3b065e9a729e,133,2,2024-02-27T12:17:40.975Z,english_786.wav,0,peel,767,46,5,5,français,f,3,0.3,98.77618087,1.06334926
5e29fd5f2bec3b065e9a729e,133,2,2024-02-27T12:17:40.975Z,english_786.wav,0,peel,767,46,5,5,français,f,4,0.32341667,86.70070823,0.94164836
5e29fd5f2bec3b065e9a729e,134,2,2024-02-27T12:17:40.975Z,english_612.wav,0,peel,680,46,5,5,français,f,0,0.0,-84.32217164,1.34068621
5e29fd5f2bec3b065e9a729e,134,2,2024-02-27T12:17:40.975Z,english_612.wav,0,peel,680,46,5,5,français,f,1,0.1,36.55311424,0.03443149
5e29fd5f2bec3b065e9a729e,134,2,2024-02-27T12:17:40.975Z,english_612.wav,0,peel,680,46,5,5,français,f,2,0.2,92.38334081,0.45903509
5e29fd5f2bec3b065e9a729e,134,2,2024-02-27T12:17:40.975Z,english_612.wav,0,peel,680,46,5,5,français,f,3,0.3,11.68953794,0.60209198
5e29fd5f2bec3b065e9a729e,134,2,2024-02-27T12:17:40.975Z,english_612.wav,0,peel,680,46,5,5,français,f,4,0.32341667,43.3279226,0.29533154
5e29fd5f2bec3b065e9a729e,135,2,2024-02-27T12:17:40.975Z,english_885.wav,0,peel,469,46,5,5,français,f,0,0.0,36.3288655,0.78617108
5e29fd5f2bec3b065e9a729e,135,2,2024-02-27T12:17:40.975Z,english_885.wav,0,peel,469,46,5,5,français,f,1,0.1,-33.4786966,0.96292114
5e29fd5f2bec3b065e9a729e,135,2,2024-02-27T12:17:40.975Z,english_885.wav,0,peel,469,46,5,5,français,f,2,0.2,8.05827153,0.70266535
5e29fd5f2bec3b065e9a729e,135,2,2024-02-27T12:17:40.975Z,english_885.wav,0,peel,469,46,5,5,français,f,3,0.3,84.98004341,0.45613544
5e29fd5f2bec3b065e9a729e,135,2,2024-02-27T12:17:40.975Z,english_885.wav,0,peel,469,46,5,5,français,f,4,0.32341667,-34.65749493,0.81873504
5e29fd5f2bec3b065e9a729e,136,2,2024-02-27T12:17:40.975Z,english_601.wav,0,pill,431,46,5,5,français,f,0,0.0,54.32401431,0.08668951
5e29fd5f2bec3b065e9a729e,136,2,2024-02-27T12:17:40.975Z,english_601.wav,0,pill,431,46,5,5,français,f,1,0.1,-6.72935942,1.16468766
5e29fd5f2bec3b065e9a729e,136,2,2024-02-27T12:17:40.975Z,english_601.wav,0,pill,431,46,5,5,français,f,2,0.2,39.12079493,1.8612572
5e29fd5f2bec3b065e9a729e,136,2,2024-02-27T12:17:40.975Z,english_601.wav,0,pill,431,46,5,5,français,f,3,0.3,39.92141387,0.92171433
5e29fd5f2bec3b065e9a729e,136,2,2024-02-27T12:17:40.975Z,english_601.wav,0,pill,431,46,5,5,français,f,4,0.32341667,-27.14681087,0.50419734
5e29fd5f2bec3b065e9a729e,137,2,2024-02-27T12:17:40.975Z,english_831.wav,0,peel,381,46,5,5,français,f,0,0.0,-7.33710711,1.53159971
5e29fd5f2bec3b065e9a729e,137,2,2024-02-27T12:17:40.975Z,english_831.wav,0,peel,381,46,5,5,français,f,1,0.1,-87.69782071,1.22669962
5e29fd5f2bec3b065e9a729e,137,2,2024-02-27T12:17:40.975Z,english_831.wav,0,peel,381,46,5,5,français,f,2,0.2,34.03975531,0.70180407
5e29fd5f2bec3b065e9a729e,137,2,2024-02-27T12:17:40.975Z,english_831.wav,0,peel,381,46,5,5,français,f,3,0.3,-2.18295653,1.02244347
5e29fd5f2bec3b065e9a729e,137,2,2024-02-27T12:17:40.975Z,english_831.wav,0,peel,381,46,5,5,français,f,4,0.32341667,20.908766,1.06702443
5e29fd5f2bec3b065e9a729e,138,2,2024-02-27T12:17:40.975Z,english_632.wav,0,peel,400,46,5,5,français,f,0,0.0,-56.22391322,1.21249895
5e29fd5f2bec3b065e9a729e,138,2,2024-02-27T12:17:40.975Z,english_632.wav,0,peel,400,46,5,5,français,f,1,0.1,-47.59423942,0.39515719
5e29fd5f2bec3b065e9a729e,138,2,2024-02-27T12:17:40.975Z,english_632.wav,0,peel,400,46,5,5,français,f,2,0.2,91.93727259,1.8528852
5e29fd5f2bec3b065e9a729e,138,2,2024-02-27T12:17:40.975Z,english_632.wav,0,peel,400,46,5,5,français,f,3,0.3,-33.89646621,1.67254104
5e29fd5f2bec3b065e9a729e,138,2,2024-02-27T12:17:40.975Z,english_632.wav,0,peel,400,46,5,5,français,f,4,0.32341667,46.88387871,1.21014685
5e29fd5f2bec3b065e9a729e,139,2,2024-02-27T12:17:40.975Z,english_401.wav,0,peel,636,46,5,5,français,f,0,0.0,-70.37998858,1.11338134
5e29fd5f2bec3b065e9a729e,139,2,2024-02-27T12:17:40.975Z,english_401.wav,0,peel,636,46,5,5,français,f,1,0.1,49.27188779,1.59691292
5e29fd5f2bec3b065e9a729e,139,2,2024-02-27T12:17:40.975Z,english_401.wav,0,peel,636,46,5,5,français,f,2,0.2,5.09566389,0.88679935
5e29fd5f2bec3b065e9a729e,139,2,2024-02-27T12:17:40.975Z,english_401.wav,0,peel,636,46,5,5,français,f,3,0.3,58.42368176,1.89749174
5e29fd5f2bec3b065e9a729e,139,2,2024-02-27T12:17:40.975Z,english_401.wav,0,peel,636,46,5,5,français,f,4,0.32341667,-43.06407799,1.35831765
5e29fd5f2bec3b065e9a729e,140,2,2024-02-27T12:17:40.975Z,english_88.wav,0,pill,1404,46,5,5,français,f,0,0.0,26.55889683,1.3027014
5e29fd5f2bec3b065e9a729e,140,2,2024-02-27T12:17:40.975Z,english_88.wav,0,pill,1404,46,5,5,français,f,1,0.1,31.00356365,0.67122251
5e29fd5f2bec3b065e9a729e,140,2,2024-02-27T12:17:40.975Z,english_88.wav,0,pill,1404,46,5,5,français,f,2,0.2,-60.56468942,0.59704477
5e29fd5f2bec3b065e9a729e,140,2,2024-02-27T12:17:40.975Z,english_88.wav,0,pill,1404,46,5,5,français,f,3,0.3,-56.53017227,1.68194373
5e29fd5f2bec3b065e9a729e,140,2,2024-02-27T12:17:40.975Z,english_88.wav,0,pill,1404,46,5,5,français,f,4,0.32341667,-78.90279024,0.42277005
5e29fd5f2bec3b065e9a729e,141,2,2024-02-27T12:17:40.975Z,english_955.wav,0,pill,633,46,5,5,français,f,0,0.0,-93.58498903,1.26703381
5e29fd5f2bec3b065e9a729e,141,2,2024-02-27T12:17:40.975Z,english_955.wav,0,pill,633,46,5,5,français,f,1,0.1,-11.56731864,0.51967441
5e29fd5f2bec3b065e9a729e,141,2,2024-02-27T12:17:40.975Z,english_955.wav,0,pill,633,46,5,5,français,f,2,0.2,60.37787928,1.0313906
5e29fd5f2bec3b065e9a729e,141,2,2024-02-27T12:17:40.975Z,english_955.wav,0,pill,633,46,5,5,français,f,3,0.3,83.42366765,1.58878747
5e29fd5f2bec3b065e9a729e,141,2,2024-02-27T12:17:40.975Z,english_955.wav,0,pill,633,46,5,5,français,f,4,0.32341667,-60.32056418,1.0025339
5e29fd5f2bec3b065e9a729e,142,2,2024-02-27T12:17:40.975Z,english_926.wav,0,pill,337,46,5,5,français,f,0,0.0,-21.84910749,1.63725542
5e29fd5f2bec3b065e9a729e,142,2,2024-02-27T12:17:40.975Z,english_926.wav,0,pill,337,46,5,5,français,f,1,0.1,92.62617727,0.91190035
5e29fd5f2bec3b065e9a729e,142,2,2024-02-27T12:17:40.975Z,english_926.wav,0,pill,337,46,5,5,français,f,2,0.2,-40.07927874,0.45967153
5e29fd5f2bec3b065e9a729e,142,2,2024-02-27T12:17:40.975Z,english_926.wav,0,pill,337,46,5,5,français,f,3,0.3,30.58508574,0.64362954
5e29fd5f2bec3b065e9a729e,142,2,2024-02-27T12:17:40.975Z,english_926.wav,0,pill,337,46,5,5,français,f,4,0.32341667,-68.98646438,1.44788087
5e29fd5f2bec3b065e9a729e,143,2,2024-02-27T12:17:40.975Z,english_936.wav,0,peel,575,46,5,5,français,f,0,0.0,48.39129511,0.54114143
5e29fd5f2bec3b065e9a729e,143,2,2024-02-27T12:17:40.975Z,english_936.wav,0,peel,575,46,5,5,français,f,1,0.1,-60.21618585,1.68728974
5e29fd5f2bec3b065e9a729e,143,2,2024-02-27T12:17:40.975Z,english_936.wav,0,peel,575,46,5,5,français,f,2,0.2,21.92845445,1.39155326
5e29fd5f2bec3b065e9a729e,143,2,2024-02-27T12:17:40.975Z,english_936.wav,0,peel,575,46,5,5,français,f,3,0.3,72.85258749,0.90488419
5e29fd5f2bec3b065e9a729e,143,2,2024-02-27T12:17:40.975Z,english_936.wav,0,peel,575,46,5,5,français,f,4,0.32341667,60.11152814,1.20326098
5e29fd5f2bec3b065e9a729e,144,2,2024-02-27T12:17:40.975Z,english_859.wav,0,pill,1355,46,5,5,français,f,0,0.0,71.31858369,0.11764496
5e29fd5f2bec3b065e9a729e,144,2,2024-02-27T12:17:40.975Z,english_859.wav,0,pill,1355,46,5,5,français,f,1,0.1,-33.60875554,0.29827778
5e29fd5f2bec3b065e9a729e,144,2,2024-02-27T12:17:40.975Z,english_859.wav,0,pill,1355,46,5,5,français,f,2,0.2,-64.15502461,0.43254339
5e29fd5f2bec3b065e9a729e,144,2,2024-02-27T12:17:40.975Z,english_859.wav,0,pill,1355,46,5,5,français,f,3,0.3,-36.22537369,0.12368506
5e29fd5f2bec3b065e9a729e,144,2,2024-02-27T12:17:40.975Z,english_859.wav,0,pill,1355,46,5,5,français,f,4,0.32341667,-23.59955866,0.97858169
5e29fd5f2bec3b065e9a729e,145,2,2024-02-27T12:17:40.975Z,english_253.wav,0,peel,475,46,5,5,français,f,0,0.0,12.9108365,0.20464585
5e29fd5f2bec3b065e9a729e,145,2,2024-02-27T12:17:40.975Z,english_253.wav,0,peel,475,46,5,5,français,f,1,0.1,-70.83420593,1.97412558
5e29fd5f2bec3b065e9a729e,145,2,2024-02-27T12:17:40.975Z,english_253.wav,0,peel,475,46,5,5,français,f,2,0.2,-6.13796162,1.12401504
5e29fd5f2bec3b065e9a729e,145,2,2024-02-27T12:17:40.975Z,english_253.wav,0,peel,475,46,5,5,français,f,3,0.3,38.03543053,1.75851492
5e29fd5f2bec3b065e9a729e,145,2,2024-02-27T12:17:40.975Z,english_253.wav,0,peel,475,46,5,5,français,f,4,0.32341667,-61.21147917,0.77953826
5e29fd5f2bec3b065e9a729e,146,2,2024-02-27T12:17:40.975Z,english_451.wav,0,peel,657,46,5,5,français,f,0,0.0,-87.31297583,0.44823779
5e29fd5f2bec3b065e9a729e,146,2,2024-02-27T12:17:40.975Z,english_451.wav,0,peel,657,46,5,5,français,f,1,0.1,-44.51362963,0.44678563
5e29fd5f2bec3b065e9a729e,146,2,2024-02-27T12:17:40.975Z,english_451.wav,0,peel,657,46,5,5,français,f,2,0.2,-15.52945473,1.69444841
5e29fd5f2bec3b065e9a729e,146,2,2024-02-27T12:17:40.975Z,english_451.wav,0,peel,657,46,5,5,français,f,3,0.3,11.70886435,0.18586344
5e29fd5f2bec3b065e9a729e,146,2,2024-02-27T12:17:40.975Z,english_451.wav,0,peel,657,46,5,5,français,f,4,0.32341667,82.84342256,0.9677256
5e29fd5f2bec3b065e9a729e,147,2,2024-02-27T12:17:40.975Z,english_943.wav,0,peel,671,46,5,5,français,f,0,0.0,-88.39234314,0.07745413
5e29fd5f2bec3b065e9a729e,147,2,2024-02-27T12:17:40.975Z,english_943.wav,0,peel,671,46,5,5,français,f,1,0.1,65.27529367,1.64078214
5e29fd5f2bec3b065e9a729e,147,2,2024-02-27T12:17:40.975Z,english_943.wav,0,peel,671,46,5,5,français,f,2,0.2,-24.85222093,0.23468741
5e29fd5f2bec3b065e9a729e,147,2,2024-02-27T12:17:40.975Z,english_943.wav,0,peel,671,46,5,5,français,f,3,0.3,20.61002448,1.49561498
5e29fd5f2bec3b065e9a729e,147,2,2024-02-27T12:17:40.975Z,english_943.wav,0,peel,671,46,5,5,français,f,4,0.32341667,-74.64601709,1.25217021
5e29fd5f2bec3b065e9a729e,148,2,2024-02-27T12:17:40.975Z,english_994.wav,0,peel,606,46,5,5,français,f,0,0.0,53.6083957,1.72152032
5e29fd5f2bec3b065e9a729e,148,2,2024-02-27T12:17:40.975Z,english_994.wav,0,peel,606,46,5,5,français,f,1,0.1,62.5650281,0.97077126
5e29fd5f2bec3b065e9a729e,148,2,2024-02-27T12:17:40.975Z,english_994.wav,0,peel,606,46,5,5,français,f,2,0.2,91.00734213,1.1154275
5e29fd5f2bec3b065e9a729e,148,2,2024-02-27T12:17:40.975Z,english_994.wav,0,peel,606,46,5,5,français,f,3,0.3,-14.6853323,0.93534142
5e29fd5f2bec3b065e9a729e,148,2,2024-02-27T12:17:40.975Z,english_994.wav,0,peel,606,46,5,5,français,f,4,0.32341667,42.94025292,1.51312842
5e29fd5f2bec3b065e9a729e,149,2,2024-02-27T12:17:40.975Z,english_393.wav,0,pill,616,46,5,5,français,f,0,0.0,3.63201436,1.68653621
5e29fd5f2bec3b065e9a729e,149,2,2024-02-27T12:17:40.975Z,english_393.wav,0,pill,616,46,5,5,français,f,1,0.1,64.52667935,0.22518435
5e29fd5f2bec3b065e9a729e,149,2,2024-02-27T12:17:40.975Z,english_393.wav,0,pill,616,46,5,5,français,f,2,0.2,-51.23523019,0.07728703
5e29fd5f2bec3b065e9a729e,149,2,2024-02-27T12:17:40.975Z,english_393.wav,0,pill,616,46,5,5,français,f,3,0.3,-89.75219839,0.70962284
5e29fd5f2bec3b065e9a729e,149,2,2024-02-27T12:17:40.975Z,english_393.wav,0,pill,616,46,5,5,français,f,4,0.32341667,-66.06218428,0.7432397
5e29fd5f2bec3b065e9a729e,150,3,2024-02-27T12:17:40.975Z,english_72.wav,0,peel,806,46,5,5,français,f,0,0.0,3.79788214,1.04175162
5e29fd5f2bec3b065e9a729e,150,3,2024-02-27T12:17:40.975Z,english_72.wav,0,peel,806,46,5,5,français,f,1,0.1,-35.73428138,0.91099175
5e29fd5f2bec3b065e9a729e,150,3,2024-02-27T12:17:40.975Z,english_72.wav,0,peel,806,46,5,5,français,f,2,0.2,-30.83181688,0.34322307
5e29fd5f2bec3b065e9a729e,150,3,2024-02-27T12:17:40.975Z,english_72.wav,0,peel,806,46,5,5,français,f,3,0.3,-68.4260973,1.39599539
5e29fd5f2bec3b065e9a729e,150,3,2024-02-27T12:17:40.975Z,english_72.wav,0,peel,806,46,5,5,français,f,4,0.32341667,-10.87667298,0.78322702
5e29fd5f2bec3b065e9a729e,151,3,2024-02-27T12:17:40.975Z,english_34.wav,0,pill,2626,46,5,5,français,f,0,0.0,-48.07924103,1.44836266
5e29fd5f2bec3b065e9a729e,151,3,2024-02-27T12:17:40.975Z,english_34.wav,0,pill,2626,46,5,5,français,f,1,0.1,-64.84739183,1.89580324
5e29fd5f2bec3b065e9a729e,151,3,2024-02-27T12:17:40.975Z,english_34.wav,0,pill,2626,46,5,5,français,f,2,0.2,-20.81716265,0.64308549
5e29fd5f2bec3b065e9a729e,151,3,2024-02-27T12:17:40.975Z,english_34.wav,0,pill,2626,46,5,5,français,f,3,0.3,91.13652067,0.0848332
5e29fd5f2bec3b065e9a729e,151,3,2024-02-27T12:17:40.975Z,english_34.wav,0,pill,2626,46,5,5,français,f,4,0.32341667,-54.46543937,0.8036564
5e29fd5f2bec3b065e9a729e,152,3,2024-02-27T12:17:40.975Z,english_669.wav,0,peel,629,46,5,5,français,f,0,0.0,-58.38123624,0.53455866
