subj,sex,age,language,english,french,native_lang,date,practice,block,trial,stim,pitch,stretch,response,rt
8817605319,m,22,french,4,5,french,2024-02-09 14:59:39.832256,False,2,303,sounds\english\audio/english_776.wav,"[[  0.          29.86548478]
 [  0.1          2.8025705 ]
 [  0.2        -38.4768188 ]
 [  0.3        -89.49838949]
 [  0.32341667  30.18488016]]","[[0.         0.57139857]
 [0.1        1.94435619]
 [0.2        0.3951066 ]
 [0.3        0.29859462]
 [0.32341667 1.93939037]]",0,2.411
8817605319,m,22,french,4,5,french,2024-02-09 14:59:39.832256,False,2,304,sounds\english\audio/english_624.wav,"[[  0.         -66.94889137]
 [  0.1         -6.87427926]
 [  0.2         69.52298075]
 [  0.3        -45.26015132]
 [  0.32341667 -50.37935108]]","[[0.         0.79130031]
 [0.1        1.85178888]
 [0.2        0.79988954]
 [0.3        0.87521033]
 [0.32341667 1.50754026]]",0,0.708
8817605319,m,22,french,4,5,french,2024-02-09 14:59:39.832256,False,2,305,sounds\english\audio/english_798.wav,"[[  0.         -16.40769998]
 [  0.1          3.00381127]
 [  0.2        -31.24410556]
 [  0.3        -53.27973877]
 [  0.32341667  91.43563813]]","[[0.         1.85457914]
 [0.1        1.50219522]
 [0.2        0.78751403]
 [0.3        1.17339142]
 [0.32341667 1.30184409]]",0,0.029
8817605319,m,22,french,4,5,french,2024-02-09 14:59:39.832256,False,2,306,sounds\english\audio/english_952.wav,"[[  0.          64.91746033]
 [  0.1        -25.84234774]
 [  0.2         60.30097417]
 [  0.3        -98.0606555 ]
 [  0.32341667 -77.98984902]]","[[0.         1.00586425]
 [0.1        1.28790365]
 [0.2        1.6668124 ]
 [0.3        1.44616756]
 [0.32341667 0.15831209]]",0,1.025
8817605319,m,22,french,4,5,french,2024-02-09 14:59:39.832256,False,2,307,sounds\english\audio/english_863.wav,"[[  0.          52.03013683]
 [  0.1         21.53783975]
 [  0.2        -42.8061331 ]
 [  0.3         -9.69253087]
 [  0.32341667  56.44290307]]","[[0.         1.83111202]
 [0.1        0.9779226 ]
 [0.2        1.19089157]
 [0.3        0.269847  ]
 [0.32341667 0.87913369]]",0,0.521
8817605319,m,22,french,4,5,french,2024-02-09 14:59:39.832256,False,2,308,sounds\english\audio/english_796.wav,"[[  0.          57.52331511]
 [  0.1        -53.71774571]
 [  0.2        -36.09214461]
 [  0.3         23.21783142]
 [  0.32341667 -74.52171885]]","[[0.         0.93419081]
 [0.1        0.77950231]
 [0.2        0.54947466]
 [0.3        1.69054841]
 [0.32341667 0.76047802]]",0,0.519
8817605319,m,22,french,4,5,french,2024-02-09 14:59:39.832256,False,2,309,sounds\english\audio/english_74.wav,"[[  0.          86.29588785]
 [  0.1        -14.52381687]
 [  0.2         77.94321906]
 [  0.3        -32.33104188]
 [  0.32341667   9.46602754]]","[[0.         1.196208  ]
 [0.1        1.63208143]
 [0.2        0.46125368]
 [0.3        1.38278461]
 [0.32341667 0.83147108]]",0,0.475
8817605319,m,22,french,4,5,french,2024-02-09 14:59:39.832256,False,2,310,sounds\english\audio/english_511.wav,"[[  0.         -54.05076571]
 [  0.1         58.21305336]
 [  0.2         93.28984864]
 [  0.3        -93.08437199]
 [  0.32341667  48.49476441]]","[[0.         1.68448531]
 [0.1        0.64957271]
 [0.2        1.47534814]
 [0.3        1.38615571]
 [0.32341667 0.71972648]]",0,0.865
8817605319,m,22,french,4,5,french,2024-02-09 14:59:39.832256,False,2,311,sounds\english\audio/english_586.wav,"[[  0.         -62.23642036]
 [  0.1         79.13201234]
 [  0.2        -89.54923437]
 [  0.3        -19.27573078]
 [  0.32341667 -62.71214645]]","[[0.         1.06144709]
 [0.1        0.54207142]
 [0.2        0.72134233]
 [0.3        0.33417878]
 [0.32341667 1.54129631]]",1,0.718
8817605319,m,22,french,4,5,french,2024-02-09 14:59:39.832256,False,2,312,sounds\english\audio/english_336.wav,"[[  0.          29.43389708]
 [  0.1        -98.82505887]
 [  0.2         33.95949266]
 [  0.3        -57.79711044]
 [  0.32341667  81.65015026]]","[[0.         1.05594545]
 [0.1        1.57774783]
 [0.2        1.35373128]
 [0.3        1.04960404]
 [0.32341667 0.39151968]]",0,0.157
8817605319,m,22,french,4,5,french,2024-02-09 14:59:39.832256,False,2,313,sounds\english\audio/english_437.wav,"[[  0.          61.91803223]
 [  0.1          0.99543568]
 [  0.2        -50.96874522]
 [  0.3        -47.73319396]
 [  0.32341667  15.35939938]]","[[0.         0.36516876]
 [0.1        0.43500315]
 [0.2        1.25398366]
 [0.3        0.60570222]
 [0.32341667 0.97208355]]",0,0.963
8817605319,m,22,french,4,5,french,2024-02-09 14:59:39.832256,False,2,314,sounds\english\audio/english_158.wav,"[[  0.          33.09785739]
 [  0.1        -85.08083727]
 [  0.2         97.70701203]
 [  0.3          2.54261044]
 [  0.32341667 -59.73934841]]","[[0.         1.71128449]
 [0.1        1.56145129]
 [0.2        0.69707892]
 [0.3        1.19647348]
 [0.32341667 1.17782448]]",0,0.554
8817605319,m,22,french,4,5,french,2024-02-09 14:59:39.832256,False,2,315,sounds\english\audio/english_956.wav,"[[  0.         -98.71257913]
 [  0.1        -36.05702295]
 [  0.2        -31.95582623]
 [  0.3        -81.31295359]
 [  0.32341667  45.09425789]]","[[0.         1.5828524 ]
 [0.1        0.66985857]
 [0.2        0.13798036]
 [0.3        0.22663358]
 [0.32341667 0.54862974]]",0,2.356
8817605319,m,22,french,4,5,french,2024-02-09 14:59:39.832256,False,2,316,sounds\english\audio/english_173.wav,"[[  0.          11.1251521 ]
 [  0.1         94.22411188]
 [  0.2         89.44753043]
 [  0.3         74.30769895]
 [  0.32341667 -37.47679669]]","[[0.         0.60172576]
 [0.1        0.44802145]
 [0.2        1.27552997]
 [0.3        1.09756939]
 [0.32341667 0.7907315 ]]",0,0.965
8817605319,m,22,french,4,5,french,2024-02-09 14:59:39.832256,False,2,317,sounds\english\audio/english_768.wav,"[[  0.         -28.93145359]
 [  0.1         59.49166151]
 [  0.2         41.87955621]
 [  0.3        -92.17589111]
 [  0.32341667  15.2364545 ]]","[[0.         1.5002074 ]
 [0.1        1.15432208]
 [0.2        0.01731471]
 [0.3        0.98337229]
 [0.32341667 0.4381055 ]]",0,0.438
8817605319,m,22,french,4,5,french,2024-02-09 14:59:39.832256,False,2,318,sounds\english\audio/english_643.wav,"[[  0.         -40.15003434]
 [  0.1        -24.12893917]
 [  0.2        -40.66556796]
 [  0.3         75.01987067]
 [  0.32341667  29.71481383]]","[[0.         1.60262153]
 [0.1        1.7682358 ]
 [0.2        0.31725537]
 [0.3        0.56722121]
 [0.32341667 1.87277365]]",0,0.433
8817605319,m,22,french,4,5,french,2024-02-09 14:59:39.832256,False,2,319,sounds\english\audio/english_135.wav,"[[  0.          92.53632507]
 [  0.1         42.68843281]
 [  0.2         87.27237188]
 [  0.3        -70.62725941]
 [  0.32341667  91.37204548]]","[[0.         0.8813083 ]
 [0.1        1.60503348]
 [0.2        0.22265806]
 [0.3        0.4233462 ]
 [0.32341667 0.99500327]]",0,4.227
8817605319,m,22,french,4,5,french,2024-02-09 14:59:39.832256,False,2,320,sounds\english\audio/english_91.wav,"[[  0.         -67.73951944]
 [  0.1         83.83337034]
 [  0.2        -12.75649653]
 [  0.3          5.95502951]
 [  0.32341667  59.56964586]]","[[0.         0.2772338 ]
 [0.1        0.0816757 ]
 [0.2        0.92538416]
 [0.3        0.40714056]
 [0.32341667 1.8717525 ]]",1,2.105
8817605319,m,22,french,4,5,french,2024-02-09 14:59:39.832256,False,2,321,sounds\english\audio/english_99.wav,"[[  0.           9.75149611]
 [  0.1         -7.37998228]
 [  0.2         29.15889261]
 [  0.3        -23.23230809]
 [  0.32341667  51.25937721]]","[[0.         0.79411887]
 [0.1        0.53064308]
 [0.2        0.10254027]
 [0.3        0.53999741]
 [0.32341667 0.74302856]]",0,1.83
8817605319,m,22,french,4,5,french,2024-02-09 14:59:39.832256,False,2,322,sounds\english\audio/english_949.wav,"[[  0.          48.32946721]
 [  0.1         73.83586198]
 [  0.2        -30.27812065]
 [  0.3        -32.50397555]
 [  0.32341667  96.46984971]]","[[0.         1.50413289]
 [0.1        1.55745414]
 [0.2        1.00772566]
 [0.3        0.86702054]
 [0.32341667 1.67836019]]",0,0.16
8817605319,m,22,french,4,5,french,2024-02-09 14:59:39.832256,False,2,323,sounds\english\audio/english_6.wav,"[[  0.          -8.2116192 ]
 [  0.1        -28.50933877]
 [  0.2        -90.20174912]
 [  0.3         -7.18062469]
 [  0.32341667 -36.83558467]]","[[0.         1.24832701]
 [0.1        0.74984456]
 [0.2        1.37568362]
 [0.3        0.47637706]
 [0.32341667 0.68255954]]",0,0.241
8817605319,m,22,french,4,5,french,2024-02-09 14:59:39.832256,False,2,324,sounds\english\audio/english_925.wav,"[[  0.         -23.38055082]
 [  0.1         12.69502826]
 [  0.2         77.53463838]
 [  0.3         58.05299948]
 [  0.32341667  54.12197927]]","[[0.         1.07708889]
 [0.1        1.65606803]
 [0.2        0.48648737]
 [0.3        0.8939016 ]
 [0.32341667 0.72199492]]",0,0.343
8817605319,m,22,french,4,5,french,2024-02-09 14:59:39.832256,False,2,325,sounds\english\audio/english_130.wav,"[[  0.         -27.4951122 ]
 [  0.1        -38.07775804]
 [  0.2         -9.69340922]
 [  0.3        -88.09187015]
 [  0.32341667 -47.45461314]]","[[0.         0.83907871]
 [0.1        1.38560413]
 [0.2        0.50531735]
 [0.3        0.53414674]
 [0.32341667 1.10107345]]",0,0.538
8817605319,m,22,french,4,5,french,2024-02-09 14:59:39.832256,False,2,326,sounds\english\audio/english_113.wav,"[[  0.           8.7952765 ]
 [  0.1         91.94692023]
 [  0.2         -6.68088057]
 [  0.3         38.28142065]
 [  0.32341667 -37.19939988]]","[[0.         0.51001639]
 [0.1        1.45766025]
 [0.2        1.25674442]
 [0.3        1.93213547]
 [0.32341667 0.45590133]]",0,0.235
8817605319,m,22,french,4,5,french,2024-02-09 14:59:39.832256,False,2,327,sounds\english\audio/english_625.wav,"[[  0.          25.70847239]
 [  0.1        -37.82303983]
 [  0.2         38.52328891]
 [  0.3        -23.93667478]
 [  0.32341667 -53.98326942]]","[[0.         1.1960971 ]
 [0.1        0.02795501]
 [0.2        1.10198652]
 [0.3        0.08852642]
 [0.32341667 1.59813041]]",0,1.151
8817605319,m,22,french,4,5,french,2024-02-09 14:59:39.832256,False,2,328,sounds\english\audio/english_805.wav,"[[  0.         -11.97504695]
 [  0.1         96.82911573]
 [  0.2          7.51835152]
 [  0.3          2.47378187]
 [  0.32341667 -43.26336213]]","[[0.         0.06029378]
 [0.1        0.81391401]
 [0.2        1.33531055]
 [0.3        1.7608484 ]
 [0.32341667 1.4289718 ]]",0,0.941
8817605319,m,22,french,4,5,french,2024-02-09 14:59:39.832256,False,2,329,sounds\english\audio/english_610.wav,"[[  0.         -14.96432812]
 [  0.1         48.51886955]
 [  0.2         47.07358548]
 [  0.3         17.30383174]
 [  0.32341667   1.51764356]]","[[0.         0.5672697 ]
 [0.1        0.75156182]
 [0.2        0.38846335]
 [0.3        1.52072292]
 [0.32341667 1.56024836]]",0,0.809
8817605319,m,22,french,4,5,french,2024-02-09 14:59:39.832256,False,2,330,sounds\english\audio/english_921.wav,"[[  0.          60.93482672]
 [  0.1        -71.63665921]
 [  0.2        -30.77028929]
 [  0.3        -44.68164597]
 [  0.32341667  34.59415858]]","[[0.         0.06624465]
 [0.1        1.88925143]
 [0.2        0.40013084]
 [0.3        1.26601564]
 [0.32341667 1.98956357]]",0,3.796
8817605319,m,22,french,4,5,french,2024-02-09 14:59:39.832256,False,2,331,sounds\english\audio/english_814.wav,"[[  0.         -63.32480856]
 [  0.1         34.42157774]
 [  0.2         -1.27362148]
 [  0.3         11.18388565]
 [  0.32341667  -9.56708644]]","[[0.         1.93717082]
 [0.1        0.66627456]
 [0.2        1.33718687]
 [0.3        1.12749716]
 [0.32341667 0.66623879]]",0,0.216
8817605319,m,22,french,4,5,french,2024-02-09 14:59:39.832256,False,2,332,sounds\english\audio/english_88.wav,"[[  0.          26.55889683]
 [  0.1         31.00356365]
 [  0.2        -60.56468942]
 [  0.3        -56.53017227]
 [  0.32341667 -78.90279024]]","[[0.         1.3027014 ]
 [0.1        0.67122251]
 [0.2        0.59704477]
 [0.3        1.68194373]
 [0.32341667 0.42277005]]",0,0.806
8817605319,m,22,french,4,5,french,2024-02-09 14:59:39.832256,False,2,333,sounds\english\audio/english_117.wav,"[[  0.         -98.72491255]
 [  0.1        -15.15642563]
 [  0.2         24.45806353]
 [  0.3        -80.67224668]
 [  0.32341667 -97.50349755]]","[[0.         1.42659946]
 [0.1        1.64599539]
 [0.2        0.97767705]
 [0.3        0.37962884]
 [0.32341667 0.74274723]]",0,0.402
8817605319,m,22,french,4,5,french,2024-02-09 14:59:39.832256,False,2,334,sounds\english\audio/english_801.wav,"[[  0.          66.50571345]
 [  0.1        -53.03260979]
 [  0.2         -3.89459646]
 [  0.3          8.32951864]
 [  0.32341667 -87.46806733]]","[[0.         0.19311528]
 [0.1        0.48683601]
 [0.2        1.16293258]
 [0.3        1.55734707]
 [0.32341667 0.63471681]]",0,0.907
8817605319,m,22,french,4,5,french,2024-02-09 14:59:39.832256,False,2,335,sounds\english\audio/english_987.wav,"[[  0.          91.33137772]
 [  0.1        -39.20299527]
 [  0.2         78.9852337 ]
 [  0.3        -94.66209845]
 [  0.32341667 -71.76730894]]","[[0.         1.82656395]
 [0.1        1.12122948]
 [0.2        1.12025045]
 [0.3        1.02557261]
 [0.32341667 1.06580695]]",0,0.283
8817605319,m,22,french,4,5,french,2024-02-09 14:59:39.832256,False,2,336,sounds\english\audio/english_439.wav,"[[  0.         -34.98153375]
 [  0.1         58.81829455]
 [  0.2        -39.64168408]
 [  0.3        -65.89684329]
 [  0.32341667 -18.09409032]]","[[0.         0.51703437]
 [0.1        0.92552513]
 [0.2        1.94754337]
 [0.3        0.19153473]
 [0.32341667 1.29438445]]",0,0.335
8817605319,m,22,french,4,5,french,2024-02-09 14:59:39.832256,False,2,337,sounds\english\audio/english_2.wav,"[[  0.         -99.15346184]
 [  0.1         80.90141422]
 [  0.2         25.8663891 ]
 [  0.3         75.24606714]
 [  0.32341667 -83.41413367]]","[[0.         1.13720105]
 [0.1        1.91777804]
 [0.2        0.47706995]
 [0.3        0.3458575 ]
 [0.32341667 0.38623968]]",0,0.839
8817605319,m,22,french,4,5,french,2024-02-09 14:59:39.832256,False,2,338,sounds\english\audio/english_130.wav,"[[  0.         -27.4951122 ]
 [  0.1        -38.07775804]
 [  0.2         -9.69340922]
 [  0.3        -88.09187015]
 [  0.32341667 -47.45461314]]","[[0.         0.83907871]
 [0.1        1.38560413]
 [0.2        0.50531735]
 [0.3        0.53414674]
 [0.32341667 1.10107345]]",0,4.575
8817605319,m,22,french,4,5,french,2024-02-09 14:59:39.832256,False,2,339,sounds\english\audio/english_543.wav,"[[  0.          13.74009622]
 [  0.1         51.80972721]
 [  0.2         86.3964352 ]
 [  0.3        -66.39783761]
 [  0.32341667  31.11863834]]","[[0.         0.63900578]
 [0.1        1.6206981 ]
 [0.2        0.03304675]
 [0.3        1.7049324 ]
 [0.32341667 1.46507556]]",0,1.992
8817605319,m,22,french,4,5,french,2024-02-09 14:59:39.832256,False,2,340,sounds\english\audio/english_740.wav,"[[  0.          17.63845752]
 [  0.1         36.88289119]
 [  0.2        -63.85348159]
 [  0.3        -97.96670479]
 [  0.32341667  43.035587  ]]","[[0.         0.65519257]
 [0.1        0.996231  ]
 [0.2        0.85360158]
 [0.3        1.42654033]
 [0.32341667 1.01691569]]",0,0.441
8817605319,m,22,french,4,5,french,2024-02-09 14:59:39.832256,False,2,341,sounds\english\audio/english_756.wav,"[[  0.         -75.60908863]
 [  0.1         -4.30259752]
 [  0.2         20.94377522]
 [  0.3         10.45062111]
 [  0.32341667  86.50209298]]","[[0.         1.29894989]
 [0.1        0.61363685]
 [0.2        1.41793961]
 [0.3        1.73528762]
 [0.32341667 0.4791473 ]]",0,0.984
8817605319,m,22,french,4,5,french,2024-02-09 14:59:39.832256,False,2,342,sounds\english\audio/english_155.wav,"[[  0.          53.87474094]
 [  0.1         74.81745726]
 [  0.2          8.25192738]
 [  0.3        -52.88121257]
 [  0.32341667  48.31209788]]","[[0.         1.93436975]
 [0.1        0.64472983]
 [0.2        1.6098708 ]
 [0.3        1.15705679]
 [0.32341667 0.66500292]]",0,0.68
8817605319,m,22,french,4,5,french,2024-02-09 14:59:39.832256,False,2,343,sounds\english\audio/english_716.wav,"[[  0.         -41.01159081]
 [  0.1        -51.78631031]
 [  0.2        -25.7252513 ]
 [  0.3         78.18950514]
 [  0.32341667 -26.78025651]]","[[0.         1.70683796]
 [0.1        1.57787804]
 [0.2        1.76538287]
 [0.3        1.34280163]
 [0.32341667 1.89346788]]",0,0.179
8817605319,m,22,french,4,5,french,2024-02-09 14:59:39.832256,False,2,344,sounds\english\audio/english_384.wav,"[[  0.         -38.96228733]
 [  0.1          2.386347  ]
 [  0.2         48.26486793]
 [  0.3        -48.11903655]
 [  0.32341667  19.29531145]]","[[0.         0.34616893]
 [0.1        0.04115024]
 [0.2        0.35900131]
 [0.3        1.58519606]
 [0.32341667 0.95531857]]",1,2.89
8817605319,m,22,french,4,5,french,2024-02-09 14:59:39.832256,False,2,345,sounds\english\audio/english_479.wav,"[[  0.          74.98268857]
 [  0.1         16.03290679]
 [  0.2         78.97784812]
 [  0.3        -15.63843586]
 [  0.32341667  42.04802753]]","[[0.         0.98081986]
 [0.1        0.71187618]
 [0.2        0.27050369]
 [0.3        1.15797271]
 [0.32341667 1.51318639]]",1,1.152
8817605319,m,22,french,4,5,french,2024-02-09 14:59:39.832256,False,2,346,sounds\english\audio/english_305.wav,"[[  0.         -23.95553444]
 [  0.1        -97.95184299]
 [  0.2         95.23338475]
 [  0.3         10.74081096]
 [  0.32341667  24.9757793 ]]","[[0.         0.70401859]
 [0.1        0.00875292]
 [0.2        1.8427633 ]
 [0.3        1.83453859]
 [0.32341667 1.77535614]]",0,3.208
8817605319,m,22,french,4,5,french,2024-02-09 14:59:39.832256,False,2,347,sounds\english\audio/english_107.wav,"[[  0.         -19.24931684]
 [  0.1         24.04874113]
 [  0.2         59.01955179]
 [  0.3         49.74315823]
 [  0.32341667 -75.23844627]]","[[0.         0.69122185]
 [0.1        0.13674094]
 [0.2        1.47608642]
 [0.3        1.52525824]
 [0.32341667 0.11985114]]",0,0.934
8817605319,m,22,french,4,5,french,2024-02-09 14:59:39.832256,False,2,348,sounds\english\audio/english_742.wav,"[[  0.          12.62363586]
 [  0.1         23.02085171]
 [  0.2         23.36423086]
 [  0.3         97.70614946]
 [  0.32341667 -25.72861775]]","[[0.         1.26368295]
 [0.1        0.7448394 ]
 [0.2        0.05261082]
 [0.3        1.01748925]
 [0.32341667 0.88645775]]",1,1.032
8817605319,m,22,french,4,5,french,2024-02-09 14:59:39.832256,False,2,349,sounds\english\audio/english_678.wav,"[[  0.          87.86222938]
 [  0.1        -47.14792626]
 [  0.2         -6.84659798]
 [  0.3         87.67045201]
 [  0.32341667 -51.71213936]]","[[0.         1.6760541 ]
 [0.1        0.22369522]
 [0.2        1.1260271 ]
 [0.3        1.53941447]
 [0.32341667 1.37136581]]",0,0.689
8817605319,m,22,french,4,5,french,2024-02-09 14:59:39.832256,False,2,350,sounds\english\audio/english_350.wav,"[[  0.          97.64268741]
 [  0.1         23.96704837]
 [  0.2         50.30792237]
 [  0.3         71.77937185]
 [  0.32341667 -64.81416361]]","[[0.         0.61487918]
 [0.1        0.40988424]
 [0.2        0.86872158]
 [0.3        1.01783109]
 [0.32341667 0.68761283]]",0,0.602
8817605319,m,22,french,4,5,french,2024-02-09 14:59:39.832256,False,2,351,sounds\english\audio/english_77.wav,"[[  0.         -72.40491727]
 [  0.1          8.82020558]
 [  0.2         89.28229375]
 [  0.3        -14.39120814]
 [  0.32341667   0.18022976]]","[[0.         0.02183184]
 [0.1        1.36505393]
 [0.2        1.34112472]
 [0.3        0.45737201]
 [0.32341667 1.1673494 ]]",1,1.914
8817605319,m,22,french,4,5,french,2024-02-09 14:59:39.832256,False,2,352,sounds\english\audio/english_500.wav,"[[  0.          34.07818593]
 [  0.1         31.06479142]
 [  0.2        -63.34751057]
 [  0.3         36.97827554]
 [  0.32341667  96.68235718]]","[[0.         1.14050746]
 [0.1        1.87458021]
 [0.2        0.77467433]
 [0.3        1.278432  ]
 [0.32341667 0.68469821]]",0,0.292
8817605319,m,22,french,4,5,french,2024-02-09 14:59:39.832256,False,2,353,sounds\english\audio/english_492.wav,"[[  0.         -66.2832746 ]
 [  0.1        -19.36008054]
 [  0.2         95.25769545]
 [  0.3        -42.69351484]
 [  0.32341667  48.13359561]]","[[0.         0.52930651]
 [0.1        1.11739795]
 [0.2        1.86018292]
 [0.3        0.07313262]
 [0.32341667 0.30480454]]",0,0.341
8817605319,m,22,french,4,5,french,2024-02-09 14:59:39.832256,False,2,354,sounds\english\audio/english_939.wav,"[[  0.         -23.2558256 ]
 [  0.1        -16.62065377]
 [  0.2        -49.54734698]
 [  0.3         22.82101289]
 [  0.32341667  28.63490654]]","[[0.         0.1774722 ]
 [0.1        0.56271239]
 [0.2        1.42782479]
 [0.3        0.76516147]
 [0.32341667 1.70219777]]",0,1.303
8817605319,m,22,french,4,5,french,2024-02-09 14:59:39.832256,False,2,355,sounds\english\audio/english_731.wav,"[[  0.          91.74609406]
 [  0.1         96.5637085 ]
 [  0.2        -58.02596537]
 [  0.3         21.59328018]
 [  0.32341667  13.26044458]]","[[0.         0.2840719 ]
 [0.1        1.75324284]
 [0.2        1.43086201]
 [0.3        1.68336342]
 [0.32341667 0.60031718]]",0,0.36
8817605319,m,22,french,4,5,french,2024-02-09 14:59:39.832256,False,2,356,sounds\english\audio/english_799.wav,"[[  0.         -48.4958847 ]
 [  0.1         -9.52866418]
 [  0.2          1.94176449]
 [  0.3          5.71676827]
 [  0.32341667  30.27282792]]","[[0.         1.9233431 ]
 [0.1        1.11542891]
 [0.2        0.95865462]
 [0.3        0.6616034 ]
 [0.32341667 1.91183458]]",0,0.525
8817605319,m,22,french,4,5,french,2024-02-09 14:59:39.832256,False,2,357,sounds\english\audio/english_781.wav,"[[  0.          22.64916165]
 [  0.1          6.89582518]
 [  0.2        -79.07711894]
 [  0.3         66.534152  ]
 [  0.32341667  93.30494506]]","[[0.         0.31928057]
 [0.1        1.4040275 ]
 [0.2        0.86558079]
 [0.3        0.14510309]
 [0.32341667 0.79620595]]",0,0.397
8817605319,m,22,french,4,5,french,2024-02-09 14:59:39.832256,False,2,358,sounds\english\audio/english_87.wav,"[[  0.          54.83056612]
 [  0.1         56.31531505]
 [  0.2        -65.55002777]
 [  0.3        -25.15788212]
 [  0.32341667  22.72349562]]","[[0.         1.56132998]
 [0.1        1.28614089]
 [0.2        1.44579989]
 [0.3        0.3607766 ]
 [0.32341667 0.17745198]]",0,0.257
8817605319,m,22,french,4,5,french,2024-02-09 14:59:39.832256,False,2,359,sounds\english\audio/english_283.wav,"[[  0.         -27.01977409]
 [  0.1        -58.6063919 ]
 [  0.2         36.15867228]
 [  0.3        -77.91689069]
 [  0.32341667 -77.99680679]]","[[0.         1.23470843]
 [0.1        0.41737987]
 [0.2        0.64455365]
 [0.3        1.80541824]
 [0.32341667 1.86024907]]",0,2.279
8817605319,m,22,french,4,5,french,2024-02-09 14:59:39.832256,False,2,360,sounds\english\audio/english_299.wav,"[[  0.          -2.55977829]
 [  0.1          1.77446255]
 [  0.2        -18.83457859]
 [  0.3        -71.88845024]
 [  0.32341667  99.76623745]]","[[0.         0.95716625]
 [0.1        1.43363845]
 [0.2        1.1421669 ]
 [0.3        1.57148089]
 [0.32341667 1.70410623]]",0,0.272
8817605319,m,22,french,4,5,french,2024-02-09 14:59:39.832256,False,2,361,sounds\english\audio/english_889.wav,"[[  0.         -92.0683747 ]
 [  0.1         92.92883541]
 [  0.2        -38.78028918]
 [  0.3         33.48812202]
 [  0.32341667  68.79643169]]","[[0.         0.69619005]
 [0.1        1.46059979]
 [0.2        1.13034103]
 [0.3        1.0639125 ]
 [0.32341667 0.42066581]]",0,0.52
8817605319,m,22,french,4,5,french,2024-02-09 14:59:39.832256,False,2,362,sounds\english\audio/english_891.wav,"[[  0.          21.29241244]
 [  0.1         -1.23713702]
 [  0.2        -74.86460599]
 [  0.3         18.81587233]
 [  0.32341667  35.3489582 ]]","[[0.         0.7419472 ]
 [0.1        1.09270952]
 [0.2        0.8129571 ]
 [0.3        0.16019775]
 [0.32341667 1.17476401]]",0,1.558
8817605319,m,22,french,4,5,french,2024-02-09 14:59:39.832256,False,2,363,sounds\english\audio/english_623.wav,"[[  0.         -23.54178515]
 [  0.1        -47.52772515]
 [  0.2         47.20668934]
 [  0.3        -98.32001938]
 [  0.32341667 -63.09014275]]","[[0.         1.91881792]
 [0.1        0.99675119]
 [0.2        0.26332691]
 [0.3        1.33317057]
 [0.32341667 1.04211108]]",0,0.498
8817605319,m,22,french,4,5,french,2024-02-09 14:59:39.832256,False,2,364,sounds\english\audio/english_466.wav,"[[  0.          59.64739432]
 [  0.1        -20.63646321]
 [  0.2         62.86141463]
 [  0.3        -65.74461877]
 [  0.32341667  44.70090984]]","[[0.         1.91119383]
 [0.1        1.29572765]
 [0.2        0.99944191]
 [0.3        1.01221774]
 [0.32341667 0.89697717]]",0,0.356
8817605319,m,22,french,4,5,french,2024-02-09 14:59:39.832256,False,2,365,sounds\english\audio/english_645.wav,"[[  0.          44.09023725]
 [  0.1         53.49741331]
 [  0.2         28.7784214 ]
 [  0.3        -38.38386911]
 [  0.32341667  30.31484035]]","[[0.         0.24999948]
 [0.1        0.20669006]
 [0.2        0.13451906]
 [0.3        0.64617788]
 [0.32341667 0.83061833]]",1,0.665
8817605319,m,22,french,4,5,french,2024-02-09 14:59:39.832256,False,2,366,sounds\english\audio/english_804.wav,"[[  0.          11.23319328]
 [  0.1        -75.15189859]
 [  0.2          5.39397939]
 [  0.3         42.92141331]
 [  0.32341667 -79.84726866]]","[[0.         0.16159815]
 [0.1        1.76023076]
 [0.2        0.7355024 ]
 [0.3        1.74636497]
 [0.32341667 1.05562007]]",0,0.324
8817605319,m,22,french,4,5,french,2024-02-09 14:59:39.832256,False,2,367,sounds\english\audio/english_680.wav,"[[  0.          93.24972168]
 [  0.1         21.55707386]
 [  0.2        -58.84044748]
 [  0.3        -13.55367876]
 [  0.32341667  17.98073729]]","[[0.         1.89994278]
 [0.1        1.06559033]
 [0.2        0.79606997]
 [0.3        0.35899559]
 [0.32341667 1.50925573]]",0,2.811
8817605319,m,22,french,4,5,french,2024-02-09 14:59:39.832256,False,2,368,sounds\english\audio/english_987.wav,"[[  0.          91.33137772]
 [  0.1        -39.20299527]
 [  0.2         78.9852337 ]
 [  0.3        -94.66209845]
 [  0.32341667 -71.76730894]]","[[0.         1.82656395]
 [0.1        1.12122948]
 [0.2        1.12025045]
 [0.3        1.02557261]
 [0.32341667 1.06580695]]",0,0.232
8817605319,m,22,french,4,5,french,2024-02-09 14:59:39.832256,False,2,369,sounds\english\audio/english_572.wav,"[[  0.         -16.16189062]
 [  0.1        -40.8511413 ]
 [  0.2        -77.3747243 ]
 [  0.3         87.62803369]
 [  0.32341667  81.6005998 ]]","[[0.         1.82210005]
 [0.1        0.80249033]
 [0.2        0.69959732]
 [0.3        0.43311894]
 [0.32341667 1.25204325]]",0,0.726
8817605319,m,22,french,4,5,french,2024-02-09 14:59:39.832256,False,2,370,sounds\english\audio/english_429.wav,"[[  0.         -70.82827187]
 [  0.1         79.2644825 ]
 [  0.2         14.29027084]
 [  0.3        -47.65971945]
 [  0.32341667   8.9954872 ]]","[[0.         0.34305232]
 [0.1        1.15525787]
 [0.2        1.85610569]
 [0.3        0.19828098]
 [0.32341667 1.51767034]]",0,0.363
8817605319,m,22,french,4,5,french,2024-02-09 14:59:39.832256,False,2,371,sounds\english\audio/english_304.wav,"[[  0.         -80.7192326 ]
 [  0.1         34.14230443]
 [  0.2        -43.78548789]
 [  0.3         85.79520644]
 [  0.32341667 -29.32737886]]","[[0.         0.54130022]
 [0.1        0.20766845]
 [0.2        1.25157904]
 [0.3        0.76195837]
 [0.32341667 0.20991234]]",0,0.994
8817605319,m,22,french,4,5,french,2024-02-09 14:59:39.832256,False,2,372,sounds\english\audio/english_476.wav,"[[  0.          67.27413703]
 [  0.1        -35.99891676]
 [  0.2         53.1347651 ]
 [  0.3        -27.53585108]
 [  0.32341667  13.88563074]]","[[0.         1.71507594]
 [0.1        1.5691203 ]
 [0.2        0.1869461 ]
 [0.3        0.94822926]
 [0.32341667 1.63186757]]",0,0.569
8817605319,m,22,french,4,5,french,2024-02-09 14:59:39.832256,False,2,373,sounds\english\audio/english_471.wav,"[[  0.          47.42131089]
 [  0.1        -63.95282256]
 [  0.2         31.67244378]
 [  0.3         40.6572625 ]
 [  0.32341667 -18.6332399 ]]","[[0.         0.58869392]
 [0.1        1.74739294]
 [0.2        1.10105994]
 [0.3        0.54790015]
 [0.32341667 1.33029013]]",0,0.34
8817605319,m,22,french,4,5,french,2024-02-09 14:59:39.832256,False,2,374,sounds\english\audio/english_59.wav,"[[  0.          30.26604033]
 [  0.1         25.69112756]
 [  0.2        -24.85549033]
 [  0.3        -31.2790444 ]
 [  0.32341667  86.30355152]]","[[0.         1.5973148 ]
 [0.1        0.24758472]
 [0.2        0.1547886 ]
 [0.3        0.30754036]
 [0.32341667 0.40312024]]",1,1.68
8817605319,m,22,french,4,5,french,2024-02-09 14:59:39.832256,False,2,375,sounds\english\audio/english_842.wav,"[[  0.         -48.5952207 ]
 [  0.1         29.19485822]
 [  0.2         84.54328152]
 [  0.3         69.99994667]
 [  0.32341667  56.72069463]]","[[0.         0.12382156]
 [0.1        1.75564688]
 [0.2        0.24815543]
 [0.3        1.2885643 ]
 [0.32341667 0.70518165]]",1,1.434
8817605319,m,22,french,4,5,french,2024-02-09 14:59:39.832256,False,2,376,sounds\english\audio/english_928.wav,"[[  0.          55.07207497]
 [  0.1         83.71672672]
 [  0.2        -43.28929986]
 [  0.3        -17.1692271 ]
 [  0.32341667 -36.644272  ]]","[[0.         1.22706758]
 [0.1        0.97206042]
 [0.2        0.16969859]
 [0.3        0.90092586]
 [0.32341667 0.43024518]]",0,1.966
8817605319,m,22,french,4,5,french,2024-02-09 14:59:39.832256,False,2,377,sounds\english\audio/english_950.wav,"[[  0.         -21.9776243 ]
 [  0.1        -41.40023943]
 [  0.2         48.01515584]
 [  0.3        -87.95551252]
 [  0.32341667 -39.5252386 ]]","[[0.         0.20752278]
 [0.1        1.93939622]
 [0.2        1.55608343]
 [0.3        1.49634866]
 [0.32341667 0.91783384]]",0,0.31
8817605319,m,22,french,4,5,french,2024-02-09 14:59:39.832256,False,2,378,sounds\english\audio/english_470.wav,"[[  0.         -20.39789813]
 [  0.1         20.62750989]
 [  0.2        -59.78251605]
 [  0.3        -88.74051682]
 [  0.32341667   8.31634628]]","[[0.         1.83124966]
 [0.1        0.41787925]
 [0.2        1.85790598]
 [0.3        0.99710793]
 [0.32341667 0.56985764]]",0,0.303
8817605319,m,22,french,4,5,french,2024-02-09 14:59:39.832256,False,2,379,sounds\english\audio/english_719.wav,"[[  0.         -32.14306232]
 [  0.1        -81.40439332]
 [  0.2        -20.1172293 ]
 [  0.3         67.63048238]
 [  0.32341667  50.83305788]]","[[0.         1.4431753 ]
 [0.1        0.46175707]
 [0.2        1.86886769]
 [0.3        0.67969247]
 [0.32341667 1.68151983]]",0,0.22
8817605319,m,22,french,4,5,french,2024-02-09 14:59:39.832256,False,2,380,sounds\english\audio/english_97.wav,"[[  0.          57.21139396]
 [  0.1         -7.40408397]
 [  0.2         77.7995227 ]
 [  0.3        -51.1747528 ]
 [  0.32341667  77.11982253]]","[[0.         1.63402743]
 [0.1        0.54734888]
 [0.2        1.5228594 ]
 [0.3        1.13050105]
 [0.32341667 0.82586999]]",0,0.314
8817605319,m,22,french,4,5,french,2024-02-09 14:59:39.832256,False,2,381,sounds\english\audio/english_870.wav,"[[  0.         -85.66751388]
 [  0.1         30.55194498]
 [  0.2        -98.28008273]
 [  0.3        -58.1418371 ]
 [  0.32341667  81.20200135]]","[[0.         1.70746054]
 [0.1        0.68953906]
 [0.2        1.62274852]
 [0.3        0.74531017]
 [0.32341667 1.06596266]]",0,0.249
8817605319,m,22,french,4,5,french,2024-02-09 14:59:39.832256,False,2,382,sounds\english\audio/english_741.wav,"[[  0.         -74.62614727]
 [  0.1         33.834367  ]
 [  0.2        -60.21329901]
 [  0.3        -95.39639135]
 [  0.32341667   3.10560698]]","[[0.         1.92216761]
 [0.1        1.50741835]
 [0.2        0.74273648]
 [0.3        0.98175705]
 [0.32341667 0.9878567 ]]",0,0.401
8817605319,m,22,french,4,5,french,2024-02-09 14:59:39.832256,False,2,383,sounds\english\audio/english_459.wav,"[[  0.          30.23503988]
 [  0.1        -58.09525271]
 [  0.2         22.03715272]
 [  0.3        -33.09468511]
 [  0.32341667  -9.46836848]]","[[0.         1.42205963]
 [0.1        0.13069666]
 [0.2        0.55220733]
 [0.3        0.48840502]
 [0.32341667 1.08918734]]",1,0.589
8817605319,m,22,french,4,5,french,2024-02-09 14:59:39.832256,False,2,384,sounds\english\audio/english_553.wav,"[[  0.         -18.85071283]
 [  0.1         56.72439372]
 [  0.2        -32.51510613]
 [  0.3        -81.56708954]
 [  0.32341667  42.80590219]]","[[0.         1.30647824]
 [0.1        1.55205535]
 [0.2        1.79127341]
 [0.3        0.1795284 ]
 [0.32341667 0.48805839]]",0,0.435
8817605319,m,22,french,4,5,french,2024-02-09 14:59:39.832256,False,2,385,sounds\english\audio/english_766.wav,"[[  0.         -86.57417509]
 [  0.1        -67.75686223]
 [  0.2         74.21258041]
 [  0.3         65.20164426]
 [  0.32341667 -26.41371036]]","[[0.         1.21737292]
 [0.1        1.61484435]
 [0.2        1.47872362]
 [0.3        1.81064247]
 [0.32341667 1.37776493]]",0,0.16
8817605319,m,22,french,4,5,french,2024-02-09 14:59:39.832256,False,2,386,sounds\english\audio/english_655.wav,"[[  0.          84.9811401 ]
 [  0.1         70.1996811 ]
 [  0.2         -5.60681941]
 [  0.3        -33.00324328]
 [  0.32341667  24.65490624]]","[[0.         1.09123398]
 [0.1        0.51840547]
 [0.2        0.58569322]
 [0.3        1.11132849]
 [0.32341667 0.28465301]]",0,1.107
8817605319,m,22,french,4,5,french,2024-02-09 14:59:39.832256,False,2,387,sounds\english\audio/english_139.wav,"[[  0.          55.35526281]
 [  0.1        -66.48550036]
 [  0.2         21.45340352]
 [  0.3        -32.80413748]
 [  0.32341667 -77.32206638]]","[[0.         1.40478417]
 [0.1        1.12007301]
 [0.2        1.58559909]
 [0.3        1.13081383]
 [0.32341667 0.38560717]]",0,0.178
8817605319,m,22,french,4,5,french,2024-02-09 14:59:39.832256,False,2,388,sounds\english\audio/english_51.wav,"[[  0.          88.48054236]
 [  0.1        -53.5534646 ]
 [  0.2        -33.31344908]
 [  0.3         87.0533187 ]
 [  0.32341667 -16.55219825]]","[[0.         0.21487201]
 [0.1        0.90061677]
 [0.2        0.24834744]
 [0.3        1.31052611]
 [0.32341667 0.58644625]]",0,1.093
8817605319,m,22,french,4,5,french,2024-02-09 14:59:39.832256,False,2,389,sounds\english\audio/english_376.wav,"[[  0.         -10.66231765]
 [  0.1        -53.95799634]
 [  0.2        -44.60014177]
 [  0.3        -84.32777745]
 [  0.32341667  -2.76179289]]","[[0.         0.83936518]
 [0.1        1.7265478 ]
 [0.2        0.44309389]
 [0.3        1.91772458]
 [0.32341667 0.76255227]]",0,1.002
8817605319,m,22,french,4,5,french,2024-02-09 14:59:39.832256,False,2,390,sounds\english\audio/english_769.wav,"[[  0.         -12.68288087]
 [  0.1         13.58895245]
 [  0.2         -5.57429841]
 [  0.3        -26.44516544]
 [  0.32341667  85.93285426]]","[[0.         1.59358978]
 [0.1        0.16681031]
 [0.2        0.74292099]
 [0.3        0.17250104]
 [0.32341667 0.16730253]]",0,0.606
8817605319,m,22,french,4,5,french,2024-02-09 14:59:39.832256,False,2,391,sounds\english\audio/english_772.wav,"[[  0.         -76.23750274]
 [  0.1         54.42820472]
 [  0.2         26.41325181]
 [  0.3         14.10037165]
 [  0.32341667 -75.83605273]]","[[0.         0.54712598]
 [0.1        1.66698734]
 [0.2        1.761061  ]
 [0.3        1.80899506]
 [0.32341667 1.29882268]]",0,0.256
8817605319,m,22,french,4,5,french,2024-02-09 14:59:39.832256,False,2,392,sounds\english\audio/english_159.wav,"[[  0.         -83.7072706 ]
 [  0.1        -62.69238784]
 [  0.2         22.09248507]
 [  0.3        -80.94681782]
 [  0.32341667 -55.76861956]]","[[0.         0.09138871]
 [0.1        0.63335487]
 [0.2        1.23550763]
 [0.3        1.83356136]
 [0.32341667 0.76796393]]",0,2.596
8817605319,m,22,french,4,5,french,2024-02-09 14:59:39.832256,False,2,393,sounds\english\audio/english_471.wav,"[[  0.          47.42131089]
 [  0.1        -63.95282256]
 [  0.2         31.67244378]
 [  0.3         40.6572625 ]
 [  0.32341667 -18.6332399 ]]","[[0.         0.58869392]
 [0.1        1.74739294]
 [0.2        1.10105994]
 [0.3        0.54790015]
 [0.32341667 1.33029013]]",0,1.898
8817605319,m,22,french,4,5,french,2024-02-09 14:59:39.832256,False,2,394,sounds\english\audio/english_9.wav,"[[  0.          24.77706225]
 [  0.1         91.05524194]
 [  0.2         30.20964975]
 [  0.3        -69.66301283]
 [  0.32341667  -3.83240646]]","[[0.         1.13145128]
 [0.1        1.19326311]
 [0.2        1.50029029]
 [0.3        1.4622179 ]
 [0.32341667 1.9316504 ]]",0,1.069
8817605319,m,22,french,4,5,french,2024-02-09 14:59:39.832256,False,2,395,sounds\english\audio/english_326.wav,"[[  0.         -13.70476372]
 [  0.1         47.7156259 ]
 [  0.2         23.24839736]
 [  0.3         67.08212267]
 [  0.32341667  78.79356023]]","[[0.         1.64570887]
 [0.1        0.91266102]
 [0.2        0.36997562]
 [0.3        1.96258237]
 [0.32341667 1.01334204]]",0,1.976
8817605319,m,22,french,4,5,french,2024-02-09 14:59:39.832256,False,2,396,sounds\english\audio/english_119.wav,"[[  0.         -72.13623542]
 [  0.1        -47.93500709]
 [  0.2         91.39212861]
 [  0.3         -4.62561099]
 [  0.32341667 -33.86599352]]","[[0.         1.33116293]
 [0.1        0.14257244]
 [0.2        1.10285667]
 [0.3        0.57572872]
 [0.32341667 1.36512269]]",1,1.191
8817605319,m,22,french,4,5,french,2024-02-09 14:59:39.832256,False,2,397,sounds\english\audio/english_660.wav,"[[  0.         -18.17224728]
 [  0.1        -51.94390165]
 [  0.2        -79.57293034]
 [  0.3         67.99606973]
 [  0.32341667  -2.00416122]]","[[0.         0.25133372]
 [0.1        0.1756709 ]
 [0.2        0.660284  ]
 [0.3        1.08301436]
 [0.32341667 0.81155284]]",1,1.262
8817605319,m,22,french,4,5,french,2024-02-09 14:59:39.832256,False,2,398,sounds\english\audio/english_839.wav,"[[  0.          48.1700809 ]
 [  0.1         -8.22030768]
 [  0.2         53.56121636]
 [  0.3          4.54416263]
 [  0.32341667 -19.83463627]]","[[0.         1.1821708 ]
 [0.1        1.15480022]
 [0.2        1.57293091]
 [0.3        0.22310878]
 [0.32341667 0.67140257]]",0,0.603
8817605319,m,22,french,4,5,french,2024-02-09 14:59:39.832256,False,2,399,sounds\english\audio/english_480.wav,"[[  0.          -9.10453384]
 [  0.1         72.09708103]
 [  0.2        -73.7181862 ]
 [  0.3         18.73451671]
 [  0.32341667  83.35837597]]","[[0.         0.61491247]
 [0.1        1.35502449]
 [0.2        0.28674933]
 [0.3        0.14653082]
 [0.32341667 1.34653786]]",0,0.667
8817605319,m,22,french,4,5,french,2024-02-09 14:59:39.832256,False,2,400,sounds\english\audio/english_92.wav,"[[  0.          31.88505953]
 [  0.1         -5.62534355]
 [  0.2        -66.19250112]
 [  0.3        -77.62644198]
 [  0.32341667 -66.61656061]]","[[0.         1.50112375]
 [0.1        0.35596674]
 [0.2        1.12270031]
 [0.3        1.09837269]
 [0.32341667 1.16274455]]",0,1.306
8817605319,m,22,french,4,5,french,2024-02-09 14:59:39.832256,False,2,401,sounds\english\audio/english_364.wav,"[[  0.          19.50953027]
 [  0.1         48.44847612]
 [  0.2        -85.20645473]
 [  0.3         97.47454191]
 [  0.32341667 -45.42958463]]","[[0.         1.75500584]
 [0.1        1.3553812 ]
 [0.2        0.86672295]
 [0.3        1.42489128]
 [0.32341667 1.19673805]]",0,1.673
8817605319,m,22,french,4,5,french,2024-02-09 14:59:39.832256,False,2,402,sounds\english\audio/english_132.wav,"[[  0.         -72.51222148]
 [  0.1         -7.68798614]
 [  0.2        -26.80347179]
 [  0.3        -51.62992771]
 [  0.32341667  -1.85745595]]","[[0.         1.10010631]
 [0.1        1.14985521]
 [0.2        1.49426164]
 [0.3        1.25622472]
 [0.32341667 0.89976888]]",0,1.443
8817605319,m,22,french,4,5,french,2024-02-09 14:59:39.832256,False,2,403,sounds\english\audio/english_722.wav,"[[  0.          56.33358757]
 [  0.1        -63.11389498]
 [  0.2         65.64746862]
 [  0.3        -93.10605514]
 [  0.32341667 -45.92743551]]","[[0.         0.09194264]
 [0.1        1.89550133]
 [0.2        0.18403216]
 [0.3        1.23223326]
 [0.32341667 0.28331892]]",1,0.963
8817605319,m,22,french,4,5,french,2024-02-09 14:59:39.832256,False,2,404,sounds\english\audio/english_465.wav,"[[  0.          40.04056426]
 [  0.1        -97.28817369]
 [  0.2        -58.72937184]
 [  0.3         82.2448524 ]
 [  0.32341667 -29.20233879]]","[[0.         1.33778995]
 [0.1        0.1899685 ]
 [0.2        1.35609136]
 [0.3        1.94032164]
 [0.32341667 0.27858753]]",0,0.884
8817605319,m,22,french,4,5,french,2024-02-09 14:59:39.832256,False,2,405,sounds\english\audio/english_649.wav,"[[  0.          65.82222467]
 [  0.1         -9.35575527]
 [  0.2        -91.83315911]
 [  0.3         79.30022345]
 [  0.32341667  45.86180924]]","[[0.         0.56154429]
 [0.1        0.64767017]
 [0.2        0.84538271]
 [0.3        0.4979411 ]
 [0.32341667 0.89353148]]",1,1.584
8817605319,m,22,french,4,5,french,2024-02-09 14:59:39.832256,False,2,406,sounds\english\audio/english_937.wav,"[[  0.          76.77394395]
 [  0.1         49.33576264]
 [  0.2        -87.39935237]
 [  0.3         11.02170053]
 [  0.32341667  91.99381322]]","[[0.         1.55370699]
 [0.1        1.82028848]
 [0.2        1.42487505]
 [0.3        0.87896062]
 [0.32341667 0.96516852]]",0,0.144
8817605319,m,22,french,4,5,french,2024-02-09 14:59:39.832256,False,2,407,sounds\english\audio/english_197.wav,"[[  0.         -60.72223742]
 [  0.1        -88.93421142]
 [  0.2         51.43827126]
 [  0.3          7.80125839]
 [  0.32341667 -53.06876459]]","[[0.         1.8449777 ]
 [0.1        1.74693134]
 [0.2        1.11057597]
 [0.3        1.67371275]
 [0.32341667 1.16077516]]",0,0.125
8817605319,m,22,french,4,5,french,2024-02-09 14:59:39.832256,False,2,408,sounds\english\audio/english_865.wav,"[[  0.          57.45647421]
 [  0.1        -62.30549211]
 [  0.2        -35.85649312]
 [  0.3         55.00701181]
 [  0.32341667 -39.97662747]]","[[0.         1.64387024]
 [0.1        0.05749027]
 [0.2        0.09554773]
 [0.3        1.62598434]
 [0.32341667 0.71232625]]",1,0.402
8817605319,m,22,french,4,5,french,2024-02-09 14:59:39.832256,False,2,409,sounds\english\audio/english_134.wav,"[[  0.          70.72156413]
 [  0.1        -64.20531103]
 [  0.2         35.7891913 ]
 [  0.3        -77.33475241]
 [  0.32341667  85.6978336 ]]","[[0.         1.84700732]
 [0.1        1.20878884]
 [0.2        0.51924654]
 [0.3        1.95615398]
 [0.32341667 1.72102519]]",0,0.279
8817605319,m,22,french,4,5,french,2024-02-09 14:59:39.832256,False,2,410,sounds\english\audio/english_577.wav,"[[  0.           0.60742169]
 [  0.1        -16.75441018]
 [  0.2         32.29278586]
 [  0.3         94.63733595]
 [  0.32341667 -75.78119055]]","[[0.         1.18439754]
 [0.1        1.17258894]
 [0.2        0.00832478]
 [0.3        1.24529525]
 [0.32341667 0.24980342]]",0,0.924
8817605319,m,22,french,4,5,french,2024-02-09 14:59:39.832256,False,2,411,sounds\english\audio/english_291.wav,"[[  0.         -23.91479102]
 [  0.1        -31.34063508]
 [  0.2        -16.29866726]
 [  0.3         10.36632866]
 [  0.32341667   7.35722843]]","[[0.         1.25533579]
 [0.1        0.8599513 ]
 [0.2        1.40556138]
 [0.3        0.42924112]
 [0.32341667 0.61564446]]",0,0.287
8817605319,m,22,french,4,5,french,2024-02-09 14:59:39.832256,False,2,412,sounds\english\audio/english_72.wav,"[[  0.           3.79788214]
 [  0.1        -35.73428138]
 [  0.2        -30.83181688]
 [  0.3        -68.4260973 ]
 [  0.32341667 -10.87667298]]","[[0.         1.04175162]
 [0.1        0.91099175]
 [0.2        0.34322307]
 [0.3        1.39599539]
 [0.32341667 0.78322702]]",0,0.473
8817605319,m,22,french,4,5,french,2024-02-09 14:59:39.832256,False,2,413,sounds\english\audio/english_552.wav,"[[  0.         -54.22317773]
 [  0.1         23.75537749]
 [  0.2        -67.43154965]
 [  0.3        -83.62242399]
 [  0.32341667  64.2322812 ]]","[[0.         0.14479657]
 [0.1        1.96762023]
 [0.2        0.75812729]
 [0.3        0.84420129]
 [0.32341667 0.73382384]]",0,0.293
8817605319,m,22,french,4,5,french,2024-02-09 14:59:39.832256,False,2,414,sounds\english\audio/english_387.wav,"[[  0.          14.25538659]
 [  0.1         -5.8057983 ]
 [  0.2         -2.59288607]
 [  0.3         19.33055559]
 [  0.32341667 -85.57173801]]","[[0.         0.59610882]
 [0.1        0.93453474]
 [0.2        1.87880123]
 [0.3        0.79709693]
 [0.32341667 0.90161027]]",0,1.156
8817605319,m,22,french,4,5,french,2024-02-09 14:59:39.832256,False,2,415,sounds\english\audio/english_543.wav,"[[  0.          13.74009622]
 [  0.1         51.80972721]
 [  0.2         86.3964352 ]
 [  0.3        -66.39783761]
 [  0.32341667  31.11863834]]","[[0.         0.63900578]
 [0.1        1.6206981 ]
 [0.2        0.03304675]
 [0.3        1.7049324 ]
 [0.32341667 1.46507556]]",1,0.969
8817605319,m,22,french,4,5,french,2024-02-09 14:59:39.832256,False,2,416,sounds\english\audio/english_742.wav,"[[  0.          12.62363586]
 [  0.1         23.02085171]
 [  0.2         23.36423086]
 [  0.3         97.70614946]
 [  0.32341667 -25.72861775]]","[[0.         1.26368295]
 [0.1        0.7448394 ]
 [0.2        0.05261082]
 [0.3        1.01748925]
 [0.32341667 0.88645775]]",1,0.349
8817605319,m,22,french,4,5,french,2024-02-09 14:59:39.832256,False,2,417,sounds\english\audio/english_249.wav,"[[  0.          78.40227579]
 [  0.1        -55.1129652 ]
 [  0.2          6.74447168]
 [  0.3         27.3376716 ]
 [  0.32341667 -97.08031886]]","[[0.         1.91339694]
 [0.1        1.00834957]
 [0.2        0.29418026]
 [0.3        1.53256547]
 [0.32341667 0.99264532]]",0,0.323
8817605319,m,22,french,4,5,french,2024-02-09 14:59:39.832256,False,2,418,sounds\english\audio/english_445.wav,"[[  0.          88.00598922]
 [  0.1         96.51328737]
 [  0.2         29.11093561]
 [  0.3         69.6076589 ]
 [  0.32341667 -59.73938179]]","[[0.         1.42174052]
 [0.1        1.49122509]
 [0.2        0.62095286]
 [0.3        1.14630865]
 [0.32341667 1.38538671]]",0,0.179
8817605319,m,22,french,4,5,french,2024-02-09 14:59:39.832256,False,2,419,sounds\english\audio/english_119.wav,"[[  0.         -72.13623542]
 [  0.1        -47.93500709]
 [  0.2         91.39212861]
 [  0.3         -4.62561099]
 [  0.32341667 -33.86599352]]","[[0.         1.33116293]
 [0.1        0.14257244]
 [0.2        1.10285667]
 [0.3        0.57572872]
 [0.32341667 1.36512269]]",0,1.309
8817605319,m,22,french,4,5,french,2024-02-09 14:59:39.832256,False,2,420,sounds\english\audio/english_199.wav,"[[  0.         -24.89956817]
 [  0.1        -48.49200931]
 [  0.2        -89.66548778]
 [  0.3         29.20785813]
 [  0.32341667 -88.68286362]]","[[0.         0.07306367]
 [0.1        0.10334581]
 [0.2        1.49062114]
 [0.3        0.36717513]
 [0.32341667 1.33179809]]",1,2.491
8817605319,m,22,french,4,5,french,2024-02-09 14:59:39.832256,False,2,421,sounds\english\audio/english_750.wav,"[[  0.          54.68497377]
 [  0.1          0.91792919]
 [  0.2        -67.69423006]
 [  0.3         20.92985273]
 [  0.32341667 -39.60032316]]","[[0.         0.76623701]
 [0.1        1.58478782]
 [0.2        0.74884996]
 [0.3        0.15814923]
 [0.32341667 1.58320499]]",0,0.303
8817605319,m,22,french,4,5,french,2024-02-09 14:59:39.832256,False,2,422,sounds\english\audio/english_48.wav,"[[  0.          73.79399561]
 [  0.1         -6.33056249]
 [  0.2        -25.55346814]
 [  0.3         46.43305776]
 [  0.32341667 -46.56414761]]","[[0.         0.74385981]
 [0.1        1.05457567]
 [0.2        0.45493163]
 [0.3        0.06513279]
 [0.32341667 0.46755714]]",0,1.179
8817605319,m,22,french,4,5,french,2024-02-09 14:59:39.832256,False,2,423,sounds\english\audio/english_13.wav,"[[  0.          85.79405153]
 [  0.1        -22.00296346]
 [  0.2         45.89988476]
 [  0.3        -17.47250281]
 [  0.32341667 -30.34546067]]","[[0.         0.93145275]
 [0.1        0.69811424]
 [0.2        1.08090206]
 [0.3        0.35305012]
 [0.32341667 0.65915907]]",1,2.025
8817605319,m,22,french,4,5,french,2024-02-09 14:59:39.832256,False,2,424,sounds\english\audio/english_628.wav,"[[  0.         -19.71295886]
 [  0.1        -79.294697  ]
 [  0.2        -59.93256946]
 [  0.3        -18.46863719]
 [  0.32341667  53.30350975]]","[[0.         0.8960583 ]
 [0.1        1.61949508]
 [0.2        0.65483299]
 [0.3        0.12001531]
 [0.32341667 0.85308449]]",0,0.301
8817605319,m,22,french,4,5,french,2024-02-09 14:59:39.832256,False,2,425,sounds\english\audio/english_396.wav,"[[  0.           2.39126912]
 [  0.1        -38.95035948]
 [  0.2         78.31320688]
 [  0.3         16.98024706]
 [  0.32341667  44.66397079]]","[[0.         1.48231007]
 [0.1        0.85829723]
 [0.2        1.16655306]
 [0.3        0.51680164]
 [0.32341667 1.5133775 ]]",0,0.276
8817605319,m,22,french,4,5,french,2024-02-09 14:59:39.832256,False,2,426,sounds\english\audio/english_113.wav,"[[  0.           8.7952765 ]
 [  0.1         91.94692023]
 [  0.2         -6.68088057]
 [  0.3         38.28142065]
 [  0.32341667 -37.19939988]]","[[0.         0.51001639]
 [0.1        1.45766025]
 [0.2        1.25674442]
 [0.3        1.93213547]
 [0.32341667 0.45590133]]",0,0.19
8817605319,m,22,french,4,5,french,2024-02-09 14:59:39.832256,False,2,427,sounds\english\audio/english_881.wav,"[[  0.           7.28069095]
 [  0.1        -64.28928902]
 [  0.2         -2.07432692]
 [  0.3         51.5536886 ]
 [  0.32341667  65.74991707]]","[[0.         1.60234882]
 [0.1        0.93497238]
 [0.2        0.58107235]
 [0.3        1.34691236]
 [0.32341667 0.85842561]]",0,0.461
8817605319,m,22,french,4,5,french,2024-02-09 14:59:39.832256,False,2,428,sounds\english\audio/english_433.wav,"[[  0.         -74.58178472]
 [  0.1        -50.00917691]
 [  0.2         48.18572343]
 [  0.3        -63.95387597]
 [  0.32341667 -68.91859183]]","[[0.         0.69852952]
 [0.1        1.92405883]
 [0.2        0.3905825 ]
 [0.3        0.31453116]
 [0.32341667 1.4953114 ]]",0,0.238
8817605319,m,22,french,4,5,french,2024-02-09 14:59:39.832256,False,2,429,sounds\english\audio/english_197.wav,"[[  0.         -60.72223742]
 [  0.1        -88.93421142]
 [  0.2         51.43827126]
 [  0.3          7.80125839]
 [  0.32341667 -53.06876459]]","[[0.         1.8449777 ]
 [0.1        1.74693134]
 [0.2        1.11057597]
 [0.3        1.67371275]
 [0.32341667 1.16077516]]",0,0.132
8817605319,m,22,french,4,5,french,2024-02-09 14:59:39.832256,False,2,430,sounds\english\audio/english_151.wav,"[[  0.          -8.78950662]
 [  0.1         -1.70650264]
 [  0.2        -17.50286784]
 [  0.3         88.78233286]
 [  0.32341667  55.08117545]]","[[0.         1.36403682]
 [0.1        1.76375426]
 [0.2        1.43087438]
 [0.3        1.18017331]
 [0.32341667 1.30400061]]",0,3.049
8817605319,m,22,french,4,5,french,2024-02-09 14:59:39.832256,False,2,431,sounds\english\audio/english_340.wav,"[[  0.          42.62794877]
 [  0.1         67.09042835]
 [  0.2        -80.28719593]
 [  0.3        -47.97556268]
 [  0.32341667  32.7013797 ]]","[[0.         1.44385011]
 [0.1        1.29329602]
 [0.2        1.71068781]
 [0.3        0.48872717]
 [0.32341667 1.09000269]]",0,1.43
8817605319,m,22,french,4,5,french,2024-02-09 14:59:39.832256,False,2,432,sounds\english\audio/english_49.wav,"[[  0.          -6.08822071]
 [  0.1        -56.0367764 ]
 [  0.2        -51.95657584]
 [  0.3        -59.93208112]
 [  0.32341667  -7.85847813]]","[[0.         0.36436507]
 [0.1        1.66948988]
 [0.2        1.20554654]
 [0.3        0.31084089]
 [0.32341667 0.44223059]]",0,1.411
8817605319,m,22,french,4,5,french,2024-02-09 14:59:39.832256,False,2,433,sounds\english\audio/english_286.wav,"[[  0.         -94.9495111 ]
 [  0.1        -25.05656786]
 [  0.2         59.61150177]
 [  0.3        -32.97544875]
 [  0.32341667   7.58095242]]","[[0.         0.49849168]
 [0.1        1.27672914]
 [0.2        0.14515846]
 [0.3        1.67164973]
 [0.32341667 0.86492177]]",1,0.641
8817605319,m,22,french,4,5,french,2024-02-09 14:59:39.832256,False,2,434,sounds\english\audio/english_894.wav,"[[  0.          55.36181915]
 [  0.1          1.74798824]
 [  0.2         53.5320483 ]
 [  0.3        -10.60196251]
 [  0.32341667  46.95013059]]","[[0.         0.37154348]
 [0.1        0.78809476]
 [0.2        0.08099688]
 [0.3        1.90254096]
 [0.32341667 0.68783971]]",0,1.293
8817605319,m,22,french,4,5,french,2024-02-09 14:59:39.832256,False,2,435,sounds\english\audio/english_502.wav,"[[  0.         -23.73065935]
 [  0.1          2.70754613]
 [  0.2         25.650451  ]
 [  0.3        -49.55254658]
 [  0.32341667  16.82642172]]","[[0.         0.0797034 ]
 [0.1        1.83600464]
 [0.2        1.48948742]
 [0.3        1.22465236]
 [0.32341667 1.41984075]]",0,0.858
8817605319,m,22,french,4,5,french,2024-02-09 14:59:39.832256,False,2,436,sounds\english\audio/english_547.wav,"[[  0.          30.48969685]
 [  0.1        -38.27442703]
 [  0.2         29.58442849]
 [  0.3         -4.27268154]
 [  0.32341667  58.02076364]]","[[0.         1.04682874]
 [0.1        0.75017858]
 [0.2        0.7996645 ]
 [0.3        1.92102789]
 [0.32341667 1.77056707]]",0,1.498
8817605319,m,22,french,4,5,french,2024-02-09 14:59:39.832256,False,2,437,sounds\english\audio/english_902.wav,"[[  0.          -4.27617126]
 [  0.1         -5.01127315]
 [  0.2         83.22080084]
 [  0.3         77.56473772]
 [  0.32341667 -13.02741535]]","[[0.         0.16330526]
 [0.1        0.62492789]
 [0.2        1.08638924]
 [0.3        1.61764227]
 [0.32341667 1.72075309]]",0,1.409
8817605319,m,22,french,4,5,french,2024-02-09 14:59:39.832256,False,2,438,sounds\english\audio/english_143.wav,"[[  0.         -40.90047407]
 [  0.1        -35.35291254]
 [  0.2         36.32983964]
 [  0.3         -7.67980486]
 [  0.32341667 -89.59854269]]","[[0.         0.05812512]
 [0.1        0.81203879]
 [0.2        0.61124866]
 [0.3        0.41683772]
 [0.32341667 1.86697452]]",1,1.064
8817605319,m,22,french,4,5,french,2024-02-09 14:59:39.832256,False,2,439,sounds\english\audio/english_548.wav,"[[  0.          19.39315344]
 [  0.1         82.09582914]
 [  0.2        -65.55781301]
 [  0.3         -5.02691035]
 [  0.32341667  62.63141303]]","[[0.         0.41811488]
 [0.1        1.70384437]
 [0.2        1.82142436]
 [0.3        1.13784798]
 [0.32341667 1.73168063]]",0,0.127
8817605319,m,22,french,4,5,french,2024-02-09 14:59:39.832256,False,2,440,sounds\english\audio/english_882.wav,"[[  0.         -42.93700265]
 [  0.1        -62.35786663]
 [  0.2        -16.20482572]
 [  0.3        -46.49020195]
 [  0.32341667 -64.89408339]]","[[0.         1.06489748]
 [0.1        1.38883859]
 [0.2        0.28843799]
 [0.3        1.05408179]
 [0.32341667 1.78517837]]",0,0.454
8817605319,m,22,french,4,5,french,2024-02-09 14:59:39.832256,False,2,441,sounds\english\audio/english_457.wav,"[[  0.         -73.30847947]
 [  0.1        -25.74413936]
 [  0.2          8.82772976]
 [  0.3         -2.30416086]
 [  0.32341667 -34.04493945]]","[[0.         0.35525387]
 [0.1        0.90483023]
 [0.2        1.30004432]
 [0.3        0.93422762]
 [0.32341667 1.31504388]]",0,0.658
8817605319,m,22,french,4,5,french,2024-02-09 14:59:39.832256,False,2,442,sounds\english\audio/english_368.wav,"[[  0.         -25.00542805]
 [  0.1        -48.20991773]
 [  0.2        -51.83604218]
 [  0.3         14.57062672]
 [  0.32341667 -26.77020505]]","[[0.         1.03431482]
 [0.1        0.92366821]
 [0.2        0.34019883]
 [0.3        1.21184807]
 [0.32341667 0.81530657]]",0,0.817
8817605319,m,22,french,4,5,french,2024-02-09 14:59:39.832256,False,2,443,sounds\english\audio/english_503.wav,"[[  0.         -62.81458057]
 [  0.1         17.97702429]
 [  0.2         -8.2980926 ]
 [  0.3        -62.4217389 ]
 [  0.32341667  18.11027086]]","[[0.         1.15988152]
 [0.1        0.58853345]
 [0.2        1.29983279]
 [0.3        1.42406205]
 [0.32341667 0.84018378]]",0,0.636
8817605319,m,22,french,4,5,french,2024-02-09 14:59:39.832256,False,2,444,sounds\english\audio/english_668.wav,"[[ 0.         48.8265236 ]
 [ 0.1        97.68090991]
 [ 0.2        47.50182685]
 [ 0.3        81.7432518 ]
 [ 0.32341667 28.08178094]]","[[0.         0.43768829]
 [0.1        0.31983773]
 [0.2        1.24438546]
 [0.3        0.49120307]
 [0.32341667 0.60639718]]",0,1.079
8817605319,m,22,french,4,5,french,2024-02-09 14:59:39.832256,False,2,445,sounds\english\audio/english_227.wav,"[[  0.         -56.39318384]
 [  0.1         90.87442764]
 [  0.2        -39.94082392]
 [  0.3         31.5093861 ]
 [  0.32341667  70.38847456]]","[[0.         1.7541365 ]
 [0.1        0.66011804]
 [0.2        0.16454365]
 [0.3        0.63744506]
 [0.32341667 0.55874538]]",1,0.292
8817605319,m,22,french,4,5,french,2024-02-09 14:59:39.832256,False,2,446,sounds\english\audio/english_63.wav,"[[  0.         -99.27532027]
 [  0.1         76.75365344]
 [  0.2         -4.19867406]
 [  0.3         58.21469339]
 [  0.32341667 -76.25580242]]","[[0.         1.55063038]
 [0.1        0.78453917]
 [0.2        1.54061689]
 [0.3        0.9417581 ]
 [0.32341667 1.07689855]]",0,0.553
8817605319,m,22,french,4,5,french,2024-02-09 14:59:39.832256,False,2,447,sounds\english\audio/english_763.wav,"[[ 0.         64.63144232]
 [ 0.1         8.86346429]
 [ 0.2        32.79569159]
 [ 0.3        10.55051177]
 [ 0.32341667  6.38738619]]","[[0.         0.7800836 ]
 [0.1        1.26656169]
 [0.2        1.93170043]
 [0.3        0.29422641]
 [0.32341667 1.43860225]]",0,0.188
8817605319,m,22,french,4,5,french,2024-02-09 14:59:39.832256,False,2,448,sounds\english\audio/english_945.wav,"[[  0.          63.16075011]
 [  0.1         87.55520176]
 [  0.2        -69.60467193]
 [  0.3        -69.25530384]
 [  0.32341667 -47.64160087]]","[[0.         1.8314946 ]
 [0.1        1.3737613 ]
 [0.2        0.61639792]
 [0.3        1.67239747]
 [0.32341667 1.88344595]]",0,0.146
8817605319,m,22,french,4,5,french,2024-02-09 14:59:39.832256,False,2,449,sounds\english\audio/english_535.wav,"[[  0.          -5.32882057]
 [  0.1        -34.98045039]
 [  0.2         30.10834221]
 [  0.3        -70.22542568]
 [  0.32341667 -73.0016054 ]]","[[0.         0.21055966]
 [0.1        0.89683134]
 [0.2        1.11178172]
 [0.3        0.20123235]
 [0.32341667 0.99564794]]",0,0.701
8817605319,m,22,french,4,5,french,2024-02-09 14:59:39.832256,False,2,450,sounds\english\audio/english_267.wav,"[[  0.         -83.13365237]
 [  0.1         76.30308178]
 [  0.2         53.87961391]
 [  0.3         62.72167491]
 [  0.32341667 -33.79574379]]","[[0.         1.47105267]
 [0.1        0.87521108]
 [0.2        1.04060287]
 [0.3        0.25080793]
 [0.32341667 1.11989054]]",0,0.469
8817605319,m,22,french,4,5,french,2024-02-09 14:59:39.832256,False,2,451,sounds\english\audio/english_325.wav,"[[  0.         -36.86035688]
 [  0.1        -55.38569655]
 [  0.2        -56.86017215]
 [  0.3        -98.19449268]
 [  0.32341667  -6.42447902]]","[[0.         0.2784687 ]
 [0.1        1.41229923]
 [0.2        0.83316938]
 [0.3        0.3465596 ]
 [0.32341667 1.41863786]]",0,0.369
8817605319,m,22,french,4,5,french,2024-02-09 14:59:39.832256,False,2,452,sounds\english\audio/english_717.wav,"[[  0.          11.70361719]
 [  0.1        -43.41962   ]
 [  0.2        -38.6653904 ]
 [  0.3        -38.11833374]
 [  0.32341667  93.29743671]]","[[0.         1.43236824]
 [0.1        0.38419888]
 [0.2        1.88953633]
 [0.3        1.28007762]
 [0.32341667 0.67082429]]",0,0.39
8817605319,m,22,french,4,5,french,2024-02-09 14:59:39.832256,False,2,453,sounds\english\audio/english_695.wav,"[[  0.         -74.02191529]
 [  0.1         54.28596986]
 [  0.2        -13.22196683]
 [  0.3          1.82272444]
 [  0.32341667 -11.74905262]]","[[0.         1.19534619]
 [0.1        0.93917139]
 [0.2        0.1241488 ]
 [0.3        1.20091234]
 [0.32341667 0.46222147]]",0,0.421
8817605319,m,22,french,4,5,french,2024-02-09 14:59:39.832256,False,2,454,sounds\english\audio/english_139.wav,"[[  0.          55.35526281]
 [  0.1        -66.48550036]
 [  0.2         21.45340352]
 [  0.3        -32.80413748]
 [  0.32341667 -77.32206638]]","[[0.         1.40478417]
 [0.1        1.12007301]
 [0.2        1.58559909]
 [0.3        1.13081383]
 [0.32341667 0.38560717]]",0,0.637
8817605319,m,22,french,4,5,french,2024-02-09 14:59:39.832256,False,2,455,sounds\english\audio/english_843.wav,"[[  0.         -34.38568909]
 [  0.1         91.48235516]
 [  0.2         45.43581208]
 [  0.3         47.04005582]
 [  0.32341667  30.80916685]]","[[0.         1.38988397]
 [0.1        0.61638546]
 [0.2        1.5800421 ]
 [0.3        1.07327256]
 [0.32341667 0.46994626]]",0,0.497
8817605319,m,22,french,4,5,french,2024-02-09 14:59:39.832256,False,2,456,sounds\english\audio/english_547.wav,"[[  0.          30.48969685]
 [  0.1        -38.27442703]
 [  0.2         29.58442849]
 [  0.3         -4.27268154]
 [  0.32341667  58.02076364]]","[[0.         1.04682874]
 [0.1        0.75017858]
 [0.2        0.7996645 ]
 [0.3        1.92102789]
 [0.32341667 1.77056707]]",0,0.674
8817605319,m,22,french,4,5,french,2024-02-09 14:59:39.832256,False,2,457,sounds\english\audio/english_367.wav,"[[  0.          69.68935346]
 [  0.1        -21.84293244]
 [  0.2        -22.40126322]
 [  0.3        -77.83415675]
 [  0.32341667  18.42522507]]","[[0.         1.12532443]
 [0.1        1.15903886]
 [0.2        1.68834661]
 [0.3        1.78966274]
 [0.32341667 1.57311162]]",0,0.412
8817605319,m,22,french,4,5,french,2024-02-09 14:59:39.832256,False,2,458,sounds\english\audio/english_184.wav,"[[ 0.         29.65201825]
 [ 0.1        16.48348791]
 [ 0.2         3.77448983]
 [ 0.3        62.87502431]
 [ 0.32341667 -8.82418577]]","[[0.         1.69567788]
 [0.1        1.26735627]
 [0.2        0.95352895]
 [0.3        1.7991474 ]
 [0.32341667 0.98992659]]",0,0.285
8817605319,m,22,french,4,5,french,2024-02-09 14:59:39.832256,False,2,459,sounds\english\audio/english_268.wav,"[[  0.          55.18591224]
 [  0.1         47.37483414]
 [  0.2         46.97410588]
 [  0.3        -64.08979313]
 [  0.32341667  35.8590447 ]]","[[0.         1.47327052]
 [0.1        0.95932673]
 [0.2        1.80275919]
 [0.3        1.6474991 ]
 [0.32341667 1.56533667]]",0,0.756
8817605319,m,22,french,4,5,french,2024-02-09 14:59:39.832256,False,2,460,sounds\english\audio/english_20.wav,"[[  0.         -56.6830557 ]
 [  0.1         50.66790367]
 [  0.2        -18.96445326]
 [  0.3        -25.44345058]
 [  0.32341667  12.75548414]]","[[0.         0.06363068]
 [0.1        1.80739158]
 [0.2        1.41045117]
 [0.3        0.2049667 ]
 [0.32341667 0.27136646]]",0,1.037
8817605319,m,22,french,4,5,french,2024-02-09 14:59:39.832256,False,2,461,sounds\english\audio/english_224.wav,"[[  0.          -3.31597843]
 [  0.1        -35.19448657]
 [  0.2        -54.62049262]
 [  0.3         50.12510099]
 [  0.32341667  96.66013203]]","[[0.         0.45157501]
 [0.1        1.77513434]
 [0.2        0.36912314]
 [0.3        1.67171916]
 [0.32341667 1.16069525]]",0,1.876
8817605319,m,22,french,4,5,french,2024-02-09 14:59:39.832256,False,2,462,sounds\english\audio/english_222.wav,"[[  0.          -5.8882644 ]
 [  0.1        -15.4334302 ]
 [  0.2        -39.50203868]
 [  0.3         67.79027175]
 [  0.32341667 -43.17344259]]","[[0.         0.97478352]
 [0.1        1.79573252]
 [0.2        1.71948726]
 [0.3        0.41699719]
 [0.32341667 0.26315099]]",0,1.425
8817605319,m,22,french,4,5,french,2024-02-09 14:59:39.832256,False,2,463,sounds\english\audio/english_928.wav,"[[  0.          55.07207497]
 [  0.1         83.71672672]
 [  0.2        -43.28929986]
 [  0.3        -17.1692271 ]
 [  0.32341667 -36.644272  ]]","[[0.         1.22706758]
 [0.1        0.97206042]
 [0.2        0.16969859]
 [0.3        0.90092586]
 [0.32341667 0.43024518]]",0,2.021
8817605319,m,22,french,4,5,french,2024-02-09 14:59:39.832256,False,2,464,sounds\english\audio/english_436.wav,"[[  0.          58.73131257]
 [  0.1         65.29204538]
 [  0.2          7.63213906]
 [  0.3         -2.54756362]
 [  0.32341667 -11.40614268]]","[[0.         0.30497449]
 [0.1        1.04665744]
 [0.2        1.03883923]
 [0.3        0.97345352]
 [0.32341667 0.16121918]]",0,0.3
8817605319,m,22,french,4,5,french,2024-02-09 14:59:39.832256,False,2,465,sounds\english\audio/english_723.wav,"[[  0.         -85.17156731]
 [  0.1         92.93654667]
 [  0.2        -28.89042756]
 [  0.3         36.79914563]
 [  0.32341667   6.86426773]]","[[0.         1.02541656]
 [0.1        0.92088513]
 [0.2        0.78256854]
 [0.3        1.22887413]
 [0.32341667 1.77193963]]",0,0.128
8817605319,m,22,french,4,5,french,2024-02-09 14:59:39.832256,False,2,466,sounds\english\audio/english_927.wav,"[[  0.          81.66311017]
 [  0.1          0.87570902]
 [  0.2        -59.21619647]
 [  0.3        -57.6787773 ]
 [  0.32341667 -30.87043146]]","[[0.         1.3783001 ]
 [0.1        0.51323502]
 [0.2        0.98265958]
 [0.3        0.30790993]
 [0.32341667 1.17222751]]",0,0.568
8817605319,m,22,french,4,5,french,2024-02-09 14:59:39.832256,False,2,467,sounds\english\audio/english_699.wav,"[[  0.         -21.84844695]
 [  0.1        -20.61050251]
 [  0.2         -7.57046677]
 [  0.3        -90.18255135]
 [  0.32341667 -39.12532958]]","[[0.         0.55007596]
 [0.1        0.98595355]
 [0.2        1.16771202]
 [0.3        0.60930532]
 [0.32341667 1.39260434]]",0,0.339
8817605319,m,22,french,4,5,french,2024-02-09 14:59:39.832256,False,2,468,sounds\english\audio/english_346.wav,"[[  0.          29.51078372]
 [  0.1         86.25753287]
 [  0.2         95.6553577 ]
 [  0.3        -65.97707071]
 [  0.32341667  49.79896228]]","[[0.         1.24489428]
 [0.1        1.77356048]
 [0.2        1.30862901]
 [0.3        0.68318311]
 [0.32341667 1.63073528]]",0,1.285
8817605319,m,22,french,4,5,french,2024-02-09 14:59:39.832256,False,2,469,sounds\english\audio/english_263.wav,"[[  0.           4.78285782]
 [  0.1         13.60270601]
 [  0.2         39.50896912]
 [  0.3         22.44107494]
 [  0.32341667 -36.00172497]]","[[0.         1.6410762 ]
 [0.1        0.7602565 ]
 [0.2        0.2694778 ]
 [0.3        1.51649535]
 [0.32341667 0.60574629]]",1,0.834
8817605319,m,22,french,4,5,french,2024-02-09 14:59:39.832256,False,2,470,sounds\english\audio/english_10.wav,"[[  0.         -80.92247099]
 [  0.1         11.56157957]
 [  0.2         72.61501241]
 [  0.3         91.01400741]
 [  0.32341667 -64.58672822]]","[[0.         1.33142191]
 [0.1        0.6588087 ]
 [0.2        1.62851887]
 [0.3        1.4109269 ]
 [0.32341667 0.76235223]]",0,0.461
8817605319,m,22,french,4,5,french,2024-02-09 14:59:39.832256,False,2,471,sounds\english\audio/english_963.wav,"[[  0.         -60.03327616]
 [  0.1        -15.51067414]
 [  0.2         59.36715957]
 [  0.3        -98.70464219]
 [  0.32341667  37.26723218]]","[[0.         0.86711865]
 [0.1        1.69273621]
 [0.2        0.74157302]
 [0.3        1.73078555]
 [0.32341667 1.37482324]]",0,1.066
8817605319,m,22,french,4,5,french,2024-02-09 14:59:39.832256,False,2,472,sounds\english\audio/english_765.wav,"[[  0.         -52.71695997]
 [  0.1         -0.72548599]
 [  0.2        -25.46106624]
 [  0.3        -15.36834083]
 [  0.32341667 -34.08212533]]","[[0.         0.24697616]
 [0.1        1.34458244]
 [0.2        0.2833524 ]
 [0.3        0.99517128]
 [0.32341667 0.81265208]]",0,0.521
8817605319,m,22,french,4,5,french,2024-02-09 14:59:39.832256,False,2,473,sounds\english\audio/english_444.wav,"[[  0.          57.2872587 ]
 [  0.1         68.85097071]
 [  0.2        -30.10164543]
 [  0.3        -57.0249627 ]
 [  0.32341667 -54.19692118]]","[[0.         0.52242118]
 [0.1        1.61316948]
 [0.2        0.15196309]
 [0.3        0.44426911]
 [0.32341667 1.48693747]]",1,1.368
8817605319,m,22,french,4,5,french,2024-02-09 14:59:39.832256,False,2,474,sounds\english\audio/english_636.wav,"[[  0.         -20.37295141]
 [  0.1        -84.7288786 ]
 [  0.2         24.84265136]
 [  0.3         -9.2443485 ]
 [  0.32341667  49.04875774]]","[[0.         1.69276631]
 [0.1        1.69908726]
 [0.2        1.44836333]
 [0.3        1.36647816]
 [0.32341667 0.88112598]]",0,0.169
8817605319,m,22,french,4,5,french,2024-02-09 14:59:39.832256,False,2,475,sounds\english\audio/english_91.wav,"[[  0.         -67.73951944]
 [  0.1         83.83337034]
 [  0.2        -12.75649653]
 [  0.3          5.95502951]
 [  0.32341667  59.56964586]]","[[0.         0.2772338 ]
 [0.1        0.0816757 ]
 [0.2        0.92538416]
 [0.3        0.40714056]
 [0.32341667 1.8717525 ]]",1,1.096
8817605319,m,22,french,4,5,french,2024-02-09 14:59:39.832256,False,2,476,sounds\english\audio/english_278.wav,"[[  0.         -49.55521664]
 [  0.1         60.24292507]
 [  0.2         34.32984246]
 [  0.3         91.69210883]
 [  0.32341667  78.84715657]]","[[0.         0.96598769]
 [0.1        1.32709354]
 [0.2        0.84496159]
 [0.3        1.50157491]
 [0.32341667 1.85534648]]",0,0.302
8817605319,m,22,french,4,5,french,2024-02-09 14:59:39.832256,False,2,477,sounds\english\audio/english_545.wav,"[[  0.          42.99494118]
 [  0.1         72.53025652]
 [  0.2          4.60849844]
 [  0.3          9.93291538]
 [  0.32341667 -11.25611892]]","[[0.         1.37740168]
 [0.1        0.91972232]
 [0.2        0.73226975]
 [0.3        1.52934768]
 [0.32341667 0.18478607]]",0,0.164
8817605319,m,22,french,4,5,french,2024-02-09 14:59:39.832256,False,2,478,sounds\english\audio/english_700.wav,"[[  0.         -76.89056698]
 [  0.1        -93.17552037]
 [  0.2         51.24439156]
 [  0.3         89.4516499 ]
 [  0.32341667 -68.48659069]]","[[0.         0.13963816]
 [0.1        0.76842729]
 [0.2        0.49149542]
 [0.3        1.08714417]
 [0.32341667 1.35188588]]",0,1.301
8817605319,m,22,french,4,5,french,2024-02-09 14:59:39.832256,False,2,479,sounds\english\audio/english_420.wav,"[[  0.         -56.31893026]
 [  0.1         66.6522923 ]
 [  0.2          2.15493058]
 [  0.3        -23.51601285]
 [  0.32341667  22.32226467]]","[[0.         0.25307214]
 [0.1        1.93095887]
 [0.2        0.49520396]
 [0.3        1.55970731]
 [0.32341667 0.71957325]]",0,0.163
8817605319,m,22,french,4,5,french,2024-02-09 14:59:39.832256,False,2,480,sounds\english\audio/english_955.wav,"[[  0.         -93.58498903]
 [  0.1        -11.56731864]
 [  0.2         60.37787928]
 [  0.3         83.42366765]
 [  0.32341667 -60.32056418]]","[[0.         1.26703381]
 [0.1        0.51967441]
 [0.2        1.0313906 ]
 [0.3        1.58878747]
 [0.32341667 1.0025339 ]]",0,0.339
8817605319,m,22,french,4,5,french,2024-02-09 14:59:39.832256,False,2,481,sounds\english\audio/english_715.wav,"[[  0.         -64.21420564]
 [  0.1         77.40813629]
 [  0.2        -98.26791609]
 [  0.3        -32.66334796]
 [  0.32341667  93.12500574]]","[[0.         1.80154013]
 [0.1        0.51096517]
 [0.2        0.49870215]
 [0.3        0.64344691]
 [0.32341667 1.17662216]]",0,0.661
8817605319,m,22,french,4,5,french,2024-02-09 14:59:39.832256,False,2,482,sounds\english\audio/english_172.wav,"[[  0.           8.59493981]
 [  0.1        -56.34346079]
 [  0.2        -95.76423912]
 [  0.3         11.69646411]
 [  0.32341667 -55.10661496]]","[[0.         0.93080222]
 [0.1        0.53387901]
 [0.2        0.34406097]
 [0.3        0.74935371]
 [0.32341667 0.42041327]]",1,0.533
8817605319,m,22,french,4,5,french,2024-02-09 14:59:39.832256,False,2,483,sounds\english\audio/english_861.wav,"[[  0.         -30.19921015]
 [  0.1         75.2433288 ]
 [  0.2        -49.47813624]
 [  0.3         86.59581665]
 [  0.32341667  58.40562581]]","[[0.         0.56503536]
 [0.1        1.43622494]
 [0.2        1.73497671]
 [0.3        0.70763908]
 [0.32341667 1.29518241]]",0,0.203
8817605319,m,22,french,4,5,french,2024-02-09 14:59:39.832256,False,2,484,sounds\english\audio/english_729.wav,"[[  0.          31.16849918]
 [  0.1        -74.04657477]
 [  0.2         98.28479208]
 [  0.3         45.68234461]
 [  0.32341667 -23.12232547]]","[[0.         1.30127688]
 [0.1        1.28998605]
 [0.2        0.71365363]
 [0.3        0.61436371]
 [0.32341667 0.96520681]]",0,0.171
8817605319,m,22,french,4,5,french,2024-02-09 14:59:39.832256,False,2,485,sounds\english\audio/english_624.wav,"[[  0.         -66.94889137]
 [  0.1         -6.87427926]
 [  0.2         69.52298075]
 [  0.3        -45.26015132]
 [  0.32341667 -50.37935108]]","[[0.         0.79130031]
 [0.1        1.85178888]
 [0.2        0.79988954]
 [0.3        0.87521033]
 [0.32341667 1.50754026]]",0,0.445
8817605319,m,22,french,4,5,french,2024-02-09 14:59:39.832256,False,2,486,sounds\english\audio/english_738.wav,"[[  0.         -37.88087101]
 [  0.1        -16.85966727]
 [  0.2        -79.76891938]
 [  0.3        -82.30918252]
 [  0.32341667  59.65991076]]","[[0.         1.83397703]
 [0.1        1.52099356]
 [0.2        1.69283951]
 [0.3        1.81957343]
 [0.32341667 0.75908376]]",0,0.131
8817605319,m,22,french,4,5,french,2024-02-09 14:59:39.832256,False,2,487,sounds\english\audio/english_857.wav,"[[  0.         -33.07031843]
 [  0.1         12.9349985 ]
 [  0.2          4.33682254]
 [  0.3         90.68056828]
 [  0.32341667  37.69781409]]","[[0.         1.04325491]
 [0.1        0.44078978]
 [0.2        1.36028147]
 [0.3        1.16905302]
 [0.32341667 1.24618942]]",0,0.493
8817605319,m,22,french,4,5,french,2024-02-09 14:59:39.832256,False,2,488,sounds\english\audio/english_502.wav,"[[  0.         -23.73065935]
 [  0.1          2.70754613]
 [  0.2         25.650451  ]
 [  0.3        -49.55254658]
 [  0.32341667  16.82642172]]","[[0.         0.0797034 ]
 [0.1        1.83600464]
 [0.2        1.48948742]
 [0.3        1.22465236]
 [0.32341667 1.41984075]]",0,3.302
8817605319,m,22,french,4,5,french,2024-02-09 14:59:39.832256,False,2,489,sounds\english\audio/english_112.wav,"[[  0.         -98.7507832 ]
 [  0.1        -92.72198769]
 [  0.2         15.54821062]
 [  0.3        -40.54151432]
 [  0.32341667 -42.89167932]]","[[0.         1.62855774]
 [0.1        1.23374737]
 [0.2        0.76022921]
 [0.3        0.49860071]
 [0.32341667 0.23801633]]",0,0.255
8817605319,m,22,french,4,5,french,2024-02-09 14:59:39.832256,False,2,490,sounds\english\audio/english_830.wav,"[[  0.           2.63258607]
 [  0.1        -31.8387274 ]
 [  0.2         -6.78563658]
 [  0.3        -57.52390495]
 [  0.32341667  51.13575953]]","[[0.         0.89301132]
 [0.1        1.32560067]
 [0.2        1.08718884]
 [0.3        0.53430446]
 [0.32341667 0.53816607]]",0,1.056
8817605319,m,22,french,4,5,french,2024-02-09 14:59:39.832256,False,2,491,sounds\english\audio/english_246.wav,"[[  0.         -62.23082525]
 [  0.1         59.67623932]
 [  0.2        -63.30715513]
 [  0.3         15.41118057]
 [  0.32341667  90.60814582]]","[[0.         0.02615808]
 [0.1        1.52596932]
 [0.2        1.87080553]
 [0.3        0.81226596]
 [0.32341667 0.64975072]]",0,1.122
8817605319,m,22,french,4,5,french,2024-02-09 14:59:39.832256,False,2,492,sounds\english\audio/english_63.wav,"[[  0.         -99.27532027]
 [  0.1         76.75365344]
 [  0.2         -4.19867406]
 [  0.3         58.21469339]
 [  0.32341667 -76.25580242]]","[[0.         1.55063038]
 [0.1        0.78453917]
 [0.2        1.54061689]
 [0.3        0.9417581 ]
 [0.32341667 1.07689855]]",0,1.167
8817605319,m,22,french,4,5,french,2024-02-09 14:59:39.832256,False,2,493,sounds\english\audio/english_608.wav,"[[  0.          78.8022196 ]
 [  0.1         59.03316834]
 [  0.2        -13.94961152]
 [  0.3         55.83681575]
 [  0.32341667 -13.77656228]]","[[0.         1.54390555]
 [0.1        1.36513164]
 [0.2        0.78716897]
 [0.3        1.29889886]
 [0.32341667 0.44376749]]",0,1.108
8817605319,m,22,french,4,5,french,2024-02-09 14:59:39.832256,False,2,494,sounds\english\audio/english_91.wav,"[[  0.         -67.73951944]
 [  0.1         83.83337034]
 [  0.2        -12.75649653]
 [  0.3          5.95502951]
 [  0.32341667  59.56964586]]","[[0.         0.2772338 ]
 [0.1        0.0816757 ]
 [0.2        0.92538416]
 [0.3        0.40714056]
 [0.32341667 1.8717525 ]]",0,1.193
8817605319,m,22,french,4,5,french,2024-02-09 14:59:39.832256,False,2,495,sounds\english\audio/english_174.wav,"[[  0.         -14.93169449]
 [  0.1        -60.50222611]
 [  0.2        -88.67347191]
 [  0.3        -20.58504224]
 [  0.32341667 -52.28073567]]","[[0.         0.27768215]
 [0.1        0.13809097]
 [0.2        0.18584848]
 [0.3        1.46718454]
 [0.32341667 0.17567705]]",1,0.748
8817605319,m,22,french,4,5,french,2024-02-09 14:59:39.832256,False,2,496,sounds\english\audio/english_302.wav,"[[  0.         -63.95927305]
 [  0.1        -82.44028643]
 [  0.2        -63.33590257]
 [  0.3        -82.33590521]
 [  0.32341667 -77.43124585]]","[[0.         1.3663617 ]
 [0.1        1.24112643]
 [0.2        1.83999602]
 [0.3        0.89576132]
 [0.32341667 1.51483357]]",0,0.163
8817605319,m,22,french,4,5,french,2024-02-09 14:59:39.832256,False,2,497,sounds\english\audio/english_178.wav,"[[  0.         -14.41838744]
 [  0.1         64.59665955]
 [  0.2        -96.76492712]
 [  0.3        -50.00654232]
 [  0.32341667  42.56426636]]","[[0.         0.71193749]
 [0.1        0.54024543]
 [0.2        1.78065704]
 [0.3        1.40559917]
 [0.32341667 0.99785593]]",0,0.986
8817605319,m,22,french,4,5,french,2024-02-09 14:59:39.832256,False,2,498,sounds\english\audio/english_600.wav,"[[  0.          37.30285492]
 [  0.1         57.58729363]
 [  0.2        -74.33256695]
 [  0.3        -35.711252  ]
 [  0.32341667   3.54782198]]","[[0.         1.23507691]
 [0.1        0.65453179]
 [0.2        1.70226061]
 [0.3        0.4723836 ]
 [0.32341667 0.49080622]]",0,0.133
8817605319,m,22,french,4,5,french,2024-02-09 14:59:39.832256,False,2,499,sounds\english\audio/english_100.wav,"[[  0.         -66.86198445]
 [  0.1         32.23990363]
 [  0.2        -63.31896149]
 [  0.3        -73.00038049]
 [  0.32341667  32.15710315]]","[[0.         0.79522553]
 [0.1        0.27784591]
 [0.2        1.76330212]
 [0.3        0.60946618]
 [0.32341667 0.42695433]]",0,0.218
8817605319,m,22,french,4,5,french,2024-02-09 14:59:39.832256,False,2,500,sounds\english\audio/english_655.wav,"[[  0.          84.9811401 ]
 [  0.1         70.1996811 ]
 [  0.2         -5.60681941]
 [  0.3        -33.00324328]
 [  0.32341667  24.65490624]]","[[0.         1.09123398]
 [0.1        0.51840547]
 [0.2        0.58569322]
 [0.3        1.11132849]
 [0.32341667 0.28465301]]",0,1.115
8817605319,m,22,french,4,5,french,2024-02-09 14:59:39.832256,False,2,501,sounds\english\audio/english_158.wav,"[[  0.          33.09785739]
 [  0.1        -85.08083727]
 [  0.2         97.70701203]
 [  0.3          2.54261044]
 [  0.32341667 -59.73934841]]","[[0.         1.71128449]
 [0.1        1.56145129]
 [0.2        0.69707892]
 [0.3        1.19647348]
 [0.32341667 1.17782448]]",0,0.228
8817605319,m,22,french,4,5,french,2024-02-09 14:59:39.832256,False,2,502,sounds\english\audio/english_390.wav,"[[  0.         -50.40750922]
 [  0.1        -38.67641955]
 [  0.2        -37.03459725]
 [  0.3        -24.07335547]
 [  0.32341667  75.09366884]]","[[0.         1.41643644]
 [0.1        0.84399933]
 [0.2        1.67796426]
 [0.3        0.43781117]
 [0.32341667 0.01225463]]",0,0.237
8817605319,m,22,french,4,5,french,2024-02-09 14:59:39.832256,False,2,503,sounds\english\audio/english_338.wav,"[[  0.         -22.40965878]
 [  0.1        -10.16153496]
 [  0.2        -50.2449588 ]
 [  0.3         14.05674122]
 [  0.32341667 -78.35339858]]","[[0.         1.93572195]
 [0.1        1.78994992]
 [0.2        1.38134059]
 [0.3        1.78462007]
 [0.32341667 1.2607094 ]]",0,0.128
8817605319,m,22,french,4,5,french,2024-02-09 14:59:39.832256,False,2,504,sounds\english\audio/english_419.wav,"[[  0.          74.10926047]
 [  0.1        -50.44969368]
 [  0.2        -38.37630765]
 [  0.3        -57.54140712]
 [  0.32341667  48.12555486]]","[[0.00000000e+00 4.23980314e-01]
 [1.00000000e-01 1.12483838e+00]
 [2.00000000e-01 4.73465541e-01]
 [3.00000000e-01 8.38613621e-04]
 [3.23416667e-01 3.89285402e-01]]",0,0.904
8817605319,m,22,french,4,5,french,2024-02-09 14:59:39.832256,False,2,505,sounds\english\audio/english_354.wav,"[[  0.         -63.97501145]
 [  0.1        -43.11314734]
 [  0.2         10.53928595]
 [  0.3        -23.15258088]
 [  0.32341667   3.22925066]]","[[0.         0.52067601]
 [0.1        0.59903392]
 [0.2        0.9992363 ]
 [0.3        1.16142831]
 [0.32341667 0.37639432]]",0,0.66
8817605319,m,22,french,4,5,french,2024-02-09 14:59:39.832256,False,2,506,sounds\english\audio/english_353.wav,"[[  0.          51.44050484]
 [  0.1         -8.32491594]
 [  0.2        -53.32966552]
 [  0.3         68.29246543]
 [  0.32341667 -32.22441747]]","[[0.         0.16518243]
 [0.1        1.32533476]
 [0.2        0.41923861]
 [0.3        1.87374553]
 [0.32341667 1.13071195]]",0,0.635
8817605319,m,22,french,4,5,french,2024-02-09 14:59:39.832256,False,2,507,sounds\english\audio/english_764.wav,"[[  0.           7.00590276]
 [  0.1        -69.33047837]
 [  0.2        -20.89747671]
 [  0.3        -96.63564891]
 [  0.32341667  78.55111455]]","[[0.         1.84020442]
 [0.1        0.1607256 ]
 [0.2        1.70981587]
 [0.3        1.13854431]
 [0.32341667 1.5536836 ]]",0,0.138
8817605319,m,22,french,4,5,french,2024-02-09 14:59:39.832256,False,2,508,sounds\english\audio/english_840.wav,"[[  0.         -27.11425843]
 [  0.1        -47.31494811]
 [  0.2        -88.66887426]
 [  0.3          7.86940595]
 [  0.32341667  87.61758205]]","[[0.         1.31301797]
 [0.1        0.54280133]
 [0.2        0.14090987]
 [0.3        0.11950116]
 [0.32341667 1.48166624]]",0,0.528
8817605319,m,22,french,4,5,french,2024-02-09 14:59:39.832256,False,2,509,sounds\english\audio/english_752.wav,"[[  0.         -89.50526135]
 [  0.1         16.42916277]
 [  0.2        -62.11724863]
 [  0.3        -22.7839786 ]
 [  0.32341667  21.77934146]]","[[0.         1.26833375]
 [0.1        1.25445964]
 [0.2        1.84048801]
 [0.3        0.96813738]
 [0.32341667 1.95604557]]",0,0.154
8817605319,m,22,french,4,5,french,2024-02-09 14:59:39.832256,False,2,510,sounds\english\audio/english_508.wav,"[[  0.         -21.23116318]
 [  0.1        -27.56583205]
 [  0.2         64.21774851]
 [  0.3         -9.24056951]
 [  0.32341667  -9.74670904]]","[[0.         1.79614382]
 [0.1        0.60449395]
 [0.2        0.56582153]
 [0.3        1.01665474]
 [0.32341667 0.78905044]]",0,0.758
8817605319,m,22,french,4,5,french,2024-02-09 14:59:39.832256,False,2,511,sounds\english\audio/english_955.wav,"[[  0.         -93.58498903]
 [  0.1        -11.56731864]
 [  0.2         60.37787928]
 [  0.3         83.42366765]
 [  0.32341667 -60.32056418]]","[[0.         1.26703381]
 [0.1        0.51967441]
 [0.2        1.0313906 ]
 [0.3        1.58878747]
 [0.32341667 1.0025339 ]]",0,0.745
8817605319,m,22,french,4,5,french,2024-02-09 14:59:39.832256,False,2,512,sounds\english\audio/english_275.wav,"[[  0.          -1.14725012]
 [  0.1        -90.43848863]
 [  0.2        -40.03711279]
 [  0.3        -29.12549604]
 [  0.32341667  77.33253221]]","[[0.         0.71691039]
 [0.1        0.74614953]
 [0.2        1.94843862]
 [0.3        0.32495742]
 [0.32341667 0.61649877]]",0,0.415
8817605319,m,22,french,4,5,french,2024-02-09 14:59:39.832256,False,2,513,sounds\english\audio/english_302.wav,"[[  0.         -63.95927305]
 [  0.1        -82.44028643]
 [  0.2        -63.33590257]
 [  0.3        -82.33590521]
 [  0.32341667 -77.43124585]]","[[0.         1.3663617 ]
 [0.1        1.24112643]
 [0.2        1.83999602]
 [0.3        0.89576132]
 [0.32341667 1.51483357]]",0,0.179
8817605319,m,22,french,4,5,french,2024-02-09 14:59:39.832256,False,2,514,sounds\english\audio/english_351.wav,"[[  0.         -56.55455818]
 [  0.1        -81.1333892 ]
 [  0.2         70.95296343]
 [  0.3        -82.79021433]
 [  0.32341667 -21.34496407]]","[[0.         0.98366365]
 [0.1        1.13800808]
 [0.2        1.04915948]
 [0.3        1.70890302]
 [0.32341667 1.83807055]]",0,0.773
8817605319,m,22,french,4,5,french,2024-02-09 14:59:39.832256,False,2,515,sounds\english\audio/english_86.wav,"[[  0.         -48.59393833]
 [  0.1         77.37095157]
 [  0.2         44.19816726]
 [  0.3        -99.780271  ]
 [  0.32341667  38.96545556]]","[[0.         1.45450552]
 [0.1        1.8635573 ]
 [0.2        1.174515  ]
 [0.3        1.46785746]
 [0.32341667 0.99607158]]",0,0.214
8817605319,m,22,french,4,5,french,2024-02-09 14:59:39.832256,False,2,516,sounds\english\audio/english_892.wav,"[[ 0.         38.63128374]
 [ 0.1        22.49899687]
 [ 0.2        28.84135264]
 [ 0.3        81.19740532]
 [ 0.32341667 22.37782167]]","[[0.         0.97893944]
 [0.1        0.66551001]
 [0.2        0.36795179]
 [0.3        1.0840826 ]
 [0.32341667 0.83637256]]",1,0.556
8817605319,m,22,french,4,5,french,2024-02-09 14:59:39.832256,False,2,517,sounds\english\audio/english_252.wav,"[[  0.          79.75601627]
 [  0.1         17.00183399]
 [  0.2        -25.42800597]
 [  0.3        -47.65138194]
 [  0.32341667  35.10652067]]","[[0.         0.77799761]
 [0.1        1.07711339]
 [0.2        0.7917181 ]
 [0.3        1.47632881]
 [0.32341667 1.65919103]]",0,0.279
8817605319,m,22,french,4,5,french,2024-02-09 14:59:39.832256,False,2,518,sounds\english\audio/english_80.wav,"[[  0.          33.21374474]
 [  0.1        -72.2618742 ]
 [  0.2        -29.44860443]
 [  0.3        -33.36418129]
 [  0.32341667 -65.11319145]]","[[0.         1.09809668]
 [0.1        1.73594877]
 [0.2        0.30037535]
 [0.3        0.36613598]
 [0.32341667 0.50687614]]",0,1.09
8817605319,m,22,french,4,5,french,2024-02-09 14:59:39.832256,False,2,519,sounds\english\audio/english_880.wav,"[[  0.           3.17154152]
 [  0.1        -74.02271749]
 [  0.2         46.15952764]
 [  0.3          4.14106927]
 [  0.32341667  26.36707366]]","[[0.         0.81183988]
 [0.1        1.44061269]
 [0.2        0.42884863]
 [0.3        1.93838261]
 [0.32341667 1.4503687 ]]",0,1.186
8817605319,m,22,french,4,5,french,2024-02-09 14:59:39.832256,False,2,520,sounds\english\audio/english_48.wav,"[[  0.          73.79399561]
 [  0.1         -6.33056249]
 [  0.2        -25.55346814]
 [  0.3         46.43305776]
 [  0.32341667 -46.56414761]]","[[0.         0.74385981]
 [0.1        1.05457567]
 [0.2        0.45493163]
 [0.3        0.06513279]
 [0.32341667 0.46755714]]",0,0.795
8817605319,m,22,french,4,5,french,2024-02-09 14:59:39.832256,False,2,521,sounds\english\audio/english_805.wav,"[[  0.         -11.97504695]
 [  0.1         96.82911573]
 [  0.2          7.51835152]
 [  0.3          2.47378187]
 [  0.32341667 -43.26336213]]","[[0.         0.06029378]
 [0.1        0.81391401]
 [0.2        1.33531055]
 [0.3        1.7608484 ]
 [0.32341667 1.4289718 ]]",0,1.011
8817605319,m,22,french,4,5,french,2024-02-09 14:59:39.832256,False,2,522,sounds\english\audio/english_390.wav,"[[  0.         -50.40750922]
 [  0.1        -38.67641955]
 [  0.2        -37.03459725]
 [  0.3        -24.07335547]
 [  0.32341667  75.09366884]]","[[0.         1.41643644]
 [0.1        0.84399933]
 [0.2        1.67796426]
 [0.3        0.43781117]
 [0.32341667 0.01225463]]",0,0.754
8817605319,m,22,french,4,5,french,2024-02-09 14:59:39.832256,False,2,523,sounds\english\audio/english_85.wav,"[[  0.          69.91092253]
 [  0.1         90.04885235]
 [  0.2        -54.471964  ]
 [  0.3        -32.42862041]
 [  0.32341667 -26.25094384]]","[[0.         1.07696769]
 [0.1        1.65675227]
 [0.2        1.18566865]
 [0.3        0.43131811]
 [0.32341667 1.88641509]]",0,0.284
8817605319,m,22,french,4,5,french,2024-02-09 14:59:39.832256,False,2,524,sounds\english\audio/english_532.wav,"[[  0.         -19.59321792]
 [  0.1         84.44945775]
 [  0.2         -5.6477907 ]
 [  0.3        -66.11375502]
 [  0.32341667 -46.16722618]]","[[0.         1.69826346]
 [0.1        1.19849103]
 [0.2        0.05164805]
 [0.3        0.74129516]
 [0.32341667 0.11393119]]",1,0.523
8817605319,m,22,french,4,5,french,2024-02-09 14:59:39.832256,False,2,525,sounds\english\audio/english_436.wav,"[[  0.          58.73131257]
 [  0.1         65.29204538]
 [  0.2          7.63213906]
 [  0.3         -2.54756362]
 [  0.32341667 -11.40614268]]","[[0.         0.30497449]
 [0.1        1.04665744]
 [0.2        1.03883923]
 [0.3        0.97345352]
 [0.32341667 0.16121918]]",0,0.692
8817605319,m,22,french,4,5,french,2024-02-09 14:59:39.832256,False,2,526,sounds\english\audio/english_535.wav,"[[  0.          -5.32882057]
 [  0.1        -34.98045039]
 [  0.2         30.10834221]
 [  0.3        -70.22542568]
 [  0.32341667 -73.0016054 ]]","[[0.         0.21055966]
 [0.1        0.89683134]
 [0.2        1.11178172]
 [0.3        0.20123235]
 [0.32341667 0.99564794]]",0,0.401
8817605319,m,22,french,4,5,french,2024-02-09 14:59:39.832256,False,2,527,sounds\english\audio/english_561.wav,"[[  0.          62.21065415]
 [  0.1         -9.84770717]
 [  0.2        -12.92274306]
 [  0.3         16.08334811]
 [  0.32341667 -22.38830035]]","[[0.         1.32725493]
 [0.1        1.15871491]
 [0.2        0.82816789]
 [0.3        1.72308293]
 [0.32341667 0.72943893]]",0,0.328
8817605319,m,22,french,4,5,french,2024-02-09 14:59:39.832256,False,2,528,sounds\english\audio/english_338.wav,"[[  0.         -22.40965878]
 [  0.1        -10.16153496]
 [  0.2        -50.2449588 ]
 [  0.3         14.05674122]
 [  0.32341667 -78.35339858]]","[[0.         1.93572195]
 [0.1        1.78994992]
 [0.2        1.38134059]
 [0.3        1.78462007]
 [0.32341667 1.2607094 ]]",0,0.307
8817605319,m,22,french,4,5,french,2024-02-09 14:59:39.832256,False,2,529,sounds\english\audio/english_612.wav,"[[  0.         -84.32217164]
 [  0.1         36.55311424]
 [  0.2         92.38334081]
 [  0.3         11.68953794]
 [  0.32341667  43.3279226 ]]","[[0.         1.34068621]
 [0.1        0.03443149]
 [0.2        0.45903509]
 [0.3        0.60209198]
 [0.32341667 0.29533154]]",1,0.863
8817605319,m,22,french,4,5,french,2024-02-09 14:59:39.832256,False,2,530,sounds\english\audio/english_240.wav,"[[  0.         -96.55121617]
 [  0.1         73.99435309]
 [  0.2        -27.17256968]
 [  0.3         -2.05185553]
 [  0.32341667  80.37406519]]","[[0.         1.04823872]
 [0.1        1.11556714]
 [0.2        0.68795106]
 [0.3        1.30325309]
 [0.32341667 0.86977317]]",0,1.809
8817605319,m,22,french,4,5,french,2024-02-09 14:59:39.832256,False,2,531,sounds\english\audio/english_387.wav,"[[  0.          14.25538659]
 [  0.1         -5.8057983 ]
 [  0.2         -2.59288607]
 [  0.3         19.33055559]
 [  0.32341667 -85.57173801]]","[[0.         0.59610882]
 [0.1        0.93453474]
 [0.2        1.87880123]
 [0.3        0.79709693]
 [0.32341667 0.90161027]]",0,0.343
8817605319,m,22,french,4,5,french,2024-02-09 14:59:39.832256,False,2,532,sounds\english\audio/english_11.wav,"[[  0.         -20.45826732]
 [  0.1        -31.26113472]
 [  0.2         84.03210455]
 [  0.3         30.35463164]
 [  0.32341667 -63.36217442]]","[[0.         1.19869378]
 [0.1        0.2059713 ]
 [0.2        0.62296143]
 [0.3        1.49781179]
 [0.32341667 0.18750748]]",0,1.298
8817605319,m,22,french,4,5,french,2024-02-09 14:59:39.832256,False,2,533,sounds\english\audio/english_653.wav,"[[  0.           8.14815906]
 [  0.1          4.49815435]
 [  0.2        -96.80954485]
 [  0.3         -0.49075979]
 [  0.32341667  98.12577208]]","[[0.         1.27061672]
 [0.1        1.37470465]
 [0.2        1.57421691]
 [0.3        1.39011427]
 [0.32341667 0.75484601]]",0,1.039
8817605319,m,22,french,4,5,french,2024-02-09 14:59:39.832256,False,2,534,sounds\english\audio/english_323.wav,"[[  0.          92.33188111]
 [  0.1          4.22577609]
 [  0.2        -35.48560344]
 [  0.3          7.73763769]
 [  0.32341667  55.62458321]]","[[0.         1.59668922]
 [0.1        1.75306106]
 [0.2        1.06071567]
 [0.3        1.9328625 ]
 [0.32341667 1.27347405]]",0,0.219
8817605319,m,22,french,4,5,french,2024-02-09 14:59:39.832256,False,2,535,sounds\english\audio/english_651.wav,"[[  0.          94.66063372]
 [  0.1         53.93234837]
 [  0.2        -71.35755131]
 [  0.3         50.84025958]
 [  0.32341667 -24.67252949]]","[[0.         0.16277223]
 [0.1        1.71236475]
 [0.2        0.37376336]
 [0.3        0.80998932]
 [0.32341667 0.23835763]]",0,0.739
8817605319,m,22,french,4,5,french,2024-02-09 14:59:39.832256,False,2,536,sounds\english\audio/english_126.wav,"[[  0.         -71.89060105]
 [  0.1        -54.28004149]
 [  0.2         67.0997098 ]
 [  0.3        -96.31741745]
 [  0.32341667  22.67293764]]","[[0.         0.84485729]
 [0.1        1.61340521]
 [0.2        1.10892805]
 [0.3        1.20133652]
 [0.32341667 0.33470898]]",0,0.461
8817605319,m,22,french,4,5,french,2024-02-09 14:59:39.832256,False,2,537,sounds\english\audio/english_802.wav,"[[  0.          44.11448731]
 [  0.1         27.89646601]
 [  0.2        -19.36127415]
 [  0.3         15.17899174]
 [  0.32341667 -18.70870555]]","[[0.         1.89082481]
 [0.1        1.73386287]
 [0.2        0.34468699]
 [0.3        0.39328876]
 [0.32341667 1.25778986]]",0,0.607
8817605319,m,22,french,4,5,french,2024-02-09 14:59:39.832256,False,2,538,sounds\english\audio/english_678.wav,"[[  0.          87.86222938]
 [  0.1        -47.14792626]
 [  0.2         -6.84659798]
 [  0.3         87.67045201]
 [  0.32341667 -51.71213936]]","[[0.         1.6760541 ]
 [0.1        0.22369522]
 [0.2        1.1260271 ]
 [0.3        1.53941447]
 [0.32341667 1.37136581]]",0,0.192
8817605319,m,22,french,4,5,french,2024-02-09 14:59:39.832256,False,2,539,sounds\english\audio/english_219.wav,"[[  0.          38.40040381]
 [  0.1        -26.23926727]
 [  0.2        -57.67558578]
 [  0.3         50.56926795]
 [  0.32341667  64.39220397]]","[[0.         1.09142553]
 [0.1        0.5740428 ]
 [0.2        1.19056911]
 [0.3        1.87089358]
 [0.32341667 1.06933149]]",0,0.661
8817605319,m,22,french,4,5,french,2024-02-09 14:59:39.832256,False,2,540,sounds\english\audio/english_153.wav,"[[  0.           1.34878197]
 [  0.1        -86.14475674]
 [  0.2          3.24582423]
 [  0.3         -6.94068795]
 [  0.32341667 -76.91560753]]","[[0.         1.20280718]
 [0.1        1.60924223]
 [0.2        0.94422247]
 [0.3        0.98008297]
 [0.32341667 0.34988026]]",0,1.277
8817605319,m,22,french,4,5,french,2024-02-09 14:59:39.832256,False,2,541,sounds\english\audio/english_545.wav,"[[  0.          42.99494118]
 [  0.1         72.53025652]
 [  0.2          4.60849844]
 [  0.3          9.93291538]
 [  0.32341667 -11.25611892]]","[[0.         1.37740168]
 [0.1        0.91972232]
 [0.2        0.73226975]
 [0.3        1.52934768]
 [0.32341667 0.18478607]]",0,2.479
8817605319,m,22,french,4,5,french,2024-02-09 14:59:39.832256,False,2,542,sounds\english\audio/english_338.wav,"[[  0.         -22.40965878]
 [  0.1        -10.16153496]
 [  0.2        -50.2449588 ]
 [  0.3         14.05674122]
 [  0.32341667 -78.35339858]]","[[0.         1.93572195]
 [0.1        1.78994992]
 [0.2        1.38134059]
 [0.3        1.78462007]
 [0.32341667 1.2607094 ]]",0,0.181
8817605319,m,22,french,4,5,french,2024-02-09 14:59:39.832256,False,2,543,sounds\english\audio/english_700.wav,"[[  0.         -76.89056698]
 [  0.1        -93.17552037]
 [  0.2         51.24439156]
 [  0.3         89.4516499 ]
 [  0.32341667 -68.48659069]]","[[0.         0.13963816]
 [0.1        0.76842729]
 [0.2        0.49149542]
 [0.3        1.08714417]
 [0.32341667 1.35188588]]",1,0.47
8817605319,m,22,french,4,5,french,2024-02-09 14:59:39.832256,False,2,544,sounds\english\audio/english_101.wav,"[[  0.          60.77829508]
 [  0.1         43.41373716]
 [  0.2         56.16195873]
 [  0.3        -99.94719329]
 [  0.32341667  -1.35074094]]","[[0.         0.77962125]
 [0.1        0.02040908]
 [0.2        0.79248433]
 [0.3        1.74003505]
 [0.32341667 1.66206156]]",0,1.272
8817605319,m,22,french,4,5,french,2024-02-09 14:59:39.832256,False,2,545,sounds\english\audio/english_402.wav,"[[  0.         -69.75327375]
 [  0.1        -37.13247603]
 [  0.2         95.06865819]
 [  0.3        -83.65219271]
 [  0.32341667 -39.65623645]]","[[0.         0.88104294]
 [0.1        1.50830761]
 [0.2        0.86613458]
 [0.3        1.46195184]
 [0.32341667 1.78030697]]",0,0.566
8817605319,m,22,french,4,5,french,2024-02-09 14:59:39.832256,False,2,546,sounds\english\audio/english_700.wav,"[[  0.         -76.89056698]
 [  0.1        -93.17552037]
 [  0.2         51.24439156]
 [  0.3         89.4516499 ]
 [  0.32341667 -68.48659069]]","[[0.         0.13963816]
 [0.1        0.76842729]
 [0.2        0.49149542]
 [0.3        1.08714417]
 [0.32341667 1.35188588]]",0,1.139
8817605319,m,22,french,4,5,french,2024-02-09 14:59:39.832256,False,2,547,sounds\english\audio/english_833.wav,"[[  0.          18.29317799]
 [  0.1         20.01945042]
 [  0.2        -77.99741705]
 [  0.3         19.36192697]
 [  0.32341667  43.06785988]]","[[0.         0.49951345]
 [0.1        1.12176851]
 [0.2        0.59960618]
 [0.3        0.50557433]
 [0.32341667 0.3288339 ]]",0,0.624
8817605319,m,22,french,4,5,french,2024-02-09 14:59:39.832256,False,2,548,sounds\english\audio/english_346.wav,"[[  0.          29.51078372]
 [  0.1         86.25753287]
 [  0.2         95.6553577 ]
 [  0.3        -65.97707071]
 [  0.32341667  49.79896228]]","[[0.         1.24489428]
 [0.1        1.77356048]
 [0.2        1.30862901]
 [0.3        0.68318311]
 [0.32341667 1.63073528]]",0,0.275
8817605319,m,22,french,4,5,french,2024-02-09 14:59:39.832256,False,2,549,sounds\english\audio/english_948.wav,"[[  0.          12.28616187]
 [  0.1         33.44634687]
 [  0.2         98.80566767]
 [  0.3        -93.57044844]
 [  0.32341667 -51.09398555]]","[[0.         1.33435242]
 [0.1        1.33862855]
 [0.2        1.25876505]
 [0.3        1.87938727]
 [0.32341667 1.88731406]]",0,0.151
8817605319,m,22,french,4,5,french,2024-02-09 14:59:39.832256,False,2,550,sounds\english\audio/english_124.wav,"[[  0.         -16.92140416]
 [  0.1         97.41289205]
 [  0.2        -78.49167412]
 [  0.3         -3.48618202]
 [  0.32341667   5.32047068]]","[[0.         1.25482105]
 [0.1        1.97830042]
 [0.2        1.09846955]
 [0.3        0.36540564]
 [0.32341667 0.96325389]]",0,0.425
8817605319,m,22,french,4,5,french,2024-02-09 14:59:39.832256,False,2,551,sounds\english\audio/english_368.wav,"[[  0.         -25.00542805]
 [  0.1        -48.20991773]
 [  0.2        -51.83604218]
 [  0.3         14.57062672]
 [  0.32341667 -26.77020505]]","[[0.         1.03431482]
 [0.1        0.92366821]
 [0.2        0.34019883]
 [0.3        1.21184807]
 [0.32341667 0.81530657]]",0,1.022
8817605319,m,22,french,4,5,french,2024-02-09 14:59:39.832256,False,2,552,sounds\english\audio/english_469.wav,"[[  0.         -12.92877168]
 [  0.1        -67.35237443]
 [  0.2        -70.76493751]
 [  0.3         86.785725  ]
 [  0.32341667 -36.33255728]]","[[0.         0.59007764]
 [0.1        1.36577084]
 [0.2        1.86337992]
 [0.3        1.85233296]
 [0.32341667 1.108986  ]]",0,0.764
8817605319,m,22,french,4,5,french,2024-02-09 14:59:39.832256,False,2,553,sounds\english\audio/english_879.wav,"[[  0.         -56.32485069]
 [  0.1         64.67592183]
 [  0.2         25.82204554]
 [  0.3          5.66794257]
 [  0.32341667 -31.65503708]]","[[0.         0.53184386]
 [0.1        1.34296213]
 [0.2        0.44649674]
 [0.3        0.79707043]
 [0.32341667 1.19804995]]",0,2.251
8817605319,m,22,french,4,5,french,2024-02-09 14:59:39.832256,False,2,554,sounds\english\audio/english_775.wav,"[[ 0.         58.00753923]
 [ 0.1        88.61433734]
 [ 0.2        97.9031651 ]
 [ 0.3        14.61974867]
 [ 0.32341667 -5.44703254]]","[[0.         1.75560269]
 [0.1        0.86519841]
 [0.2        0.93867241]
 [0.3        1.86901891]
 [0.32341667 0.0946911 ]]",0,0.365
8817605319,m,22,french,4,5,french,2024-02-09 14:59:39.832256,False,2,555,sounds\english\audio/english_560.wav,"[[  0.           6.26341837]
 [  0.1        -94.10474965]
 [  0.2        -43.88069215]
 [  0.3        -26.3559156 ]
 [  0.32341667 -91.38105747]]","[[0.         1.61909233]
 [0.1        0.93851614]
 [0.2        1.37910144]
 [0.3        1.10578935]
 [0.32341667 0.02070647]]",0,2.699
8817605319,m,22,french,4,5,french,2024-02-09 14:59:39.832256,False,2,556,sounds\english\audio/english_146.wav,"[[  0.          -7.47107612]
 [  0.1        -10.73298436]
 [  0.2         -4.63341632]
 [  0.3         14.65491039]
