subj,sex,age,language,english,french,native_lang,date,practice,block,trial,stim,pitch,stretch,response,rt
8749218289,f,19,french,4,5,french,2024-01-25 10:40:30.095649,True,0,0,sounds\english\audio/english_783.wav,"[[ 0.         23.05268069]
 [ 0.1         9.36005369]
 [ 0.2        62.81522218]
 [ 0.3        67.71456376]
 [ 0.32341667 77.96788237]]","[[0.         1.49549247]
 [0.1        0.13797177]
 [0.2        1.80236654]
 [0.3        0.33800471]
 [0.32341667 1.97708045]]",1,16.432
8749218289,f,19,french,4,5,french,2024-01-25 10:40:30.095649,True,0,1,sounds\english\audio/english_593.wav,"[[ 0.          0.23295982]
 [ 0.1        -0.52832444]
 [ 0.2        18.28609946]
 [ 0.3        21.25816485]
 [ 0.32341667 60.44039038]]","[[0.         1.83954553]
 [0.1        1.77820403]
 [0.2        0.36770598]
 [0.3        0.42189114]
 [0.32341667 0.07588974]]",1,4.21
8749218289,f,19,french,4,5,french,2024-01-25 10:40:30.095649,True,0,2,sounds\english\audio/english_126.wav,"[[  0.         -71.89060105]
 [  0.1        -54.28004149]
 [  0.2         67.0997098 ]
 [  0.3        -96.31741745]
 [  0.32341667  22.67293764]]","[[0.         0.84485729]
 [0.1        1.61340521]
 [0.2        1.10892805]
 [0.3        1.20133652]
 [0.32341667 0.33470898]]",0,3.052
8749218289,f,19,french,4,5,french,2024-01-25 10:40:30.095649,False,1,3,sounds\english\audio/english_421.wav,"[[ 0.         25.39012861]
 [ 0.1        49.11153532]
 [ 0.2        38.93723883]
 [ 0.3        -9.34286459]
 [ 0.32341667 -9.28476392]]","[[0.         1.47358925]
 [0.1        1.20920516]
 [0.2        0.72174872]
 [0.3        0.24556907]
 [0.32341667 0.87006143]]",0,4.386
8749218289,f,19,french,4,5,french,2024-01-25 10:40:30.095649,False,1,4,sounds\english\audio/english_581.wav,"[[  0.          -4.1565262 ]
 [  0.1         84.55344465]
 [  0.2        -57.45750027]
 [  0.3        -14.35569009]
 [  0.32341667 -54.33758456]]","[[0.         0.01704603]
 [0.1        1.32903406]
 [0.2        1.58046526]
 [0.3        1.16633299]
 [0.32341667 1.20758605]]",0,4.513
8749218289,f,19,french,4,5,french,2024-01-25 10:40:30.095649,False,1,5,sounds\english\audio/english_483.wav,"[[  0.          -5.76716701]
 [  0.1         70.49761143]
 [  0.2        -45.60331281]
 [  0.3         83.6717315 ]
 [  0.32341667 -49.24362833]]","[[0.         0.46419013]
 [0.1        1.51640771]
 [0.2        0.16811565]
 [0.3        0.53401791]
 [0.32341667 1.0404632 ]]",1,4.787
8749218289,f,19,french,4,5,french,2024-01-25 10:40:30.095649,False,1,6,sounds\english\audio/english_941.wav,"[[  0.          88.25484185]
 [  0.1         29.23312353]
 [  0.2        -73.60888885]
 [  0.3        -38.35663254]
 [  0.32341667 -37.21470774]]","[[0.         1.5236155 ]
 [0.1        0.93469446]
 [0.2        0.44203051]
 [0.3        1.28625712]
 [0.32341667 1.264942  ]]",0,6.687
8749218289,f,19,french,4,5,french,2024-01-25 10:40:30.095649,False,1,7,sounds\english\audio/english_296.wav,"[[  0.          -4.92142852]
 [  0.1         -5.74196289]
 [  0.2         76.26647078]
 [  0.3        -62.74030654]
 [  0.32341667 -60.661992  ]]","[[0.         1.99305172]
 [0.1        0.92633133]
 [0.2        0.44879969]
 [0.3        1.47417428]
 [0.32341667 1.05571007]]",1,5.944
8749218289,f,19,french,4,5,french,2024-01-25 10:40:30.095649,False,1,8,sounds\english\audio/english_744.wav,"[[  0.          43.39686976]
 [  0.1        -61.67573043]
 [  0.2          0.51873183]
 [  0.3         12.88130512]
 [  0.32341667  57.31714449]]","[[0.         0.75505854]
 [0.1        1.01311725]
 [0.2        0.73457108]
 [0.3        0.90154102]
 [0.32341667 1.01338509]]",0,3.064
8749218289,f,19,french,4,5,french,2024-01-25 10:40:30.095649,False,1,9,sounds\english\audio/english_63.wav,"[[  0.         -99.27532027]
 [  0.1         76.75365344]
 [  0.2         -4.19867406]
 [  0.3         58.21469339]
 [  0.32341667 -76.25580242]]","[[0.         1.55063038]
 [0.1        0.78453917]
 [0.2        1.54061689]
 [0.3        0.9417581 ]
 [0.32341667 1.07689855]]",1,4.193
8749218289,f,19,french,4,5,french,2024-01-25 10:40:30.095649,False,1,10,sounds\english\audio/english_578.wav,"[[  0.         -76.90925642]
 [  0.1        -68.48676994]
 [  0.2         36.30884798]
 [  0.3        -36.82491274]
 [  0.32341667  -4.04717442]]","[[0.         1.21901793]
 [0.1        1.4118495 ]
 [0.2        0.05521057]
 [0.3        1.45629656]
 [0.32341667 1.80268091]]",0,5.852
8749218289,f,19,french,4,5,french,2024-01-25 10:40:30.095649,False,1,11,sounds\english\audio/english_801.wav,"[[  0.          66.50571345]
 [  0.1        -53.03260979]
 [  0.2         -3.89459646]
 [  0.3          8.32951864]
 [  0.32341667 -87.46806733]]","[[0.         0.19311528]
 [0.1        0.48683601]
 [0.2        1.16293258]
 [0.3        1.55734707]
 [0.32341667 0.63471681]]",1,3.415
8749218289,f,19,french,4,5,french,2024-01-25 10:40:30.095649,False,1,12,sounds\english\audio/english_534.wav,"[[  0.         -42.4271338 ]
 [  0.1        -80.6424644 ]
 [  0.2         59.29592388]
 [  0.3         75.02007223]
 [  0.32341667 -57.55026449]]","[[0.         1.1267565 ]
 [0.1        0.6842577 ]
 [0.2        0.01459656]
 [0.3        1.03701198]
 [0.32341667 1.25840342]]",0,1.538
8749218289,f,19,french,4,5,french,2024-01-25 10:40:30.095649,False,1,13,sounds\english\audio/english_210.wav,"[[  0.          43.03172008]
 [  0.1         58.48529179]
 [  0.2         57.29337371]
 [  0.3        -45.34642936]
 [  0.32341667  -3.49486879]]","[[0.         0.27268056]
 [0.1        0.59270989]
 [0.2        1.57355776]
 [0.3        1.97663548]
 [0.32341667 1.39997912]]",1,3.683
8749218289,f,19,french,4,5,french,2024-01-25 10:40:30.095649,False,1,14,sounds\english\audio/english_336.wav,"[[  0.          29.43389708]
 [  0.1        -98.82505887]
 [  0.2         33.95949266]
 [  0.3        -57.79711044]
 [  0.32341667  81.65015026]]","[[0.         1.05594545]
 [0.1        1.57774783]
 [0.2        1.35373128]
 [0.3        1.04960404]
 [0.32341667 0.39151968]]",0,8.985
8749218289,f,19,french,4,5,french,2024-01-25 10:40:30.095649,False,1,15,sounds\english\audio/english_310.wav,"[[  0.          82.1385274 ]
 [  0.1        -33.74608058]
 [  0.2         62.12487376]
 [  0.3         96.31437548]
 [  0.32341667 -23.64802517]]","[[0.         0.14341218]
 [0.1        1.80934389]
 [0.2        1.28785402]
 [0.3        1.13060378]
 [0.32341667 1.05137249]]",1,1.324
8749218289,f,19,french,4,5,french,2024-01-25 10:40:30.095649,False,1,16,sounds\english\audio/english_844.wav,"[[  0.         -84.59865618]
 [  0.1          2.74576488]
 [  0.2        -31.14414819]
 [  0.3         59.06244098]
 [  0.32341667  67.61674881]]","[[0.         1.95225136]
 [0.1        1.66072701]
 [0.2        0.05165652]
 [0.3        0.5878804 ]
 [0.32341667 0.72232709]]",0,1.455
8749218289,f,19,french,4,5,french,2024-01-25 10:40:30.095649,False,1,17,sounds\english\audio/english_317.wav,"[[  0.         -26.75650792]
 [  0.1          9.07297032]
 [  0.2         17.58512652]
 [  0.3         29.57201507]
 [  0.32341667  56.4667582 ]]","[[0.         1.75672771]
 [0.1        1.82949168]
 [0.2        1.6954519 ]
 [0.3        0.7122411 ]
 [0.32341667 1.26753728]]",0,1.19
8749218289,f,19,french,4,5,french,2024-01-25 10:40:30.095649,False,1,18,sounds\english\audio/english_792.wav,"[[  0.         -56.39949456]
 [  0.1        -76.36067248]
 [  0.2        -58.44160547]
 [  0.3         25.29086486]
 [  0.32341667  -6.58788169]]","[[0.         1.32676777]
 [0.1        1.08004851]
 [0.2        1.5809308 ]
 [0.3        0.16508433]
 [0.32341667 1.18870574]]",1,1.207
8749218289,f,19,french,4,5,french,2024-01-25 10:40:30.095649,False,1,19,sounds\english\audio/english_856.wav,"[[  0.         -44.08940674]
 [  0.1        -25.77644107]
 [  0.2          6.39263247]
 [  0.3         92.67536145]
 [  0.32341667  45.15991817]]","[[0.         1.51880133]
 [0.1        0.99524475]
 [0.2        1.11391415]
 [0.3        0.95575529]
 [0.32341667 1.02944292]]",1,1.21
8749218289,f,19,french,4,5,french,2024-01-25 10:40:30.095649,False,1,20,sounds\english\audio/english_630.wav,"[[  0.          97.25925287]
 [  0.1         76.95662127]
 [  0.2          5.01423186]
 [  0.3        -27.88706711]
 [  0.32341667  90.69966072]]","[[0.         0.34607754]
 [0.1        0.15996234]
 [0.2        1.73874617]
 [0.3        0.41181915]
 [0.32341667 0.77788697]]",0,1.433
8749218289,f,19,french,4,5,french,2024-01-25 10:40:30.095649,False,1,21,sounds\english\audio/english_900.wav,"[[  0.         -54.93304755]
 [  0.1         58.88524349]
 [  0.2        -67.87194092]
 [  0.3         20.66021993]
 [  0.32341667 -10.79853151]]","[[0.         1.64865849]
 [0.1        1.11215591]
 [0.2        0.89823705]
 [0.3        1.30060406]
 [0.32341667 1.95850441]]",1,1.801
8749218289,f,19,french,4,5,french,2024-01-25 10:40:30.095649,False,1,22,sounds\english\audio/english_168.wav,"[[  0.         -69.10300998]
 [  0.1        -24.44784794]
 [  0.2         35.31321785]
 [  0.3        -41.77498511]
 [  0.32341667  19.92389913]]","[[0.         1.14537751]
 [0.1        1.06854972]
 [0.2        0.45192262]
 [0.3        0.2846318 ]
 [0.32341667 0.9853942 ]]",1,5.09
8749218289,f,19,french,4,5,french,2024-01-25 10:40:30.095649,False,1,23,sounds\english\audio/english_620.wav,"[[ 0.00000000e+00 -9.29203055e+01]
 [ 1.00000000e-01  2.67086056e+01]
 [ 2.00000000e-01  8.91883135e+01]
 [ 3.00000000e-01 -5.57738795e-02]
 [ 3.23416667e-01  2.97872430e+00]]","[[0.         0.43561856]
 [0.1        0.24535421]
 [0.2        1.34102831]
 [0.3        1.80103954]
 [0.32341667 0.21248525]]",0,1.285
8749218289,f,19,french,4,5,french,2024-01-25 10:40:30.095649,False,1,24,sounds\english\audio/english_226.wav,"[[  0.         -56.53605181]
 [  0.1         -5.93547338]
 [  0.2        -81.0596442 ]
 [  0.3        -12.14261426]
 [  0.32341667  40.67667876]]","[[0.         0.51185795]
 [0.1        0.73377568]
 [0.2        1.62034912]
 [0.3        0.19474782]
 [0.32341667 0.1395898 ]]",0,5.207
8749218289,f,19,french,4,5,french,2024-01-25 10:40:30.095649,False,1,25,sounds\english\audio/english_789.wav,"[[  0.          70.69388181]
 [  0.1        -91.45782136]
 [  0.2        -94.67801392]
 [  0.3         83.76501612]
 [  0.32341667  -4.60584958]]","[[0.         1.62690516]
 [0.1        1.02092359]
 [0.2        0.93437639]
 [0.3        1.8239896 ]
 [0.32341667 1.29596798]]",0,4.974
8749218289,f,19,french,4,5,french,2024-01-25 10:40:30.095649,False,1,26,sounds\english\audio/english_274.wav,"[[  0.         -30.61452779]
 [  0.1        -42.14612233]
 [  0.2         32.00602795]
 [  0.3        -37.74375581]
 [  0.32341667 -54.5397802 ]]","[[0.         0.78021116]
 [0.1        1.93993358]
 [0.2        0.32963606]
 [0.3        1.46133782]
 [0.32341667 1.53178785]]",0,1.606
8749218289,f,19,french,4,5,french,2024-01-25 10:40:30.095649,False,1,27,sounds\english\audio/english_858.wav,"[[  0.          45.12570132]
 [  0.1        -46.71359417]
 [  0.2        -60.32464978]
 [  0.3        -70.46241098]
 [  0.32341667  76.51169453]]","[[0.         0.50395823]
 [0.1        1.50658612]
 [0.2        0.86887416]
 [0.3        0.20520469]
 [0.32341667 1.05885662]]",0,0.869
8749218289,f,19,french,4,5,french,2024-01-25 10:40:30.095649,False,1,28,sounds\english\audio/english_919.wav,"[[  0.         -78.03270024]
 [  0.1         24.9634274 ]
 [  0.2        -36.24618286]
 [  0.3        -67.38261266]
 [  0.32341667  86.21803917]]","[[0.         1.18744007]
 [0.1        0.32639994]
 [0.2        1.14830442]
 [0.3        0.75322619]
 [0.32341667 0.69239757]]",0,2.012
8749218289,f,19,french,4,5,french,2024-01-25 10:40:30.095649,False,1,29,sounds\english\audio/english_826.wav,"[[  0.          24.96468068]
 [  0.1          1.37616969]
 [  0.2        -71.19975556]
 [  0.3        -48.49913399]
 [  0.32341667  40.69153462]]","[[0.         1.6444456 ]
 [0.1        0.97947611]
 [0.2        0.49097947]
 [0.3        0.98819908]
 [0.32341667 1.05842158]]",0,0.834
8749218289,f,19,french,4,5,french,2024-01-25 10:40:30.095649,False,1,30,sounds\english\audio/english_258.wav,"[[  0.          -7.1133109 ]
 [  0.1         44.58564752]
 [  0.2         45.36800295]
 [  0.3         25.81301737]
 [  0.32341667 -77.97513924]]","[[0.         1.89026761]
 [0.1        1.79361992]
 [0.2        0.43687845]
 [0.3        0.04688612]
 [0.32341667 0.52567924]]",1,2.132
8749218289,f,19,french,4,5,french,2024-01-25 10:40:30.095649,False,1,31,sounds\english\audio/english_665.wav,"[[  0.         -25.08423312]
 [  0.1        -88.66042782]
 [  0.2        -73.67467666]
 [  0.3         66.53606028]
 [  0.32341667 -75.03630793]]","[[0.         1.80265724]
 [0.1        0.10063576]
 [0.2        0.92910111]
 [0.3        0.83814709]
 [0.32341667 0.77033789]]",1,1.041
8749218289,f,19,french,4,5,french,2024-01-25 10:40:30.095649,False,1,32,sounds\english\audio/english_315.wav,"[[  0.           3.76150079]
 [  0.1          4.93204799]
 [  0.2        -81.53480532]
 [  0.3         45.94577355]
 [  0.32341667 -55.96194099]]","[[0.         1.04293113]
 [0.1        0.55537984]
 [0.2        1.13024782]
 [0.3        1.06792043]
 [0.32341667 1.80369969]]",1,2.239
8749218289,f,19,french,4,5,french,2024-01-25 10:40:30.095649,False,1,33,sounds\english\audio/english_176.wav,"[[  0.         -62.84257592]
 [  0.1         86.95506575]
 [  0.2        -28.0397163 ]
 [  0.3        -64.80124174]
 [  0.32341667 -98.66046935]]","[[0.         0.68193044]
 [0.1        0.26950978]
 [0.2        0.45294908]
 [0.3        0.91353321]
 [0.32341667 1.10925614]]",1,2.613
8749218289,f,19,french,4,5,french,2024-01-25 10:40:30.095649,False,1,34,sounds\english\audio/english_532.wav,"[[  0.         -19.59321792]
 [  0.1         84.44945775]
 [  0.2         -5.6477907 ]
 [  0.3        -66.11375502]
 [  0.32341667 -46.16722618]]","[[0.         1.69826346]
 [0.1        1.19849103]
 [0.2        0.05164805]
 [0.3        0.74129516]
 [0.32341667 0.11393119]]",1,1.018
8749218289,f,19,french,4,5,french,2024-01-25 10:40:30.095649,False,1,35,sounds\english\audio/english_883.wav,"[[  0.         -17.60743744]
 [  0.1        -37.46625877]
 [  0.2         55.1108939 ]
 [  0.3         87.45591348]
 [  0.32341667 -90.78539671]]","[[0.         1.86037562]
 [0.1        0.9331332 ]
 [0.2        1.34322635]
 [0.3        0.07818604]
 [0.32341667 1.31446095]]",1,1.708
8749218289,f,19,french,4,5,french,2024-01-25 10:40:30.095649,False,1,36,sounds\english\audio/english_600.wav,"[[  0.          37.30285492]
 [  0.1         57.58729363]
 [  0.2        -74.33256695]
 [  0.3        -35.711252  ]
 [  0.32341667   3.54782198]]","[[0.         1.23507691]
 [0.1        0.65453179]
 [0.2        1.70226061]
 [0.3        0.4723836 ]
 [0.32341667 0.49080622]]",1,1.295
8749218289,f,19,french,4,5,french,2024-01-25 10:40:30.095649,False,1,37,sounds\english\audio/english_65.wav,"[[  0.         -46.88015867]
 [  0.1         54.34027197]
 [  0.2        -65.46386729]
 [  0.3        -66.7533487 ]
 [  0.32341667 -12.18147599]]","[[0.         0.62230507]
 [0.1        1.12355997]
 [0.2        1.0507031 ]
 [0.3        0.71238348]
 [0.32341667 0.41048607]]",1,4.636
8749218289,f,19,french,4,5,french,2024-01-25 10:40:30.095649,False,1,38,sounds\english\audio/english_726.wav,"[[  0.          76.65318619]
 [  0.1         62.97746083]
 [  0.2        -20.72245964]
 [  0.3         42.64953343]
 [  0.32341667  23.5514061 ]]","[[0.         0.71374833]
 [0.1        1.94407191]
 [0.2        0.55951675]
 [0.3        0.7826891 ]
 [0.32341667 0.11592549]]",1,1.151
8749218289,f,19,french,4,5,french,2024-01-25 10:40:30.095649,False,1,39,sounds\english\audio/english_822.wav,"[[ 0.         22.19463519]
 [ 0.1        46.02970585]
 [ 0.2        44.31281831]
 [ 0.3        27.24156044]
 [ 0.32341667 41.58842879]]","[[0.         1.34957498]
 [0.1        1.18534363]
 [0.2        0.88966115]
 [0.3        1.22476657]
 [0.32341667 0.51847317]]",1,1.037
8749218289,f,19,french,4,5,french,2024-01-25 10:40:30.095649,False,1,40,sounds\english\audio/english_410.wav,"[[  0.         -74.64506245]
 [  0.1         65.24401488]
 [  0.2        -65.86471953]
 [  0.3         98.79489106]
 [  0.32341667  14.95451541]]","[[0.         0.42358098]
 [0.1        0.42526697]
 [0.2        1.12385183]
 [0.3        0.33588109]
 [0.32341667 1.7246864 ]]",0,1.002
8749218289,f,19,french,4,5,french,2024-01-25 10:40:30.095649,False,1,41,sounds\english\audio/english_785.wav,"[[  0.          41.51350967]
 [  0.1         26.23517368]
 [  0.2        -12.63822228]
 [  0.3        -30.66588474]
 [  0.32341667  26.08399401]]","[[0.         0.93543931]
 [0.1        1.17819894]
 [0.2        1.98833146]
 [0.3        0.80021218]
 [0.32341667 1.2737519 ]]",1,0.435
8749218289,f,19,french,4,5,french,2024-01-25 10:40:30.095649,False,1,42,sounds\english\audio/english_273.wav,"[[  0.         -44.98289573]
 [  0.1         24.32546199]
 [  0.2         61.84573583]
 [  0.3         -1.88803465]
 [  0.32341667  57.02125087]]","[[0.         1.94838534]
 [0.1        0.68888608]
 [0.2        1.95265796]
 [0.3        1.62060328]
 [0.32341667 0.94638053]]",0,3.574
8749218289,f,19,french,4,5,french,2024-01-25 10:40:30.095649,False,1,43,sounds\english\audio/english_894.wav,"[[  0.          55.36181915]
 [  0.1          1.74798824]
 [  0.2         53.5320483 ]
 [  0.3        -10.60196251]
 [  0.32341667  46.95013059]]","[[0.         0.37154348]
 [0.1        0.78809476]
 [0.2        0.08099688]
 [0.3        1.90254096]
 [0.32341667 0.68783971]]",0,1.011
8749218289,f,19,french,4,5,french,2024-01-25 10:40:30.095649,False,1,44,sounds\english\audio/english_655.wav,"[[  0.          84.9811401 ]
 [  0.1         70.1996811 ]
 [  0.2         -5.60681941]
 [  0.3        -33.00324328]
 [  0.32341667  24.65490624]]","[[0.         1.09123398]
 [0.1        0.51840547]
 [0.2        0.58569322]
 [0.3        1.11132849]
 [0.32341667 0.28465301]]",0,0.879
8749218289,f,19,french,4,5,french,2024-01-25 10:40:30.095649,False,1,45,sounds\english\audio/english_571.wav,"[[  0.         -42.92588422]
 [  0.1        -87.39276897]
 [  0.2         19.06282168]
 [  0.3        -99.30459792]
 [  0.32341667  41.25263337]]","[[0.         0.65590276]
 [0.1        1.8306878 ]
 [0.2        0.06889765]
 [0.3        0.29364209]
 [0.32341667 1.388798  ]]",0,2.265
8749218289,f,19,french,4,5,french,2024-01-25 10:40:30.095649,False,1,46,sounds\english\audio/english_219.wav,"[[  0.          38.40040381]
 [  0.1        -26.23926727]
 [  0.2        -57.67558578]
 [  0.3         50.56926795]
 [  0.32341667  64.39220397]]","[[0.         1.09142553]
 [0.1        0.5740428 ]
 [0.2        1.19056911]
 [0.3        1.87089358]
 [0.32341667 1.06933149]]",1,1.376
8749218289,f,19,french,4,5,french,2024-01-25 10:40:30.095649,False,1,47,sounds\english\audio/english_603.wav,"[[  0.         -14.17444723]
 [  0.1         -4.64921339]
 [  0.2        -23.32469505]
 [  0.3        -59.01260874]
 [  0.32341667  88.53711532]]","[[0.         1.28295305]
 [0.1        0.35920956]
 [0.2        0.60281559]
 [0.3        0.58107079]
 [0.32341667 1.19087365]]",1,1.468
8749218289,f,19,french,4,5,french,2024-01-25 10:40:30.095649,False,1,48,sounds\english\audio/english_247.wav,"[[  0.          48.65693284]
 [  0.1        -27.64572099]
 [  0.2        -20.19701808]
 [  0.3        -10.74442668]
 [  0.32341667  91.42432082]]","[[0.         0.25539499]
 [0.1        1.09429421]
 [0.2        0.88115619]
 [0.3        1.97859338]
 [0.32341667 0.10638235]]",1,3.069
8749218289,f,19,french,4,5,french,2024-01-25 10:40:30.095649,False,1,49,sounds\english\audio/english_22.wav,"[[  0.          78.11206964]
 [  0.1         30.08823316]
 [  0.2         62.70691674]
 [  0.3        -69.9857022 ]
 [  0.32341667  -1.96178027]]","[[0.         1.48448967]
 [0.1        0.28770474]
 [0.2        1.03274311]
 [0.3        0.45071415]
 [0.32341667 0.30900593]]",0,1.358
8749218289,f,19,french,4,5,french,2024-01-25 10:40:30.095649,False,1,50,sounds\english\audio/english_843.wav,"[[  0.         -34.38568909]
 [  0.1         91.48235516]
 [  0.2         45.43581208]
 [  0.3         47.04005582]
 [  0.32341667  30.80916685]]","[[0.         1.38988397]
 [0.1        0.61638546]
 [0.2        1.5800421 ]
 [0.3        1.07327256]
 [0.32341667 0.46994626]]",1,1.217
8749218289,f,19,french,4,5,french,2024-01-25 10:40:30.095649,False,1,51,sounds\english\audio/english_738.wav,"[[  0.         -37.88087101]
 [  0.1        -16.85966727]
 [  0.2        -79.76891938]
 [  0.3        -82.30918252]
 [  0.32341667  59.65991076]]","[[0.         1.83397703]
 [0.1        1.52099356]
 [0.2        1.69283951]
 [0.3        1.81957343]
 [0.32341667 0.75908376]]",1,0.65
8749218289,f,19,french,4,5,french,2024-01-25 10:40:30.095649,False,1,52,sounds\english\audio/english_10.wav,"[[  0.         -80.92247099]
 [  0.1         11.56157957]
 [  0.2         72.61501241]
 [  0.3         91.01400741]
 [  0.32341667 -64.58672822]]","[[0.         1.33142191]
 [0.1        0.6588087 ]
 [0.2        1.62851887]
 [0.3        1.4109269 ]
 [0.32341667 0.76235223]]",1,1.723
8749218289,f,19,french,4,5,french,2024-01-25 10:40:30.095649,False,1,53,sounds\english\audio/english_395.wav,"[[ 0.         12.69072165]
 [ 0.1        16.88915645]
 [ 0.2        49.23789678]
 [ 0.3        39.87613746]
 [ 0.32341667 70.90138048]]","[[0.         1.18485033]
 [0.1        0.64230571]
 [0.2        0.95454364]
 [0.3        0.75997929]
 [0.32341667 1.50770695]]",1,1.643
8749218289,f,19,french,4,5,french,2024-01-25 10:40:30.095649,False,1,54,sounds\english\audio/english_922.wav,"[[  0.         -90.36253489]
 [  0.1         -6.38761956]
 [  0.2        -78.09661245]
 [  0.3        -92.75722173]
 [  0.32341667 -80.16719401]]","[[0.         0.33253962]
 [0.1        1.51366693]
 [0.2        0.40049791]
 [0.3        1.29207892]
 [0.32341667 1.40400382]]",0,1.081
8749218289,f,19,french,4,5,french,2024-01-25 10:40:30.095649,False,1,55,sounds\english\audio/english_702.wav,"[[  0.         -19.6614881 ]
 [  0.1        -92.60133235]
 [  0.2        -18.01071493]
 [  0.3         91.54675011]
 [  0.32341667  23.09112348]]","[[0.         1.13820402]
 [0.1        1.47755069]
 [0.2        1.33705675]
 [0.3        0.59768286]
 [0.32341667 0.82103567]]",1,0.6
8749218289,f,19,french,4,5,french,2024-01-25 10:40:30.095649,False,1,56,sounds\english\audio/english_773.wav,"[[  0.         -97.46951928]
 [  0.1         85.58858853]
 [  0.2        -54.69649905]
 [  0.3        -97.24656559]
 [  0.32341667  40.28006613]]","[[0.         0.54003315]
 [0.1        1.35505424]
 [0.2        1.09283168]
 [0.3        1.42526307]
 [0.32341667 0.69844725]]",1,0.705
8749218289,f,19,french,4,5,french,2024-01-25 10:40:30.095649,False,1,57,sounds\english\audio/english_223.wav,"[[  0.         -51.58222533]
 [  0.1        -36.02700064]
 [  0.2        -35.4915315 ]
 [  0.3          1.26892628]
 [  0.32341667  72.37143842]]","[[0.         0.62889348]
 [0.1        1.73736573]
 [0.2        1.20130681]
 [0.3        0.53176439]
 [0.32341667 1.24562253]]",1,0.774
8749218289,f,19,french,4,5,french,2024-01-25 10:40:30.095649,False,1,58,sounds\english\audio/english_101.wav,"[[  0.          60.77829508]
 [  0.1         43.41373716]
 [  0.2         56.16195873]
 [  0.3        -99.94719329]
 [  0.32341667  -1.35074094]]","[[0.         0.77962125]
 [0.1        0.02040908]
 [0.2        0.79248433]
 [0.3        1.74003505]
 [0.32341667 1.66206156]]",0,0.961
8749218289,f,19,french,4,5,french,2024-01-25 10:40:30.095649,False,1,59,sounds\english\audio/english_540.wav,"[[  0.         -46.6752609 ]
 [  0.1        -93.20209644]
 [  0.2         64.96419662]
 [  0.3        -12.16484387]
 [  0.32341667 -44.34688232]]","[[0.         1.16352469]
 [0.1        0.0234781 ]
 [0.2        0.05926191]
 [0.3        1.47406284]
 [0.32341667 0.60104864]]",0,1.498
8749218289,f,19,french,4,5,french,2024-01-25 10:40:30.095649,False,1,60,sounds\english\audio/english_658.wav,"[[  0.         -80.21976745]
 [  0.1         11.23314836]
 [  0.2          8.94946791]
 [  0.3         17.22411688]
 [  0.32341667  10.67081381]]","[[0.         0.49170119]
 [0.1        0.6994793 ]
 [0.2        1.18458539]
 [0.3        0.7091276 ]
 [0.32341667 1.7453453 ]]",1,0.628
8749218289,f,19,french,4,5,french,2024-01-25 10:40:30.095649,False,1,61,sounds\english\audio/english_633.wav,"[[  0.         -53.72283933]
 [  0.1         14.71438877]
 [  0.2         95.18630031]
 [  0.3         96.89096157]
 [  0.32341667   8.38596779]]","[[0.         1.23998369]
 [0.1        1.35266241]
 [0.2        0.66132985]
 [0.3        0.52728002]
 [0.32341667 1.4824282 ]]",1,1.993
8749218289,f,19,french,4,5,french,2024-01-25 10:40:30.095649,False,1,62,sounds\english\audio/english_434.wav,"[[  0.          -4.12787863]
 [  0.1        -30.19441281]
 [  0.2         41.04377471]
 [  0.3        -32.43591961]
 [  0.32341667  61.53108406]]","[[0.         0.96421208]
 [0.1        1.08561731]
 [0.2        1.46356301]
 [0.3        0.25116585]
 [0.32341667 0.73120458]]",1,1.042
8749218289,f,19,french,4,5,french,2024-01-25 10:40:30.095649,False,1,63,sounds\english\audio/english_844.wav,"[[  0.         -84.59865618]
 [  0.1          2.74576488]
 [  0.2        -31.14414819]
 [  0.3         59.06244098]
 [  0.32341667  67.61674881]]","[[0.         1.95225136]
 [0.1        1.66072701]
 [0.2        0.05165652]
 [0.3        0.5878804 ]
 [0.32341667 0.72232709]]",1,1.863
8749218289,f,19,french,4,5,french,2024-01-25 10:40:30.095649,False,1,64,sounds\english\audio/english_268.wav,"[[  0.          55.18591224]
 [  0.1         47.37483414]
 [  0.2         46.97410588]
 [  0.3        -64.08979313]
 [  0.32341667  35.8590447 ]]","[[0.         1.47327052]
 [0.1        0.95932673]
 [0.2        1.80275919]
 [0.3        1.6474991 ]
 [0.32341667 1.56533667]]",1,1.697
8749218289,f,19,french,4,5,french,2024-01-25 10:40:30.095649,False,1,65,sounds\english\audio/english_390.wav,"[[  0.         -50.40750922]
 [  0.1        -38.67641955]
 [  0.2        -37.03459725]
 [  0.3        -24.07335547]
 [  0.32341667  75.09366884]]","[[0.         1.41643644]
 [0.1        0.84399933]
 [0.2        1.67796426]
 [0.3        0.43781117]
 [0.32341667 0.01225463]]",1,0.736
8749218289,f,19,french,4,5,french,2024-01-25 10:40:30.095649,False,1,66,sounds\english\audio/english_132.wav,"[[  0.         -72.51222148]
 [  0.1         -7.68798614]
 [  0.2        -26.80347179]
 [  0.3        -51.62992771]
 [  0.32341667  -1.85745595]]","[[0.         1.10010631]
 [0.1        1.14985521]
 [0.2        1.49426164]
 [0.3        1.25622472]
 [0.32341667 0.89976888]]",1,0.71
8749218289,f,19,french,4,5,french,2024-01-25 10:40:30.095649,False,1,67,sounds\english\audio/english_649.wav,"[[  0.          65.82222467]
 [  0.1         -9.35575527]
 [  0.2        -91.83315911]
 [  0.3         79.30022345]
 [  0.32341667  45.86180924]]","[[0.         0.56154429]
 [0.1        0.64767017]
 [0.2        0.84538271]
 [0.3        0.4979411 ]
 [0.32341667 0.89353148]]",1,1.565
8749218289,f,19,french,4,5,french,2024-01-25 10:40:30.095649,False,1,68,sounds\english\audio/english_727.wav,"[[  0.          86.20347479]
 [  0.1         12.26210304]
 [  0.2          5.59218777]
 [  0.3        -46.39280156]
 [  0.32341667  21.79775503]]","[[0.         1.33530257]
 [0.1        1.85547333]
 [0.2        1.19683436]
 [0.3        1.89207751]
 [0.32341667 1.05019022]]",1,3.248
8749218289,f,19,french,4,5,french,2024-01-25 10:40:30.095649,False,1,69,sounds\english\audio/english_229.wav,"[[  0.          51.56916705]
 [  0.1        -51.28327497]
 [  0.2         97.78221202]
 [  0.3        -75.98126047]
 [  0.32341667 -44.05308002]]","[[0.         1.25898044]
 [0.1        0.34588319]
 [0.2        1.91985924]
 [0.3        0.82059623]
 [0.32341667 1.38191391]]",1,0.67
8749218289,f,19,french,4,5,french,2024-01-25 10:40:30.095649,False,1,70,sounds\english\audio/english_136.wav,"[[  0.          12.04186247]
 [  0.1        -56.97950323]
 [  0.2         32.29793995]
 [  0.3         40.05814767]
 [  0.32341667  61.40693937]]","[[0.         0.70846626]
 [0.1        1.3229906 ]
 [0.2        0.25119571]
 [0.3        1.28510755]
 [0.32341667 1.20697433]]",0,0.957
8749218289,f,19,french,4,5,french,2024-01-25 10:40:30.095649,False,1,71,sounds\english\audio/english_693.wav,"[[  0.         -83.71635172]
 [  0.1         32.46406691]
 [  0.2          8.27548994]
 [  0.3         15.80660539]
 [  0.32341667  74.32681132]]","[[0.         0.35753224]
 [0.1        1.09553371]
 [0.2        1.67166692]
 [0.3        1.61413862]
 [0.32341667 1.90943184]]",1,0.404
8749218289,f,19,french,4,5,french,2024-01-25 10:40:30.095649,False,1,72,sounds\english\audio/english_145.wav,"[[  0.         -29.75830226]
 [  0.1          0.94664025]
 [  0.2        -55.39340023]
 [  0.3        -49.58722608]
 [  0.32341667 -83.35110665]]","[[0.         1.9441914 ]
 [0.1        0.04744273]
 [0.2        1.27144901]
 [0.3        0.20842421]
 [0.32341667 0.85478836]]",1,0.481
8749218289,f,19,french,4,5,french,2024-01-25 10:40:30.095649,False,1,73,sounds\english\audio/english_78.wav,"[[  0.          57.57509383]
 [  0.1          8.37611797]
 [  0.2        -42.8518908 ]
 [  0.3         26.19415986]
 [  0.32341667  65.52498429]]","[[0.         0.85738581]
 [0.1        1.59375359]
 [0.2        1.65756647]
 [0.3        0.53011742]
 [0.32341667 1.5323802 ]]",1,0.52
8749218289,f,19,french,4,5,french,2024-01-25 10:40:30.095649,False,1,74,sounds\english\audio/english_452.wav,"[[  0.         -15.91859121]
 [  0.1         66.54493607]
 [  0.2         49.2405228 ]
 [  0.3         -8.75382859]
 [  0.32341667 -35.51952716]]","[[0.         0.16050204]
 [0.1        1.05820221]
 [0.2        1.42476674]
 [0.3        0.48128336]
 [0.32341667 0.52453318]]",1,1.581
8749218289,f,19,french,4,5,french,2024-01-25 10:40:30.095649,False,1,75,sounds\english\audio/english_64.wav,"[[  0.         -77.75081389]
 [  0.1         47.79712302]
 [  0.2        -98.04646937]
 [  0.3        -20.17707595]
 [  0.32341667  53.05828969]]","[[0.         0.01503168]
 [0.1        0.51971923]
 [0.2        1.01128345]
 [0.3        0.69563875]
 [0.32341667 1.51814807]]",0,2.975
8749218289,f,19,french,4,5,french,2024-01-25 10:40:30.095649,False,1,76,sounds\english\audio/english_877.wav,"[[  0.          49.36401037]
 [  0.1         15.17280231]
 [  0.2         22.36436744]
 [  0.3        -25.51979868]
 [  0.32341667 -55.72443313]]","[[0.         1.25510861]
 [0.1        0.84700305]
 [0.2        0.32703774]
 [0.3        1.72637958]
 [0.32341667 0.52117686]]",0,0.816
8749218289,f,19,french,4,5,french,2024-01-25 10:40:30.095649,False,1,77,sounds\english\audio/english_41.wav,"[[  0.          42.21237724]
 [  0.1         33.8271633 ]
 [  0.2         20.96644351]
 [  0.3        -53.61985723]
 [  0.32341667 -55.68725705]]","[[0.         0.98996482]
 [0.1        0.77076848]
 [0.2        0.37402384]
 [0.3        1.98545705]
 [0.32341667 1.53352273]]",1,1.001
8749218289,f,19,french,4,5,french,2024-01-25 10:40:30.095649,False,1,78,sounds\english\audio/english_596.wav,"[[  0.          90.29147433]
 [  0.1         12.52853873]
 [  0.2         50.53853174]
 [  0.3        -77.3590695 ]
 [  0.32341667  -1.65440801]]","[[0.         0.88361056]
 [0.1        0.63799557]
 [0.2        0.09787331]
 [0.3        1.15168959]
 [0.32341667 0.06773829]]",1,1.088
8749218289,f,19,french,4,5,french,2024-01-25 10:40:30.095649,False,1,79,sounds\english\audio/english_173.wav,"[[  0.          11.1251521 ]
 [  0.1         94.22411188]
 [  0.2         89.44753043]
 [  0.3         74.30769895]
 [  0.32341667 -37.47679669]]","[[0.         0.60172576]
 [0.1        0.44802145]
 [0.2        1.27552997]
 [0.3        1.09756939]
 [0.32341667 0.7907315 ]]",0,0.802
8749218289,f,19,french,4,5,french,2024-01-25 10:40:30.095649,False,1,80,sounds\english\audio/english_633.wav,"[[  0.         -53.72283933]
 [  0.1         14.71438877]
 [  0.2         95.18630031]
 [  0.3         96.89096157]
 [  0.32341667   8.38596779]]","[[0.         1.23998369]
 [0.1        1.35266241]
 [0.2        0.66132985]
 [0.3        0.52728002]
 [0.32341667 1.4824282 ]]",0,1.308
8749218289,f,19,french,4,5,french,2024-01-25 10:40:30.095649,False,1,81,sounds\english\audio/english_285.wav,"[[  0.         -19.0536712 ]
 [  0.1        -63.15395986]
 [  0.2        -57.682926  ]
 [  0.3        -56.52362331]
 [  0.32341667  11.40665652]]","[[0.         1.18823065]
 [0.1        1.010644  ]
 [0.2        0.4943662 ]
 [0.3        0.66348991]
 [0.32341667 0.86242978]]",0,2.949
8749218289,f,19,french,4,5,french,2024-01-25 10:40:30.095649,False,1,82,sounds\english\audio/english_275.wav,"[[  0.          -1.14725012]
 [  0.1        -90.43848863]
 [  0.2        -40.03711279]
 [  0.3        -29.12549604]
 [  0.32341667  77.33253221]]","[[0.         0.71691039]
 [0.1        0.74614953]
 [0.2        1.94843862]
 [0.3        0.32495742]
 [0.32341667 0.61649877]]",1,1.038
8749218289,f,19,french,4,5,french,2024-01-25 10:40:30.095649,False,1,83,sounds\english\audio/english_868.wav,"[[  0.         -32.61379415]
 [  0.1        -13.61007492]
 [  0.2        -35.23756027]
 [  0.3         83.12333319]
 [  0.32341667  62.80865362]]","[[0.         0.76599538]
 [0.1        0.34348987]
 [0.2        0.26787397]
 [0.3        0.46343078]
 [0.32341667 1.59158725]]",1,0.964
8749218289,f,19,french,4,5,french,2024-01-25 10:40:30.095649,False,1,84,sounds\english\audio/english_935.wav,"[[  0.          64.39543101]
 [  0.1         86.95314533]
 [  0.2        -18.93400703]
 [  0.3         36.25821345]
 [  0.32341667 -52.75689815]]","[[0.         0.53440609]
 [0.1        0.5847186 ]
 [0.2        0.87093815]
 [0.3        1.35336039]
 [0.32341667 1.46825192]]",0,1.01
8749218289,f,19,french,4,5,french,2024-01-25 10:40:30.095649,False,1,85,sounds\english\audio/english_695.wav,"[[  0.         -74.02191529]
 [  0.1         54.28596986]
 [  0.2        -13.22196683]
 [  0.3          1.82272444]
 [  0.32341667 -11.74905262]]","[[0.         1.19534619]
 [0.1        0.93917139]
 [0.2        0.1241488 ]
 [0.3        1.20091234]
 [0.32341667 0.46222147]]",1,2.325
8749218289,f,19,french,4,5,french,2024-01-25 10:40:30.095649,False,1,86,sounds\english\audio/english_406.wav,"[[  0.          28.09923375]
 [  0.1        -15.10813675]
 [  0.2        -12.43931725]
 [  0.3        -27.33468297]
 [  0.32341667 -62.66931892]]","[[0.         1.43312072]
 [0.1        0.8890381 ]
 [0.2        0.60560557]
 [0.3        1.13565345]
 [0.32341667 1.8467177 ]]",0,1.948
8749218289,f,19,french,4,5,french,2024-01-25 10:40:30.095649,False,1,87,sounds\english\audio/english_47.wav,"[[  0.          70.62381491]
 [  0.1        -43.60565268]
 [  0.2         29.54670776]
 [  0.3         95.208653  ]
 [  0.32341667 -87.83630424]]","[[0.         1.36620222]
 [0.1        0.47559644]
 [0.2        0.92078875]
 [0.3        0.83015506]
 [0.32341667 1.40747595]]",1,0.828
8749218289,f,19,french,4,5,french,2024-01-25 10:40:30.095649,False,1,88,sounds\english\audio/english_999.wav,"[[  0.         -43.88463807]
 [  0.1        -19.69329198]
 [  0.2        -16.47401585]
 [  0.3        -27.91485083]
 [  0.32341667 -38.65265262]]","[[0.         1.5561212 ]
 [0.1        1.76032244]
 [0.2        0.67323911]
 [0.3        0.0725875 ]
 [0.32341667 0.89314247]]",1,1.488
8749218289,f,19,french,4,5,french,2024-01-25 10:40:30.095649,False,1,89,sounds\english\audio/english_373.wav,"[[  0.         -63.66458186]
 [  0.1        -61.42386056]
 [  0.2        -78.74831974]
 [  0.3        -23.23108213]
 [  0.32341667 -77.15694383]]","[[0.         0.61104768]
 [0.1        1.64905001]
 [0.2        1.44355649]
 [0.3        1.63671726]
 [0.32341667 1.96911306]]",1,4.627
8749218289,f,19,french,4,5,french,2024-01-25 10:40:30.095649,False,1,90,sounds\english\audio/english_882.wav,"[[  0.         -42.93700265]
 [  0.1        -62.35786663]
 [  0.2        -16.20482572]
 [  0.3        -46.49020195]
 [  0.32341667 -64.89408339]]","[[0.         1.06489748]
 [0.1        1.38883859]
 [0.2        0.28843799]
 [0.3        1.05408179]
 [0.32341667 1.78517837]]",1,0.761
8749218289,f,19,french,4,5,french,2024-01-25 10:40:30.095649,False,1,91,sounds\english\audio/english_290.wav,"[[  0.          73.71968657]
 [  0.1        -59.85317413]
 [  0.2         71.1426587 ]
 [  0.3        -18.50007061]
 [  0.32341667 -65.91143137]]","[[0.         0.30552726]
 [0.1        1.31636279]
 [0.2        0.54925413]
 [0.3        1.26204455]
 [0.32341667 0.60528556]]",0,2.471
8749218289,f,19,french,4,5,french,2024-01-25 10:40:30.095649,False,1,92,sounds\english\audio/english_167.wav,"[[ 0.         57.26975159]
 [ 0.1        54.31010869]
 [ 0.2        99.57020207]
 [ 0.3        27.92735821]
 [ 0.32341667 73.13424206]]","[[0.         0.44729063]
 [0.1        1.623568  ]
 [0.2        0.28743218]
 [0.3        0.71837494]
 [0.32341667 1.35815305]]",0,2.418
8749218289,f,19,french,4,5,french,2024-01-25 10:40:30.095649,False,1,93,sounds\english\audio/english_453.wav,"[[  0.         -60.23429987]
 [  0.1         80.38725697]
 [  0.2         66.16689695]
 [  0.3        -59.46214637]
 [  0.32341667 -39.76201882]]","[[0.         1.87756573]
 [0.1        0.94070469]
 [0.2        1.71191258]
 [0.3        0.56012011]
 [0.32341667 0.35119419]]",1,1.034
8749218289,f,19,french,4,5,french,2024-01-25 10:40:30.095649,False,1,94,sounds\english\audio/english_343.wav,"[[  0.         -26.15456552]
 [  0.1         -4.26522308]
 [  0.2         55.3227334 ]
 [  0.3        -26.26518208]
 [  0.32341667 -18.3065251 ]]","[[0.         0.99905336]
 [0.1        0.59066439]
 [0.2        1.69088488]
 [0.3        1.70645599]
 [0.32341667 0.13143106]]",1,0.944
8749218289,f,19,french,4,5,french,2024-01-25 10:40:30.095649,False,1,95,sounds\english\audio/english_562.wav,"[[  0.         -40.22672309]
 [  0.1         77.961849  ]
 [  0.2         25.52463525]
 [  0.3         84.62788358]
 [  0.32341667 -53.67427145]]","[[0.         0.64031882]
 [0.1        0.7637006 ]
 [0.2        0.87632482]
 [0.3        0.98972612]
 [0.32341667 0.74010285]]",1,0.753
8749218289,f,19,french,4,5,french,2024-01-25 10:40:30.095649,False,1,96,sounds\english\audio/english_224.wav,"[[  0.          -3.31597843]
 [  0.1        -35.19448657]
 [  0.2        -54.62049262]
 [  0.3         50.12510099]
 [  0.32341667  96.66013203]]","[[0.         0.45157501]
 [0.1        1.77513434]
 [0.2        0.36912314]
 [0.3        1.67171916]
 [0.32341667 1.16069525]]",1,0.543
8749218289,f,19,french,4,5,french,2024-01-25 10:40:30.095649,False,1,97,sounds\english\audio/english_19.wav,"[[  0.          51.84788699]
 [  0.1         59.68091475]
 [  0.2        -27.71167756]
 [  0.3        -29.56443604]
 [  0.32341667 -58.55228515]]","[[0.         0.3981759 ]
 [0.1        1.61217409]
 [0.2        0.35158216]
 [0.3        0.8770992 ]
 [0.32341667 0.51670124]]",1,0.568
8749218289,f,19,french,4,5,french,2024-01-25 10:40:30.095649,False,1,98,sounds\english\audio/english_894.wav,"[[  0.          55.36181915]
 [  0.1          1.74798824]
 [  0.2         53.5320483 ]
 [  0.3        -10.60196251]
 [  0.32341667  46.95013059]]","[[0.         0.37154348]
 [0.1        0.78809476]
 [0.2        0.08099688]
 [0.3        1.90254096]
 [0.32341667 0.68783971]]",0,1.495
8749218289,f,19,french,4,5,french,2024-01-25 10:40:30.095649,False,1,99,sounds\english\audio/english_683.wav,"[[  0.         -73.37543508]
 [  0.1         66.4080647 ]
 [  0.2         46.46812351]
 [  0.3         71.67755016]
 [  0.32341667   2.86253031]]","[[0.         1.70409633]
 [0.1        1.25556383]
 [0.2        0.87554738]
 [0.3        1.32863005]
 [0.32341667 0.20364682]]",0,1.112
8749218289,f,19,french,4,5,french,2024-01-25 10:40:30.095649,False,1,100,sounds\english\audio/english_848.wav,"[[  0.          43.30233352]
 [  0.1        -77.77691247]
 [  0.2        -68.99020863]
 [  0.3        -43.68641023]
 [  0.32341667 -14.19502025]]","[[0.         0.12582596]
 [0.1        1.72621372]
 [0.2        1.753656  ]
 [0.3        1.37442753]
 [0.32341667 1.04930351]]",0,0.678
8749218289,f,19,french,4,5,french,2024-01-25 10:40:30.095649,False,1,101,sounds\english\audio/english_563.wav,"[[  0.          19.758909  ]
 [  0.1         33.70416131]
 [  0.2        -28.26228599]
 [  0.3         77.25360299]
 [  0.32341667 -40.65982077]]","[[0.         0.0609285 ]
 [0.1        1.63852294]
 [0.2        0.53834051]
 [0.3        0.54558093]
 [0.32341667 0.29994173]]",0,1.097
8749218289,f,19,french,4,5,french,2024-01-25 10:40:30.095649,False,1,102,sounds\english\audio/english_832.wav,"[[  0.         -21.62855277]
 [  0.1        -35.3834786 ]
 [  0.2         52.65867494]
 [  0.3         62.52082964]
 [  0.32341667  46.66062952]]","[[0.         1.31372842]
 [0.1        1.55258378]
 [0.2        1.50567803]
 [0.3        1.2163301 ]
 [0.32341667 1.20100353]]",0,0.268
8749218289,f,19,french,4,5,french,2024-01-25 10:40:30.095649,False,1,103,sounds\english\audio/english_923.wav,"[[  0.          -0.59122564]
 [  0.1         -5.70499959]
 [  0.2        -29.88927864]
 [  0.3        -82.02126299]
 [  0.32341667  16.89967319]]","[[0.         1.19594648]
 [0.1        1.05419104]
 [0.2        0.73000078]
 [0.3        1.36390543]
 [0.32341667 1.13865732]]",1,0.35
8749218289,f,19,french,4,5,french,2024-01-25 10:40:30.095649,False,1,104,sounds\english\audio/english_615.wav,"[[  0.          76.05955912]
 [  0.1         54.62950786]
 [  0.2        -31.02204933]
 [  0.3         -3.27946314]
 [  0.32341667  51.350795  ]]","[[0.         1.68553334]
 [0.1        1.5058876 ]
 [0.2        1.66676809]
 [0.3        1.09840801]
 [0.32341667 0.25314986]]",1,0.219
8749218289,f,19,french,4,5,french,2024-01-25 10:40:30.095649,False,1,105,sounds\english\audio/english_99.wav,"[[  0.           9.75149611]
 [  0.1         -7.37998228]
 [  0.2         29.15889261]
 [  0.3        -23.23230809]
 [  0.32341667  51.25937721]]","[[0.         0.79411887]
 [0.1        0.53064308]
 [0.2        0.10254027]
 [0.3        0.53999741]
 [0.32341667 0.74302856]]",1,0.522
8749218289,f,19,french,4,5,french,2024-01-25 10:40:30.095649,False,1,106,sounds\english\audio/english_385.wav,"[[  0.         -55.07910634]
 [  0.1        -94.47680079]
 [  0.2         38.70414457]
 [  0.3        -46.17691   ]
 [  0.32341667   2.5941508 ]]","[[0.         1.75648555]
 [0.1        1.20856462]
 [0.2        0.98103352]
 [0.3        1.45745263]
 [0.32341667 0.88353815]]",1,0.254
8749218289,f,19,french,4,5,french,2024-01-25 10:40:30.095649,False,1,107,sounds\english\audio/english_705.wav,"[[  0.           3.76426423]
 [  0.1         90.96696755]
 [  0.2        -32.86898574]
 [  0.3        -21.12550784]
 [  0.32341667  39.74077299]]","[[0.         0.9500377 ]
 [0.1        0.74173997]
 [0.2        1.78776637]
 [0.3        0.8178788 ]
 [0.32341667 1.54913024]]",1,0.521
8749218289,f,19,french,4,5,french,2024-01-25 10:40:30.095649,False,1,108,sounds\english\audio/english_946.wav,"[[  0.         -74.23479435]
 [  0.1        -11.3601526 ]
 [  0.2         36.50675361]
 [  0.3        -13.94845552]
 [  0.32341667  -6.97265347]]","[[0.         1.22824298]
 [0.1        0.85784227]
 [0.2        0.09585286]
 [0.3        0.43829102]
 [0.32341667 0.86422506]]",1,0.533
8749218289,f,19,french,4,5,french,2024-01-25 10:40:30.095649,False,1,109,sounds\english\audio/english_417.wav,"[[  0.         -17.25972862]
 [  0.1         72.11413149]
 [  0.2         83.70212603]
 [  0.3         67.19530478]
 [  0.32341667  29.72084594]]","[[0.         1.29903721]
 [0.1        0.87773419]
 [0.2        1.45838331]
 [0.3        0.90979472]
 [0.32341667 0.1224986 ]]",1,1.519
8749218289,f,19,french,4,5,french,2024-01-25 10:40:30.095649,False,1,110,sounds\english\audio/english_542.wav,"[[  0.         -75.53633957]
 [  0.1        -65.83593262]
 [  0.2        -66.8010443 ]
 [  0.3         89.94318033]
 [  0.32341667 -28.80984484]]","[[0.         0.40538048]
 [0.1        1.98560632]
 [0.2        1.18970355]
 [0.3        1.00543009]
 [0.32341667 1.15995836]]",1,0.444
8749218289,f,19,french,4,5,french,2024-01-25 10:40:30.095649,False,1,111,sounds\english\audio/english_396.wav,"[[  0.           2.39126912]
 [  0.1        -38.95035948]
 [  0.2         78.31320688]
 [  0.3         16.98024706]
 [  0.32341667  44.66397079]]","[[0.         1.48231007]
 [0.1        0.85829723]
 [0.2        1.16655306]
 [0.3        0.51680164]
 [0.32341667 1.5133775 ]]",1,0.43
8749218289,f,19,french,4,5,french,2024-01-25 10:40:30.095649,False,1,112,sounds\english\audio/english_591.wav,"[[  0.         -17.23532002]
 [  0.1        -55.20494434]
 [  0.2        -36.65883109]
 [  0.3         75.34514139]
 [  0.32341667  31.2832342 ]]","[[0.         0.16408748]
 [0.1        0.21361432]
 [0.2        0.19384467]
 [0.3        0.82850175]
 [0.32341667 1.471328  ]]",0,0.861
8749218289,f,19,french,4,5,french,2024-01-25 10:40:30.095649,False,1,113,sounds\english\audio/english_967.wav,"[[  0.         -33.19777689]
 [  0.1         83.84847924]
 [  0.2         81.27362124]
 [  0.3         22.78466805]
 [  0.32341667  16.56894366]]","[[0.         0.76720641]
 [0.1        1.4094361 ]
 [0.2        0.74435637]
 [0.3        0.29904584]
 [0.32341667 0.47687807]]",1,0.549
8749218289,f,19,french,4,5,french,2024-01-25 10:40:30.095649,False,1,114,sounds\english\audio/english_142.wav,"[[  0.         -46.59943425]
 [  0.1         63.17145436]
 [  0.2         73.87775976]
 [  0.3        -84.55157756]
 [  0.32341667  20.35536038]]","[[0.         0.40064358]
 [0.1        0.61162855]
 [0.2        0.23189939]
 [0.3        1.54635995]
 [0.32341667 1.86221744]]",1,0.999
8749218289,f,19,french,4,5,french,2024-01-25 10:40:30.095649,False,1,115,sounds\english\audio/english_822.wav,"[[ 0.         22.19463519]
 [ 0.1        46.02970585]
 [ 0.2        44.31281831]
 [ 0.3        27.24156044]
 [ 0.32341667 41.58842879]]","[[0.         1.34957498]
 [0.1        1.18534363]
 [0.2        0.88966115]
 [0.3        1.22476657]
 [0.32341667 0.51847317]]",1,0.426
8749218289,f,19,french,4,5,french,2024-01-25 10:40:30.095649,False,1,116,sounds\english\audio/english_929.wav,"[[  0.          29.19700723]
 [  0.1         15.63825327]
 [  0.2          3.65085895]
 [  0.3        -91.18848108]
 [  0.32341667  53.29025089]]","[[0.         1.75028237]
 [0.1        0.16776534]
 [0.2        0.15899819]
 [0.3        0.41497916]
 [0.32341667 0.946821  ]]",0,0.929
8749218289,f,19,french,4,5,french,2024-01-25 10:40:30.095649,False,1,117,sounds\english\audio/english_890.wav,"[[  0.         -68.21158685]
 [  0.1        -83.19360642]
 [  0.2         79.13343252]
 [  0.3         80.54326003]
 [  0.32341667 -30.48737523]]","[[0.         0.82535308]
 [0.1        1.79167423]
 [0.2        0.78297904]
 [0.3        0.23441015]
 [0.32341667 1.41044901]]",1,0.882
8749218289,f,19,french,4,5,french,2024-01-25 10:40:30.095649,False,1,118,sounds\english\audio/english_235.wav,"[[  0.          -1.09951899]
 [  0.1        -96.83918407]
 [  0.2         96.22116446]
 [  0.3         48.9502898 ]
 [  0.32341667  38.18641725]]","[[0.         1.56432712]
 [0.1        0.18127978]
 [0.2        1.26168206]
 [0.3        1.98140435]
 [0.32341667 0.52366779]]",1,0.461
8749218289,f,19,french,4,5,french,2024-01-25 10:40:30.095649,False,1,119,sounds\english\audio/english_618.wav,"[[  0.          58.31579708]
 [  0.1          6.96253647]
 [  0.2         -4.41581756]
 [  0.3        -63.5775247 ]
 [  0.32341667  97.77631762]]","[[0.         1.46895394]
 [0.1        0.48660613]
 [0.2        1.00963977]
 [0.3        1.29399549]
 [0.32341667 0.84060701]]",1,2.201
8749218289,f,19,french,4,5,french,2024-01-25 10:40:30.095649,False,1,120,sounds\english\audio/english_635.wav,"[[  0.          27.7169436 ]
 [  0.1        -44.8292656 ]
 [  0.2         67.97685769]
 [  0.3         82.0264667 ]
 [  0.32341667  84.34985253]]","[[0.         1.98702335]
 [0.1        1.27737447]
 [0.2        0.57401651]
 [0.3        0.46134276]
 [0.32341667 0.71235155]]",1,0.989
8749218289,f,19,french,4,5,french,2024-01-25 10:40:30.095649,False,1,121,sounds\english\audio/english_904.wav,"[[  0.          54.28678019]
 [  0.1        -13.24417266]
 [  0.2         18.94666669]
 [  0.3        -21.97018078]
 [  0.32341667   4.05624244]]","[[0.         0.96279628]
 [0.1        0.20212872]
 [0.2        1.39381084]
 [0.3        1.57516234]
 [0.32341667 0.97228596]]",1,0.946
8749218289,f,19,french,4,5,french,2024-01-25 10:40:30.095649,False,1,122,sounds\english\audio/english_945.wav,"[[  0.          63.16075011]
 [  0.1         87.55520176]
 [  0.2        -69.60467193]
 [  0.3        -69.25530384]
 [  0.32341667 -47.64160087]]","[[0.         1.8314946 ]
 [0.1        1.3737613 ]
 [0.2        0.61639792]
 [0.3        1.67239747]
 [0.32341667 1.88344595]]",1,2.87
8749218289,f,19,french,4,5,french,2024-01-25 10:40:30.095649,False,1,123,sounds\english\audio/english_168.wav,"[[  0.         -69.10300998]
 [  0.1        -24.44784794]
 [  0.2         35.31321785]
 [  0.3        -41.77498511]
 [  0.32341667  19.92389913]]","[[0.         1.14537751]
 [0.1        1.06854972]
 [0.2        0.45192262]
 [0.3        0.2846318 ]
 [0.32341667 0.9853942 ]]",1,1.349
8749218289,f,19,french,4,5,french,2024-01-25 10:40:30.095649,False,1,124,sounds\english\audio/english_297.wav,"[[  0.          43.84745313]
 [  0.1        -76.77337823]
 [  0.2         52.72097055]
 [  0.3        -53.36684977]
 [  0.32341667  81.15212258]]","[[0.         1.28698197]
 [0.1        0.55126404]
 [0.2        0.14077967]
 [0.3        1.29889067]
 [0.32341667 1.30715655]]",0,0.325
8749218289,f,19,french,4,5,french,2024-01-25 10:40:30.095649,False,1,125,sounds\english\audio/english_140.wav,"[[  0.         -63.97366245]
 [  0.1        -84.90656008]
 [  0.2         93.42782744]
 [  0.3         11.57634117]
 [  0.32341667  80.35905055]]","[[0.         1.49783115]
 [0.1        1.37250299]
 [0.2        0.10650492]
 [0.3        0.84315206]
 [0.32341667 1.26233419]]",1,0.169
8749218289,f,19,french,4,5,french,2024-01-25 10:40:30.095649,False,1,126,sounds\english\audio/english_346.wav,"[[  0.          29.51078372]
 [  0.1         86.25753287]
 [  0.2         95.6553577 ]
 [  0.3        -65.97707071]
 [  0.32341667  49.79896228]]","[[0.         1.24489428]
 [0.1        1.77356048]
 [0.2        1.30862901]
 [0.3        0.68318311]
 [0.32341667 1.63073528]]",1,0.498
8749218289,f,19,french,4,5,french,2024-01-25 10:40:30.095649,False,1,127,sounds\english\audio/english_673.wav,"[[  0.         -57.74220233]
 [  0.1         51.69168463]
 [  0.2         32.71998218]
 [  0.3          1.53841214]
 [  0.32341667 -95.68622946]]","[[0.         1.16794182]
 [0.1        0.24005868]
 [0.2        1.1491536 ]
 [0.3        1.59180477]
 [0.32341667 1.00634228]]",1,0.564
8749218289,f,19,french,4,5,french,2024-01-25 10:40:30.095649,False,1,128,sounds\english\audio/english_162.wav,"[[  0.         -93.72635155]
 [  0.1        -77.68974918]
 [  0.2         15.19581884]
 [  0.3         64.44828449]
 [  0.32341667 -98.3856278 ]]","[[0.         0.46304305]
 [0.1        1.90149112]
 [0.2        1.02605911]
 [0.3        1.67084882]
 [0.32341667 0.11792656]]",1,0.811
8749218289,f,19,french,4,5,french,2024-01-25 10:40:30.095649,False,1,129,sounds\english\audio/english_879.wav,"[[  0.         -56.32485069]
 [  0.1         64.67592183]
 [  0.2         25.82204554]
 [  0.3          5.66794257]
 [  0.32341667 -31.65503708]]","[[0.         0.53184386]
 [0.1        1.34296213]
 [0.2        0.44649674]
 [0.3        0.79707043]
 [0.32341667 1.19804995]]",0,0.433
8749218289,f,19,french,4,5,french,2024-01-25 10:40:30.095649,False,1,130,sounds\english\audio/english_782.wav,"[[  0.         -98.70381677]
 [  0.1        -69.82387258]
 [  0.2         35.26613747]
 [  0.3        -81.38004879]
 [  0.32341667 -61.83067014]]","[[0.         1.47488053]
 [0.1        0.7270016 ]
 [0.2        0.08778447]
 [0.3        1.16903228]
 [0.32341667 0.92727902]]",0,0.348
8749218289,f,19,french,4,5,french,2024-01-25 10:40:30.095649,False,1,131,sounds\english\audio/english_52.wav,"[[  0.          54.63859099]
 [  0.1        -85.67195477]
 [  0.2          2.4878885 ]
 [  0.3         86.13143505]
 [  0.32341667 -53.30399902]]","[[0.         0.91426261]
 [0.1        1.20728413]
 [0.2        0.71733995]
 [0.3        1.54149443]
 [0.32341667 1.3376245 ]]",1,0.402
8749218289,f,19,french,4,5,french,2024-01-25 10:40:30.095649,False,1,132,sounds\english\audio/english_597.wav,"[[  0.         -83.66792118]
 [  0.1        -19.98744657]
 [  0.2        -30.38458549]
 [  0.3        -63.4406446 ]
 [  0.32341667  25.67812426]]","[[0.         0.17389721]
 [0.1        0.39349672]
 [0.2        1.97590818]
 [0.3        1.84988074]
 [0.32341667 1.17620678]]",1,0.565
8749218289,f,19,french,4,5,french,2024-01-25 10:40:30.095649,False,1,133,sounds\english\audio/english_815.wav,"[[  0.         -76.1669867 ]
 [  0.1        -40.517901  ]
 [  0.2        -46.68959253]
 [  0.3        -79.23468646]
 [  0.32341667 -63.63497058]]","[[0.         0.29426078]
 [0.1        0.96858733]
 [0.2        0.83382199]
 [0.3        1.13727176]
 [0.32341667 0.09357312]]",0,0.372
8749218289,f,19,french,4,5,french,2024-01-25 10:40:30.095649,False,1,134,sounds\english\audio/english_535.wav,"[[  0.          -5.32882057]
 [  0.1        -34.98045039]
 [  0.2         30.10834221]
 [  0.3        -70.22542568]
 [  0.32341667 -73.0016054 ]]","[[0.         0.21055966]
 [0.1        0.89683134]
 [0.2        1.11178172]
 [0.3        0.20123235]
 [0.32341667 0.99564794]]",0,0.301
8749218289,f,19,french,4,5,french,2024-01-25 10:40:30.095649,False,1,135,sounds\english\audio/english_977.wav,"[[  0.          63.46196139]
 [  0.1        -23.64022125]
 [  0.2         31.65242203]
 [  0.3         16.19881364]
 [  0.32341667 -33.08554183]]","[[0.         0.87194913]
 [0.1        1.67919547]
 [0.2        0.97011806]
 [0.3        1.40431802]
 [0.32341667 1.02563167]]",0,1.05
8749218289,f,19,french,4,5,french,2024-01-25 10:40:30.095649,False,1,136,sounds\english\audio/english_587.wav,"[[  0.         -33.32102811]
 [  0.1         46.1287001 ]
 [  0.2        -62.23894368]
 [  0.3         36.67711132]
 [  0.32341667 -11.53320103]]","[[0.         0.7972352 ]
 [0.1        1.97425238]
 [0.2        0.99609006]
 [0.3        1.18577707]
 [0.32341667 1.64089558]]",0,0.513
8749218289,f,19,french,4,5,french,2024-01-25 10:40:30.095649,False,1,137,sounds\english\audio/english_595.wav,"[[  0.         -39.84727911]
 [  0.1        -68.85607622]
 [  0.2         23.68364187]
 [  0.3        -80.51887658]
 [  0.32341667 -94.66311932]]","[[0.         1.6526444 ]
 [0.1        1.11711065]
 [0.2        1.96516016]
 [0.3        0.34053421]
 [0.32341667 1.22603371]]",0,0.421
8749218289,f,19,french,4,5,french,2024-01-25 10:40:30.095649,False,1,138,sounds\english\audio/english_789.wav,"[[  0.          70.69388181]
 [  0.1        -91.45782136]
 [  0.2        -94.67801392]
 [  0.3         83.76501612]
 [  0.32341667  -4.60584958]]","[[0.         1.62690516]
 [0.1        1.02092359]
 [0.2        0.93437639]
 [0.3        1.8239896 ]
 [0.32341667 1.29596798]]",0,0.149
8749218289,f,19,french,4,5,french,2024-01-25 10:40:30.095649,False,1,139,sounds\english\audio/english_503.wav,"[[  0.         -62.81458057]
 [  0.1         17.97702429]
 [  0.2         -8.2980926 ]
 [  0.3        -62.4217389 ]
 [  0.32341667  18.11027086]]","[[0.         1.15988152]
 [0.1        0.58853345]
 [0.2        1.29983279]
 [0.3        1.42406205]
 [0.32341667 0.84018378]]",0,0.125
8749218289,f,19,french,4,5,french,2024-01-25 10:40:30.095649,False,1,140,sounds\english\audio/english_800.wav,"[[  0.          -9.91001254]
 [  0.1        -86.79409322]
 [  0.2        -27.39997365]
 [  0.3         13.46737707]
 [  0.32341667 -32.56208711]]","[[0.         0.13142639]
 [0.1        1.71040153]
 [0.2        0.18637657]
 [0.3        1.09766523]
 [0.32341667 1.57940615]]",1,0.14
8749218289,f,19,french,4,5,french,2024-01-25 10:40:30.095649,False,1,141,sounds\english\audio/english_719.wav,"[[  0.         -32.14306232]
 [  0.1        -81.40439332]
 [  0.2        -20.1172293 ]
 [  0.3         67.63048238]
 [  0.32341667  50.83305788]]","[[0.         1.4431753 ]
 [0.1        0.46175707]
 [0.2        1.86886769]
 [0.3        0.67969247]
 [0.32341667 1.68151983]]",1,0.099
8749218289,f,19,french,4,5,french,2024-01-25 10:40:30.095649,False,1,142,sounds\english\audio/english_445.wav,"[[  0.          88.00598922]
 [  0.1         96.51328737]
 [  0.2         29.11093561]
 [  0.3         69.6076589 ]
 [  0.32341667 -59.73938179]]","[[0.         1.42174052]
 [0.1        1.49122509]
 [0.2        0.62095286]
 [0.3        1.14630865]
 [0.32341667 1.38538671]]",1,0.603
8749218289,f,19,french,4,5,french,2024-01-25 10:40:30.095649,False,1,143,sounds\english\audio/english_508.wav,"[[  0.         -21.23116318]
 [  0.1        -27.56583205]
 [  0.2         64.21774851]
 [  0.3         -9.24056951]
 [  0.32341667  -9.74670904]]","[[0.         1.79614382]
 [0.1        0.60449395]
 [0.2        0.56582153]
 [0.3        1.01665474]
 [0.32341667 0.78905044]]",1,0.762
8749218289,f,19,french,4,5,french,2024-01-25 10:40:30.095649,False,1,144,sounds\english\audio/english_635.wav,"[[  0.          27.7169436 ]
 [  0.1        -44.8292656 ]
 [  0.2         67.97685769]
 [  0.3         82.0264667 ]
 [  0.32341667  84.34985253]]","[[0.         1.98702335]
 [0.1        1.27737447]
 [0.2        0.57401651]
 [0.3        0.46134276]
 [0.32341667 0.71235155]]",1,0.79
8749218289,f,19,french,4,5,french,2024-01-25 10:40:30.095649,False,1,145,sounds\english\audio/english_351.wav,"[[  0.         -56.55455818]
 [  0.1        -81.1333892 ]
 [  0.2         70.95296343]
 [  0.3        -82.79021433]
 [  0.32341667 -21.34496407]]","[[0.         0.98366365]
 [0.1        1.13800808]
 [0.2        1.04915948]
 [0.3        1.70890302]
 [0.32341667 1.83807055]]",1,0.714
8749218289,f,19,french,4,5,french,2024-01-25 10:40:30.095649,False,1,146,sounds\english\audio/english_527.wav,"[[  0.         -32.70996179]
 [  0.1        -61.96334317]
 [  0.2         86.46317242]
 [  0.3        -18.9429262 ]
 [  0.32341667 -59.75355058]]","[[0.         0.06646481]
 [0.1        1.75268105]
 [0.2        0.41061726]
 [0.3        1.43024268]
 [0.32341667 0.73468543]]",0,0.501
8749218289,f,19,french,4,5,french,2024-01-25 10:40:30.095649,False,1,147,sounds\english\audio/english_87.wav,"[[  0.          54.83056612]
 [  0.1         56.31531505]
 [  0.2        -65.55002777]
 [  0.3        -25.15788212]
 [  0.32341667  22.72349562]]","[[0.         1.56132998]
 [0.1        1.28614089]
 [0.2        1.44579989]
 [0.3        0.3607766 ]
 [0.32341667 0.17745198]]",1,0.649
8749218289,f,19,french,4,5,french,2024-01-25 10:40:30.095649,False,1,148,sounds\english\audio/english_279.wav,"[[  0.         -20.90398108]
 [  0.1         98.83098338]
 [  0.2        -95.37608427]
 [  0.3        -52.65380993]
 [  0.32341667  47.72500112]]","[[0.         0.60114424]
 [0.1        0.92336304]
 [0.2        1.39045705]
 [0.3        0.64938935]
 [0.32341667 1.57478054]]",1,0.467
8749218289,f,19,french,4,5,french,2024-01-25 10:40:30.095649,False,1,149,sounds\english\audio/english_598.wav,"[[  0.           4.26365523]
 [  0.1        -29.634957  ]
 [  0.2        -17.49120793]
 [  0.3        -34.93876912]
 [  0.32341667  49.49845506]]","[[0.         0.04069017]
 [0.1        1.27980102]
 [0.2        0.98781586]
 [0.3        1.55939702]
 [0.32341667 1.74128412]]",1,1.539
8749218289,f,19,french,4,5,french,2024-01-25 10:40:30.095649,False,1,150,sounds\english\audio/english_525.wav,"[[  0.         -21.23223701]
 [  0.1          3.49974992]
 [  0.2        -75.71526263]
 [  0.3        -52.87512147]
 [  0.32341667  17.79573657]]","[[0.         1.69398532]
 [0.1        0.25491439]
 [0.2        0.17370365]
 [0.3        0.81797459]
 [0.32341667 0.70176203]]",0,0.404
8749218289,f,19,french,4,5,french,2024-01-25 10:40:30.095649,False,1,151,sounds\english\audio/english_826.wav,"[[  0.          24.96468068]
 [  0.1          1.37616969]
 [  0.2        -71.19975556]
 [  0.3        -48.49913399]
 [  0.32341667  40.69153462]]","[[0.         1.6444456 ]
 [0.1        0.97947611]
 [0.2        0.49097947]
 [0.3        0.98819908]
 [0.32341667 1.05842158]]",1,1.077
8749218289,f,19,french,4,5,french,2024-01-25 10:40:30.095649,False,1,152,sounds\english\audio/english_848.wav,"[[  0.          43.30233352]
 [  0.1        -77.77691247]
 [  0.2        -68.99020863]
 [  0.3        -43.68641023]
 [  0.32341667 -14.19502025]]","[[0.         0.12582596]
 [0.1        1.72621372]
 [0.2        1.753656  ]
 [0.3        1.37442753]
 [0.32341667 1.04930351]]",1,0.593
8749218289,f,19,french,4,5,french,2024-01-25 10:40:30.095649,False,1,153,sounds\english\audio/english_959.wav,"[[  0.         -78.42285057]
 [  0.1          6.44734251]
 [  0.2         20.74966326]
 [  0.3        -29.69680039]
 [  0.32341667  34.2282551 ]]","[[0.         1.71892855]
 [0.1        1.96402951]
 [0.2        0.26247596]
 [0.3        1.29464598]
 [0.32341667 1.77868038]]",1,1.101
8749218289,f,19,french,4,5,french,2024-01-25 10:40:30.095649,False,1,154,sounds\english\audio/english_984.wav,"[[ 0.         -4.00148485]
 [ 0.1        26.28173365]
 [ 0.2        80.79042683]
 [ 0.3        94.69131331]
 [ 0.32341667 75.17511154]]","[[0.         1.68596177]
 [0.1        0.06678014]
 [0.2        0.65490985]
 [0.3        0.57269921]
 [0.32341667 0.71264295]]",0,0.785
8749218289,f,19,french,4,5,french,2024-01-25 10:40:30.095649,False,1,155,sounds\english\audio/english_888.wav,"[[  0.         -75.11317729]
 [  0.1        -15.41916561]
 [  0.2         30.82770832]
 [  0.3         69.72581111]
 [  0.32341667 -21.6620698 ]]","[[0.         0.15619421]
 [0.1        1.45351631]
 [0.2        1.60154734]
 [0.3        1.09787436]
 [0.32341667 1.3760261 ]]",1,0.494
8749218289,f,19,french,4,5,french,2024-01-25 10:40:30.095649,False,1,156,sounds\english\audio/english_698.wav,"[[  0.         -86.30999669]
 [  0.1        -91.60158578]
 [  0.2        -41.16326515]
 [  0.3          7.86252123]
 [  0.32341667  25.04181708]]","[[0.         1.66322514]
 [0.1        1.16924533]
 [0.2        1.29610919]
 [0.3        1.21006153]
 [0.32341667 1.83628755]]",0,0.424
8749218289,f,19,french,4,5,french,2024-01-25 10:40:30.095649,False,1,157,sounds\english\audio/english_855.wav,"[[  0.          27.89321206]
 [  0.1        -46.00582393]
 [  0.2         35.37102385]
 [  0.3        -58.73762704]
 [  0.32341667 -46.78314799]]","[[0.         0.30262259]
 [0.1        1.40968126]
 [0.2        0.80904714]
 [0.3        1.48943687]
 [0.32341667 1.29572868]]",0,0.283
8749218289,f,19,french,4,5,french,2024-01-25 10:40:30.095649,False,1,158,sounds\english\audio/english_860.wav,"[[ 0.         10.25066679]
 [ 0.1        55.87909831]
 [ 0.2        81.09373959]
 [ 0.3        15.52286826]
 [ 0.32341667 58.18702512]]","[[0.         1.47817545]
 [0.1        1.32859058]
 [0.2        0.99201561]
 [0.3        0.3312489 ]
 [0.32341667 0.66001743]]",0,0.428
8749218289,f,19,french,4,5,french,2024-01-25 10:40:30.095649,False,1,159,sounds\english\audio/english_926.wav,"[[  0.         -21.84910749]
 [  0.1         92.62617727]
 [  0.2        -40.07927874]
 [  0.3         30.58508574]
 [  0.32341667 -68.98646438]]","[[0.         1.63725542]
 [0.1        0.91190035]
 [0.2        0.45967153]
 [0.3        0.64362954]
 [0.32341667 1.44788087]]",0,2.218
8749218289,f,19,french,4,5,french,2024-01-25 10:40:30.095649,False,1,160,sounds\english\audio/english_605.wav,"[[  0.         -82.65591545]
 [  0.1         35.78886654]
 [  0.2        -36.80716754]
 [  0.3         -4.39131435]
 [  0.32341667 -17.17702763]]","[[0.         0.90945233]
 [0.1        1.65178877]
 [0.2        0.21181898]
 [0.3        1.21754483]
 [0.32341667 1.60493484]]",0,0.553
8749218289,f,19,french,4,5,french,2024-01-25 10:40:30.095649,False,1,161,sounds\english\audio/english_49.wav,"[[  0.          -6.08822071]
 [  0.1        -56.0367764 ]
 [  0.2        -51.95657584]
 [  0.3        -59.93208112]
 [  0.32341667  -7.85847813]]","[[0.         0.36436507]
 [0.1        1.66948988]
 [0.2        1.20554654]
 [0.3        0.31084089]
 [0.32341667 0.44223059]]",0,0.821
8749218289,f,19,french,4,5,french,2024-01-25 10:40:30.095649,False,1,162,sounds\english\audio/english_180.wav,"[[  0.         -79.96502932]
 [  0.1         33.21752916]
 [  0.2        -97.52705813]
 [  0.3         42.51331828]
 [  0.32341667 -42.98571984]]","[[0.         0.84610218]
 [0.1        1.88919334]
 [0.2        0.18699196]
 [0.3        0.0366283 ]
 [0.32341667 0.95813987]]",0,0.676
8749218289,f,19,french,4,5,french,2024-01-25 10:40:30.095649,False,1,163,sounds\english\audio/english_11.wav,"[[  0.         -20.45826732]
 [  0.1        -31.26113472]
 [  0.2         84.03210455]
 [  0.3         30.35463164]
 [  0.32341667 -63.36217442]]","[[0.         1.19869378]
 [0.1        0.2059713 ]
 [0.2        0.62296143]
 [0.3        1.49781179]
 [0.32341667 0.18750748]]",1,1.208
8749218289,f,19,french,4,5,french,2024-01-25 10:40:30.095649,False,1,164,sounds\english\audio/english_319.wav,"[[  0.         -84.37928886]
 [  0.1        -52.76931383]
 [  0.2         56.06390533]
 [  0.3        -69.46438111]
 [  0.32341667  91.86152445]]","[[0.         1.17141126]
 [0.1        1.13741792]
 [0.2        0.91618882]
 [0.3        0.7080153 ]
 [0.32341667 0.5910213 ]]",1,4.046
8749218289,f,19,french,4,5,french,2024-01-25 10:40:30.095649,False,1,165,sounds\english\audio/english_101.wav,"[[  0.          60.77829508]
 [  0.1         43.41373716]
 [  0.2         56.16195873]
 [  0.3        -99.94719329]
 [  0.32341667  -1.35074094]]","[[0.         0.77962125]
 [0.1        0.02040908]
 [0.2        0.79248433]
 [0.3        1.74003505]
 [0.32341667 1.66206156]]",0,1.401
8749218289,f,19,french,4,5,french,2024-01-25 10:40:30.095649,False,1,166,sounds\english\audio/english_351.wav,"[[  0.         -56.55455818]
 [  0.1        -81.1333892 ]
 [  0.2         70.95296343]
 [  0.3        -82.79021433]
 [  0.32341667 -21.34496407]]","[[0.         0.98366365]
 [0.1        1.13800808]
 [0.2        1.04915948]
 [0.3        1.70890302]
 [0.32341667 1.83807055]]",1,0.728
8749218289,f,19,french,4,5,french,2024-01-25 10:40:30.095649,False,1,167,sounds\english\audio/english_906.wav,"[[  0.         -40.48589107]
 [  0.1         47.48995475]
 [  0.2        -46.73743802]
 [  0.3        -97.96557374]
 [  0.32341667  18.48293991]]","[[0.         1.22436898]
 [0.1        1.54823641]
 [0.2        1.02590908]
 [0.3        1.74877791]
 [0.32341667 0.76585735]]",1,3.215
8749218289,f,19,french,4,5,french,2024-01-25 10:40:30.095649,False,1,168,sounds\english\audio/english_313.wav,"[[  0.          63.86599335]
 [  0.1        -55.89800258]
 [  0.2         90.86254046]
 [  0.3          0.53087649]
 [  0.32341667 -69.87913817]]","[[0.         0.35841412]
 [0.1        0.35021793]
 [0.2        1.77750413]
 [0.3        1.87396687]
 [0.32341667 1.16176786]]",1,0.962
8749218289,f,19,french,4,5,french,2024-01-25 10:40:30.095649,False,1,169,sounds\english\audio/english_259.wav,"[[  0.           7.90187791]
 [  0.1         31.67295647]
 [  0.2        -53.65780041]
 [  0.3        -72.94929757]
 [  0.32341667  58.35152721]]","[[0.         1.3064553 ]
 [0.1        1.01100372]
 [0.2        0.35520266]
 [0.3        1.35187683]
 [0.32341667 1.39599087]]",1,0.596
8749218289,f,19,french,4,5,french,2024-01-25 10:40:30.095649,False,1,170,sounds\english\audio/english_994.wav,"[[  0.          53.6083957 ]
 [  0.1         62.5650281 ]
 [  0.2         91.00734213]
 [  0.3        -14.6853323 ]
 [  0.32341667  42.94025292]]","[[0.         1.72152032]
 [0.1        0.97077126]
 [0.2        1.1154275 ]
 [0.3        0.93534142]
 [0.32341667 1.51312842]]",1,0.745
8749218289,f,19,french,4,5,french,2024-01-25 10:40:30.095649,False,1,171,sounds\english\audio/english_565.wav,"[[  0.         -89.95965492]
 [  0.1         67.55938023]
 [  0.2         26.6208604 ]
 [  0.3        -54.20230035]
 [  0.32341667 -98.16020256]]","[[0.         1.93181176]
 [0.1        1.29027557]
 [0.2        0.36054668]
 [0.3        1.25973455]
 [0.32341667 0.92743077]]",1,0.536
8749218289,f,19,french,4,5,french,2024-01-25 10:40:30.095649,False,1,172,sounds\english\audio/english_447.wav,"[[  0.          38.77193801]
 [  0.1         -3.53992528]
 [  0.2         54.1888363 ]
 [  0.3        -95.90180003]
 [  0.32341667  48.32118178]]","[[0.         0.52212734]
 [0.1        0.58948567]
 [0.2        0.60662966]
 [0.3        0.73195254]
 [0.32341667 0.21856551]]",1,0.569
8749218289,f,19,french,4,5,french,2024-01-25 10:40:30.095649,False,1,173,sounds\english\audio/english_747.wav,"[[  0.         -77.73977436]
 [  0.1        -18.96284798]
 [  0.2        -36.55549612]
 [  0.3         89.20291952]
 [  0.32341667 -97.78574386]]","[[0.         1.00478752]
 [0.1        0.15717617]
 [0.2        1.90654565]
 [0.3        0.7651101 ]
 [0.32341667 0.92755825]]",1,0.636
8749218289,f,19,french,4,5,french,2024-01-25 10:40:30.095649,False,1,174,sounds\english\audio/english_251.wav,"[[  0.         -35.26640223]
 [  0.1        -82.14936791]
 [  0.2         39.53587687]
 [  0.3        -75.44024907]
 [  0.32341667  26.94148116]]","[[0.         1.59441442]
 [0.1        1.21410308]
 [0.2        0.89125894]
 [0.3        0.14763688]
 [0.32341667 1.71797298]]",1,0.523
8749218289,f,19,french,4,5,french,2024-01-25 10:40:30.095649,False,1,175,sounds\english\audio/english_856.wav,"[[  0.         -44.08940674]
 [  0.1        -25.77644107]
 [  0.2          6.39263247]
 [  0.3         92.67536145]
 [  0.32341667  45.15991817]]","[[0.         1.51880133]
 [0.1        0.99524475]
 [0.2        1.11391415]
 [0.3        0.95575529]
 [0.32341667 1.02944292]]",1,0.441
8749218289,f,19,french,4,5,french,2024-01-25 10:40:30.095649,False,1,176,sounds\english\audio/english_766.wav,"[[  0.         -86.57417509]
 [  0.1        -67.75686223]
 [  0.2         74.21258041]
 [  0.3         65.20164426]
 [  0.32341667 -26.41371036]]","[[0.         1.21737292]
 [0.1        1.61484435]
 [0.2        1.47872362]
 [0.3        1.81064247]
 [0.32341667 1.37776493]]",1,0.66
8749218289,f,19,french,4,5,french,2024-01-25 10:40:30.095649,False,1,177,sounds\english\audio/english_444.wav,"[[  0.          57.2872587 ]
 [  0.1         68.85097071]
 [  0.2        -30.10164543]
 [  0.3        -57.0249627 ]
 [  0.32341667 -54.19692118]]","[[0.         0.52242118]
 [0.1        1.61316948]
 [0.2        0.15196309]
 [0.3        0.44426911]
 [0.32341667 1.48693747]]",0,1.028
8749218289,f,19,french,4,5,french,2024-01-25 10:40:30.095649,False,1,178,sounds\english\audio/english_419.wav,"[[  0.          74.10926047]
 [  0.1        -50.44969368]
 [  0.2        -38.37630765]
 [  0.3        -57.54140712]
 [  0.32341667  48.12555486]]","[[0.00000000e+00 4.23980314e-01]
 [1.00000000e-01 1.12483838e+00]
 [2.00000000e-01 4.73465541e-01]
 [3.00000000e-01 8.38613621e-04]
 [3.23416667e-01 3.89285402e-01]]",0,1.512
8749218289,f,19,french,4,5,french,2024-01-25 10:40:30.095649,False,1,179,sounds\english\audio/english_569.wav,"[[  0.         -44.4695194 ]
 [  0.1         50.36705327]
 [  0.2        -76.17438636]
 [  0.3         55.47083669]
 [  0.32341667 -10.68913609]]","[[0.         1.56768834]
 [0.1        0.42032873]
 [0.2        0.31133764]
 [0.3        0.91900801]
 [0.32341667 1.26529561]]",1,1.331
8749218289,f,19,french,4,5,french,2024-01-25 10:40:30.095649,False,1,180,sounds\english\audio/english_58.wav,"[[  0.          20.12478601]
 [  0.1        -22.60038942]
 [  0.2         34.38627512]
 [  0.3         30.90369434]
 [  0.32341667  11.39971337]]","[[0.         1.19415515]
 [0.1        0.26098942]
 [0.2        1.99195241]
 [0.3        0.42925074]
 [0.32341667 0.50368767]]",1,0.656
8749218289,f,19,french,4,5,french,2024-01-25 10:40:30.095649,False,1,181,sounds\english\audio/english_94.wav,"[[  0.         -78.50776969]
 [  0.1         21.81048112]
 [  0.2         76.78230264]
 [  0.3        -35.62145712]
 [  0.32341667 -71.39427505]]","[[0.         1.58967719]
 [0.1        0.88841047]
 [0.2        1.12549424]
 [0.3        1.80621507]
 [0.32341667 1.00879957]]",1,0.518
8749218289,f,19,french,4,5,french,2024-01-25 10:40:30.095649,False,1,182,sounds\english\audio/english_292.wav,"[[  0.         -39.45275529]
 [  0.1        -35.03464337]
 [  0.2         31.68370279]
 [  0.3        -53.75991965]
 [  0.32341667  12.49992629]]","[[0.         0.85174507]
 [0.1        0.73996191]
 [0.2        1.42892595]
 [0.3        0.04968332]
 [0.32341667 0.58931553]]",0,0.962
8749218289,f,19,french,4,5,french,2024-01-25 10:40:30.095649,False,1,183,sounds\english\audio/english_999.wav,"[[  0.         -43.88463807]
 [  0.1        -19.69329198]
 [  0.2        -16.47401585]
 [  0.3        -27.91485083]
 [  0.32341667 -38.65265262]]","[[0.         1.5561212 ]
 [0.1        1.76032244]
 [0.2        0.67323911]
 [0.3        0.0725875 ]
 [0.32341667 0.89314247]]",1,1.121
8749218289,f,19,french,4,5,french,2024-01-25 10:40:30.095649,False,1,184,sounds\english\audio/english_719.wav,"[[  0.         -32.14306232]
 [  0.1        -81.40439332]
 [  0.2        -20.1172293 ]
 [  0.3         67.63048238]
 [  0.32341667  50.83305788]]","[[0.         1.4431753 ]
 [0.1        0.46175707]
 [0.2        1.86886769]
 [0.3        0.67969247]
 [0.32341667 1.68151983]]",0,2.023
8749218289,f,19,french,4,5,french,2024-01-25 10:40:30.095649,False,1,185,sounds\english\audio/english_616.wav,"[[  0.         -71.12360497]
 [  0.1         55.35355355]
 [  0.2        -15.85026512]
 [  0.3        -22.60587367]
 [  0.32341667 -45.64131884]]","[[0.         0.83412473]
 [0.1        1.49185731]
 [0.2        1.32170209]
 [0.3        0.90458331]
 [0.32341667 1.17134835]]",1,2.188
8749218289,f,19,french,4,5,french,2024-01-25 10:40:30.095649,False,1,186,sounds\english\audio/english_120.wav,"[[  0.          55.2306484 ]
 [  0.1         82.00530973]
 [  0.2         -5.84837635]
 [  0.3         66.20489525]
 [  0.32341667 -73.22302923]]","[[0.         0.43658612]
 [0.1        0.03999251]
 [0.2        0.80827096]
 [0.3        1.78669421]
 [0.32341667 1.04341795]]",1,0.899
8749218289,f,19,french,4,5,french,2024-01-25 10:40:30.095649,False,1,187,sounds\english\audio/english_763.wav,"[[ 0.         64.63144232]
 [ 0.1         8.86346429]
 [ 0.2        32.79569159]
 [ 0.3        10.55051177]
 [ 0.32341667  6.38738619]]","[[0.         0.7800836 ]
 [0.1        1.26656169]
 [0.2        1.93170043]
 [0.3        0.29422641]
 [0.32341667 1.43860225]]",0,0.851
8749218289,f,19,french,4,5,french,2024-01-25 10:40:30.095649,False,1,188,sounds\english\audio/english_75.wav,"[[  0.          -9.18091647]
 [  0.1        -62.02164907]
 [  0.2        -12.90623207]
 [  0.3         15.17089036]
 [  0.32341667  10.89352922]]","[[0.         0.92930856]
 [0.1        1.94000482]
 [0.2        1.2183621 ]
 [0.3        0.47349695]
 [0.32341667 1.02561006]]",1,0.465
8749218289,f,19,french,4,5,french,2024-01-25 10:40:30.095649,False,1,189,sounds\english\audio/english_282.wav,"[[  0.           0.76940706]
 [  0.1         85.14494722]
 [  0.2        -92.43433596]
 [  0.3        -98.42888083]
 [  0.32341667 -32.58662549]]","[[0.         0.32837311]
 [0.1        0.39977994]
 [0.2        0.62065738]
 [0.3        0.06200237]
 [0.32341667 1.4193679 ]]",0,0.917
8749218289,f,19,french,4,5,french,2024-01-25 10:40:30.095649,False,1,190,sounds\english\audio/english_10.wav,"[[  0.         -80.92247099]
 [  0.1         11.56157957]
 [  0.2         72.61501241]
 [  0.3         91.01400741]
 [  0.32341667 -64.58672822]]","[[0.         1.33142191]
 [0.1        0.6588087 ]
 [0.2        1.62851887]
 [0.3        1.4109269 ]
 [0.32341667 0.76235223]]",1,0.98
8749218289,f,19,french,4,5,french,2024-01-25 10:40:30.095649,False,1,191,sounds\english\audio/english_701.wav,"[[ 0.         87.15265727]
 [ 0.1        38.39882515]
 [ 0.2        64.60201562]
 [ 0.3        12.58613119]
 [ 0.32341667 46.94968762]]","[[0.         1.41120649]
 [0.1        0.44004622]
 [0.2        1.15462264]
 [0.3        1.17454355]
 [0.32341667 1.38716818]]",0,0.978
8749218289,f,19,french,4,5,french,2024-01-25 10:40:30.095649,False,1,192,sounds\english\audio/english_933.wav,"[[  0.         -48.12258855]
 [  0.1         27.26905516]
 [  0.2          0.35087756]
 [  0.3         94.96402149]
 [  0.32341667  61.52669097]]","[[0.         1.54767366]
 [0.1        0.30219473]
 [0.2        1.50410475]
 [0.3        1.44820406]
 [0.32341667 0.05049928]]",1,0.785
8749218289,f,19,french,4,5,french,2024-01-25 10:40:30.095649,False,1,193,sounds\english\audio/english_988.wav,"[[  0.          23.53561789]
 [  0.1         39.09545525]
 [  0.2        -32.2225044 ]
 [  0.3          5.54449519]
 [  0.32341667 -94.58480047]]","[[0.         0.18772999]
 [0.1        0.71537172]
 [0.2        0.50944864]
 [0.3        0.59930705]
 [0.32341667 1.43881296]]",0,0.548
8749218289,f,19,french,4,5,french,2024-01-25 10:40:30.095649,False,1,194,sounds\english\audio/english_154.wav,"[[  0.          69.79630433]
 [  0.1        -67.81892388]
 [  0.2         14.97335347]
 [  0.3          8.47433965]
 [  0.32341667  32.47098569]]","[[0.         0.95543174]
 [0.1        1.87835363]
 [0.2        1.19287874]
 [0.3        1.12321966]
 [0.32341667 0.66995817]]",1,1.039
8749218289,f,19,french,4,5,french,2024-01-25 10:40:30.095649,False,1,195,sounds\english\audio/english_703.wav,"[[  0.          21.25560127]
 [  0.1         -5.61566417]
 [  0.2        -88.15973778]
 [  0.3         39.86499493]
 [  0.32341667  64.67338156]]","[[0.         1.22587136]
 [0.1        1.28752652]
 [0.2        1.61643937]
 [0.3        1.32560109]
 [0.32341667 0.74206522]]",0,0.231
8749218289,f,19,french,4,5,french,2024-01-25 10:40:30.095649,False,1,196,sounds\english\audio/english_311.wav,"[[  0.         -35.59355899]
 [  0.1        -50.39310557]
 [  0.2        -53.37222601]
 [  0.3         72.25802658]
 [  0.32341667  48.72421008]]","[[0.         0.16094856]
 [0.1        1.33895436]
 [0.2        0.01028283]
 [0.3        0.48497386]
 [0.32341667 0.48591183]]",0,0.577
8749218289,f,19,french,4,5,french,2024-01-25 10:40:30.095649,False,1,197,sounds\english\audio/english_862.wav,"[[  0.          97.17644144]
 [  0.1         26.34966999]
 [  0.2        -21.73584106]
 [  0.3         70.49109419]
 [  0.32341667  43.48373212]]","[[0.         0.51253178]
 [0.1        0.21080737]
 [0.2        0.27401534]
 [0.3        1.91980484]
 [0.32341667 0.96077188]]",0,1.013
8749218289,f,19,french,4,5,french,2024-01-25 10:40:30.095649,False,1,198,sounds\english\audio/english_692.wav,"[[  0.         -29.13306787]
 [  0.1        -41.86406343]
 [  0.2        -94.94051661]
 [  0.3         78.40426091]
 [  0.32341667 -47.11562344]]","[[0.         0.55849531]
 [0.1        1.96517265]
 [0.2        0.19953253]
 [0.3        1.89357941]
 [0.32341667 1.37874109]]",0,0.829
8749218289,f,19,french,4,5,french,2024-01-25 10:40:30.095649,False,1,199,sounds\english\audio/english_961.wav,"[[  0.          20.81275789]
 [  0.1         46.48072234]
 [  0.2         79.36291712]
 [  0.3          7.86976501]
 [  0.32341667 -45.45751668]]","[[0.         1.87720953]
 [0.1        1.43497285]
 [0.2        1.9095844 ]
 [0.3        0.20821065]
 [0.32341667 0.0640973 ]]",1,0.839
8749218289,f,19,french,4,5,french,2024-01-25 10:40:30.095649,False,1,200,sounds\english\audio/english_57.wav,"[[  0.         -27.39668164]
 [  0.1         63.52389761]
 [  0.2        -55.42033209]
 [  0.3         40.81906742]
 [  0.32341667 -12.75543821]]","[[0.         1.97835384]
 [0.1        0.69906452]
 [0.2        0.75389415]
 [0.3        0.20375649]
 [0.32341667 1.65585112]]",1,1.161
8749218289,f,19,french,4,5,french,2024-01-25 10:40:30.095649,False,1,201,sounds\english\audio/english_83.wav,"[[  0.          98.86804112]
 [  0.1        -37.42051535]
 [  0.2         23.85234946]
 [  0.3         28.05435803]
 [  0.32341667   2.44147447]]","[[0.         0.82381457]
 [0.1        1.26275754]
 [0.2        0.74836396]
 [0.3        0.41584898]
 [0.32341667 1.88336536]]",1,0.754
8749218289,f,19,french,4,5,french,2024-01-25 10:40:30.095649,False,1,202,sounds\english\audio/english_377.wav,"[[  0.          74.10679581]
 [  0.1        -97.36412995]
 [  0.2        -84.25672888]
 [  0.3         27.09308902]
 [  0.32341667 -12.33253686]]","[[0.         1.90218841]
 [0.1        1.60160035]
 [0.2        1.668912  ]
 [0.3        1.51590505]
 [0.32341667 0.99909344]]",1,0.243
8749218289,f,19,french,4,5,french,2024-01-25 10:40:30.095649,False,1,203,sounds\english\audio/english_557.wav,"[[  0.          43.94308994]
 [  0.1         84.77773598]
 [  0.2        -14.75143777]
 [  0.3        -37.76141322]
 [  0.32341667  -5.99076179]]","[[0.         0.38165316]
 [0.1        1.19567933]
 [0.2        1.35103773]
 [0.3        1.69174007]
 [0.32341667 0.4334092 ]]",1,0.566
8749218289,f,19,french,4,5,french,2024-01-25 10:40:30.095649,False,1,204,sounds\english\audio/english_703.wav,"[[  0.          21.25560127]
 [  0.1         -5.61566417]
 [  0.2        -88.15973778]
 [  0.3         39.86499493]
 [  0.32341667  64.67338156]]","[[0.         1.22587136]
 [0.1        1.28752652]
 [0.2        1.61643937]
 [0.3        1.32560109]
 [0.32341667 0.74206522]]",1,0.236
8749218289,f,19,french,4,5,french,2024-01-25 10:40:30.095649,False,1,205,sounds\english\audio/english_445.wav,"[[  0.          88.00598922]
 [  0.1         96.51328737]
 [  0.2         29.11093561]
 [  0.3         69.6076589 ]
 [  0.32341667 -59.73938179]]","[[0.         1.42174052]
 [0.1        1.49122509]
 [0.2        0.62095286]
 [0.3        1.14630865]
 [0.32341667 1.38538671]]",0,0.294
8749218289,f,19,french,4,5,french,2024-01-25 10:40:30.095649,False,1,206,sounds\english\audio/english_652.wav,"[[  0.           4.27736911]
 [  0.1         18.79087972]
 [  0.2         61.32163128]
 [  0.3         45.76092148]
 [  0.32341667 -45.08671386]]","[[0.         0.30427218]
 [0.1        0.67520162]
 [0.2        0.66270689]
 [0.3        0.93987847]
 [0.32341667 1.10617978]]",0,0.534
8749218289,f,19,french,4,5,french,2024-01-25 10:40:30.095649,False,1,207,sounds\english\audio/english_879.wav,"[[  0.         -56.32485069]
 [  0.1         64.67592183]
 [  0.2         25.82204554]
 [  0.3          5.66794257]
 [  0.32341667 -31.65503708]]","[[0.         0.53184386]
 [0.1        1.34296213]
 [0.2        0.44649674]
 [0.3        0.79707043]
 [0.32341667 1.19804995]]",0,0.292
8749218289,f,19,french,4,5,french,2024-01-25 10:40:30.095649,False,1,208,sounds\english\audio/english_30.wav,"[[  0.         -18.5398728 ]
 [  0.1        -67.34991207]
 [  0.2         65.54879707]
 [  0.3         30.88088319]
 [  0.32341667  50.60550813]]","[[0.         0.31748681]
 [0.1        1.82477139]
 [0.2        1.59992979]
 [0.3        0.89523729]
 [0.32341667 1.02052202]]",1,0.43
8749218289,f,19,french,4,5,french,2024-01-25 10:40:30.095649,False,1,209,sounds\english\audio/english_641.wav,"[[  0.         -90.88934322]
 [  0.1         13.36673253]
 [  0.2        -36.70414591]
 [  0.3         -4.62417375]
 [  0.32341667  15.34366305]]","[[0.         1.28926835]
 [0.1        0.02464493]
 [0.2        0.5505433 ]
 [0.3        0.52188675]
 [0.32341667 0.01360039]]",1,0.694
8749218289,f,19,french,4,5,french,2024-01-25 10:40:30.095649,False,1,210,sounds\english\audio/english_105.wav,"[[ 0.         15.80659439]
 [ 0.1        42.66899606]
 [ 0.2        70.76731416]
 [ 0.3        70.45261783]
 [ 0.32341667 38.01355443]]","[[0.         1.08535851]
 [0.1        0.24895576]
 [0.2        1.16165898]
 [0.3        1.37248151]
 [0.32341667 0.81952348]]",0,0.461
8749218289,f,19,french,4,5,french,2024-01-25 10:40:30.095649,False,1,211,sounds\english\audio/english_926.wav,"[[  0.         -21.84910749]
 [  0.1         92.62617727]
 [  0.2        -40.07927874]
 [  0.3         30.58508574]
 [  0.32341667 -68.98646438]]","[[0.         1.63725542]
 [0.1        0.91190035]
 [0.2        0.45967153]
 [0.3        0.64362954]
 [0.32341667 1.44788087]]",1,0.294
8749218289,f,19,french,4,5,french,2024-01-25 10:40:30.095649,False,1,212,sounds\english\audio/english_979.wav,"[[  0.          -1.00654814]
 [  0.1         18.39835707]
 [  0.2        -42.91789413]
 [  0.3        -58.29527223]
 [  0.32341667  86.14740424]]","[[0.         1.61411081]
 [0.1        1.30464512]
 [0.2        0.93120215]
 [0.3        0.87145212]
 [0.32341667 1.17332389]]",0,0.575
8749218289,f,19,french,4,5,french,2024-01-25 10:40:30.095649,False,1,213,sounds\english\audio/english_944.wav,"[[  0.          70.24274457]
 [  0.1        -48.79231442]
 [  0.2         -6.42324239]
 [  0.3         -7.7338836 ]
 [  0.32341667  69.46240638]]","[[0.         0.61048125]
 [0.1        1.63310511]
 [0.2        0.21687347]
 [0.3        0.45027042]
 [0.32341667 0.90306897]]",1,6.5
8749218289,f,19,french,4,5,french,2024-01-25 10:40:30.095649,False,1,214,sounds\english\audio/english_646.wav,"[[  0.          65.65927644]
 [  0.1        -31.23211399]
 [  0.2         62.59110385]
 [  0.3        -86.43369357]
 [  0.32341667  41.84315348]]","[[0.         1.85038449]
 [0.1        1.10748568]
 [0.2        1.14052106]
 [0.3        1.38971404]
 [0.32341667 0.49971738]]",0,1.481
8749218289,f,19,french,4,5,french,2024-01-25 10:40:30.095649,False,1,215,sounds\english\audio/english_385.wav,"[[  0.         -55.07910634]
 [  0.1        -94.47680079]
 [  0.2         38.70414457]
 [  0.3        -46.17691   ]
 [  0.32341667   2.5941508 ]]","[[0.         1.75648555]
 [0.1        1.20856462]
 [0.2        0.98103352]
 [0.3        1.45745263]
 [0.32341667 0.88353815]]",1,0.719
8749218289,f,19,french,4,5,french,2024-01-25 10:40:30.095649,False,1,216,sounds\english\audio/english_177.wav,"[[  0.          87.98258728]
 [  0.1         87.12011565]
 [  0.2        -29.82518494]
 [  0.3         54.38835911]
 [  0.32341667  53.98423531]]","[[0.         1.54790065]
 [0.1        0.90861448]
 [0.2        0.58649069]
 [0.3        0.51296238]
 [0.32341667 1.78492888]]",0,0.412
8749218289,f,19,french,4,5,french,2024-01-25 10:40:30.095649,False,1,217,sounds\english\audio/english_892.wav,"[[ 0.         38.63128374]
 [ 0.1        22.49899687]
 [ 0.2        28.84135264]
 [ 0.3        81.19740532]
 [ 0.32341667 22.37782167]]","[[0.         0.97893944]
 [0.1        0.66551001]
 [0.2        0.36795179]
 [0.3        1.0840826 ]
 [0.32341667 0.83637256]]",1,0.719
8749218289,f,19,french,4,5,french,2024-01-25 10:40:30.095649,False,1,218,sounds\english\audio/english_90.wav,"[[  0.          82.68866707]
 [  0.1        -81.25370946]
 [  0.2         56.28719083]
 [  0.3        -46.43338119]
 [  0.32341667 -19.93520327]]","[[0.         0.54239523]
 [0.1        1.03335699]
 [0.2        1.93576477]
 [0.3        0.74570916]
 [0.32341667 1.11115504]]",1,0.937
8749218289,f,19,french,4,5,french,2024-01-25 10:40:30.095649,False,1,219,sounds\english\audio/english_808.wav,"[[  0.          23.02589628]
 [  0.1         10.58817829]
 [  0.2         36.77134597]
 [  0.3        -30.31603221]
 [  0.32341667   9.74764343]]","[[0.         1.07384277]
 [0.1        1.3919179 ]
 [0.2        0.54960524]
 [0.3        1.95871365]
 [0.32341667 0.79150541]]",1,0.787
8749218289,f,19,french,4,5,french,2024-01-25 10:40:30.095649,False,1,220,sounds\english\audio/english_938.wav,"[[  0.          55.68553541]
 [  0.1         19.57508628]
 [  0.2         99.59707332]
 [  0.3        -43.3789335 ]
 [  0.32341667  90.00594125]]","[[0.         1.13527087]
 [0.1        0.57526943]
 [0.2        0.71873046]
 [0.3        0.88566698]
 [0.32341667 0.39461425]]",1,0.337
8749218289,f,19,french,4,5,french,2024-01-25 10:40:30.095649,False,1,221,sounds\english\audio/english_893.wav,"[[  0.          17.19699967]
 [  0.1         57.52525856]
 [  0.2         13.30661706]
 [  0.3         33.02687073]
 [  0.32341667 -64.43392463]]","[[0.         0.82427167]
 [0.1        1.49866988]
 [0.2        0.84536161]
 [0.3        0.10168024]
 [0.32341667 0.7117056 ]]",1,0.511
8749218289,f,19,french,4,5,french,2024-01-25 10:40:30.095649,False,1,222,sounds\english\audio/english_929.wav,"[[  0.          29.19700723]
 [  0.1         15.63825327]
 [  0.2          3.65085895]
 [  0.3        -91.18848108]
 [  0.32341667  53.29025089]]","[[0.         1.75028237]
 [0.1        0.16776534]
 [0.2        0.15899819]
 [0.3        0.41497916]
 [0.32341667 0.946821  ]]",1,1.387
8749218289,f,19,french,4,5,french,2024-01-25 10:40:30.095649,False,1,223,sounds\english\audio/english_221.wav,"[[  0.          85.84184869]
 [  0.1        -20.37513589]
 [  0.2        -89.75984637]
 [  0.3         50.66879934]
 [  0.32341667  20.92538743]]","[[0.         1.38100565]
 [0.1        0.79531516]
 [0.2        0.9538446 ]
 [0.3        1.56492426]
 [0.32341667 1.60855456]]",1,0.698
8749218289,f,19,french,4,5,french,2024-01-25 10:40:30.095649,False,1,224,sounds\english\audio/english_229.wav,"[[  0.          51.56916705]
 [  0.1        -51.28327497]
 [  0.2         97.78221202]
 [  0.3        -75.98126047]
 [  0.32341667 -44.05308002]]","[[0.         1.25898044]
 [0.1        0.34588319]
 [0.2        1.91985924]
 [0.3        0.82059623]
 [0.32341667 1.38191391]]",1,1.047
8749218289,f,19,french,4,5,french,2024-01-25 10:40:30.095649,False,1,225,sounds\english\audio/english_796.wav,"[[  0.          57.52331511]
 [  0.1        -53.71774571]
 [  0.2        -36.09214461]
 [  0.3         23.21783142]
 [  0.32341667 -74.52171885]]","[[0.         0.93419081]
 [0.1        0.77950231]
 [0.2        0.54947466]
 [0.3        1.69054841]
 [0.32341667 0.76047802]]",1,0.418
8749218289,f,19,french,4,5,french,2024-01-25 10:40:30.095649,False,1,226,sounds\english\audio/english_916.wav,"[[  0.         -50.62314768]
 [  0.1        -52.55300278]
 [  0.2         54.298582  ]
 [  0.3        -23.99088857]
 [  0.32341667   4.88948607]]","[[0.         0.5519299 ]
 [0.1        1.16723516]
 [0.2        1.72376738]
 [0.3        0.41493786]
 [0.32341667 1.97918138]]",1,4.046
8749218289,f,19,french,4,5,french,2024-01-25 10:40:30.095649,False,1,227,sounds\english\audio/english_540.wav,"[[  0.         -46.6752609 ]
 [  0.1        -93.20209644]
 [  0.2         64.96419662]
 [  0.3        -12.16484387]
 [  0.32341667 -44.34688232]]","[[0.         1.16352469]
 [0.1        0.0234781 ]
 [0.2        0.05926191]
 [0.3        1.47406284]
 [0.32341667 0.60104864]]",0,2.063
8749218289,f,19,french,4,5,french,2024-01-25 10:40:30.095649,False,1,228,sounds\english\audio/english_154.wav,"[[  0.          69.79630433]
 [  0.1        -67.81892388]
 [  0.2         14.97335347]
 [  0.3          8.47433965]
 [  0.32341667  32.47098569]]","[[0.         0.95543174]
 [0.1        1.87835363]
 [0.2        1.19287874]
 [0.3        1.12321966]
 [0.32341667 0.66995817]]",1,0.538
8749218289,f,19,french,4,5,french,2024-01-25 10:40:30.095649,False,1,229,sounds\english\audio/english_382.wav,"[[  0.         -83.35497559]
 [  0.1          7.83115402]
 [  0.2         77.46115257]
 [  0.3         89.755233  ]
 [  0.32341667 -36.08570956]]","[[0.         1.24516413]
 [0.1        0.59675254]
 [0.2        0.61036026]
 [0.3        1.95554414]
 [0.32341667 1.60845727]]",1,0.526
8749218289,f,19,french,4,5,french,2024-01-25 10:40:30.095649,False,1,230,sounds\english\audio/english_999.wav,"[[  0.         -43.88463807]
 [  0.1        -19.69329198]
 [  0.2        -16.47401585]
 [  0.3        -27.91485083]
 [  0.32341667 -38.65265262]]","[[0.         1.5561212 ]
 [0.1        1.76032244]
 [0.2        0.67323911]
 [0.3        0.0725875 ]
 [0.32341667 0.89314247]]",1,0.971
8749218289,f,19,french,4,5,french,2024-01-25 10:40:30.095649,False,1,231,sounds\english\audio/english_619.wav,"[[  0.          38.53351318]
 [  0.1        -11.21157995]
 [  0.2         29.79887689]
 [  0.3         48.6384615 ]
 [  0.32341667 -66.5905708 ]]","[[0.         1.25542912]
 [0.1        0.83005785]
 [0.2        1.51254928]
 [0.3        0.37972577]
 [0.32341667 0.44889873]]",1,0.375
8749218289,f,19,french,4,5,french,2024-01-25 10:40:30.095649,False,1,232,sounds\english\audio/english_365.wav,"[[  0.          58.11205919]
 [  0.1        -61.04014877]
 [  0.2         12.43042802]
 [  0.3         17.00746388]
 [  0.32341667 -69.10644956]]","[[0.         0.53708026]
 [0.1        1.10456153]
 [0.2        1.31731937]
 [0.3        1.02387946]
 [0.32341667 1.31633463]]",1,0.156
8749218289,f,19,french,4,5,french,2024-01-25 10:40:30.095649,False,1,233,sounds\english\audio/english_311.wav,"[[  0.         -35.59355899]
 [  0.1        -50.39310557]
 [  0.2        -53.37222601]
 [  0.3         72.25802658]
 [  0.32341667  48.72421008]]","[[0.         0.16094856]
 [0.1        1.33895436]
 [0.2        0.01028283]
 [0.3        0.48497386]
 [0.32341667 0.48591183]]",1,0.448
8749218289,f,19,french,4,5,french,2024-01-25 10:40:30.095649,False,1,234,sounds\english\audio/english_481.wav,"[[  0.          -1.07793215]
 [  0.1         72.11929458]
 [  0.2         -0.36002545]
 [  0.3         11.70252104]
 [  0.32341667 -16.16595736]]","[[0.         1.34620279]
 [0.1        0.4682023 ]
 [0.2        1.2575358 ]
 [0.3        1.51306824]
 [0.32341667 1.86086011]]",1,0.963
8749218289,f,19,french,4,5,french,2024-01-25 10:40:30.095649,False,1,235,sounds\english\audio/english_290.wav,"[[  0.          73.71968657]
 [  0.1        -59.85317413]
 [  0.2         71.1426587 ]
 [  0.3        -18.50007061]
 [  0.32341667 -65.91143137]]","[[0.         0.30552726]
 [0.1        1.31636279]
 [0.2        0.54925413]
 [0.3        1.26204455]
 [0.32341667 0.60528556]]",1,0.434
8749218289,f,19,french,4,5,french,2024-01-25 10:40:30.095649,False,1,236,sounds\english\audio/english_436.wav,"[[  0.          58.73131257]
 [  0.1         65.29204538]
 [  0.2          7.63213906]
 [  0.3         -2.54756362]
 [  0.32341667 -11.40614268]]","[[0.         0.30497449]
 [0.1        1.04665744]
 [0.2        1.03883923]
 [0.3        0.97345352]
 [0.32341667 0.16121918]]",1,0.335
8749218289,f,19,french,4,5,french,2024-01-25 10:40:30.095649,False,1,237,sounds\english\audio/english_70.wav,"[[  0.         -53.09237622]
 [  0.1         85.97526897]
 [  0.2         25.5645184 ]
 [  0.3          1.25172137]
 [  0.32341667  93.59431896]]","[[0.         1.21678364]
 [0.1        0.94111324]
 [0.2        1.03926055]
 [0.3        0.29519406]
 [0.32341667 0.80175783]]",1,0.603
8749218289,f,19,french,4,5,french,2024-01-25 10:40:30.095649,False,1,238,sounds\english\audio/english_987.wav,"[[  0.          91.33137772]
 [  0.1        -39.20299527]
 [  0.2         78.9852337 ]
 [  0.3        -94.66209845]
 [  0.32341667 -71.76730894]]","[[0.         1.82656395]
 [0.1        1.12122948]
 [0.2        1.12025045]
 [0.3        1.02557261]
 [0.32341667 1.06580695]]",1,0.894
8749218289,f,19,french,4,5,french,2024-01-25 10:40:30.095649,False,1,239,sounds\english\audio/english_848.wav,"[[  0.          43.30233352]
 [  0.1        -77.77691247]
 [  0.2        -68.99020863]
 [  0.3        -43.68641023]
 [  0.32341667 -14.19502025]]","[[0.         0.12582596]
 [0.1        1.72621372]
 [0.2        1.753656  ]
 [0.3        1.37442753]
 [0.32341667 1.04930351]]",1,1.578
8749218289,f,19,french,4,5,french,2024-01-25 10:40:30.095649,False,1,240,sounds\english\audio/english_420.wav,"[[  0.         -56.31893026]
 [  0.1         66.6522923 ]
 [  0.2          2.15493058]
 [  0.3        -23.51601285]
 [  0.32341667  22.32226467]]","[[0.         0.25307214]
 [0.1        1.93095887]
 [0.2        0.49520396]
 [0.3        1.55970731]
 [0.32341667 0.71957325]]",1,0.912
8749218289,f,19,french,4,5,french,2024-01-25 10:40:30.095649,False,1,241,sounds\english\audio/english_701.wav,"[[ 0.         87.15265727]
 [ 0.1        38.39882515]
 [ 0.2        64.60201562]
 [ 0.3        12.58613119]
 [ 0.32341667 46.94968762]]","[[0.         1.41120649]
 [0.1        0.44004622]
 [0.2        1.15462264]
 [0.3        1.17454355]
 [0.32341667 1.38716818]]",1,0.71
8749218289,f,19,french,4,5,french,2024-01-25 10:40:30.095649,False,1,242,sounds\english\audio/english_601.wav,"[[  0.          54.32401431]
 [  0.1         -6.72935942]
 [  0.2         39.12079493]
 [  0.3         39.92141387]
 [  0.32341667 -27.14681087]]","[[0.         0.08668951]
 [0.1        1.16468766]
 [0.2        1.8612572 ]
 [0.3        0.92171433]
 [0.32341667 0.50419734]]",1,0.642
8749218289,f,19,french,4,5,french,2024-01-25 10:40:30.095649,False,1,243,sounds\english\audio/english_233.wav,"[[  0.          -3.83672366]
 [  0.1        -39.8423846 ]
 [  0.2         85.69163348]
 [  0.3         40.61484277]
 [  0.32341667 -44.9800047 ]]","[[0.         0.89757337]
 [0.1        0.76715273]
 [0.2        1.38961473]
 [0.3        0.78787282]
 [0.32341667 0.48224738]]",1,0.505
8749218289,f,19,french,4,5,french,2024-01-25 10:40:30.095649,False,1,244,sounds\english\audio/english_913.wav,"[[  0.          27.9375346 ]
 [  0.1         41.67879689]
 [  0.2        -50.96955224]
 [  0.3         93.1868058 ]
 [  0.32341667  83.79752677]]","[[0.         0.72243167]
 [0.1        1.59129257]
 [0.2        1.19382874]
 [0.3        0.86840853]
 [0.32341667 0.21021697]]",1,0.283
8749218289,f,19,french,4,5,french,2024-01-25 10:40:30.095649,False,1,245,sounds\english\audio/english_981.wav,"[[  0.         -19.49446297]
 [  0.1        -69.0386812 ]
 [  0.2        -25.77088537]
 [  0.3         65.67633712]
 [  0.32341667  -6.1640169 ]]","[[0.         1.96452006]
 [0.1        1.2006287 ]
 [0.2        0.98600753]
 [0.3        0.21362544]
 [0.32341667 0.33780549]]",1,0.571
8749218289,f,19,french,4,5,french,2024-01-25 10:40:30.095649,False,1,246,sounds\english\audio/english_914.wav,"[[  0.          37.51857345]
 [  0.1        -30.53068311]
 [  0.2        -12.980452  ]
 [  0.3        -99.09260462]
 [  0.32341667 -34.91402533]]","[[0.         0.04486829]
 [0.1        1.18486584]
 [0.2        1.58356311]
 [0.3        1.35478251]
 [0.32341667 1.16671671]]",1,0.74
8749218289,f,19,french,4,5,french,2024-01-25 10:40:30.095649,False,1,247,sounds\english\audio/english_74.wav,"[[  0.          86.29588785]
 [  0.1        -14.52381687]
 [  0.2         77.94321906]
 [  0.3        -32.33104188]
 [  0.32341667   9.46602754]]","[[0.         1.196208  ]
 [0.1        1.63208143]
 [0.2        0.46125368]
 [0.3        1.38278461]
 [0.32341667 0.83147108]]",1,0.543
8749218289,f,19,french,4,5,french,2024-01-25 10:40:30.095649,False,1,248,sounds\english\audio/english_678.wav,"[[  0.          87.86222938]
 [  0.1        -47.14792626]
 [  0.2         -6.84659798]
 [  0.3         87.67045201]
 [  0.32341667 -51.71213936]]","[[0.         1.6760541 ]
 [0.1        0.22369522]
 [0.2        1.1260271 ]
 [0.3        1.53941447]
 [0.32341667 1.37136581]]",1,0.783
8749218289,f,19,french,4,5,french,2024-01-25 10:40:30.095649,False,1,249,sounds\english\audio/english_478.wav,"[[  0.         -70.9954821 ]
 [  0.1         18.763036  ]
 [  0.2         84.30682023]
 [  0.3         96.70790152]
 [  0.32341667 -65.75430749]]","[[0.         0.91489342]
 [0.1        1.0325944 ]
 [0.2        1.47139294]
 [0.3        0.31719256]
 [0.32341667 1.1469235 ]]",1,0.847
8749218289,f,19,french,4,5,french,2024-01-25 10:40:30.095649,False,1,250,sounds\english\audio/english_502.wav,"[[  0.         -23.73065935]
 [  0.1          2.70754613]
 [  0.2         25.650451  ]
 [  0.3        -49.55254658]
 [  0.32341667  16.82642172]]","[[0.         0.0797034 ]
 [0.1        1.83600464]
 [0.2        1.48948742]
 [0.3        1.22465236]
 [0.32341667 1.41984075]]",1,1.052
8749218289,f,19,french,4,5,french,2024-01-25 10:40:30.095649,False,1,251,sounds\english\audio/english_582.wav,"[[  0.         -29.81423477]
 [  0.1         37.42565533]
 [  0.2         79.58894888]
 [  0.3         49.55779855]
 [  0.32341667  54.00509918]]","[[0.         0.27230029]
 [0.1        0.84765039]
 [0.2        1.99526631]
 [0.3        1.55519667]
 [0.32341667 1.66653349]]",1,0.65
8749218289,f,19,french,4,5,french,2024-01-25 10:40:30.095649,False,1,252,sounds\english\audio/english_242.wav,"[[ 0.         26.44185099]
 [ 0.1        44.29547205]
 [ 0.2        -3.86423299]
 [ 0.3        60.29108386]
 [ 0.32341667 18.66576556]]","[[0.         0.44763058]
 [0.1        1.06541359]
 [0.2        0.64111919]
 [0.3        0.35225786]
 [0.32341667 1.0072971 ]]",1,0.993
