subj,sex,age,language,english,french,native_lang,date,practice,block,trial,stim,pitch,stretch,response,rt
8723415159,f,25,english,4,5,french,2024-02-01 10:33:14.584194,True,0,0,sounds\english\audio/english_562.wav,"[[  0.         -40.22672309]
 [  0.1         77.961849  ]
 [  0.2         25.52463525]
 [  0.3         84.62788358]
 [  0.32341667 -53.67427145]]","[[0.         0.64031882]
 [0.1        0.7637006 ]
 [0.2        0.87632482]
 [0.3        0.98972612]
 [0.32341667 0.74010285]]",1,1.676
8723415159,f,25,english,4,5,french,2024-02-01 10:33:14.584194,True,0,1,sounds\english\audio/english_553.wav,"[[  0.         -18.85071283]
 [  0.1         56.72439372]
 [  0.2        -32.51510613]
 [  0.3        -81.56708954]
 [  0.32341667  42.80590219]]","[[0.         1.30647824]
 [0.1        1.55205535]
 [0.2        1.79127341]
 [0.3        0.1795284 ]
 [0.32341667 0.48805839]]",1,0.363
8723415159,f,25,english,4,5,french,2024-02-01 10:33:14.584194,True,0,2,sounds\english\audio/english_949.wav,"[[  0.          48.32946721]
 [  0.1         73.83586198]
 [  0.2        -30.27812065]
 [  0.3        -32.50397555]
 [  0.32341667  96.46984971]]","[[0.         1.50413289]
 [0.1        1.55745414]
 [0.2        1.00772566]
 [0.3        0.86702054]
 [0.32341667 1.67836019]]",1,0.322
8723415159,f,25,english,4,5,french,2024-02-01 10:33:14.584194,False,1,3,sounds\english\audio/english_530.wav,"[[  0.          21.55057906]
 [  0.1        -20.17265513]
 [  0.2        -52.07974762]
 [  0.3         87.36384387]
 [  0.32341667 -72.92256984]]","[[0.         0.25130805]
 [0.1        0.96020899]
 [0.2        1.55252741]
 [0.3        1.19622655]
 [0.32341667 0.75880724]]",1,1.443
8723415159,f,25,english,4,5,french,2024-02-01 10:33:14.584194,False,1,4,sounds\english\audio/english_98.wav,"[[  0.         -23.07451683]
 [  0.1         58.83766866]
 [  0.2         75.90401246]
 [  0.3        -86.31256295]
 [  0.32341667  26.17624316]]","[[0.         0.55932234]
 [0.1        1.03192869]
 [0.2        1.16154403]
 [0.3        0.50819795]
 [0.32341667 1.94690859]]",0,0.988
8723415159,f,25,english,4,5,french,2024-02-01 10:33:14.584194,False,1,5,sounds\english\audio/english_566.wav,"[[  0.          70.56000247]
 [  0.1         -0.18246418]
 [  0.2        -23.7188651 ]
 [  0.3         12.5469797 ]
 [  0.32341667 -84.37997634]]","[[0.         1.04698608]
 [0.1        1.13826263]
 [0.2        1.91259561]
 [0.3        1.08561121]
 [0.32341667 1.98926692]]",1,0.442
8723415159,f,25,english,4,5,french,2024-02-01 10:33:14.584194,False,1,6,sounds\english\audio/english_568.wav,"[[  0.         -80.38325009]
 [  0.1         65.28340143]
 [  0.2         22.57833022]
 [  0.3        -55.44872251]
 [  0.32341667 -94.3142815 ]]","[[0.         1.52383372]
 [0.1        0.37337456]
 [0.2        0.67023469]
 [0.3        1.98652091]
 [0.32341667 1.15861726]]",1,1.313
8723415159,f,25,english,4,5,french,2024-02-01 10:33:14.584194,False,1,7,sounds\english\audio/english_398.wav,"[[  0.         -72.24204172]
 [  0.1         29.80242672]
 [  0.2        -29.26741326]
 [  0.3         30.68380911]
 [  0.32341667 -23.61694816]]","[[0.         0.50855809]
 [0.1        0.68040596]
 [0.2        1.59063958]
 [0.3        1.71035635]
 [0.32341667 1.737831  ]]",1,0.941
8723415159,f,25,english,4,5,french,2024-02-01 10:33:14.584194,False,1,8,sounds\english\audio/english_481.wav,"[[  0.          -1.07793215]
 [  0.1         72.11929458]
 [  0.2         -0.36002545]
 [  0.3         11.70252104]
 [  0.32341667 -16.16595736]]","[[0.         1.34620279]
 [0.1        0.4682023 ]
 [0.2        1.2575358 ]
 [0.3        1.51306824]
 [0.32341667 1.86086011]]",1,0.588
8723415159,f,25,english,4,5,french,2024-02-01 10:33:14.584194,False,1,9,sounds\english\audio/english_668.wav,"[[ 0.         48.8265236 ]
 [ 0.1        97.68090991]
 [ 0.2        47.50182685]
 [ 0.3        81.7432518 ]
 [ 0.32341667 28.08178094]]","[[0.         0.43768829]
 [0.1        0.31983773]
 [0.2        1.24438546]
 [0.3        0.49120307]
 [0.32341667 0.60639718]]",0,0.849
8723415159,f,25,english,4,5,french,2024-02-01 10:33:14.584194,False,1,10,sounds\english\audio/english_77.wav,"[[  0.         -72.40491727]
 [  0.1          8.82020558]
 [  0.2         89.28229375]
 [  0.3        -14.39120814]
 [  0.32341667   0.18022976]]","[[0.         0.02183184]
 [0.1        1.36505393]
 [0.2        1.34112472]
 [0.3        0.45737201]
 [0.32341667 1.1673494 ]]",0,0.621
8723415159,f,25,english,4,5,french,2024-02-01 10:33:14.584194,False,1,11,sounds\english\audio/english_888.wav,"[[  0.         -75.11317729]
 [  0.1        -15.41916561]
 [  0.2         30.82770832]
 [  0.3         69.72581111]
 [  0.32341667 -21.6620698 ]]","[[0.         0.15619421]
 [0.1        1.45351631]
 [0.2        1.60154734]
 [0.3        1.09787436]
 [0.32341667 1.3760261 ]]",1,0.294
8723415159,f,25,english,4,5,french,2024-02-01 10:33:14.584194,False,1,12,sounds\english\audio/english_286.wav,"[[  0.         -94.9495111 ]
 [  0.1        -25.05656786]
 [  0.2         59.61150177]
 [  0.3        -32.97544875]
 [  0.32341667   7.58095242]]","[[0.         0.49849168]
 [0.1        1.27672914]
 [0.2        0.14515846]
 [0.3        1.67164973]
 [0.32341667 0.86492177]]",1,0.806
8723415159,f,25,english,4,5,french,2024-02-01 10:33:14.584194,False,1,13,sounds\english\audio/english_657.wav,"[[ 0.         30.03208284]
 [ 0.1        -5.57127058]
 [ 0.2         9.55793083]
 [ 0.3         3.39766504]
 [ 0.32341667 84.38659916]]","[[0.         1.42095662]
 [0.1        1.29790323]
 [0.2        0.51612643]
 [0.3        0.37671101]
 [0.32341667 1.20124021]]",1,0.565
8723415159,f,25,english,4,5,french,2024-02-01 10:33:14.584194,False,1,14,sounds\english\audio/english_295.wav,"[[  0.         -76.51454746]
 [  0.1        -96.9380047 ]
 [  0.2        -72.79782389]
 [  0.3        -31.86888898]
 [  0.32341667 -51.47839766]]","[[0.         1.12273409]
 [0.1        0.2018376 ]
 [0.2        1.81703153]
 [0.3        0.31799467]
 [0.32341667 0.71777059]]",1,0.642
8723415159,f,25,english,4,5,french,2024-02-01 10:33:14.584194,False,1,15,sounds\english\audio/english_18.wav,"[[ 0.00000000e+00 -6.19567004e+01]
 [ 1.00000000e-01  3.92027204e+01]
 [ 2.00000000e-01 -6.26834214e-02]
 [ 3.00000000e-01 -7.22820301e+01]
 [ 3.23416667e-01 -5.29459242e+01]]","[[0.         0.45038722]
 [0.1        1.56185221]
 [0.2        0.80652275]
 [0.3        0.39505163]
 [0.32341667 0.50402069]]",1,0.364
8723415159,f,25,english,4,5,french,2024-02-01 10:33:14.584194,False,1,16,sounds\english\audio/english_92.wav,"[[  0.          31.88505953]
 [  0.1         -5.62534355]
 [  0.2        -66.19250112]
 [  0.3        -77.62644198]
 [  0.32341667 -66.61656061]]","[[0.         1.50112375]
 [0.1        0.35596674]
 [0.2        1.12270031]
 [0.3        1.09837269]
 [0.32341667 1.16274455]]",1,0.536
8723415159,f,25,english,4,5,french,2024-02-01 10:33:14.584194,False,1,17,sounds\english\audio/english_280.wav,"[[  0.          88.60957906]
 [  0.1         84.68226706]
 [  0.2        -77.43679957]
 [  0.3         45.11946934]
 [  0.32341667 -36.96988582]]","[[0.         0.0301642 ]
 [0.1        1.61205195]
 [0.2        1.42137195]
 [0.3        1.73240953]
 [0.32341667 0.09602122]]",0,0.487
8723415159,f,25,english,4,5,french,2024-02-01 10:33:14.584194,False,1,18,sounds\english\audio/english_916.wav,"[[  0.         -50.62314768]
 [  0.1        -52.55300278]
 [  0.2         54.298582  ]
 [  0.3        -23.99088857]
 [  0.32341667   4.88948607]]","[[0.         0.5519299 ]
 [0.1        1.16723516]
 [0.2        1.72376738]
 [0.3        0.41493786]
 [0.32341667 1.97918138]]",1,0.341
8723415159,f,25,english,4,5,french,2024-02-01 10:33:14.584194,False,1,19,sounds\english\audio/english_411.wav,"[[  0.          75.357241  ]
 [  0.1        -55.75688593]
 [  0.2         61.10111178]
 [  0.3         90.25367142]
 [  0.32341667  26.85831553]]","[[0.         0.83773649]
 [0.1        0.80885485]
 [0.2        0.61144368]
 [0.3        0.73863407]
 [0.32341667 0.4624235 ]]",0,2.276
8723415159,f,25,english,4,5,french,2024-02-01 10:33:14.584194,False,1,20,sounds\english\audio/english_251.wav,"[[  0.         -35.26640223]
 [  0.1        -82.14936791]
 [  0.2         39.53587687]
 [  0.3        -75.44024907]
 [  0.32341667  26.94148116]]","[[0.         1.59441442]
 [0.1        1.21410308]
 [0.2        0.89125894]
 [0.3        0.14763688]
 [0.32341667 1.71797298]]",1,0.41
8723415159,f,25,english,4,5,french,2024-02-01 10:33:14.584194,False,1,21,sounds\english\audio/english_204.wav,"[[  0.          67.46317025]
 [  0.1         38.91463365]
 [  0.2        -85.28377865]
 [  0.3         55.65505401]
 [  0.32341667  56.32983288]]","[[0.         1.58701212]
 [0.1        1.82178317]
 [0.2        1.60361911]
 [0.3        0.21823774]
 [0.32341667 0.04661671]]",1,0.47
8723415159,f,25,english,4,5,french,2024-02-01 10:33:14.584194,False,1,22,sounds\english\audio/english_419.wav,"[[  0.          74.10926047]
 [  0.1        -50.44969368]
 [  0.2        -38.37630765]
 [  0.3        -57.54140712]
 [  0.32341667  48.12555486]]","[[0.00000000e+00 4.23980314e-01]
 [1.00000000e-01 1.12483838e+00]
 [2.00000000e-01 4.73465541e-01]
 [3.00000000e-01 8.38613621e-04]
 [3.23416667e-01 3.89285402e-01]]",0,1.262
8723415159,f,25,english,4,5,french,2024-02-01 10:33:14.584194,False,1,23,sounds\english\audio/english_628.wav,"[[  0.         -19.71295886]
 [  0.1        -79.294697  ]
 [  0.2        -59.93256946]
 [  0.3        -18.46863719]
 [  0.32341667  53.30350975]]","[[0.         0.8960583 ]
 [0.1        1.61949508]
 [0.2        0.65483299]
 [0.3        0.12001531]
 [0.32341667 0.85308449]]",1,0.478
8723415159,f,25,english,4,5,french,2024-02-01 10:33:14.584194,False,1,24,sounds\english\audio/english_807.wav,"[[  0.         -70.27095807]
 [  0.1         84.77391363]
 [  0.2        -27.52537388]
 [  0.3         36.82986288]
 [  0.32341667  16.63983573]]","[[0.         1.48455572]
 [0.1        1.24837561]
 [0.2        0.77726095]
 [0.3        1.65388598]
 [0.32341667 1.10343216]]",1,0.56
8723415159,f,25,english,4,5,french,2024-02-01 10:33:14.584194,False,1,25,sounds\english\audio/english_365.wav,"[[  0.          58.11205919]
 [  0.1        -61.04014877]
 [  0.2         12.43042802]
 [  0.3         17.00746388]
 [  0.32341667 -69.10644956]]","[[0.         0.53708026]
 [0.1        1.10456153]
 [0.2        1.31731937]
 [0.3        1.02387946]
 [0.32341667 1.31633463]]",1,0.467
8723415159,f,25,english,4,5,french,2024-02-01 10:33:14.584194,False,1,26,sounds\english\audio/english_986.wav,"[[  0.          36.93997263]
 [  0.1        -76.80061303]
 [  0.2         60.8418497 ]
 [  0.3        -27.90828951]
 [  0.32341667  99.51838141]]","[[0.         1.7539978 ]
 [0.1        1.40735445]
 [0.2        0.62226098]
 [0.3        0.48175931]
 [0.32341667 1.5918282 ]]",1,0.398
8723415159,f,25,english,4,5,french,2024-02-01 10:33:14.584194,False,1,27,sounds\english\audio/english_783.wav,"[[ 0.         23.05268069]
 [ 0.1         9.36005369]
 [ 0.2        62.81522218]
 [ 0.3        67.71456376]
 [ 0.32341667 77.96788237]]","[[0.         1.49549247]
 [0.1        0.13797177]
 [0.2        1.80236654]
 [0.3        0.33800471]
 [0.32341667 1.97708045]]",1,0.724
8723415159,f,25,english,4,5,french,2024-02-01 10:33:14.584194,False,1,28,sounds\english\audio/english_836.wav,"[[  0.          34.85846782]
 [  0.1         41.54458908]
 [  0.2         23.27363575]
 [  0.3         86.83996211]
 [  0.32341667 -32.25656931]]","[[0.         1.04017402]
 [0.1        0.35535359]
 [0.2        0.10471693]
 [0.3        0.55523491]
 [0.32341667 0.70311776]]",1,1.537
8723415159,f,25,english,4,5,french,2024-02-01 10:33:14.584194,False,1,29,sounds\english\audio/english_877.wav,"[[  0.          49.36401037]
 [  0.1         15.17280231]
 [  0.2         22.36436744]
 [  0.3        -25.51979868]
 [  0.32341667 -55.72443313]]","[[0.         1.25510861]
 [0.1        0.84700305]
 [0.2        0.32703774]
 [0.3        1.72637958]
 [0.32341667 0.52117686]]",1,0.481
8723415159,f,25,english,4,5,french,2024-02-01 10:33:14.584194,False,1,30,sounds\english\audio/english_603.wav,"[[  0.         -14.17444723]
 [  0.1         -4.64921339]
 [  0.2        -23.32469505]
 [  0.3        -59.01260874]
 [  0.32341667  88.53711532]]","[[0.         1.28295305]
 [0.1        0.35920956]
 [0.2        0.60281559]
 [0.3        0.58107079]
 [0.32341667 1.19087365]]",1,0.876
8723415159,f,25,english,4,5,french,2024-02-01 10:33:14.584194,False,1,31,sounds\english\audio/english_954.wav,"[[  0.         -31.7323473 ]
 [  0.1         26.42807939]
 [  0.2         22.25968883]
 [  0.3        -25.30270181]
 [  0.32341667  46.97185243]]","[[0.         1.78985335]
 [0.1        1.38754521]
 [0.2        1.54917493]
 [0.3        1.54718362]
 [0.32341667 0.09638929]]",1,0.344
8723415159,f,25,english,4,5,french,2024-02-01 10:33:14.584194,False,1,32,sounds\english\audio/english_401.wav,"[[  0.         -70.37998858]
 [  0.1         49.27188779]
 [  0.2          5.09566389]
 [  0.3         58.42368176]
 [  0.32341667 -43.06407799]]","[[0.         1.11338134]
 [0.1        1.59691292]
 [0.2        0.88679935]
 [0.3        1.89749174]
 [0.32341667 1.35831765]]",1,0.395
8723415159,f,25,english,4,5,french,2024-02-01 10:33:14.584194,False,1,33,sounds\english\audio/english_912.wav,"[[  0.         -43.64864707]
 [  0.1         94.54433808]
 [  0.2         67.98324072]
 [  0.3          9.27329172]
 [  0.32341667 -55.44973818]]","[[0.         0.87210048]
 [0.1        1.43243955]
 [0.2        1.49899487]
 [0.3        0.42663795]
 [0.32341667 0.19299009]]",1,0.502
8723415159,f,25,english,4,5,french,2024-02-01 10:33:14.584194,False,1,34,sounds\english\audio/english_452.wav,"[[  0.         -15.91859121]
 [  0.1         66.54493607]
 [  0.2         49.2405228 ]
 [  0.3         -8.75382859]
 [  0.32341667 -35.51952716]]","[[0.         0.16050204]
 [0.1        1.05820221]
 [0.2        1.42476674]
 [0.3        0.48128336]
 [0.32341667 0.52453318]]",0,0.719
8723415159,f,25,english,4,5,french,2024-02-01 10:33:14.584194,False,1,35,sounds\english\audio/english_752.wav,"[[  0.         -89.50526135]
 [  0.1         16.42916277]
 [  0.2        -62.11724863]
 [  0.3        -22.7839786 ]
 [  0.32341667  21.77934146]]","[[0.         1.26833375]
 [0.1        1.25445964]
 [0.2        1.84048801]
 [0.3        0.96813738]
 [0.32341667 1.95604557]]",1,0.308
8723415159,f,25,english,4,5,french,2024-02-01 10:33:14.584194,False,1,36,sounds\english\audio/english_687.wav,"[[  0.          86.90300909]
 [  0.1         79.71843279]
 [  0.2         34.94433723]
 [  0.3        -45.53952821]
 [  0.32341667  63.0204093 ]]","[[0.         0.475784  ]
 [0.1        0.40603367]
 [0.2        0.97706088]
 [0.3        0.65075382]
 [0.32341667 0.93918167]]",0,0.783
8723415159,f,25,english,4,5,french,2024-02-01 10:33:14.584194,False,1,37,sounds\english\audio/english_676.wav,"[[  0.           3.93099148]
 [  0.1         73.76311644]
 [  0.2        -26.92634129]
 [  0.3         51.70874443]
 [  0.32341667 -48.7675791 ]]","[[0.         1.7716209 ]
 [0.1        1.97281878]
 [0.2        1.42487848]
 [0.3        1.45099775]
 [0.32341667 1.84822532]]",1,0.138
8723415159,f,25,english,4,5,french,2024-02-01 10:33:14.584194,False,1,38,sounds\english\audio/english_919.wav,"[[  0.         -78.03270024]
 [  0.1         24.9634274 ]
 [  0.2        -36.24618286]
 [  0.3        -67.38261266]
 [  0.32341667  86.21803917]]","[[0.         1.18744007]
 [0.1        0.32639994]
 [0.2        1.14830442]
 [0.3        0.75322619]
 [0.32341667 0.69239757]]",1,0.72
8723415159,f,25,english,4,5,french,2024-02-01 10:33:14.584194,False,1,39,sounds\english\audio/english_122.wav,"[[  0.          64.29837997]
 [  0.1         -6.72103776]
 [  0.2         34.67911304]
 [  0.3         25.29178735]
 [  0.32341667 -20.34954259]]","[[0.         0.06121643]
 [0.1        1.56183773]
 [0.2        1.3577209 ]
 [0.3        0.94012362]
 [0.32341667 1.04570986]]",0,0.325
8723415159,f,25,english,4,5,french,2024-02-01 10:33:14.584194,False,1,40,sounds\english\audio/english_843.wav,"[[  0.         -34.38568909]
 [  0.1         91.48235516]
 [  0.2         45.43581208]
 [  0.3         47.04005582]
 [  0.32341667  30.80916685]]","[[0.         1.38988397]
 [0.1        0.61638546]
 [0.2        1.5800421 ]
 [0.3        1.07327256]
 [0.32341667 0.46994626]]",1,0.36
8723415159,f,25,english,4,5,french,2024-02-01 10:33:14.584194,False,1,41,sounds\english\audio/english_169.wav,"[[  0.          21.52556644]
 [  0.1        -62.21960884]
 [  0.2        -58.58818316]
 [  0.3         14.95103608]
 [  0.32341667  21.70814087]]","[[0.         0.24747868]
 [0.1        0.51530303]
 [0.2        1.14352058]
 [0.3        1.46694059]
 [0.32341667 1.67980684]]",0,0.676
8723415159,f,25,english,4,5,french,2024-02-01 10:33:14.584194,False,1,42,sounds\english\audio/english_230.wav,"[[  0.          59.01519707]
 [  0.1        -74.67447784]
 [  0.2         78.11378701]
 [  0.3         26.79367619]
 [  0.32341667  29.92451654]]","[[0.         0.66464778]
 [0.1        1.09498554]
 [0.2        0.24708562]
 [0.3        1.40152246]
 [0.32341667 1.02203861]]",1,0.506
8723415159,f,25,english,4,5,french,2024-02-01 10:33:14.584194,False,1,43,sounds\english\audio/english_113.wav,"[[  0.           8.7952765 ]
 [  0.1         91.94692023]
 [  0.2         -6.68088057]
 [  0.3         38.28142065]
 [  0.32341667 -37.19939988]]","[[0.         0.51001639]
 [0.1        1.45766025]
 [0.2        1.25674442]
 [0.3        1.93213547]
 [0.32341667 0.45590133]]",1,0.42
8723415159,f,25,english,4,5,french,2024-02-01 10:33:14.584194,False,1,44,sounds\english\audio/english_818.wav,"[[  0.          88.49542613]
 [  0.1         -7.37005163]
 [  0.2         -1.58613611]
 [  0.3        -69.41222379]
 [  0.32341667  14.01707612]]","[[0.         1.4873036 ]
 [0.1        1.25102077]
 [0.2        0.80764036]
 [0.3        0.80656775]
 [0.32341667 1.41859799]]",1,0.426
8723415159,f,25,english,4,5,french,2024-02-01 10:33:14.584194,False,1,45,sounds\english\audio/english_697.wav,"[[ 0.00000000e+00  3.48877197e+01]
 [ 1.00000000e-01 -1.29750448e-02]
 [ 2.00000000e-01  4.88877829e+01]
 [ 3.00000000e-01  6.85745634e+01]
 [ 3.23416667e-01  1.89536775e+01]]","[[0.         0.10761674]
 [0.1        0.88035305]
 [0.2        0.12183403]
 [0.3        0.55306263]
 [0.32341667 1.83833688]]",0,0.774
8723415159,f,25,english,4,5,french,2024-02-01 10:33:14.584194,False,1,46,sounds\english\audio/english_68.wav,"[[  0.         -23.38152803]
 [  0.1        -36.0918901 ]
 [  0.2         65.46592862]
 [  0.3         48.57602628]
 [  0.32341667 -93.64245591]]","[[0.         1.83565324]
 [0.1        0.35162477]
 [0.2        1.10705723]
 [0.3        1.09550925]
 [0.32341667 0.05753383]]",1,0.287
8723415159,f,25,english,4,5,french,2024-02-01 10:33:14.584194,False,1,47,sounds\english\audio/english_905.wav,"[[  0.          73.76258642]
 [  0.1         49.84186991]
 [  0.2        -84.55275191]
 [  0.3         70.45460649]
 [  0.32341667 -84.87734561]]","[[0.         1.30259847]
 [0.1        0.15786419]
 [0.2        0.47562292]
 [0.3        1.69272047]
 [0.32341667 1.28570309]]",1,0.511
8723415159,f,25,english,4,5,french,2024-02-01 10:33:14.584194,False,1,48,sounds\english\audio/english_661.wav,"[[  0.          14.15805194]
 [  0.1        -77.97020538]
 [  0.2        -31.78835068]
 [  0.3          1.84085651]
 [  0.32341667  31.49677972]]","[[0.         1.06290545]
 [0.1        1.12952287]
 [0.2        1.47556517]
 [0.3        0.41137052]
 [0.32341667 1.48872703]]",1,0.269
8723415159,f,25,english,4,5,french,2024-02-01 10:33:14.584194,False,1,49,sounds\english\audio/english_478.wav,"[[  0.         -70.9954821 ]
 [  0.1         18.763036  ]
 [  0.2         84.30682023]
 [  0.3         96.70790152]
 [  0.32341667 -65.75430749]]","[[0.         0.91489342]
 [0.1        1.0325944 ]
 [0.2        1.47139294]
 [0.3        0.31719256]
 [0.32341667 1.1469235 ]]",1,0.332
8723415159,f,25,english,4,5,french,2024-02-01 10:33:14.584194,False,1,50,sounds\english\audio/english_312.wav,"[[  0.          44.01610098]
 [  0.1        -34.76139374]
 [  0.2        -43.47986862]
 [  0.3         -9.79517271]
 [  0.32341667  85.48914895]]","[[0.         1.36033213]
 [0.1        0.08557756]
 [0.2        1.06509633]
 [0.3        0.67257935]
 [0.32341667 0.12614926]]",1,0.789
8723415159,f,25,english,4,5,french,2024-02-01 10:33:14.584194,False,1,51,sounds\english\audio/english_52.wav,"[[  0.          54.63859099]
 [  0.1        -85.67195477]
 [  0.2          2.4878885 ]
 [  0.3         86.13143505]
 [  0.32341667 -53.30399902]]","[[0.         0.91426261]
 [0.1        1.20728413]
 [0.2        0.71733995]
 [0.3        1.54149443]
 [0.32341667 1.3376245 ]]",1,0.266
8723415159,f,25,english,4,5,french,2024-02-01 10:33:14.584194,False,1,52,sounds\english\audio/english_229.wav,"[[  0.          51.56916705]
 [  0.1        -51.28327497]
 [  0.2         97.78221202]
 [  0.3        -75.98126047]
 [  0.32341667 -44.05308002]]","[[0.         1.25898044]
 [0.1        0.34588319]
 [0.2        1.91985924]
 [0.3        0.82059623]
 [0.32341667 1.38191391]]",1,0.487
8723415159,f,25,english,4,5,french,2024-02-01 10:33:14.584194,False,1,53,sounds\english\audio/english_390.wav,"[[  0.         -50.40750922]
 [  0.1        -38.67641955]
 [  0.2        -37.03459725]
 [  0.3        -24.07335547]
 [  0.32341667  75.09366884]]","[[0.         1.41643644]
 [0.1        0.84399933]
 [0.2        1.67796426]
 [0.3        0.43781117]
 [0.32341667 0.01225463]]",1,0.315
8723415159,f,25,english,4,5,french,2024-02-01 10:33:14.584194,False,1,54,sounds\english\audio/english_271.wav,"[[  0.          24.41564841]
 [  0.1        -64.42577909]
 [  0.2         32.27025317]
 [  0.3         58.71212772]
 [  0.32341667  46.7300547 ]]","[[0.         0.25667552]
 [0.1        1.20221217]
 [0.2        0.24658485]
 [0.3        1.57844265]
 [0.32341667 1.00400066]]",0,0.589
8723415159,f,25,english,4,5,french,2024-02-01 10:33:14.584194,False,1,55,sounds\english\audio/english_945.wav,"[[  0.          63.16075011]
 [  0.1         87.55520176]
 [  0.2        -69.60467193]
 [  0.3        -69.25530384]
 [  0.32341667 -47.64160087]]","[[0.         1.8314946 ]
 [0.1        1.3737613 ]
 [0.2        0.61639792]
 [0.3        1.67239747]
 [0.32341667 1.88344595]]",1,0.138
8723415159,f,25,english,4,5,french,2024-02-01 10:33:14.584194,False,1,56,sounds\english\audio/english_145.wav,"[[  0.         -29.75830226]
 [  0.1          0.94664025]
 [  0.2        -55.39340023]
 [  0.3        -49.58722608]
 [  0.32341667 -83.35110665]]","[[0.         1.9441914 ]
 [0.1        0.04744273]
 [0.2        1.27144901]
 [0.3        0.20842421]
 [0.32341667 0.85478836]]",1,0.478
8723415159,f,25,english,4,5,french,2024-02-01 10:33:14.584194,False,1,57,sounds\english\audio/english_576.wav,"[[  0.          70.71636046]
 [  0.1        -53.10414049]
 [  0.2         34.4374047 ]
 [  0.3         19.64113521]
 [  0.32341667  36.63265498]]","[[0.         1.40655209]
 [0.1        0.7609351 ]
 [0.2        1.0155723 ]
 [0.3        1.45906276]
 [0.32341667 1.49724695]]",1,0.325
8723415159,f,25,english,4,5,french,2024-02-01 10:33:14.584194,False,1,58,sounds\english\audio/english_715.wav,"[[  0.         -64.21420564]
 [  0.1         77.40813629]
 [  0.2        -98.26791609]
 [  0.3        -32.66334796]
 [  0.32341667  93.12500574]]","[[0.         1.80154013]
 [0.1        0.51096517]
 [0.2        0.49870215]
 [0.3        0.64344691]
 [0.32341667 1.17662216]]",1,0.348
8723415159,f,25,english,4,5,french,2024-02-01 10:33:14.584194,False,1,59,sounds\english\audio/english_680.wav,"[[  0.          93.24972168]
 [  0.1         21.55707386]
 [  0.2        -58.84044748]
 [  0.3        -13.55367876]
 [  0.32341667  17.98073729]]","[[0.         1.89994278]
 [0.1        1.06559033]
 [0.2        0.79606997]
 [0.3        0.35899559]
 [0.32341667 1.50925573]]",1,0.297
8723415159,f,25,english,4,5,french,2024-02-01 10:33:14.584194,False,1,60,sounds\english\audio/english_116.wav,"[[  0.          47.3382154 ]
 [  0.1        -82.57412589]
 [  0.2         24.81754674]
 [  0.3         61.93416492]
 [  0.32341667 -97.8286579 ]]","[[0.         1.30986561]
 [0.1        0.36649927]
 [0.2        1.53598436]
 [0.3        1.65694634]
 [0.32341667 0.40343631]]",1,0.651
8723415159,f,25,english,4,5,french,2024-02-01 10:33:14.584194,False,1,61,sounds\english\audio/english_763.wav,"[[ 0.         64.63144232]
 [ 0.1         8.86346429]
 [ 0.2        32.79569159]
 [ 0.3        10.55051177]
 [ 0.32341667  6.38738619]]","[[0.         0.7800836 ]
 [0.1        1.26656169]
 [0.2        1.93170043]
 [0.3        0.29422641]
 [0.32341667 1.43860225]]",1,0.24
8723415159,f,25,english,4,5,french,2024-02-01 10:33:14.584194,False,1,62,sounds\english\audio/english_397.wav,"[[  0.          89.67962381]
 [  0.1        -80.29722345]
 [  0.2         60.53564011]
 [  0.3          9.94565725]
 [  0.32341667   0.1319882 ]]","[[0.         0.42719638]
 [0.1        0.89466904]
 [0.2        0.56174568]
 [0.3        0.1553242 ]
 [0.32341667 1.89079641]]",0,1.1
8723415159,f,25,english,4,5,french,2024-02-01 10:33:14.584194,False,1,63,sounds\english\audio/english_461.wav,"[[  0.         -99.86661298]
 [  0.1         65.11959058]
 [  0.2        -96.19635976]
 [  0.3         56.69155656]
 [  0.32341667 -82.13106063]]","[[0.         0.04975834]
 [0.1        1.27856071]
 [0.2        1.53618081]
 [0.3        1.97602464]
 [0.32341667 1.41647384]]",1,0.137
8723415159,f,25,english,4,5,french,2024-02-01 10:33:14.584194,False,1,64,sounds\english\audio/english_972.wav,"[[  0.         -87.82800068]
 [  0.1        -25.45661385]
 [  0.2          2.95853851]
 [  0.3         84.61583696]
 [  0.32341667  42.95706616]]","[[0.         1.28286493]
 [0.1        0.89058027]
 [0.2        1.4716374 ]
 [0.3        0.6386035 ]
 [0.32341667 1.51056083]]",1,0.156
8723415159,f,25,english,4,5,french,2024-02-01 10:33:14.584194,False,1,65,sounds\english\audio/english_72.wav,"[[  0.           3.79788214]
 [  0.1        -35.73428138]
 [  0.2        -30.83181688]
 [  0.3        -68.4260973 ]
 [  0.32341667 -10.87667298]]","[[0.         1.04175162]
 [0.1        0.91099175]
 [0.2        0.34322307]
 [0.3        1.39599539]
 [0.32341667 0.78322702]]",1,0.718
8723415159,f,25,english,4,5,french,2024-02-01 10:33:14.584194,False,1,66,sounds\english\audio/english_294.wav,"[[  0.         -92.15775888]
 [  0.1         71.96645866]
 [  0.2        -25.46852775]
 [  0.3         17.21488016]
 [  0.32341667 -10.41176069]]","[[0.         0.74816787]
 [0.1        1.71916745]
 [0.2        1.7524902 ]
 [0.3        0.9780509 ]
 [0.32341667 1.21177262]]",1,0.278
8723415159,f,25,english,4,5,french,2024-02-01 10:33:14.584194,False,1,67,sounds\english\audio/english_335.wav,"[[  0.           2.73277154]
 [  0.1         -7.1950175 ]
 [  0.2         60.45920583]
 [  0.3        -26.91989021]
 [  0.32341667  -2.30142169]]","[[0.         0.73564724]
 [0.1        0.15546095]
 [0.2        0.90435367]
 [0.3        0.56661996]
 [0.32341667 1.21763394]]",0,0.614
8723415159,f,25,english,4,5,french,2024-02-01 10:33:14.584194,False,1,68,sounds\english\audio/english_843.wav,"[[  0.         -34.38568909]
 [  0.1         91.48235516]
 [  0.2         45.43581208]
 [  0.3         47.04005582]
 [  0.32341667  30.80916685]]","[[0.         1.38988397]
 [0.1        0.61638546]
 [0.2        1.5800421 ]
 [0.3        1.07327256]
 [0.32341667 0.46994626]]",1,0.338
8723415159,f,25,english,4,5,french,2024-02-01 10:33:14.584194,False,1,69,sounds\english\audio/english_299.wav,"[[  0.          -2.55977829]
 [  0.1          1.77446255]
 [  0.2        -18.83457859]
 [  0.3        -71.88845024]
 [  0.32341667  99.76623745]]","[[0.         0.95716625]
 [0.1        1.43363845]
 [0.2        1.1421669 ]
 [0.3        1.57148089]
 [0.32341667 1.70410623]]",1,0.153
8723415159,f,25,english,4,5,french,2024-02-01 10:33:14.584194,False,1,70,sounds\english\audio/english_876.wav,"[[  0.         -20.36884991]
 [  0.1        -12.16725052]
 [  0.2        -26.42868614]
 [  0.3        -15.16942384]
 [  0.32341667 -52.65446315]]","[[0.         0.97958319]
 [0.1        0.93484439]
 [0.2        0.43422731]
 [0.3        0.12359811]
 [0.32341667 1.31629037]]",1,0.622
8723415159,f,25,english,4,5,french,2024-02-01 10:33:14.584194,False,1,71,sounds\english\audio/english_148.wav,"[[  0.         -15.87588743]
 [  0.1         66.05332506]
 [  0.2         50.59551539]
 [  0.3        -59.45276716]
 [  0.32341667  58.4155276 ]]","[[0.         0.13468567]
 [0.1        1.11017862]
 [0.2        0.42983488]
 [0.3        0.2729575 ]
 [0.32341667 0.65396017]]",0,1.439
8723415159,f,25,english,4,5,french,2024-02-01 10:33:14.584194,False,1,72,sounds\english\audio/english_596.wav,"[[  0.          90.29147433]
 [  0.1         12.52853873]
 [  0.2         50.53853174]
 [  0.3        -77.3590695 ]
 [  0.32341667  -1.65440801]]","[[0.         0.88361056]
 [0.1        0.63799557]
 [0.2        0.09787331]
 [0.3        1.15168959]
 [0.32341667 0.06773829]]",0,0.413
8723415159,f,25,english,4,5,french,2024-02-01 10:33:14.584194,False,1,73,sounds\english\audio/english_104.wav,"[[  0.          42.44693926]
 [  0.1         82.22484934]
 [  0.2          7.21737924]
 [  0.3         26.54640215]
 [  0.32341667 -33.4974026 ]]","[[0.         0.1741435 ]
 [0.1        0.11379641]
 [0.2        1.60376175]
 [0.3        1.08059257]
 [0.32341667 1.8061622 ]]",1,0.563
8723415159,f,25,english,4,5,french,2024-02-01 10:33:14.584194,False,1,74,sounds\english\audio/english_931.wav,"[[  0.         -78.99767873]
 [  0.1        -34.67093685]
 [  0.2          2.25144273]
 [  0.3        -93.87287365]
 [  0.32341667  57.8562517 ]]","[[0.         0.72988395]
 [0.1        1.40858855]
 [0.2        1.82787629]
 [0.3        1.51045502]
 [0.32341667 1.42241625]]",1,0.132
8723415159,f,25,english,4,5,french,2024-02-01 10:33:14.584194,False,1,75,sounds\english\audio/english_363.wav,"[[  0.          -8.62246293]
 [  0.1        -37.95317313]
 [  0.2        -98.56362786]
 [  0.3         79.4101663 ]
 [  0.32341667 -19.01593507]]","[[0.         0.22304778]
 [0.1        0.51009023]
 [0.2        1.67320701]
 [0.3        0.32318158]
 [0.32341667 1.23606141]]",0,0.642
8723415159,f,25,english,4,5,french,2024-02-01 10:33:14.584194,False,1,76,sounds\english\audio/english_757.wav,"[[  0.         -71.37581006]
 [  0.1        -34.89028362]
 [  0.2         97.72444176]
 [  0.3          8.64322444]
 [  0.32341667 -59.15215987]]","[[0.         0.57944866]
 [0.1        1.76833087]
 [0.2        0.43040584]
 [0.3        1.84780211]
 [0.32341667 0.21714226]]",1,0.437
8723415159,f,25,english,4,5,french,2024-02-01 10:33:14.584194,False,1,77,sounds\english\audio/english_707.wav,"[[  0.         -17.04120346]
 [  0.1        -57.44917128]
 [  0.2         90.75848643]
 [  0.3         96.79852424]
 [  0.32341667  27.01716591]]","[[0.         1.06535483]
 [0.1        0.89541794]
 [0.2        1.64838001]
 [0.3        0.75431717]
 [0.32341667 0.48082071]]",1,0.231
8723415159,f,25,english,4,5,french,2024-02-01 10:33:14.584194,False,1,78,sounds\english\audio/english_406.wav,"[[  0.          28.09923375]
 [  0.1        -15.10813675]
 [  0.2        -12.43931725]
 [  0.3        -27.33468297]
 [  0.32341667 -62.66931892]]","[[0.         1.43312072]
 [0.1        0.8890381 ]
 [0.2        0.60560557]
 [0.3        1.13565345]
 [0.32341667 1.8467177 ]]",1,0.399
8723415159,f,25,english,4,5,french,2024-02-01 10:33:14.584194,False,1,79,sounds\english\audio/english_622.wav,"[[  0.         -46.49267806]
 [  0.1        -80.07623079]
 [  0.2        -28.70131311]
 [  0.3        -26.89352847]
 [  0.32341667 -24.31243398]]","[[0.         1.425187  ]
 [0.1        0.61910367]
 [0.2        1.30297951]
 [0.3        1.73248838]
 [0.32341667 0.85523545]]",1,0.263
8723415159,f,25,english,4,5,french,2024-02-01 10:33:14.584194,False,1,80,sounds\english\audio/english_450.wav,"[[  0.          32.75253923]
 [  0.1        -95.51335644]
 [  0.2         34.87485597]
 [  0.3        -23.91285283]
 [  0.32341667  -8.67870007]]","[[0.         1.28767958]
 [0.1        1.7262356 ]
 [0.2        0.97567272]
 [0.3        1.94639387]
 [0.32341667 1.78958339]]",1,0.077
8723415159,f,25,english,4,5,french,2024-02-01 10:33:14.584194,False,1,81,sounds\english\audio/english_486.wav,"[[  0.          31.41997184]
 [  0.1         58.03480486]
 [  0.2        -62.84801238]
 [  0.3         10.62451678]
 [  0.32341667  10.31835057]]","[[0.         1.22599644]
 [0.1        1.4547445 ]
 [0.2        0.27967606]
 [0.3        0.02065399]
 [0.32341667 0.3128479 ]]",1,0.24
8723415159,f,25,english,4,5,french,2024-02-01 10:33:14.584194,False,1,82,sounds\english\audio/english_182.wav,"[[  0.          57.43769915]
 [  0.1        -87.06676545]
 [  0.2        -91.52107401]
 [  0.3         52.0843588 ]
 [  0.32341667  18.07264914]]","[[0.         0.89919812]
 [0.1        1.25243937]
 [0.2        1.35021358]
 [0.3        0.52787795]
 [0.32341667 0.72620624]]",1,0.141
8723415159,f,25,english,4,5,french,2024-02-01 10:33:14.584194,False,1,83,sounds\english\audio/english_261.wav,"[[  0.         -19.34212076]
 [  0.1        -90.49371254]
 [  0.2         -2.84874079]
 [  0.3         26.59732755]
 [  0.32341667  39.97770901]]","[[0.         1.20182597]
 [0.1        0.701642  ]
 [0.2        0.72931556]
 [0.3        0.86687176]
 [0.32341667 1.42617677]]",1,0.222
8723415159,f,25,english,4,5,french,2024-02-01 10:33:14.584194,False,1,84,sounds\english\audio/english_553.wav,"[[  0.         -18.85071283]
 [  0.1         56.72439372]
 [  0.2        -32.51510613]
 [  0.3        -81.56708954]
 [  0.32341667  42.80590219]]","[[0.         1.30647824]
 [0.1        1.55205535]
 [0.2        1.79127341]
 [0.3        0.1795284 ]
 [0.32341667 0.48805839]]",1,0.134
8723415159,f,25,english,4,5,french,2024-02-01 10:33:14.584194,False,1,85,sounds\english\audio/english_612.wav,"[[  0.         -84.32217164]
 [  0.1         36.55311424]
 [  0.2         92.38334081]
 [  0.3         11.68953794]
 [  0.32341667  43.3279226 ]]","[[0.         1.34068621]
 [0.1        0.03443149]
 [0.2        0.45903509]
 [0.3        0.60209198]
 [0.32341667 0.29533154]]",1,0.79
8723415159,f,25,english,4,5,french,2024-02-01 10:33:14.584194,False,1,86,sounds\english\audio/english_143.wav,"[[  0.         -40.90047407]
 [  0.1        -35.35291254]
 [  0.2         36.32983964]
 [  0.3         -7.67980486]
 [  0.32341667 -89.59854269]]","[[0.         0.05812512]
 [0.1        0.81203879]
 [0.2        0.61124866]
 [0.3        0.41683772]
 [0.32341667 1.86697452]]",0,0.328
8723415159,f,25,english,4,5,french,2024-02-01 10:33:14.584194,False,1,87,sounds\english\audio/english_985.wav,"[[  0.          31.76144354]
 [  0.1         49.0534069 ]
 [  0.2        -59.14058353]
 [  0.3        -36.25561351]
 [  0.32341667 -53.50268286]]","[[0.         0.46805505]
 [0.1        1.72857245]
 [0.2        0.05336254]
 [0.3        0.45417652]
 [0.32341667 1.33850641]]",1,0.457
8723415159,f,25,english,4,5,french,2024-02-01 10:33:14.584194,False,1,88,sounds\english\audio/english_840.wav,"[[  0.         -27.11425843]
 [  0.1        -47.31494811]
 [  0.2        -88.66887426]
 [  0.3          7.86940595]
 [  0.32341667  87.61758205]]","[[0.         1.31301797]
 [0.1        0.54280133]
 [0.2        0.14090987]
 [0.3        0.11950116]
 [0.32341667 1.48166624]]",1,0.962
8723415159,f,25,english,4,5,french,2024-02-01 10:33:14.584194,False,1,89,sounds\english\audio/english_624.wav,"[[  0.         -66.94889137]
 [  0.1         -6.87427926]
 [  0.2         69.52298075]
 [  0.3        -45.26015132]
 [  0.32341667 -50.37935108]]","[[0.         0.79130031]
 [0.1        1.85178888]
 [0.2        0.79988954]
 [0.3        0.87521033]
 [0.32341667 1.50754026]]",1,0.267
8723415159,f,25,english,4,5,french,2024-02-01 10:33:14.584194,False,1,90,sounds\english\audio/english_823.wav,"[[ 0.         24.6891334 ]
 [ 0.1        86.03794788]
 [ 0.2        45.97308045]
 [ 0.3        39.11596791]
 [ 0.32341667 10.29734006]]","[[0.         1.19409205]
 [0.1        0.72053846]
 [0.2        0.2138623 ]
 [0.3        1.56743943]
 [0.32341667 1.24065623]]",1,1.541
8723415159,f,25,english,4,5,french,2024-02-01 10:33:14.584194,False,1,91,sounds\english\audio/english_444.wav,"[[  0.          57.2872587 ]
 [  0.1         68.85097071]
 [  0.2        -30.10164543]
 [  0.3        -57.0249627 ]
 [  0.32341667 -54.19692118]]","[[0.         0.52242118]
 [0.1        1.61316948]
 [0.2        0.15196309]
 [0.3        0.44426911]
 [0.32341667 1.48693747]]",0,1.112
8723415159,f,25,english,4,5,french,2024-02-01 10:33:14.584194,False,1,92,sounds\english\audio/english_704.wav,"[[  0.         -24.48288207]
 [  0.1         -9.94163531]
 [  0.2         74.85271107]
 [  0.3        -38.44921803]
 [  0.32341667 -21.20994959]]","[[0.         0.92043902]
 [0.1        0.96595902]
 [0.2        1.40327859]
 [0.3        1.07325586]
 [0.32341667 1.87555588]]",1,0.397
8723415159,f,25,english,4,5,french,2024-02-01 10:33:14.584194,False,1,93,sounds\english\audio/english_983.wav,"[[  0.          32.38711768]
 [  0.1        -65.51600844]
 [  0.2         12.03576385]
 [  0.3        -64.14785636]
 [  0.32341667 -72.48499617]]","[[0.         0.79408654]
 [0.1        1.57845546]
 [0.2        1.23356187]
 [0.3        0.65581831]
 [0.32341667 0.27936162]]",1,0.183
8723415159,f,25,english,4,5,french,2024-02-01 10:33:14.584194,False,1,94,sounds\english\audio/english_924.wav,"[[  0.          63.64154058]
 [  0.1        -60.55254199]
 [  0.2        -47.94670646]
 [  0.3        -76.50696127]
 [  0.32341667  44.23103111]]","[[0.         1.83477076]
 [0.1        0.21366754]
 [0.2        1.07859551]
 [0.3        1.9507375 ]
 [0.32341667 1.33476666]]",1,0.641
8723415159,f,25,english,4,5,french,2024-02-01 10:33:14.584194,False,1,95,sounds\english\audio/english_782.wav,"[[  0.         -98.70381677]
 [  0.1        -69.82387258]
 [  0.2         35.26613747]
 [  0.3        -81.38004879]
 [  0.32341667 -61.83067014]]","[[0.         1.47488053]
 [0.1        0.7270016 ]
 [0.2        0.08778447]
 [0.3        1.16903228]
 [0.32341667 0.92727902]]",1,0.558
8723415159,f,25,english,4,5,french,2024-02-01 10:33:14.584194,False,1,96,sounds\english\audio/english_111.wav,"[[  0.          43.12539807]
 [  0.1         63.99665526]
 [  0.2         86.04570556]
 [  0.3        -25.76798659]
 [  0.32341667 -36.14422463]]","[[0.         1.84745579]
 [0.1        0.92577031]
 [0.2        0.31264784]
 [0.3        0.89352032]
 [0.32341667 0.32138535]]",1,0.226
8723415159,f,25,english,4,5,french,2024-02-01 10:33:14.584194,False,1,97,sounds\english\audio/english_387.wav,"[[  0.          14.25538659]
 [  0.1         -5.8057983 ]
 [  0.2         -2.59288607]
 [  0.3         19.33055559]
 [  0.32341667 -85.57173801]]","[[0.         0.59610882]
 [0.1        0.93453474]
 [0.2        1.87880123]
 [0.3        0.79709693]
 [0.32341667 0.90161027]]",1,0.282
8723415159,f,25,english,4,5,french,2024-02-01 10:33:14.584194,False,1,98,sounds\english\audio/english_831.wav,"[[  0.          -7.33710711]
 [  0.1        -87.69782071]
 [  0.2         34.03975531]
 [  0.3         -2.18295653]
 [  0.32341667  20.908766  ]]","[[0.         1.53159971]
 [0.1        1.22669962]
 [0.2        0.70180407]
 [0.3        1.02244347]
 [0.32341667 1.06702443]]",1,0.18
8723415159,f,25,english,4,5,french,2024-02-01 10:33:14.584194,False,1,99,sounds\english\audio/english_773.wav,"[[  0.         -97.46951928]
 [  0.1         85.58858853]
 [  0.2        -54.69649905]
 [  0.3        -97.24656559]
 [  0.32341667  40.28006613]]","[[0.         0.54003315]
 [0.1        1.35505424]
 [0.2        1.09283168]
 [0.3        1.42526307]
 [0.32341667 0.69844725]]",1,0.54
8723415159,f,25,english,4,5,french,2024-02-01 10:33:14.584194,False,1,100,sounds\english\audio/english_717.wav,"[[  0.          11.70361719]
 [  0.1        -43.41962   ]
 [  0.2        -38.6653904 ]
 [  0.3        -38.11833374]
 [  0.32341667  93.29743671]]","[[0.         1.43236824]
 [0.1        0.38419888]
 [0.2        1.88953633]
 [0.3        1.28007762]
 [0.32341667 0.67082429]]",1,0.173
8723415159,f,25,english,4,5,french,2024-02-01 10:33:14.584194,False,1,101,sounds\english\audio/english_140.wav,"[[  0.         -63.97366245]
 [  0.1        -84.90656008]
 [  0.2         93.42782744]
 [  0.3         11.57634117]
 [  0.32341667  80.35905055]]","[[0.         1.49783115]
 [0.1        1.37250299]
 [0.2        0.10650492]
 [0.3        0.84315206]
 [0.32341667 1.26233419]]",1,0.171
8723415159,f,25,english,4,5,french,2024-02-01 10:33:14.584194,False,1,102,sounds\english\audio/english_486.wav,"[[  0.          31.41997184]
 [  0.1         58.03480486]
 [  0.2        -62.84801238]
 [  0.3         10.62451678]
 [  0.32341667  10.31835057]]","[[0.         1.22599644]
 [0.1        1.4547445 ]
 [0.2        0.27967606]
 [0.3        0.02065399]
 [0.32341667 0.3128479 ]]",1,0.275
8723415159,f,25,english,4,5,french,2024-02-01 10:33:14.584194,False,1,103,sounds\english\audio/english_412.wav,"[[  0.         -82.38375592]
 [  0.1        -35.89348303]
 [  0.2        -78.50422887]
 [  0.3          8.19618882]
 [  0.32341667  88.30694734]]","[[0.         0.41347899]
 [0.1        0.05505218]
 [0.2        1.28972039]
 [0.3        0.97331843]
 [0.32341667 0.22558246]]",1,0.576
8723415159,f,25,english,4,5,french,2024-02-01 10:33:14.584194,False,1,104,sounds\english\audio/english_823.wav,"[[ 0.         24.6891334 ]
 [ 0.1        86.03794788]
 [ 0.2        45.97308045]
 [ 0.3        39.11596791]
 [ 0.32341667 10.29734006]]","[[0.         1.19409205]
 [0.1        0.72053846]
 [0.2        0.2138623 ]
 [0.3        1.56743943]
 [0.32341667 1.24065623]]",1,0.702
8723415159,f,25,english,4,5,french,2024-02-01 10:33:14.584194,False,1,105,sounds\english\audio/english_11.wav,"[[  0.         -20.45826732]
 [  0.1        -31.26113472]
 [  0.2         84.03210455]
 [  0.3         30.35463164]
 [  0.32341667 -63.36217442]]","[[0.         1.19869378]
 [0.1        0.2059713 ]
 [0.2        0.62296143]
 [0.3        1.49781179]
 [0.32341667 0.18750748]]",1,0.168
8723415159,f,25,english,4,5,french,2024-02-01 10:33:14.584194,False,1,106,sounds\english\audio/english_866.wav,"[[  0.         -75.90204766]
 [  0.1        -89.66881049]
 [  0.2        -86.78535298]
 [  0.3         50.96369643]
 [  0.32341667  36.94157773]]","[[0.         0.10539101]
 [0.1        1.63294926]
 [0.2        0.21421971]
 [0.3        1.47001367]
 [0.32341667 1.56453662]]",1,0.325
8723415159,f,25,english,4,5,french,2024-02-01 10:33:14.584194,False,1,107,sounds\english\audio/english_966.wav,"[[  0.          23.00954068]
 [  0.1         -2.7733657 ]
 [  0.2         -6.00176123]
 [  0.3        -64.80320904]
 [  0.32341667  94.15296916]]","[[0.         1.02848684]
 [0.1        1.22612364]
 [0.2        0.03461529]
 [0.3        0.22357585]
 [0.32341667 0.55383001]]",1,0.543
8723415159,f,25,english,4,5,french,2024-02-01 10:33:14.584194,False,1,108,sounds\english\audio/english_56.wav,"[[  0.          47.39262259]
 [  0.1          8.89686315]
 [  0.2        -49.65570225]
 [  0.3         44.77904805]
 [  0.32341667 -94.65832844]]","[[0.         1.7837475 ]
 [0.1        1.39740624]
 [0.2        0.11209095]
 [0.3        1.4946119 ]
 [0.32341667 1.03498606]]",1,0.279
8723415159,f,25,english,4,5,french,2024-02-01 10:33:14.584194,False,1,109,sounds\english\audio/english_988.wav,"[[  0.          23.53561789]
 [  0.1         39.09545525]
 [  0.2        -32.2225044 ]
 [  0.3          5.54449519]
 [  0.32341667 -94.58480047]]","[[0.         0.18772999]
 [0.1        0.71537172]
 [0.2        0.50944864]
 [0.3        0.59930705]
 [0.32341667 1.43881296]]",1,0.22
8723415159,f,25,english,4,5,french,2024-02-01 10:33:14.584194,False,1,110,sounds\english\audio/english_339.wav,"[[  0.         -58.67599578]
 [  0.1        -13.30258388]
 [  0.2        -52.40820381]
 [  0.3         11.33062491]
 [  0.32341667   9.6385593 ]]","[[0.         0.13141934]
 [0.1        0.16133177]
 [0.2        1.13500643]
 [0.3        0.98717522]
 [0.32341667 0.10332776]]",1,0.929
8723415159,f,25,english,4,5,french,2024-02-01 10:33:14.584194,False,1,111,sounds\english\audio/english_939.wav,"[[  0.         -23.2558256 ]
 [  0.1        -16.62065377]
 [  0.2        -49.54734698]
 [  0.3         22.82101289]
 [  0.32341667  28.63490654]]","[[0.         0.1774722 ]
 [0.1        0.56271239]
 [0.2        1.42782479]
 [0.3        0.76516147]
 [0.32341667 1.70219777]]",1,0.305
8723415159,f,25,english,4,5,french,2024-02-01 10:33:14.584194,False,1,112,sounds\english\audio/english_527.wav,"[[  0.         -32.70996179]
 [  0.1        -61.96334317]
 [  0.2         86.46317242]
 [  0.3        -18.9429262 ]
 [  0.32341667 -59.75355058]]","[[0.         0.06646481]
 [0.1        1.75268105]
 [0.2        0.41061726]
 [0.3        1.43024268]
 [0.32341667 0.73468543]]",0,0.265
8723415159,f,25,english,4,5,french,2024-02-01 10:33:14.584194,False,1,113,sounds\english\audio/english_910.wav,"[[  0.          -5.78748479]
 [  0.1         25.040103  ]
 [  0.2        -40.66398147]
 [  0.3        -99.21011725]
 [  0.32341667  30.82754841]]","[[0.         0.61840584]
 [0.1        1.20431928]
 [0.2        1.66594732]
 [0.3        0.99007018]
 [0.32341667 0.23705338]]",1,0.168
8723415159,f,25,english,4,5,french,2024-02-01 10:33:14.584194,False,1,114,sounds\english\audio/english_9.wav,"[[  0.          24.77706225]
 [  0.1         91.05524194]
 [  0.2         30.20964975]
 [  0.3        -69.66301283]
 [  0.32341667  -3.83240646]]","[[0.         1.13145128]
 [0.1        1.19326311]
 [0.2        1.50029029]
 [0.3        1.4622179 ]
 [0.32341667 1.9316504 ]]",0,0.264
8723415159,f,25,english,4,5,french,2024-02-01 10:33:14.584194,False,1,115,sounds\english\audio/english_270.wav,"[[  0.         -54.89328754]
 [  0.1        -41.12345733]
 [  0.2         79.03328036]
 [  0.3        -87.71335894]
 [  0.32341667 -48.20373708]]","[[0.         1.02368747]
 [0.1        1.74263534]
 [0.2        0.45342006]
 [0.3        1.29911503]
 [0.32341667 0.95859349]]",1,0.441
8723415159,f,25,english,4,5,french,2024-02-01 10:33:14.584194,False,1,116,sounds\english\audio/english_538.wav,"[[  0.           2.36208538]
 [  0.1         77.85923423]
 [  0.2        -89.1271409 ]
 [  0.3        -18.79772534]
 [  0.32341667  87.62276495]]","[[0.         1.54356298]
 [0.1        0.47597082]
 [0.2        1.27977799]
 [0.3        1.05516459]
 [0.32341667 1.20284762]]",1,0.142
8723415159,f,25,english,4,5,french,2024-02-01 10:33:14.584194,False,1,117,sounds\english\audio/english_431.wav,"[[  0.         -28.91437381]
 [  0.1         30.6479342 ]
 [  0.2         41.25713347]
 [  0.3          9.19018397]
 [  0.32341667 -61.77590044]]","[[0.         1.3282391 ]
 [0.1        1.9405757 ]
 [0.2        1.67607787]
 [0.3        0.62213613]
 [0.32341667 0.50881411]]",1,0.178
8723415159,f,25,english,4,5,french,2024-02-01 10:33:14.584194,False,1,118,sounds\english\audio/english_971.wav,"[[  0.          27.0641734 ]
 [  0.1        -43.13434162]
 [  0.2         83.45364082]
 [  0.3         46.6736971 ]
 [  0.32341667 -28.9166607 ]]","[[0.         0.01013217]
 [0.1        0.95424486]
 [0.2        1.16332163]
 [0.3        0.56494555]
 [0.32341667 0.73596031]]",0,1.18
8723415159,f,25,english,4,5,french,2024-02-01 10:33:14.584194,False,1,119,sounds\english\audio/english_311.wav,"[[  0.         -35.59355899]
 [  0.1        -50.39310557]
 [  0.2        -53.37222601]
 [  0.3         72.25802658]
 [  0.32341667  48.72421008]]","[[0.         0.16094856]
 [0.1        1.33895436]
 [0.2        0.01028283]
 [0.3        0.48497386]
 [0.32341667 0.48591183]]",1,1.651
8723415159,f,25,english,4,5,french,2024-02-01 10:33:14.584194,False,1,120,sounds\english\audio/english_407.wav,"[[  0.         -13.68776922]
 [  0.1        -57.11899702]
 [  0.2         62.94325807]
 [  0.3        -27.77030003]
 [  0.32341667 -61.90605897]]","[[0.         0.77658743]
 [0.1        1.53398674]
 [0.2        0.70379875]
 [0.3        0.72470084]
 [0.32341667 0.771678  ]]",0,1.134
8723415159,f,25,english,4,5,french,2024-02-01 10:33:14.584194,False,1,121,sounds\english\audio/english_135.wav,"[[  0.          92.53632507]
 [  0.1         42.68843281]
 [  0.2         87.27237188]
 [  0.3        -70.62725941]
 [  0.32341667  91.37204548]]","[[0.         0.8813083 ]
 [0.1        1.60503348]
 [0.2        0.22265806]
 [0.3        0.4233462 ]
 [0.32341667 0.99500327]]",0,0.347
8723415159,f,25,english,4,5,french,2024-02-01 10:33:14.584194,False,1,122,sounds\english\audio/english_580.wav,"[[  0.          92.13406767]
 [  0.1        -85.58685866]
 [  0.2         57.10945482]
 [  0.3         32.92004132]
 [  0.32341667  52.08708517]]","[[0.         1.93694744]
 [0.1        0.28773753]
 [0.2        0.86433335]
 [0.3        0.96651265]
 [0.32341667 1.25003658]]",0,0.235
8723415159,f,25,english,4,5,french,2024-02-01 10:33:14.584194,False,1,123,sounds\english\audio/english_286.wav,"[[  0.         -94.9495111 ]
 [  0.1        -25.05656786]
 [  0.2         59.61150177]
 [  0.3        -32.97544875]
 [  0.32341667   7.58095242]]","[[0.         0.49849168]
 [0.1        1.27672914]
 [0.2        0.14515846]
 [0.3        1.67164973]
 [0.32341667 0.86492177]]",0,0.23
8723415159,f,25,english,4,5,french,2024-02-01 10:33:14.584194,False,1,124,sounds\english\audio/english_88.wav,"[[  0.          26.55889683]
 [  0.1         31.00356365]
 [  0.2        -60.56468942]
 [  0.3        -56.53017227]
 [  0.32341667 -78.90279024]]","[[0.         1.3027014 ]
 [0.1        0.67122251]
 [0.2        0.59704477]
 [0.3        1.68194373]
 [0.32341667 0.42277005]]",1,0.535
8723415159,f,25,english,4,5,french,2024-02-01 10:33:14.584194,False,1,125,sounds\english\audio/english_45.wav,"[[  0.          72.55677234]
 [  0.1         34.43244276]
 [  0.2         12.66368291]
 [  0.3         47.17471186]
 [  0.32341667 -48.2883803 ]]","[[0.         0.302627  ]
 [0.1        1.957389  ]
 [0.2        1.1456601 ]
 [0.3        1.77472104]
 [0.32341667 1.7760992 ]]",1,0.187
8723415159,f,25,english,4,5,french,2024-02-01 10:33:14.584194,False,1,126,sounds\english\audio/english_996.wav,"[[  0.         -71.70531914]
 [  0.1        -47.61419544]
 [  0.2         48.0330823 ]
 [  0.3         34.27821317]
 [  0.32341667 -72.4662587 ]]","[[0.         1.36459419]
 [0.1        0.5051745 ]
 [0.2        1.09957376]
 [0.3        0.27950682]
 [0.32341667 0.22836241]]",0,0.697
8723415159,f,25,english,4,5,french,2024-02-01 10:33:14.584194,False,1,127,sounds\english\audio/english_277.wav,"[[  0.          57.10742469]
 [  0.1        -91.86277199]
 [  0.2         15.18492706]
 [  0.3        -70.52173838]
 [  0.32341667  87.41438228]]","[[0.         0.00973607]
 [0.1        0.30409245]
 [0.2        1.04533503]
 [0.3        1.32138987]
 [0.32341667 0.22027268]]",0,2.219
8723415159,f,25,english,4,5,french,2024-02-01 10:33:14.584194,False,1,128,sounds\english\audio/english_55.wav,"[[  0.          71.89255128]
 [  0.1          0.20692224]
 [  0.2        -68.61006599]
 [  0.3         -5.20952515]
 [  0.32341667  28.45991968]]","[[0.         0.24931264]
 [0.1        1.79813092]
 [0.2        0.71729895]
 [0.3        1.28733782]
 [0.32341667 1.77061752]]",1,0.19
8723415159,f,25,english,4,5,french,2024-02-01 10:33:14.584194,False,1,129,sounds\english\audio/english_30.wav,"[[  0.         -18.5398728 ]
 [  0.1        -67.34991207]
 [  0.2         65.54879707]
 [  0.3         30.88088319]
 [  0.32341667  50.60550813]]","[[0.         0.31748681]
 [0.1        1.82477139]
 [0.2        1.59992979]
 [0.3        0.89523729]
 [0.32341667 1.02052202]]",1,0.576
8723415159,f,25,english,4,5,french,2024-02-01 10:33:14.584194,False,1,130,sounds\english\audio/english_670.wav,"[[  0.          64.75672565]
 [  0.1         85.95156369]
 [  0.2        -44.32949438]
 [  0.3         22.57192219]
 [  0.32341667  34.74005277]]","[[0.         1.5535903 ]
 [0.1        0.12522594]
 [0.2        0.22842632]
 [0.3        0.17636502]
 [0.32341667 0.16208776]]",1,0.6
8723415159,f,25,english,4,5,french,2024-02-01 10:33:14.584194,False,1,131,sounds\english\audio/english_601.wav,"[[  0.          54.32401431]
 [  0.1         -6.72935942]
 [  0.2         39.12079493]
 [  0.3         39.92141387]
 [  0.32341667 -27.14681087]]","[[0.         0.08668951]
 [0.1        1.16468766]
 [0.2        1.8612572 ]
 [0.3        0.92171433]
 [0.32341667 0.50419734]]",0,0.235
8723415159,f,25,english,4,5,french,2024-02-01 10:33:14.584194,False,1,132,sounds\english\audio/english_366.wav,"[[  0.          30.08929792]
 [  0.1        -17.9139155 ]
 [  0.2        -66.75779592]
 [  0.3         77.64459909]
 [  0.32341667  72.64294537]]","[[0.         0.87054072]
 [0.1        0.34658018]
 [0.2        0.49970414]
 [0.3        1.94720887]
 [0.32341667 1.76390144]]",1,0.62
8723415159,f,25,english,4,5,french,2024-02-01 10:33:14.584194,False,1,133,sounds\english\audio/english_878.wav,"[[  0.          84.19501339]
 [  0.1         76.71234668]
 [  0.2        -74.61835319]
 [  0.3         83.79758366]
 [  0.32341667 -29.32243698]]","[[0.         0.22676298]
 [0.1        0.28568495]
 [0.2        0.74220819]
 [0.3        1.72755148]
 [0.32341667 1.88938616]]",0,0.434
8723415159,f,25,english,4,5,french,2024-02-01 10:33:14.584194,False,1,134,sounds\english\audio/english_342.wav,"[[  0.          78.00911228]
 [  0.1        -28.67768894]
 [  0.2         73.55618202]
 [  0.3         93.0509223 ]
 [  0.32341667  -2.74816459]]","[[0.         0.99673345]
 [0.1        1.80563483]
 [0.2        1.38552336]
 [0.3        0.17145116]
 [0.32341667 0.15059009]]",1,0.624
8723415159,f,25,english,4,5,french,2024-02-01 10:33:14.584194,False,1,135,sounds\english\audio/english_330.wav,"[[ 0.00000000e+00 -6.60623823e+01]
 [ 1.00000000e-01 -9.07862333e+01]
 [ 2.00000000e-01 -8.10713819e-03]
 [ 3.00000000e-01 -6.12450651e+01]
 [ 3.23416667e-01 -3.44586516e-01]]","[[0.         1.84658225]
 [0.1        0.94726644]
 [0.2        1.52006519]
 [0.3        1.63286843]
 [0.32341667 1.74173618]]",1,4.806
8723415159,f,25,english,4,5,french,2024-02-01 10:33:14.584194,False,1,136,sounds\english\audio/english_134.wav,"[[  0.          70.72156413]
 [  0.1        -64.20531103]
 [  0.2         35.7891913 ]
 [  0.3        -77.33475241]
 [  0.32341667  85.6978336 ]]","[[0.         1.84700732]
 [0.1        1.20878884]
 [0.2        0.51924654]
 [0.3        1.95615398]
 [0.32341667 1.72102519]]",1,0.32
8723415159,f,25,english,4,5,french,2024-02-01 10:33:14.584194,False,1,137,sounds\english\audio/english_284.wav,"[[  0.         -77.15161711]
 [  0.1         80.53955212]
 [  0.2        -73.74967403]
 [  0.3        -47.67008962]
 [  0.32341667  40.40758666]]","[[0.         0.74585549]
 [0.1        0.017077  ]
 [0.2        0.284322  ]
 [0.3        1.04459593]
 [0.32341667 0.8536958 ]]",0,0.778
8723415159,f,25,english,4,5,french,2024-02-01 10:33:14.584194,False,1,138,sounds\english\audio/english_382.wav,"[[  0.         -83.35497559]
 [  0.1          7.83115402]
 [  0.2         77.46115257]
 [  0.3         89.755233  ]
 [  0.32341667 -36.08570956]]","[[0.         1.24516413]
 [0.1        0.59675254]
 [0.2        0.61036026]
 [0.3        1.95554414]
 [0.32341667 1.60845727]]",1,0.112
8723415159,f,25,english,4,5,french,2024-02-01 10:33:14.584194,False,1,139,sounds\english\audio/english_844.wav,"[[  0.         -84.59865618]
 [  0.1          2.74576488]
 [  0.2        -31.14414819]
 [  0.3         59.06244098]
 [  0.32341667  67.61674881]]","[[0.         1.95225136]
 [0.1        1.66072701]
 [0.2        0.05165652]
 [0.3        0.5878804 ]
 [0.32341667 0.72232709]]",1,0.358
8723415159,f,25,english,4,5,french,2024-02-01 10:33:14.584194,False,1,140,sounds\english\audio/english_167.wav,"[[ 0.         57.26975159]
 [ 0.1        54.31010869]
 [ 0.2        99.57020207]
 [ 0.3        27.92735821]
 [ 0.32341667 73.13424206]]","[[0.         0.44729063]
 [0.1        1.623568  ]
 [0.2        0.28743218]
 [0.3        0.71837494]
 [0.32341667 1.35815305]]",1,0.376
8723415159,f,25,english,4,5,french,2024-02-01 10:33:14.584194,False,1,141,sounds\english\audio/english_66.wav,"[[  0.          16.07147303]
 [  0.1         50.76577123]
 [  0.2        -29.1595681 ]
 [  0.3        -80.89120138]
 [  0.32341667  -8.46229461]]","[[0.         1.75051971]
 [0.1        0.02971233]
 [0.2        0.63583886]
 [0.3        1.46734397]
 [0.32341667 1.61280944]]",1,0.595
8723415159,f,25,english,4,5,french,2024-02-01 10:33:14.584194,False,1,142,sounds\english\audio/english_481.wav,"[[  0.          -1.07793215]
 [  0.1         72.11929458]
 [  0.2         -0.36002545]
 [  0.3         11.70252104]
 [  0.32341667 -16.16595736]]","[[0.         1.34620279]
 [0.1        0.4682023 ]
 [0.2        1.2575358 ]
 [0.3        1.51306824]
 [0.32341667 1.86086011]]",0,1.09
8723415159,f,25,english,4,5,french,2024-02-01 10:33:14.584194,False,1,143,sounds\english\audio/english_564.wav,"[[  0.          -4.16228192]
 [  0.1         -8.38376801]
 [  0.2         52.82752554]
 [  0.3        -92.64870354]
 [  0.32341667 -48.86146536]]","[[0.         1.35245187]
 [0.1        0.24798142]
 [0.2        1.26376743]
 [0.3        0.73548171]
 [0.32341667 0.1394123 ]]",1,0.316
8723415159,f,25,english,4,5,french,2024-02-01 10:33:14.584194,False,1,144,sounds\english\audio/english_480.wav,"[[  0.          -9.10453384]
 [  0.1         72.09708103]
 [  0.2        -73.7181862 ]
 [  0.3         18.73451671]
 [  0.32341667  83.35837597]]","[[0.         0.61491247]
 [0.1        1.35502449]
 [0.2        0.28674933]
 [0.3        0.14653082]
 [0.32341667 1.34653786]]",1,0.708
8723415159,f,25,english,4,5,french,2024-02-01 10:33:14.584194,False,1,145,sounds\english\audio/english_332.wav,"[[  0.         -51.41680869]
 [  0.1          4.985172  ]
 [  0.2         88.20327684]
 [  0.3        -58.40734817]
 [  0.32341667  68.30800912]]","[[0.         1.58782391]
 [0.1        0.72138411]
 [0.2        1.12265768]
 [0.3        0.23569111]
 [0.32341667 1.23583309]]",1,0.161
8723415159,f,25,english,4,5,french,2024-02-01 10:33:14.584194,False,1,146,sounds\english\audio/english_663.wav,"[[  0.          55.84438863]
 [  0.1        -89.02249371]
 [  0.2        -13.61345685]
 [  0.3         14.50375693]
 [  0.32341667  80.63633164]]","[[0.         1.29444713]
 [0.1        0.90215198]
 [0.2        1.61104603]
 [0.3        0.31375715]
 [0.32341667 1.01784406]]",1,0.2
8723415159,f,25,english,4,5,french,2024-02-01 10:33:14.584194,False,1,147,sounds\english\audio/english_219.wav,"[[  0.          38.40040381]
 [  0.1        -26.23926727]
 [  0.2        -57.67558578]
 [  0.3         50.56926795]
 [  0.32341667  64.39220397]]","[[0.         1.09142553]
 [0.1        0.5740428 ]
 [0.2        1.19056911]
 [0.3        1.87089358]
 [0.32341667 1.06933149]]",1,0.256
8723415159,f,25,english,4,5,french,2024-02-01 10:33:14.584194,False,1,148,sounds\english\audio/english_206.wav,"[[  0.          29.86029141]
 [  0.1        -65.49550847]
 [  0.2         -8.37849199]
 [  0.3         16.32170521]
 [  0.32341667 -96.55544023]]","[[0.         0.9413203 ]
 [0.1        1.58501733]
 [0.2        1.84833856]
 [0.3        1.12864021]
 [0.32341667 0.85017735]]",1,0.335
8723415159,f,25,english,4,5,french,2024-02-01 10:33:14.584194,False,1,149,sounds\english\audio/english_617.wav,"[[  0.         -99.94195333]
 [  0.1        -27.54289523]
 [  0.2        -31.48016085]
 [  0.3        -72.28967102]
 [  0.32341667 -18.83127656]]","[[0.         1.17597353]
 [0.1        0.72595777]
 [0.2        0.94648609]
 [0.3        1.67485207]
 [0.32341667 0.94146903]]",0,0.32
8723415159,f,25,english,4,5,french,2024-02-01 10:33:14.584194,False,1,150,sounds\english\audio/english_498.wav,"[[  0.           2.49020902]
 [  0.1        -20.55300452]
 [  0.2        -34.14985779]
 [  0.3         79.54997135]
 [  0.32341667  20.54695207]]","[[0.         0.78964515]
 [0.1        0.24391593]
 [0.2        0.11401041]
 [0.3        1.52582154]
 [0.32341667 0.62547878]]",0,0.761
8723415159,f,25,english,4,5,french,2024-02-01 10:33:14.584194,False,1,151,sounds\english\audio/english_416.wav,"[[  0.          26.92040942]
 [  0.1         32.98463782]
 [  0.2         94.30298269]
 [  0.3         71.4008894 ]
 [  0.32341667 -13.61584313]]","[[0.         0.66708871]
 [0.1        0.46140785]
 [0.2        0.4311344 ]
 [0.3        0.4522554 ]
 [0.32341667 0.23817019]]",0,0.454
8723415159,f,25,english,4,5,french,2024-02-01 10:33:14.584194,False,1,152,sounds\english\audio/english_121.wav,"[[  0.         -30.24687583]
 [  0.1        -28.09260766]
 [  0.2        -29.54951374]
 [  0.3        -37.35286973]
 [  0.32341667  58.68529554]]","[[0.         0.23154591]
 [0.1        0.6680997 ]
 [0.2        1.79539672]
 [0.3        0.57554739]
 [0.32341667 1.8709958 ]]",1,0.567
8723415159,f,25,english,4,5,french,2024-02-01 10:33:14.584194,False,1,153,sounds\english\audio/english_231.wav,"[[  0.         -57.04299033]
 [  0.1        -61.30294243]
 [  0.2         11.10207427]
 [  0.3         -1.38864911]
 [  0.32341667 -40.37897369]]","[[0.         1.30850831]
 [0.1        1.06317761]
 [0.2        1.86768436]
 [0.3        1.42169342]
 [0.32341667 0.58634772]]",1,0.21
8723415159,f,25,english,4,5,french,2024-02-01 10:33:14.584194,False,1,154,sounds\english\audio/english_468.wav,"[[  0.         -33.82586043]
 [  0.1        -42.55840131]
 [  0.2        -36.6492295 ]
 [  0.3         39.91321296]
 [  0.32341667  54.14936319]]","[[0.         0.35164089]
 [0.1        0.20114733]
 [0.2        1.40729654]
 [0.3        0.04300573]
 [0.32341667 1.79642733]]",0,0.509
8723415159,f,25,english,4,5,french,2024-02-01 10:33:14.584194,False,1,155,sounds\english\audio/english_989.wav,"[[  0.         -51.1051603 ]
 [  0.1        -91.26717948]
 [  0.2         73.5145218 ]
 [  0.3         54.43703181]
 [  0.32341667 -36.95823638]]","[[0.         1.00035195]
 [0.1        0.46124463]
 [0.2        0.77735517]
 [0.3        1.21549894]
 [0.32341667 0.33045291]]",0,0.218
8723415159,f,25,english,4,5,french,2024-02-01 10:33:14.584194,False,1,156,sounds\english\audio/english_579.wav,"[[  0.          78.52989573]
 [  0.1        -26.17758211]
 [  0.2        -65.60231522]
 [  0.3        -66.03357835]
 [  0.32341667 -36.23940811]]","[[0.         1.74799876]
 [0.1        0.36264633]
 [0.2        1.15645327]
 [0.3        1.81639149]
 [0.32341667 1.38509752]]",1,0.444
8723415159,f,25,english,4,5,french,2024-02-01 10:33:14.584194,False,1,157,sounds\english\audio/english_825.wav,"[[  0.           9.96211161]
 [  0.1        -28.44120521]
 [  0.2         58.95311712]
 [  0.3        -14.85414305]
 [  0.32341667  85.14956963]]","[[0.         0.17252736]
 [0.1        0.52830291]
 [0.2        0.51646024]
 [0.3        0.70859388]
 [0.32341667 0.64434305]]",0,0.477
8723415159,f,25,english,4,5,french,2024-02-01 10:33:14.584194,False,1,158,sounds\english\audio/english_921.wav,"[[  0.          60.93482672]
 [  0.1        -71.63665921]
 [  0.2        -30.77028929]
 [  0.3        -44.68164597]
 [  0.32341667  34.59415858]]","[[0.         0.06624465]
 [0.1        1.88925143]
 [0.2        0.40013084]
 [0.3        1.26601564]
 [0.32341667 1.98956357]]",0,0.289
8723415159,f,25,english,4,5,french,2024-02-01 10:33:14.584194,False,1,159,sounds\english\audio/english_302.wav,"[[  0.         -63.95927305]
 [  0.1        -82.44028643]
 [  0.2        -63.33590257]
 [  0.3        -82.33590521]
 [  0.32341667 -77.43124585]]","[[0.         1.3663617 ]
 [0.1        1.24112643]
 [0.2        1.83999602]
 [0.3        0.89576132]
 [0.32341667 1.51483357]]",1,0.198
8723415159,f,25,english,4,5,french,2024-02-01 10:33:14.584194,False,1,160,sounds\english\audio/english_112.wav,"[[  0.         -98.7507832 ]
 [  0.1        -92.72198769]
 [  0.2         15.54821062]
 [  0.3        -40.54151432]
 [  0.32341667 -42.89167932]]","[[0.         1.62855774]
 [0.1        1.23374737]
 [0.2        0.76022921]
 [0.3        0.49860071]
 [0.32341667 0.23801633]]",1,0.343
8723415159,f,25,english,4,5,french,2024-02-01 10:33:14.584194,False,1,161,sounds\english\audio/english_731.wav,"[[  0.          91.74609406]
 [  0.1         96.5637085 ]
 [  0.2        -58.02596537]
 [  0.3         21.59328018]
 [  0.32341667  13.26044458]]","[[0.         0.2840719 ]
 [0.1        1.75324284]
 [0.2        1.43086201]
 [0.3        1.68336342]
 [0.32341667 0.60031718]]",1,1.0
8723415159,f,25,english,4,5,french,2024-02-01 10:33:14.584194,False,1,162,sounds\english\audio/english_968.wav,"[[  0.         -36.76350372]
 [  0.1        -99.8991193 ]
 [  0.2         27.503089  ]
 [  0.3        -34.85106147]
 [  0.32341667  68.2869663 ]]","[[0.         0.52322451]
 [0.1        0.66419732]
 [0.2        0.44232096]
 [0.3        1.90778707]
 [0.32341667 0.59652698]]",0,0.409
8723415159,f,25,english,4,5,french,2024-02-01 10:33:14.584194,False,1,163,sounds\english\audio/english_462.wav,"[[  0.         -35.73318704]
 [  0.1         -5.65949109]
 [  0.2        -49.47542688]
 [  0.3        -98.18570674]
 [  0.32341667 -16.34927785]]","[[0.         1.53267708]
 [0.1        1.98369384]
 [0.2        1.31270994]
 [0.3        1.26289606]
 [0.32341667 1.36496903]]",1,0.131
8723415159,f,25,english,4,5,french,2024-02-01 10:33:14.584194,False,1,164,sounds\english\audio/english_172.wav,"[[  0.           8.59493981]
 [  0.1        -56.34346079]
 [  0.2        -95.76423912]
 [  0.3         11.69646411]
 [  0.32341667 -55.10661496]]","[[0.         0.93080222]
 [0.1        0.53387901]
 [0.2        0.34406097]
 [0.3        0.74935371]
 [0.32341667 0.42041327]]",0,0.949
8723415159,f,25,english,4,5,french,2024-02-01 10:33:14.584194,False,1,165,sounds\english\audio/english_660.wav,"[[  0.         -18.17224728]
 [  0.1        -51.94390165]
 [  0.2        -79.57293034]
 [  0.3         67.99606973]
 [  0.32341667  -2.00416122]]","[[0.         0.25133372]
 [0.1        0.1756709 ]
 [0.2        0.660284  ]
 [0.3        1.08301436]
 [0.32341667 0.81155284]]",0,0.63
8723415159,f,25,english,4,5,french,2024-02-01 10:33:14.584194,False,1,166,sounds\english\audio/english_728.wav,"[[  0.          -6.4565561 ]
 [  0.1          2.02882612]
 [  0.2        -40.29513079]
 [  0.3        -29.37287389]
 [  0.32341667 -32.17490136]]","[[0.         1.7247049 ]
 [0.1        1.95158608]
 [0.2        0.21085377]
 [0.3        0.85434083]
 [0.32341667 1.52436666]]",1,0.281
8723415159,f,25,english,4,5,french,2024-02-01 10:33:14.584194,False,1,167,sounds\english\audio/english_675.wav,"[[  0.         -31.75128323]
 [  0.1         60.52679753]
 [  0.2        -22.8835824 ]
 [  0.3         -6.32596177]
 [  0.32341667 -61.06491024]]","[[0.         1.35198954]
 [0.1        1.32787853]
 [0.2        1.57632911]
 [0.3        0.80140737]
 [0.32341667 0.99818917]]",1,0.1
8723415159,f,25,english,4,5,french,2024-02-01 10:33:14.584194,False,1,168,sounds\english\audio/english_381.wav,"[[  0.         -64.83599525]
 [  0.1         97.61236857]
 [  0.2        -60.27157178]
 [  0.3         84.45732791]
 [  0.32341667 -87.53832291]]","[[0.         0.77808766]
 [0.1        1.62635576]
 [0.2        0.65298664]
 [0.3        0.46881793]
 [0.32341667 1.22836965]]",1,0.335
8723415159,f,25,english,4,5,french,2024-02-01 10:33:14.584194,False,1,169,sounds\english\audio/english_58.wav,"[[  0.          20.12478601]
 [  0.1        -22.60038942]
 [  0.2         34.38627512]
 [  0.3         30.90369434]
 [  0.32341667  11.39971337]]","[[0.         1.19415515]
 [0.1        0.26098942]
 [0.2        1.99195241]
 [0.3        0.42925074]
 [0.32341667 0.50368767]]",0,0.65
8723415159,f,25,english,4,5,french,2024-02-01 10:33:14.584194,False,1,170,sounds\english\audio/english_771.wav,"[[  0.          52.29619013]
 [  0.1         55.26271333]
 [  0.2         49.2587818 ]
 [  0.3         48.45532009]
 [  0.32341667 -98.45631565]]","[[0.         1.65909918]
 [0.1        1.05958749]
 [0.2        1.33758239]
 [0.3        1.75478958]
 [0.32341667 0.37013483]]",1,0.178
8723415159,f,25,english,4,5,french,2024-02-01 10:33:14.584194,False,1,171,sounds\english\audio/english_382.wav,"[[  0.         -83.35497559]
 [  0.1          7.83115402]
 [  0.2         77.46115257]
 [  0.3         89.755233  ]
 [  0.32341667 -36.08570956]]","[[0.         1.24516413]
 [0.1        0.59675254]
 [0.2        0.61036026]
 [0.3        1.95554414]
 [0.32341667 1.60845727]]",0,0.686
8723415159,f,25,english,4,5,french,2024-02-01 10:33:14.584194,False,1,172,sounds\english\audio/english_773.wav,"[[  0.         -97.46951928]
 [  0.1         85.58858853]
 [  0.2        -54.69649905]
 [  0.3        -97.24656559]
 [  0.32341667  40.28006613]]","[[0.         0.54003315]
 [0.1        1.35505424]
 [0.2        1.09283168]
 [0.3        1.42526307]
 [0.32341667 0.69844725]]",0,1.264
8723415159,f,25,english,4,5,french,2024-02-01 10:33:14.584194,False,1,173,sounds\english\audio/english_513.wav,"[[  0.          76.78578212]
 [  0.1         20.42124481]
 [  0.2         83.32251122]
 [  0.3         47.28432413]
 [  0.32341667 -50.64117466]]","[[0.         0.02403043]
 [0.1        0.85164369]
 [0.2        1.08658436]
 [0.3        0.40639055]
 [0.32341667 1.29336046]]",0,0.603
8723415159,f,25,english,4,5,french,2024-02-01 10:33:14.584194,False,1,174,sounds\english\audio/english_420.wav,"[[  0.         -56.31893026]
 [  0.1         66.6522923 ]
 [  0.2          2.15493058]
 [  0.3        -23.51601285]
 [  0.32341667  22.32226467]]","[[0.         0.25307214]
 [0.1        1.93095887]
 [0.2        0.49520396]
 [0.3        1.55970731]
 [0.32341667 0.71957325]]",1,0.235
8723415159,f,25,english,4,5,french,2024-02-01 10:33:14.584194,False,1,175,sounds\english\audio/english_644.wav,"[[  0.          21.57551932]
 [  0.1        -11.98636437]
 [  0.2        -86.21942338]
 [  0.3        -38.98906039]
 [  0.32341667 -28.58177745]]","[[0.         1.87520752]
 [0.1        1.28750901]
 [0.2        0.33708129]
 [0.3        1.53524213]
 [0.32341667 0.3058721 ]]",1,0.277
8723415159,f,25,english,4,5,french,2024-02-01 10:33:14.584194,False,1,176,sounds\english\audio/english_613.wav,"[[  0.         -12.80235787]
 [  0.1         38.67858639]
 [  0.2         21.08834288]
 [  0.3         94.81469787]
 [  0.32341667  18.45506868]]","[[0.         0.8409713 ]
 [0.1        0.30410002]
 [0.2        0.031636  ]
 [0.3        1.79222997]
 [0.32341667 1.98455664]]",0,0.846
8723415159,f,25,english,4,5,french,2024-02-01 10:33:14.584194,False,1,177,sounds\english\audio/english_424.wav,"[[  0.          -7.44814198]
 [  0.1          9.0703424 ]
 [  0.2        -65.6005214 ]
 [  0.3         79.88163057]
 [  0.32341667  48.78273262]]","[[0.         1.7438251 ]
 [0.1        1.33993463]
 [0.2        0.96535207]
 [0.3        0.39557207]
 [0.32341667 0.47346175]]",1,0.157
8723415159,f,25,english,4,5,french,2024-02-01 10:33:14.584194,False,1,178,sounds\english\audio/english_612.wav,"[[  0.         -84.32217164]
 [  0.1         36.55311424]
 [  0.2         92.38334081]
 [  0.3         11.68953794]
 [  0.32341667  43.3279226 ]]","[[0.         1.34068621]
 [0.1        0.03443149]
 [0.2        0.45903509]
 [0.3        0.60209198]
 [0.32341667 0.29533154]]",0,0.528
8723415159,f,25,english,4,5,french,2024-02-01 10:33:14.584194,False,1,179,sounds\english\audio/english_89.wav,"[[  0.         -42.28936571]
 [  0.1         12.96738115]
 [  0.2         -0.92476461]
 [  0.3         54.46155283]
 [  0.32341667  -5.27724964]]","[[0.         1.68633095]
 [0.1        0.49078122]
 [0.2        0.75584791]
 [0.3        1.37155139]
 [0.32341667 0.6613642 ]]",1,0.143
8723415159,f,25,english,4,5,french,2024-02-01 10:33:14.584194,False,1,180,sounds\english\audio/english_727.wav,"[[  0.          86.20347479]
 [  0.1         12.26210304]
 [  0.2          5.59218777]
 [  0.3        -46.39280156]
 [  0.32341667  21.79775503]]","[[0.         1.33530257]
 [0.1        1.85547333]
 [0.2        1.19683436]
 [0.3        1.89207751]
 [0.32341667 1.05019022]]",1,0.078
8723415159,f,25,english,4,5,french,2024-02-01 10:33:14.584194,False,1,181,sounds\english\audio/english_457.wav,"[[  0.         -73.30847947]
 [  0.1        -25.74413936]
 [  0.2          8.82772976]
 [  0.3         -2.30416086]
 [  0.32341667 -34.04493945]]","[[0.         0.35525387]
 [0.1        0.90483023]
 [0.2        1.30004432]
 [0.3        0.93422762]
 [0.32341667 1.31504388]]",0,0.352
8723415159,f,25,english,4,5,french,2024-02-01 10:33:14.584194,False,1,182,sounds\english\audio/english_245.wav,"[[  0.          74.89239003]
 [  0.1         41.98679172]
 [  0.2         99.42105985]
 [  0.3        -75.11958538]
 [  0.32341667 -62.10664415]]","[[0.         1.30710747]
 [0.1        0.93119149]
 [0.2        1.84379828]
 [0.3        1.72828743]
 [0.32341667 0.50124118]]",1,0.148
8723415159,f,25,english,4,5,french,2024-02-01 10:33:14.584194,False,1,183,sounds\english\audio/english_25.wav,"[[  0.         -93.68210842]
 [  0.1        -14.41268038]
 [  0.2         72.93230065]
 [  0.3         23.28545759]
 [  0.32341667  18.09953767]]","[[0.         1.14210865]
 [0.1        1.90089654]
 [0.2        0.61137859]
 [0.3        1.93042398]
 [0.32341667 1.11869114]]",1,0.153
8723415159,f,25,english,4,5,french,2024-02-01 10:33:14.584194,False,1,184,sounds\english\audio/english_47.wav,"[[  0.          70.62381491]
 [  0.1        -43.60565268]
 [  0.2         29.54670776]
 [  0.3         95.208653  ]
 [  0.32341667 -87.83630424]]","[[0.         1.36620222]
 [0.1        0.47559644]
 [0.2        0.92078875]
 [0.3        0.83015506]
 [0.32341667 1.40747595]]",0,0.545
8723415159,f,25,english,4,5,french,2024-02-01 10:33:14.584194,False,1,185,sounds\english\audio/english_243.wav,"[[  0.         -74.41503345]
 [  0.1        -16.65530333]
 [  0.2         -1.41224798]
 [  0.3         37.30419975]
 [  0.32341667  -3.40378668]]","[[0.         0.65151457]
 [0.1        0.20623253]
 [0.2        0.87153721]
 [0.3        0.28583671]
 [0.32341667 1.90700275]]",0,0.591
8723415159,f,25,english,4,5,french,2024-02-01 10:33:14.584194,False,1,186,sounds\english\audio/english_315.wav,"[[  0.           3.76150079]
 [  0.1          4.93204799]
 [  0.2        -81.53480532]
 [  0.3         45.94577355]
 [  0.32341667 -55.96194099]]","[[0.         1.04293113]
 [0.1        0.55537984]
 [0.2        1.13024782]
 [0.3        1.06792043]
 [0.32341667 1.80369969]]",1,0.16
8723415159,f,25,english,4,5,french,2024-02-01 10:33:14.584194,False,1,187,sounds\english\audio/english_38.wav,"[[  0.          -2.78484508]
 [  0.1        -57.68912839]
 [  0.2        -17.27242754]
 [  0.3         -2.64514482]
 [  0.32341667  55.14373267]]","[[0.         0.45448836]
 [0.1        0.86252605]
 [0.2        1.61904865]
 [0.3        1.39130822]
 [0.32341667 1.59066599]]",1,0.167
8723415159,f,25,english,4,5,french,2024-02-01 10:33:14.584194,False,1,188,sounds\english\audio/english_240.wav,"[[  0.         -96.55121617]
 [  0.1         73.99435309]
 [  0.2        -27.17256968]
 [  0.3         -2.05185553]
 [  0.32341667  80.37406519]]","[[0.         1.04823872]
 [0.1        1.11556714]
 [0.2        0.68795106]
 [0.3        1.30325309]
 [0.32341667 0.86977317]]",1,0.151
8723415159,f,25,english,4,5,french,2024-02-01 10:33:14.584194,False,1,189,sounds\english\audio/english_808.wav,"[[  0.          23.02589628]
 [  0.1         10.58817829]
 [  0.2         36.77134597]
 [  0.3        -30.31603221]
 [  0.32341667   9.74764343]]","[[0.         1.07384277]
 [0.1        1.3919179 ]
 [0.2        0.54960524]
 [0.3        1.95871365]
 [0.32341667 0.79150541]]",1,0.164
8723415159,f,25,english,4,5,french,2024-02-01 10:33:14.584194,False,1,190,sounds\english\audio/english_220.wav,"[[  0.         -49.83323752]
 [  0.1         49.13629021]
 [  0.2         10.673463  ]
 [  0.3         -2.35218347]
 [  0.32341667  -2.61587219]]","[[0.         1.6244524 ]
 [0.1        0.7812698 ]
 [0.2        1.29736816]
 [0.3        1.3419496 ]
 [0.32341667 1.06575232]]",0,0.972
8723415159,f,25,english,4,5,french,2024-02-01 10:33:14.584194,False,1,191,sounds\english\audio/english_361.wav,"[[  0.          47.37783877]
 [  0.1         41.96620543]
 [  0.2        -99.83447432]
 [  0.3        -83.75612903]
 [  0.32341667  99.31228573]]","[[0.         1.2281625 ]
 [0.1        0.32170701]
 [0.2        0.41267147]
 [0.3        0.32528287]
 [0.32341667 0.29737668]]",0,0.337
8723415159,f,25,english,4,5,french,2024-02-01 10:33:14.584194,False,1,192,sounds\english\audio/english_706.wav,"[[  0.         -14.02426606]
 [  0.1         23.81630209]
 [  0.2         94.24266466]
 [  0.3         20.03642156]
 [  0.32341667  57.92570785]]","[[0.         0.18721001]
 [0.1        0.48464851]
 [0.2        1.46456973]
 [0.3        0.11403632]
 [0.32341667 0.61389372]]",1,0.411
8723415159,f,25,english,4,5,french,2024-02-01 10:33:14.584194,False,1,193,sounds\english\audio/english_880.wav,"[[  0.           3.17154152]
 [  0.1        -74.02271749]
 [  0.2         46.15952764]
 [  0.3          4.14106927]
 [  0.32341667  26.36707366]]","[[0.         0.81183988]
 [0.1        1.44061269]
 [0.2        0.42884863]
 [0.3        1.93838261]
 [0.32341667 1.4503687 ]]",1,0.227
8723415159,f,25,english,4,5,french,2024-02-01 10:33:14.584194,False,1,194,sounds\english\audio/english_442.wav,"[[  0.          -5.21319176]
 [  0.1        -16.23989513]
 [  0.2        -36.77315909]
 [  0.3        -33.51446291]
 [  0.32341667 -25.07447919]]","[[0.         1.35819452]
 [0.1        1.66019663]
 [0.2        0.51170704]
 [0.3        1.6590932 ]
 [0.32341667 0.97998973]]",1,0.069
8723415159,f,25,english,4,5,french,2024-02-01 10:33:14.584194,False,1,195,sounds\english\audio/english_390.wav,"[[  0.         -50.40750922]
 [  0.1        -38.67641955]
 [  0.2        -37.03459725]
 [  0.3        -24.07335547]
 [  0.32341667  75.09366884]]","[[0.         1.41643644]
 [0.1        0.84399933]
 [0.2        1.67796426]
 [0.3        0.43781117]
 [0.32341667 0.01225463]]",1,0.135
8723415159,f,25,english,4,5,french,2024-02-01 10:33:14.584194,False,1,196,sounds\english\audio/english_303.wav,"[[  0.          67.00540241]
 [  0.1         32.95821842]
 [  0.2        -23.67517146]
 [  0.3        -66.94926695]
 [  0.32341667  65.71723135]]","[[0.         1.22520816]
 [0.1        1.22732479]
 [0.2        0.54923068]
 [0.3        0.8977578 ]
 [0.32341667 1.41807679]]",0,0.891
8723415159,f,25,english,4,5,french,2024-02-01 10:33:14.584194,False,1,197,sounds\english\audio/english_319.wav,"[[  0.         -84.37928886]
 [  0.1        -52.76931383]
 [  0.2         56.06390533]
 [  0.3        -69.46438111]
 [  0.32341667  91.86152445]]","[[0.         1.17141126]
 [0.1        1.13741792]
 [0.2        0.91618882]
 [0.3        0.7080153 ]
 [0.32341667 0.5910213 ]]",1,0.156
8723415159,f,25,english,4,5,french,2024-02-01 10:33:14.584194,False,1,198,sounds\english\audio/english_191.wav,"[[  0.           5.22709543]
 [  0.1        -51.29785688]
 [  0.2         14.39503603]
 [  0.3         60.50312404]
 [  0.32341667  68.15927452]]","[[0.         0.24693927]
 [0.1        1.61528443]
 [0.2        0.10158113]
 [0.3        1.02883866]
 [0.32341667 0.69870432]]",1,0.258
8723415159,f,25,english,4,5,french,2024-02-01 10:33:14.584194,False,1,199,sounds\english\audio/english_255.wav,"[[  0.         -42.74550593]
 [  0.1         35.44578771]
 [  0.2         98.7346041 ]
 [  0.3         14.08839822]
 [  0.32341667 -55.38739786]]","[[0.         1.65518669]
 [0.1        1.85823386]
 [0.2        1.2123315 ]
 [0.3        0.62099519]
 [0.32341667 1.08486436]]",1,0.131
8723415159,f,25,english,4,5,french,2024-02-01 10:33:14.584194,False,1,200,sounds\english\audio/english_868.wav,"[[  0.         -32.61379415]
 [  0.1        -13.61007492]
 [  0.2        -35.23756027]
 [  0.3         83.12333319]
 [  0.32341667  62.80865362]]","[[0.         0.76599538]
 [0.1        0.34348987]
 [0.2        0.26787397]
 [0.3        0.46343078]
 [0.32341667 1.59158725]]",0,0.628
8723415159,f,25,english,4,5,french,2024-02-01 10:33:14.584194,False,1,201,sounds\english\audio/english_928.wav,"[[  0.          55.07207497]
 [  0.1         83.71672672]
 [  0.2        -43.28929986]
 [  0.3        -17.1692271 ]
 [  0.32341667 -36.644272  ]]","[[0.         1.22706758]
 [0.1        0.97206042]
 [0.2        0.16969859]
 [0.3        0.90092586]
 [0.32341667 0.43024518]]",1,0.521
8723415159,f,25,english,4,5,french,2024-02-01 10:33:14.584194,False,1,202,sounds\english\audio/english_238.wav,"[[  0.          87.78466979]
 [  0.1         65.39287108]
 [  0.2        -38.39100082]
 [  0.3        -20.01297649]
 [  0.32341667  78.31880556]]","[[0.         1.0750983 ]
 [0.1        0.03626896]
 [0.2        1.9832234 ]
 [0.3        0.17604691]
 [0.32341667 1.61383808]]",0,0.567
8723415159,f,25,english,4,5,french,2024-02-01 10:33:14.584194,False,1,203,sounds\english\audio/english_482.wav,"[[  0.         -75.58658814]
 [  0.1        -97.88900999]
 [  0.2         -4.46161317]
 [  0.3         31.34799552]
 [  0.32341667 -51.80510351]]","[[0.         1.00366747]
 [0.1        1.47597923]
 [0.2        1.10854794]
 [0.3        1.07348452]
 [0.32341667 0.67390339]]",1,0.157
8723415159,f,25,english,4,5,french,2024-02-01 10:33:14.584194,False,1,204,sounds\english\audio/english_273.wav,"[[  0.         -44.98289573]
 [  0.1         24.32546199]
 [  0.2         61.84573583]
 [  0.3         -1.88803465]
 [  0.32341667  57.02125087]]","[[0.         1.94838534]
 [0.1        0.68888608]
 [0.2        1.95265796]
 [0.3        1.62060328]
 [0.32341667 0.94638053]]",1,0.047
8723415159,f,25,english,4,5,french,2024-02-01 10:33:14.584194,False,1,205,sounds\english\audio/english_590.wav,"[[  0.         -36.198224  ]
 [  0.1        -81.6019347 ]
 [  0.2         23.00860846]
 [  0.3        -40.72667736]
 [  0.32341667  31.06175796]]","[[0.         1.58650853]
 [0.1        0.24081988]
 [0.2        0.40073912]
 [0.3        0.83686248]
 [0.32341667 1.43958247]]",0,0.473
8723415159,f,25,english,4,5,french,2024-02-01 10:33:14.584194,False,1,206,sounds\english\audio/english_508.wav,"[[  0.         -21.23116318]
 [  0.1        -27.56583205]
 [  0.2         64.21774851]
 [  0.3         -9.24056951]
 [  0.32341667  -9.74670904]]","[[0.         1.79614382]
 [0.1        0.60449395]
 [0.2        0.56582153]
 [0.3        1.01665474]
 [0.32341667 0.78905044]]",1,2.612
8723415159,f,25,english,4,5,french,2024-02-01 10:33:14.584194,False,1,207,sounds\english\audio/english_102.wav,"[[  0.          32.71328306]
 [  0.1         59.73255369]
 [  0.2         -0.64397298]
 [  0.3        -37.18099902]
 [  0.32341667  41.63197766]]","[[0.         1.2311829 ]
 [0.1        0.25599615]
 [0.2        1.7526023 ]
 [0.3        1.98319627]
 [0.32341667 1.38410598]]",0,1.364
8723415159,f,25,english,4,5,french,2024-02-01 10:33:14.584194,False,1,208,sounds\english\audio/english_114.wav,"[[  0.          32.66189176]
 [  0.1         11.50533392]
 [  0.2        -73.58201401]
 [  0.3         -8.93644113]
 [  0.32341667  -2.4794064 ]]","[[0.         0.56529239]
 [0.1        1.79520186]
 [0.2        1.4619954 ]
 [0.3        0.78288211]
 [0.32341667 0.66376764]]",1,0.784
8723415159,f,25,english,4,5,french,2024-02-01 10:33:14.584194,False,1,209,sounds\english\audio/english_878.wav,"[[  0.          84.19501339]
 [  0.1         76.71234668]
 [  0.2        -74.61835319]
 [  0.3         83.79758366]
 [  0.32341667 -29.32243698]]","[[0.         0.22676298]
 [0.1        0.28568495]
 [0.2        0.74220819]
 [0.3        1.72755148]
 [0.32341667 1.88938616]]",0,0.577
8723415159,f,25,english,4,5,french,2024-02-01 10:33:14.584194,False,1,210,sounds\english\audio/english_679.wav,"[[ 0.         37.61966445]
 [ 0.1        51.99791738]
 [ 0.2        47.28862711]
 [ 0.3        96.96405016]
 [ 0.32341667 17.22990972]]","[[0.         0.05085037]
 [0.1        0.83446012]
 [0.2        0.17034906]
 [0.3        1.15010704]
 [0.32341667 1.32170415]]",0,2.578
8723415159,f,25,english,4,5,french,2024-02-01 10:33:14.584194,False,1,211,sounds\english\audio/english_482.wav,"[[  0.         -75.58658814]
 [  0.1        -97.88900999]
 [  0.2         -4.46161317]
 [  0.3         31.34799552]
 [  0.32341667 -51.80510351]]","[[0.         1.00366747]
 [0.1        1.47597923]
 [0.2        1.10854794]
 [0.3        1.07348452]
 [0.32341667 0.67390339]]",1,1.496
8723415159,f,25,english,4,5,french,2024-02-01 10:33:14.584194,False,1,212,sounds\english\audio/english_913.wav,"[[  0.          27.9375346 ]
 [  0.1         41.67879689]
 [  0.2        -50.96955224]
 [  0.3         93.1868058 ]
 [  0.32341667  83.79752677]]","[[0.         0.72243167]
 [0.1        1.59129257]
 [0.2        1.19382874]
 [0.3        0.86840853]
 [0.32341667 0.21021697]]",1,0.278
8723415159,f,25,english,4,5,french,2024-02-01 10:33:14.584194,False,1,213,sounds\english\audio/english_145.wav,"[[  0.         -29.75830226]
 [  0.1          0.94664025]
 [  0.2        -55.39340023]
 [  0.3        -49.58722608]
 [  0.32341667 -83.35110665]]","[[0.         1.9441914 ]
 [0.1        0.04744273]
 [0.2        1.27144901]
 [0.3        0.20842421]
 [0.32341667 0.85478836]]",0,0.535
8723415159,f,25,english,4,5,french,2024-02-01 10:33:14.584194,False,1,214,sounds\english\audio/english_86.wav,"[[  0.         -48.59393833]
 [  0.1         77.37095157]
 [  0.2         44.19816726]
 [  0.3        -99.780271  ]
 [  0.32341667  38.96545556]]","[[0.         1.45450552]
 [0.1        1.8635573 ]
 [0.2        1.174515  ]
 [0.3        1.46785746]
 [0.32341667 0.99607158]]",1,0.138
8723415159,f,25,english,4,5,french,2024-02-01 10:33:14.584194,False,1,215,sounds\english\audio/english_943.wav,"[[  0.         -88.39234314]
 [  0.1         65.27529367]
 [  0.2        -24.85222093]
 [  0.3         20.61002448]
 [  0.32341667 -74.64601709]]","[[0.         0.07745413]
 [0.1        1.64078214]
 [0.2        0.23468741]
 [0.3        1.49561498]
 [0.32341667 1.25217021]]",0,0.68
8723415159,f,25,english,4,5,french,2024-02-01 10:33:14.584194,False,1,216,sounds\english\audio/english_584.wav,"[[  0.          10.38934641]
 [  0.1         16.58552078]
 [  0.2         93.24376001]
 [  0.3        -17.62367845]
 [  0.32341667  35.31863132]]","[[0.         1.28044862]
 [0.1        0.12750447]
 [0.2        0.67889343]
 [0.3        1.20299248]
 [0.32341667 1.61660781]]",0,1.399
8723415159,f,25,english,4,5,french,2024-02-01 10:33:14.584194,False,1,217,sounds\english\audio/english_983.wav,"[[  0.          32.38711768]
 [  0.1        -65.51600844]
 [  0.2         12.03576385]
 [  0.3        -64.14785636]
 [  0.32341667 -72.48499617]]","[[0.         0.79408654]
 [0.1        1.57845546]
 [0.2        1.23356187]
 [0.3        0.65581831]
 [0.32341667 0.27936162]]",1,0.272
8723415159,f,25,english,4,5,french,2024-02-01 10:33:14.584194,False,1,218,sounds\english\audio/english_600.wav,"[[  0.          37.30285492]
 [  0.1         57.58729363]
 [  0.2        -74.33256695]
 [  0.3        -35.711252  ]
 [  0.32341667   3.54782198]]","[[0.         1.23507691]
 [0.1        0.65453179]
 [0.2        1.70226061]
 [0.3        0.4723836 ]
 [0.32341667 0.49080622]]",0,0.343
8723415159,f,25,english,4,5,french,2024-02-01 10:33:14.584194,False,1,219,sounds\english\audio/english_848.wav,"[[  0.          43.30233352]
 [  0.1        -77.77691247]
 [  0.2        -68.99020863]
 [  0.3        -43.68641023]
 [  0.32341667 -14.19502025]]","[[0.         0.12582596]
 [0.1        1.72621372]
 [0.2        1.753656  ]
 [0.3        1.37442753]
 [0.32341667 1.04930351]]",1,0.102
8723415159,f,25,english,4,5,french,2024-02-01 10:33:14.584194,False,1,220,sounds\english\audio/english_412.wav,"[[  0.         -82.38375592]
 [  0.1        -35.89348303]
 [  0.2        -78.50422887]
 [  0.3          8.19618882]
 [  0.32341667  88.30694734]]","[[0.         0.41347899]
 [0.1        0.05505218]
 [0.2        1.28972039]
 [0.3        0.97331843]
 [0.32341667 0.22558246]]",0,0.448
8723415159,f,25,english,4,5,french,2024-02-01 10:33:14.584194,False,1,221,sounds\english\audio/english_208.wav,"[[  0.         -16.36413188]
 [  0.1         25.67725806]
 [  0.2         15.43722313]
 [  0.3        -39.3158007 ]
 [  0.32341667  38.48956167]]","[[0.         1.19542909]
 [0.1        0.42717457]
 [0.2        1.01088833]
 [0.3        1.09044814]
 [0.32341667 1.60091335]]",1,0.375
8723415159,f,25,english,4,5,french,2024-02-01 10:33:14.584194,False,1,222,sounds\english\audio/english_945.wav,"[[  0.          63.16075011]
 [  0.1         87.55520176]
 [  0.2        -69.60467193]
 [  0.3        -69.25530384]
 [  0.32341667 -47.64160087]]","[[0.         1.8314946 ]
 [0.1        1.3737613 ]
 [0.2        0.61639792]
 [0.3        1.67239747]
 [0.32341667 1.88344595]]",1,1.595
8723415159,f,25,english,4,5,french,2024-02-01 10:33:14.584194,False,1,223,sounds\english\audio/english_237.wav,"[[  0.         -40.35335157]
 [  0.1         42.86374565]
 [  0.2          7.79480372]
 [  0.3        -48.50613844]
 [  0.32341667  17.78174719]]","[[0.         0.42178982]
 [0.1        0.6060796 ]
 [0.2        0.58312984]
 [0.3        1.50499267]
 [0.32341667 1.72211243]]",0,0.289
8723415159,f,25,english,4,5,french,2024-02-01 10:33:14.584194,False,1,224,sounds\english\audio/english_419.wav,"[[  0.          74.10926047]
 [  0.1        -50.44969368]
 [  0.2        -38.37630765]
 [  0.3        -57.54140712]
 [  0.32341667  48.12555486]]","[[0.00000000e+00 4.23980314e-01]
 [1.00000000e-01 1.12483838e+00]
 [2.00000000e-01 4.73465541e-01]
 [3.00000000e-01 8.38613621e-04]
 [3.23416667e-01 3.89285402e-01]]",1,0.3
8723415159,f,25,english,4,5,french,2024-02-01 10:33:14.584194,False,1,225,sounds\english\audio/english_931.wav,"[[  0.         -78.99767873]
 [  0.1        -34.67093685]
 [  0.2          2.25144273]
 [  0.3        -93.87287365]
 [  0.32341667  57.8562517 ]]","[[0.         0.72988395]
 [0.1        1.40858855]
 [0.2        1.82787629]
 [0.3        1.51045502]
 [0.32341667 1.42241625]]",0,1.555
8723415159,f,25,english,4,5,french,2024-02-01 10:33:14.584194,False,1,226,sounds\english\audio/english_512.wav,"[[  0.          92.76608442]
 [  0.1        -20.68005196]
 [  0.2        -55.10098951]
 [  0.3         79.8086149 ]
 [  0.32341667 -91.21136492]]","[[0.         1.91273189]
 [0.1        1.02897077]
 [0.2        0.7965214 ]
 [0.3        1.98502062]
 [0.32341667 0.13323305]]",1,0.24
8723415159,f,25,english,4,5,french,2024-02-01 10:33:14.584194,False,1,227,sounds\english\audio/english_225.wav,"[[  0.          66.72796839]
 [  0.1          3.03768966]
 [  0.2        -45.96345052]
 [  0.3        -88.14676012]
 [  0.32341667  46.76760659]]","[[0.         1.97535322]
 [0.1        1.18784527]
 [0.2        1.58393351]
 [0.3        1.17885171]
 [0.32341667 1.387907  ]]",1,1.097
8723415159,f,25,english,4,5,french,2024-02-01 10:33:14.584194,False,1,228,sounds\english\audio/english_245.wav,"[[  0.          74.89239003]
 [  0.1         41.98679172]
 [  0.2         99.42105985]
 [  0.3        -75.11958538]
 [  0.32341667 -62.10664415]]","[[0.         1.30710747]
 [0.1        0.93119149]
 [0.2        1.84379828]
 [0.3        1.72828743]
 [0.32341667 0.50124118]]",0,0.631
8723415159,f,25,english,4,5,french,2024-02-01 10:33:14.584194,False,1,229,sounds\english\audio/english_688.wav,"[[  0.         -45.64286614]
 [  0.1         39.73956276]
 [  0.2         40.53719602]
 [  0.3        -71.29470492]
 [  0.32341667  73.7490074 ]]","[[0.         1.06356906]
 [0.1        0.85197809]
 [0.2        0.68718846]
 [0.3        1.67995478]
 [0.32341667 1.45979079]]",1,0.29
8723415159,f,25,english,4,5,french,2024-02-01 10:33:14.584194,False,1,230,sounds\english\audio/english_885.wav,"[[  0.          36.3288655 ]
 [  0.1        -33.4786966 ]
 [  0.2          8.05827153]
 [  0.3         84.98004341]
 [  0.32341667 -34.65749493]]","[[0.         0.78617108]
 [0.1        0.96292114]
 [0.2        0.70266535]
 [0.3        0.45613544]
 [0.32341667 0.81873504]]",0,0.254
8723415159,f,25,english,4,5,french,2024-02-01 10:33:14.584194,False,1,231,sounds\english\audio/english_988.wav,"[[  0.          23.53561789]
 [  0.1         39.09545525]
 [  0.2        -32.2225044 ]
 [  0.3          5.54449519]
 [  0.32341667 -94.58480047]]","[[0.         0.18772999]
 [0.1        0.71537172]
 [0.2        0.50944864]
 [0.3        0.59930705]
 [0.32341667 1.43881296]]",0,0.858
8723415159,f,25,english,4,5,french,2024-02-01 10:33:14.584194,False,1,232,sounds\english\audio/english_535.wav,"[[  0.          -5.32882057]
 [  0.1        -34.98045039]
 [  0.2         30.10834221]
 [  0.3        -70.22542568]
 [  0.32341667 -73.0016054 ]]","[[0.         0.21055966]
 [0.1        0.89683134]
 [0.2        1.11178172]
 [0.3        0.20123235]
 [0.32341667 0.99564794]]",0,0.373
8723415159,f,25,english,4,5,french,2024-02-01 10:33:14.584194,False,1,233,sounds\english\audio/english_548.wav,"[[  0.          19.39315344]
 [  0.1         82.09582914]
 [  0.2        -65.55781301]
 [  0.3         -5.02691035]
 [  0.32341667  62.63141303]]","[[0.         0.41811488]
 [0.1        1.70384437]
 [0.2        1.82142436]
 [0.3        1.13784798]
 [0.32341667 1.73168063]]",1,0.17
8723415159,f,25,english,4,5,french,2024-02-01 10:33:14.584194,False,1,234,sounds\english\audio/english_351.wav,"[[  0.         -56.55455818]
 [  0.1        -81.1333892 ]
 [  0.2         70.95296343]
 [  0.3        -82.79021433]
 [  0.32341667 -21.34496407]]","[[0.         0.98366365]
 [0.1        1.13800808]
 [0.2        1.04915948]
 [0.3        1.70890302]
 [0.32341667 1.83807055]]",1,0.124
8723415159,f,25,english,4,5,french,2024-02-01 10:33:14.584194,False,1,235,sounds\english\audio/english_934.wav,"[[ 0.         48.23169593]
 [ 0.1        42.81145804]
 [ 0.2        79.06411095]
 [ 0.3        69.44528076]
 [ 0.32341667 88.54940569]]","[[0.         1.38760579]
 [0.1        1.74622613]
 [0.2        0.2874918 ]
 [0.3        1.61606763]
 [0.32341667 1.62058381]]",1,0.096
8723415159,f,25,english,4,5,french,2024-02-01 10:33:14.584194,False,1,236,sounds\english\audio/english_101.wav,"[[  0.          60.77829508]
 [  0.1         43.41373716]
 [  0.2         56.16195873]
 [  0.3        -99.94719329]
 [  0.32341667  -1.35074094]]","[[0.         0.77962125]
 [0.1        0.02040908]
 [0.2        0.79248433]
 [0.3        1.74003505]
 [0.32341667 1.66206156]]",0,0.33
8723415159,f,25,english,4,5,french,2024-02-01 10:33:14.584194,False,1,237,sounds\english\audio/english_797.wav,"[[  0.         -10.77604935]
 [  0.1         76.52998448]
 [  0.2        -52.30950648]
 [  0.3        -19.27189704]
 [  0.32341667 -68.52312916]]","[[0.         1.75152448]
 [0.1        0.25625033]
 [0.2        1.63910521]
 [0.3        1.44412191]
 [0.32341667 1.41513857]]",1,0.692
8723415159,f,25,english,4,5,french,2024-02-01 10:33:14.584194,False,1,238,sounds\english\audio/english_783.wav,"[[ 0.         23.05268069]
 [ 0.1         9.36005369]
 [ 0.2        62.81522218]
 [ 0.3        67.71456376]
 [ 0.32341667 77.96788237]]","[[0.         1.49549247]
 [0.1        0.13797177]
 [0.2        1.80236654]
 [0.3        0.33800471]
 [0.32341667 1.97708045]]",0,0.211
8723415159,f,25,english,4,5,french,2024-02-01 10:33:14.584194,False,1,239,sounds\english\audio/english_665.wav,"[[  0.         -25.08423312]
 [  0.1        -88.66042782]
 [  0.2        -73.67467666]
 [  0.3         66.53606028]
 [  0.32341667 -75.03630793]]","[[0.         1.80265724]
 [0.1        0.10063576]
 [0.2        0.92910111]
 [0.3        0.83814709]
 [0.32341667 0.77033789]]",1,0.556
8723415159,f,25,english,4,5,french,2024-02-01 10:33:14.584194,False,1,240,sounds\english\audio/english_508.wav,"[[  0.         -21.23116318]
 [  0.1        -27.56583205]
 [  0.2         64.21774851]
 [  0.3         -9.24056951]
 [  0.32341667  -9.74670904]]","[[0.         1.79614382]
 [0.1        0.60449395]
 [0.2        0.56582153]
 [0.3        1.01665474]
 [0.32341667 0.78905044]]",1,0.251
8723415159,f,25,english,4,5,french,2024-02-01 10:33:14.584194,False,1,241,sounds\english\audio/english_940.wav,"[[  0.          47.11462569]
 [  0.1         11.81885745]
 [  0.2         -1.49931669]
 [  0.3         45.92466934]
 [  0.32341667 -72.78738407]]","[[0.         0.32214594]
 [0.1        0.21999868]
 [0.2        0.34357292]
 [0.3        1.61274527]
 [0.32341667 0.9185628 ]]",0,0.338
8723415159,f,25,english,4,5,french,2024-02-01 10:33:14.584194,False,1,242,sounds\english\audio/english_954.wav,"[[  0.         -31.7323473 ]
 [  0.1         26.42807939]
 [  0.2         22.25968883]
 [  0.3        -25.30270181]
 [  0.32341667  46.97185243]]","[[0.         1.78985335]
 [0.1        1.38754521]
 [0.2        1.54917493]
 [0.3        1.54718362]
 [0.32341667 0.09638929]]",1,0.186
8723415159,f,25,english,4,5,french,2024-02-01 10:33:14.584194,False,1,243,sounds\english\audio/english_258.wav,"[[  0.          -7.1133109 ]
 [  0.1         44.58564752]
 [  0.2         45.36800295]
 [  0.3         25.81301737]
 [  0.32341667 -77.97513924]]","[[0.         1.89026761]
 [0.1        1.79361992]
 [0.2        0.43687845]
 [0.3        0.04688612]
 [0.32341667 0.52567924]]",1,1.152
8723415159,f,25,english,4,5,french,2024-02-01 10:33:14.584194,False,1,244,sounds\english\audio/english_966.wav,"[[  0.          23.00954068]
 [  0.1         -2.7733657 ]
 [  0.2         -6.00176123]
 [  0.3        -64.80320904]
 [  0.32341667  94.15296916]]","[[0.         1.02848684]
 [0.1        1.22612364]
 [0.2        0.03461529]
 [0.3        0.22357585]
 [0.32341667 0.55383001]]",1,0.563
8723415159,f,25,english,4,5,french,2024-02-01 10:33:14.584194,False,1,245,sounds\english\audio/english_506.wav,"[[  0.         -17.73769578]
 [  0.1        -41.45582363]
 [  0.2         30.66866042]
 [  0.3         59.8078046 ]
 [  0.32341667  84.38248427]]","[[0.         0.98447335]
 [0.1        0.94666259]
 [0.2        0.72831062]
 [0.3        1.02790064]
 [0.32341667 0.39724826]]",0,0.232
8723415159,f,25,english,4,5,french,2024-02-01 10:33:14.584194,False,1,246,sounds\english\audio/english_993.wav,"[[  0.         -66.15449332]
 [  0.1         33.08083728]
 [  0.2         51.46479562]
 [  0.3        -80.58676237]
 [  0.32341667  81.97884737]]","[[0.         1.17508471]
 [0.1        0.94744004]
 [0.2        0.74931244]
 [0.3        0.35628979]
 [0.32341667 1.25416847]]",0,0.303
8723415159,f,25,english,4,5,french,2024-02-01 10:33:14.584194,False,1,247,sounds\english\audio/english_686.wav,"[[  0.         -30.40223154]
 [  0.1         40.30213926]
 [  0.2         68.68183252]
 [  0.3         82.36920372]
 [  0.32341667   5.8000707 ]]","[[0.         0.36787347]
 [0.1        1.54584144]
 [0.2        1.54645212]
 [0.3        1.04035585]
 [0.32341667 1.51520661]]",1,0.263
8723415159,f,25,english,4,5,french,2024-02-01 10:33:14.584194,False,1,248,sounds\english\audio/english_832.wav,"[[  0.         -21.62855277]
 [  0.1        -35.3834786 ]
 [  0.2         52.65867494]
 [  0.3         62.52082964]
 [  0.32341667  46.66062952]]","[[0.         1.31372842]
 [0.1        1.55258378]
 [0.2        1.50567803]
 [0.3        1.2163301 ]
 [0.32341667 1.20100353]]",1,0.446
8723415159,f,25,english,4,5,french,2024-02-01 10:33:14.584194,False,1,249,sounds\english\audio/english_811.wav,"[[  0.         -51.03425556]
 [  0.1         22.81695275]
 [  0.2         73.06623682]
 [  0.3         -9.17693151]
 [  0.32341667  79.97760745]]","[[0.         1.55055496]
 [0.1        1.74830484]
 [0.2        1.24661488]
 [0.3        0.09792889]
 [0.32341667 0.03735929]]",1,0.275
8723415159,f,25,english,4,5,french,2024-02-01 10:33:14.584194,False,1,250,sounds\english\audio/english_498.wav,"[[  0.           2.49020902]
 [  0.1        -20.55300452]
 [  0.2        -34.14985779]
 [  0.3         79.54997135]
 [  0.32341667  20.54695207]]","[[0.         0.78964515]
 [0.1        0.24391593]
 [0.2        0.11401041]
 [0.3        1.52582154]
 [0.32341667 0.62547878]]",1,0.647
8723415159,f,25,english,4,5,french,2024-02-01 10:33:14.584194,False,1,251,sounds\english\audio/english_442.wav,"[[  0.          -5.21319176]
 [  0.1        -16.23989513]
 [  0.2        -36.77315909]
 [  0.3        -33.51446291]
 [  0.32341667 -25.07447919]]","[[0.         1.35819452]
 [0.1        1.66019663]
 [0.2        0.51170704]
 [0.3        1.6590932 ]
 [0.32341667 0.97998973]]",0,1.347
8723415159,f,25,english,4,5,french,2024-02-01 10:33:14.584194,False,1,252,sounds\english\audio/english_309.wav,"[[  0.          59.8258624 ]
 [  0.1         73.70427758]
 [  0.2         -8.71125849]
 [  0.3        -86.6882155 ]
 [  0.32341667 -90.77340978]]","[[0.         0.58100331]
 [0.1        0.81024997]
 [0.2        0.10827203]
 [0.3        0.09670208]
 [0.32341667 1.53063904]]",0,0.385
