subj,sex,age,language,english,french,native_lang,date,practice,block,trial,stim,pitch,stretch,response,rt
3,m,24,french,3,5,french,2024-02-07 14:00:07.182851,False,2,303,sounds\english\audio/english_641.wav,"[[  0.         -90.88934322]
 [  0.1         13.36673253]
 [  0.2        -36.70414591]
 [  0.3         -4.62417375]
 [  0.32341667  15.34366305]]","[[0.         1.28926835]
 [0.1        0.02464493]
 [0.2        0.5505433 ]
 [0.3        0.52188675]
 [0.32341667 0.01360039]]",0,1.749
3,m,24,french,3,5,french,2024-02-07 14:00:07.182851,False,2,304,sounds\english\audio/english_324.wav,"[[  0.          49.07155908]
 [  0.1        -58.77252084]
 [  0.2        -55.40155542]
 [  0.3         19.02224292]
 [  0.32341667  21.20382854]]","[[0.         0.10864525]
 [0.1        1.61132735]
 [0.2        0.60180616]
 [0.3        0.93555132]
 [0.32341667 0.34417591]]",0,1.084
3,m,24,french,3,5,french,2024-02-07 14:00:07.182851,False,2,305,sounds\english\audio/english_368.wav,"[[  0.         -25.00542805]
 [  0.1        -48.20991773]
 [  0.2        -51.83604218]
 [  0.3         14.57062672]
 [  0.32341667 -26.77020505]]","[[0.         1.03431482]
 [0.1        0.92366821]
 [0.2        0.34019883]
 [0.3        1.21184807]
 [0.32341667 0.81530657]]",1,0.581
3,m,24,french,3,5,french,2024-02-07 14:00:07.182851,False,2,306,sounds\english\audio/english_536.wav,"[[  0.          19.16157828]
 [  0.1        -70.44875328]
 [  0.2          9.3844651 ]
 [  0.3         54.79833109]
 [  0.32341667 -43.58683919]]","[[0.         1.0914138 ]
 [0.1        1.55996729]
 [0.2        1.22014226]
 [0.3        0.24268308]
 [0.32341667 1.12643869]]",0,0.291
3,m,24,french,3,5,french,2024-02-07 14:00:07.182851,False,2,307,sounds\english\audio/english_666.wav,"[[  0.          -6.63307831]
 [  0.1        -47.66524373]
 [  0.2         66.93817534]
 [  0.3         -1.338646  ]
 [  0.32341667 -14.31927765]]","[[0.         0.44221414]
 [0.1        1.62559692]
 [0.2        0.27313334]
 [0.3        0.46846925]
 [0.32341667 1.08883823]]",1,1.178
3,m,24,french,3,5,french,2024-02-07 14:00:07.182851,False,2,308,sounds\english\audio/english_539.wav,"[[  0.         -67.77604021]
 [  0.1         61.22104537]
 [  0.2         38.09257369]
 [  0.3        -20.76875757]
 [  0.32341667 -47.71444482]]","[[0.         0.83598486]
 [0.1        1.51877163]
 [0.2        1.73578169]
 [0.3        0.52680037]
 [0.32341667 1.99278149]]",0,0.7
3,m,24,french,3,5,french,2024-02-07 14:00:07.182851,False,2,309,sounds\english\audio/english_903.wav,"[[  0.          73.58848698]
 [  0.1        -95.58060262]
 [  0.2         17.41642173]
 [  0.3         94.35223882]
 [  0.32341667 -49.48803877]]","[[0.         0.30588109]
 [0.1        0.88963747]
 [0.2        1.73634476]
 [0.3        0.71257749]
 [0.32341667 1.4824474 ]]",0,2.962
3,m,24,french,3,5,french,2024-02-07 14:00:07.182851,False,2,310,sounds\english\audio/english_216.wav,"[[  0.         -62.2888105 ]
 [  0.1        -52.19325919]
 [  0.2        -77.81566322]
 [  0.3         73.5246301 ]
 [  0.32341667  73.4409389 ]]","[[0.         1.07577895]
 [0.1        1.07125686]
 [0.2        1.51342084]
 [0.3        1.37714716]
 [0.32341667 1.55456291]]",1,0.437
3,m,24,french,3,5,french,2024-02-07 14:00:07.182851,False,2,311,sounds\english\audio/english_5.wav,"[[  0.         -15.92383461]
 [  0.1        -20.01914587]
 [  0.2         40.70457056]
 [  0.3        -94.67131236]
 [  0.32341667 -88.33027294]]","[[0.         0.27445408]
 [0.1        0.54328549]
 [0.2        0.32172142]
 [0.3        1.15903644]
 [0.32341667 0.94870148]]",0,1.946
3,m,24,french,3,5,french,2024-02-07 14:00:07.182851,False,2,312,sounds\english\audio/english_261.wav,"[[  0.         -19.34212076]
 [  0.1        -90.49371254]
 [  0.2         -2.84874079]
 [  0.3         26.59732755]
 [  0.32341667  39.97770901]]","[[0.         1.20182597]
 [0.1        0.701642  ]
 [0.2        0.72931556]
 [0.3        0.86687176]
 [0.32341667 1.42617677]]",1,0.755
3,m,24,french,3,5,french,2024-02-07 14:00:07.182851,False,2,313,sounds\english\audio/english_631.wav,"[[  0.         -74.37700429]
 [  0.1        -18.72790858]
 [  0.2        -40.03216697]
 [  0.3        -98.5967418 ]
 [  0.32341667 -41.89017921]]","[[0.         0.77307226]
 [0.1        0.75923189]
 [0.2        1.00825659]
 [0.3        1.46579839]
 [0.32341667 0.34107994]]",0,0.344
3,m,24,french,3,5,french,2024-02-07 14:00:07.182851,False,2,314,sounds\english\audio/english_996.wav,"[[  0.         -71.70531914]
 [  0.1        -47.61419544]
 [  0.2         48.0330823 ]
 [  0.3         34.27821317]
 [  0.32341667 -72.4662587 ]]","[[0.         1.36459419]
 [0.1        0.5051745 ]
 [0.2        1.09957376]
 [0.3        0.27950682]
 [0.32341667 0.22836241]]",1,0.461
3,m,24,french,3,5,french,2024-02-07 14:00:07.182851,False,2,315,sounds\english\audio/english_422.wav,"[[  0.         -79.81150205]
 [  0.1         -2.02836706]
 [  0.2        -11.18998235]
 [  0.3         52.04958687]
 [  0.32341667 -63.48776447]]","[[0.         1.34332733]
 [0.1        0.77514932]
 [0.2        0.33214039]
 [0.3        0.53493982]
 [0.32341667 0.45685022]]",1,0.765
3,m,24,french,3,5,french,2024-02-07 14:00:07.182851,False,2,316,sounds\english\audio/english_295.wav,"[[  0.         -76.51454746]
 [  0.1        -96.9380047 ]
 [  0.2        -72.79782389]
 [  0.3        -31.86888898]
 [  0.32341667 -51.47839766]]","[[0.         1.12273409]
 [0.1        0.2018376 ]
 [0.2        1.81703153]
 [0.3        0.31799467]
 [0.32341667 0.71777059]]",0,0.4
3,m,24,french,3,5,french,2024-02-07 14:00:07.182851,False,2,317,sounds\english\audio/english_636.wav,"[[  0.         -20.37295141]
 [  0.1        -84.7288786 ]
 [  0.2         24.84265136]
 [  0.3         -9.2443485 ]
 [  0.32341667  49.04875774]]","[[0.         1.69276631]
 [0.1        1.69908726]
 [0.2        1.44836333]
 [0.3        1.36647816]
 [0.32341667 0.88112598]]",0,1.016
3,m,24,french,3,5,french,2024-02-07 14:00:07.182851,False,2,318,sounds\english\audio/english_790.wav,"[[  0.          51.18493756]
 [  0.1        -64.70105349]
 [  0.2        -90.57968214]
 [  0.3        -94.64625917]
 [  0.32341667 -38.85953331]]","[[0.         0.66657869]
 [0.1        0.91857876]
 [0.2        1.26779222]
 [0.3        1.54144859]
 [0.32341667 1.32367104]]",0,0.668
3,m,24,french,3,5,french,2024-02-07 14:00:07.182851,False,2,319,sounds\english\audio/english_986.wav,"[[  0.          36.93997263]
 [  0.1        -76.80061303]
 [  0.2         60.8418497 ]
 [  0.3        -27.90828951]
 [  0.32341667  99.51838141]]","[[0.         1.7539978 ]
 [0.1        1.40735445]
 [0.2        0.62226098]
 [0.3        0.48175931]
 [0.32341667 1.5918282 ]]",1,0.697
3,m,24,french,3,5,french,2024-02-07 14:00:07.182851,False,2,320,sounds\english\audio/english_730.wav,"[[  0.          12.15035978]
 [  0.1        -56.22765555]
 [  0.2        -53.26534685]
 [  0.3        -25.75230742]
 [  0.32341667 -73.04726616]]","[[0.         0.91227818]
 [0.1        1.17022701]
 [0.2        0.58034143]
 [0.3        1.9562998 ]
 [0.32341667 1.99538846]]",0,0.41
3,m,24,french,3,5,french,2024-02-07 14:00:07.182851,False,2,321,sounds\english\audio/english_548.wav,"[[  0.          19.39315344]
 [  0.1         82.09582914]
 [  0.2        -65.55781301]
 [  0.3         -5.02691035]
 [  0.32341667  62.63141303]]","[[0.         0.41811488]
 [0.1        1.70384437]
 [0.2        1.82142436]
 [0.3        1.13784798]
 [0.32341667 1.73168063]]",1,2.54
3,m,24,french,3,5,french,2024-02-07 14:00:07.182851,False,2,322,sounds\english\audio/english_692.wav,"[[  0.         -29.13306787]
 [  0.1        -41.86406343]
 [  0.2        -94.94051661]
 [  0.3         78.40426091]
 [  0.32341667 -47.11562344]]","[[0.         0.55849531]
 [0.1        1.96517265]
 [0.2        0.19953253]
 [0.3        1.89357941]
 [0.32341667 1.37874109]]",0,0.423
3,m,24,french,3,5,french,2024-02-07 14:00:07.182851,False,2,323,sounds\english\audio/english_903.wav,"[[  0.          73.58848698]
 [  0.1        -95.58060262]
 [  0.2         17.41642173]
 [  0.3         94.35223882]
 [  0.32341667 -49.48803877]]","[[0.         0.30588109]
 [0.1        0.88963747]
 [0.2        1.73634476]
 [0.3        0.71257749]
 [0.32341667 1.4824474 ]]",0,0.675
3,m,24,french,3,5,french,2024-02-07 14:00:07.182851,False,2,324,sounds\english\audio/english_164.wav,"[[  0.         -18.99376005]
 [  0.1        -38.65269109]
 [  0.2         64.75288033]
 [  0.3        -33.8407164 ]
 [  0.32341667  27.96502681]]","[[0.         1.91320144]
 [0.1        0.23857652]
 [0.2        1.41883879]
 [0.3        1.34667564]
 [0.32341667 0.04602263]]",1,0.762
3,m,24,french,3,5,french,2024-02-07 14:00:07.182851,False,2,325,sounds\english\audio/english_659.wav,"[[  0.         -86.13080632]
 [  0.1         39.51927718]
 [  0.2         -6.22185106]
 [  0.3          5.64287294]
 [  0.32341667  47.08694279]]","[[0.         0.77157019]
 [0.1        1.34569204]
 [0.2        0.71695874]
 [0.3        1.04110125]
 [0.32341667 1.84115141]]",0,0.875
3,m,24,french,3,5,french,2024-02-07 14:00:07.182851,False,2,326,sounds\english\audio/english_837.wav,"[[  0.         -10.72674788]
 [  0.1         33.60933966]
 [  0.2         -1.37827911]
 [  0.3         29.3498758 ]
 [  0.32341667  31.86641091]]","[[0.         0.56055933]
 [0.1        1.16716927]
 [0.2        1.02731607]
 [0.3        1.96665864]
 [0.32341667 0.45425732]]",1,1.513
3,m,24,french,3,5,french,2024-02-07 14:00:07.182851,False,2,327,sounds\english\audio/english_804.wav,"[[  0.          11.23319328]
 [  0.1        -75.15189859]
 [  0.2          5.39397939]
 [  0.3         42.92141331]
 [  0.32341667 -79.84726866]]","[[0.         0.16159815]
 [0.1        1.76023076]
 [0.2        0.7355024 ]
 [0.3        1.74636497]
 [0.32341667 1.05562007]]",0,0.382
3,m,24,french,3,5,french,2024-02-07 14:00:07.182851,False,2,328,sounds\english\audio/english_32.wav,"[[  0.          89.50349963]
 [  0.1         51.51128255]
 [  0.2        -58.32910347]
 [  0.3         15.96172744]
 [  0.32341667  84.40449403]]","[[0.         1.73304916]
 [0.1        0.02192789]
 [0.2        1.71493142]
 [0.3        1.28451373]
 [0.32341667 1.22971166]]",1,0.656
3,m,24,french,3,5,french,2024-02-07 14:00:07.182851,False,2,329,sounds\english\audio/english_337.wav,"[[  0.          17.21863108]
 [  0.1        -16.30098312]
 [  0.2         70.17733319]
 [  0.3         -7.16478631]
 [  0.32341667 -84.96176299]]","[[0.         0.02346696]
 [0.1        1.2349353 ]
 [0.2        1.07823504]
 [0.3        1.83339424]
 [0.32341667 1.87583376]]",1,0.632
3,m,24,french,3,5,french,2024-02-07 14:00:07.182851,False,2,330,sounds\english\audio/english_321.wav,"[[ 0.          2.07721816]
 [ 0.1        59.48735819]
 [ 0.2        64.78149714]
 [ 0.3        65.58393414]
 [ 0.32341667 14.66673939]]","[[0.         1.69623759]
 [0.1        1.35736687]
 [0.2        1.92920457]
 [0.3        0.66559077]
 [0.32341667 1.66523208]]",0,0.487
3,m,24,french,3,5,french,2024-02-07 14:00:07.182851,False,2,331,sounds\english\audio/english_300.wav,"[[  0.         -57.32903368]
 [  0.1        -14.80176218]
 [  0.2         17.32090115]
 [  0.3          9.38584248]
 [  0.32341667 -54.58865419]]","[[0.         1.31106943]
 [0.1        1.36432179]
 [0.2        1.9756976 ]
 [0.3        1.38621255]
 [0.32341667 1.60203422]]",0,0.29
3,m,24,french,3,5,french,2024-02-07 14:00:07.182851,False,2,332,sounds\english\audio/english_138.wav,"[[  0.         -79.80620147]
 [  0.1        -15.42889109]
 [  0.2        -88.31677226]
 [  0.3         26.6486106 ]
 [  0.32341667 -42.18894711]]","[[0.         0.37063564]
 [0.1        0.81801141]
 [0.2        0.0634538 ]
 [0.3        1.85131452]
 [0.32341667 1.66059024]]",1,0.299
3,m,24,french,3,5,french,2024-02-07 14:00:07.182851,False,2,333,sounds\english\audio/english_868.wav,"[[  0.         -32.61379415]
 [  0.1        -13.61007492]
 [  0.2        -35.23756027]
 [  0.3         83.12333319]
 [  0.32341667  62.80865362]]","[[0.         0.76599538]
 [0.1        0.34348987]
 [0.2        0.26787397]
 [0.3        0.46343078]
 [0.32341667 1.59158725]]",1,0.409
3,m,24,french,3,5,french,2024-02-07 14:00:07.182851,False,2,334,sounds\english\audio/english_786.wav,"[[  0.          50.77560123]
 [  0.1        -87.08435808]
 [  0.2        -36.07136163]
 [  0.3         98.77618087]
 [  0.32341667  86.70070823]]","[[0.         0.9907589 ]
 [0.1        0.48193409]
 [0.2        1.01949061]
 [0.3        1.06334926]
 [0.32341667 0.94164836]]",0,0.367
3,m,24,french,3,5,french,2024-02-07 14:00:07.182851,False,2,335,sounds\english\audio/english_97.wav,"[[  0.          57.21139396]
 [  0.1         -7.40408397]
 [  0.2         77.7995227 ]
 [  0.3        -51.1747528 ]
 [  0.32341667  77.11982253]]","[[0.         1.63402743]
 [0.1        0.54734888]
 [0.2        1.5228594 ]
 [0.3        1.13050105]
 [0.32341667 0.82586999]]",0,0.441
3,m,24,french,3,5,french,2024-02-07 14:00:07.182851,False,2,336,sounds\english\audio/english_195.wav,"[[ 0.         88.76446124]
 [ 0.1        56.50909504]
 [ 0.2        -5.11157055]
 [ 0.3        14.19517065]
 [ 0.32341667 67.19148892]]","[[0.         0.85936173]
 [0.1        1.06337161]
 [0.2        1.01766647]
 [0.3        1.03928052]
 [0.32341667 1.18131313]]",0,0.445
3,m,24,french,3,5,french,2024-02-07 14:00:07.182851,False,2,337,sounds\english\audio/english_186.wav,"[[  0.         -54.7664391 ]
 [  0.1         -8.4263529 ]
 [  0.2          6.22451559]
 [  0.3        -12.35671223]
 [  0.32341667  86.21839615]]","[[0.         1.87021502]
 [0.1        1.36390049]
 [0.2        1.69942617]
 [0.3        1.8066537 ]
 [0.32341667 1.2511354 ]]",0,0.365
3,m,24,french,3,5,french,2024-02-07 14:00:07.182851,False,2,338,sounds\english\audio/english_42.wav,"[[  0.         -15.36487641]
 [  0.1         11.43696078]
 [  0.2         34.58464447]
 [  0.3         68.67640378]
 [  0.32341667 -67.59461511]]","[[0.         1.81244548]
 [0.1        1.472484  ]
 [0.2        0.21504119]
 [0.3        0.80253652]
 [0.32341667 1.53231421]]",1,0.61
3,m,24,french,3,5,french,2024-02-07 14:00:07.182851,False,2,339,sounds\english\audio/english_831.wav,"[[  0.          -7.33710711]
 [  0.1        -87.69782071]
 [  0.2         34.03975531]
 [  0.3         -2.18295653]
 [  0.32341667  20.908766  ]]","[[0.         1.53159971]
 [0.1        1.22669962]
 [0.2        0.70180407]
 [0.3        1.02244347]
 [0.32341667 1.06702443]]",0,0.239
3,m,24,french,3,5,french,2024-02-07 14:00:07.182851,False,2,340,sounds\english\audio/english_265.wav,"[[  0.         -30.2287418 ]
 [  0.1         86.62283936]
 [  0.2        -21.47577863]
 [  0.3         84.9300577 ]
 [  0.32341667  59.52250756]]","[[0.         1.31067296]
 [0.1        0.87427745]
 [0.2        1.37620008]
 [0.3        0.45825557]
 [0.32341667 1.13518739]]",0,0.28
3,m,24,french,3,5,french,2024-02-07 14:00:07.182851,False,2,341,sounds\english\audio/english_525.wav,"[[  0.         -21.23223701]
 [  0.1          3.49974992]
 [  0.2        -75.71526263]
 [  0.3        -52.87512147]
 [  0.32341667  17.79573657]]","[[0.         1.69398532]
 [0.1        0.25491439]
 [0.2        0.17370365]
 [0.3        0.81797459]
 [0.32341667 0.70176203]]",1,0.414
3,m,24,french,3,5,french,2024-02-07 14:00:07.182851,False,2,342,sounds\english\audio/english_590.wav,"[[  0.         -36.198224  ]
 [  0.1        -81.6019347 ]
 [  0.2         23.00860846]
 [  0.3        -40.72667736]
 [  0.32341667  31.06175796]]","[[0.         1.58650853]
 [0.1        0.24081988]
 [0.2        0.40073912]
 [0.3        0.83686248]
 [0.32341667 1.43958247]]",1,0.549
3,m,24,french,3,5,french,2024-02-07 14:00:07.182851,False,2,343,sounds\english\audio/english_225.wav,"[[  0.          66.72796839]
 [  0.1          3.03768966]
 [  0.2        -45.96345052]
 [  0.3        -88.14676012]
 [  0.32341667  46.76760659]]","[[0.         1.97535322]
 [0.1        1.18784527]
 [0.2        1.58393351]
 [0.3        1.17885171]
 [0.32341667 1.387907  ]]",0,0.254
3,m,24,french,3,5,french,2024-02-07 14:00:07.182851,False,2,344,sounds\english\audio/english_33.wav,"[[  0.          13.53683954]
 [  0.1        -23.61599557]
 [  0.2         60.58241295]
 [  0.3         -2.03686091]
 [  0.32341667  79.90239576]]","[[0.         1.37746345]
 [0.1        1.14776292]
 [0.2        1.15899553]
 [0.3        0.64766031]
 [0.32341667 1.69768968]]",0,0.372
3,m,24,french,3,5,french,2024-02-07 14:00:07.182851,False,2,345,sounds\english\audio/english_14.wav,"[[  0.          98.00979643]
 [  0.1        -39.90204919]
 [  0.2         51.0517473 ]
 [  0.3         -8.39716694]
 [  0.32341667  82.54419716]]","[[0.         0.92494293]
 [0.1        0.80403915]
 [0.2        0.29426005]
 [0.3        0.14957292]
 [0.32341667 0.1717279 ]]",1,0.566
3,m,24,french,3,5,french,2024-02-07 14:00:07.182851,False,2,346,sounds\english\audio/english_228.wav,"[[  0.          10.35680964]
 [  0.1        -84.53961792]
 [  0.2         38.41788342]
 [  0.3         -9.18015311]
 [  0.32341667 -12.25744947]]","[[0.         1.81276751]
 [0.1        0.9819477 ]
 [0.2        1.68506606]
 [0.3        0.19219142]
 [0.32341667 1.99636764]]",0,0.23
3,m,24,french,3,5,french,2024-02-07 14:00:07.182851,False,2,347,sounds\english\audio/english_288.wav,"[[  0.          35.15100251]
 [  0.1         49.55485069]
 [  0.2         28.604189  ]
 [  0.3         38.59633835]
 [  0.32341667 -98.9026904 ]]","[[0.         1.01330681]
 [0.1        0.90213232]
 [0.2        1.8181607 ]
 [0.3        1.82579698]
 [0.32341667 0.14571105]]",0,0.333
3,m,24,french,3,5,french,2024-02-07 14:00:07.182851,False,2,348,sounds\english\audio/english_679.wav,"[[ 0.         37.61966445]
 [ 0.1        51.99791738]
 [ 0.2        47.28862711]
 [ 0.3        96.96405016]
 [ 0.32341667 17.22990972]]","[[0.         0.05085037]
 [0.1        0.83446012]
 [0.2        0.17034906]
 [0.3        1.15010704]
 [0.32341667 1.32170415]]",1,0.466
3,m,24,french,3,5,french,2024-02-07 14:00:07.182851,False,2,349,sounds\english\audio/english_877.wav,"[[  0.          49.36401037]
 [  0.1         15.17280231]
 [  0.2         22.36436744]
 [  0.3        -25.51979868]
 [  0.32341667 -55.72443313]]","[[0.         1.25510861]
 [0.1        0.84700305]
 [0.2        0.32703774]
 [0.3        1.72637958]
 [0.32341667 0.52117686]]",0,0.509
3,m,24,french,3,5,french,2024-02-07 14:00:07.182851,False,2,350,sounds\english\audio/english_486.wav,"[[  0.          31.41997184]
 [  0.1         58.03480486]
 [  0.2        -62.84801238]
 [  0.3         10.62451678]
 [  0.32341667  10.31835057]]","[[0.         1.22599644]
 [0.1        1.4547445 ]
 [0.2        0.27967606]
 [0.3        0.02065399]
 [0.32341667 0.3128479 ]]",0,1.383
3,m,24,french,3,5,french,2024-02-07 14:00:07.182851,False,2,351,sounds\english\audio/english_786.wav,"[[  0.          50.77560123]
 [  0.1        -87.08435808]
 [  0.2        -36.07136163]
 [  0.3         98.77618087]
 [  0.32341667  86.70070823]]","[[0.         0.9907589 ]
 [0.1        0.48193409]
 [0.2        1.01949061]
 [0.3        1.06334926]
 [0.32341667 0.94164836]]",1,0.426
3,m,24,french,3,5,french,2024-02-07 14:00:07.182851,False,2,352,sounds\english\audio/english_103.wav,"[[  0.         -79.54710498]
 [  0.1        -41.31314025]
 [  0.2        -48.58046961]
 [  0.3         50.88097047]
 [  0.32341667  21.22320476]]","[[0.         0.84178061]
 [0.1        1.9706485 ]
 [0.2        1.55059924]
 [0.3        1.14550684]
 [0.32341667 1.67039139]]",0,0.31
3,m,24,french,3,5,french,2024-02-07 14:00:07.182851,False,2,353,sounds\english\audio/english_840.wav,"[[  0.         -27.11425843]
 [  0.1        -47.31494811]
 [  0.2        -88.66887426]
 [  0.3          7.86940595]
 [  0.32341667  87.61758205]]","[[0.         1.31301797]
 [0.1        0.54280133]
 [0.2        0.14090987]
 [0.3        0.11950116]
 [0.32341667 1.48166624]]",1,0.476
3,m,24,french,3,5,french,2024-02-07 14:00:07.182851,False,2,354,sounds\english\audio/english_205.wav,"[[  0.          55.03693902]
 [  0.1         59.05347117]
 [  0.2        -51.93258482]
 [  0.3        -18.66886592]
 [  0.32341667 -25.16213195]]","[[0.         1.41699591]
 [0.1        0.25749205]
 [0.2        1.78695407]
 [0.3        0.11157042]
 [0.32341667 1.74030417]]",0,0.186
3,m,24,french,3,5,french,2024-02-07 14:00:07.182851,False,2,355,sounds\english\audio/english_935.wav,"[[  0.          64.39543101]
 [  0.1         86.95314533]
 [  0.2        -18.93400703]
 [  0.3         36.25821345]
 [  0.32341667 -52.75689815]]","[[0.         0.53440609]
 [0.1        0.5847186 ]
 [0.2        0.87093815]
 [0.3        1.35336039]
 [0.32341667 1.46825192]]",1,0.458
3,m,24,french,3,5,french,2024-02-07 14:00:07.182851,False,2,356,sounds\english\audio/english_298.wav,"[[  0.         -71.75530507]
 [  0.1         76.25876358]
 [  0.2         11.95102224]
 [  0.3         79.91037795]
 [  0.32341667  30.12462174]]","[[0.         0.91890611]
 [0.1        0.7322353 ]
 [0.2        0.50601445]
 [0.3        0.41160049]
 [0.32341667 0.81223035]]",1,0.415
3,m,24,french,3,5,french,2024-02-07 14:00:07.182851,False,2,357,sounds\english\audio/english_187.wav,"[[  0.         -18.35695568]
 [  0.1         10.21632188]
 [  0.2          0.69047377]
 [  0.3         67.68385624]
 [  0.32341667  48.15291114]]","[[0.         0.61755768]
 [0.1        1.6626445 ]
 [0.2        0.70950015]
 [0.3        0.8856252 ]
 [0.32341667 1.92627472]]",0,0.186
3,m,24,french,3,5,french,2024-02-07 14:00:07.182851,False,2,358,sounds\english\audio/english_697.wav,"[[ 0.00000000e+00  3.48877197e+01]
 [ 1.00000000e-01 -1.29750448e-02]
 [ 2.00000000e-01  4.88877829e+01]
 [ 3.00000000e-01  6.85745634e+01]
 [ 3.23416667e-01  1.89536775e+01]]","[[0.         0.10761674]
 [0.1        0.88035305]
 [0.2        0.12183403]
 [0.3        0.55306263]
 [0.32341667 1.83833688]]",1,0.389
3,m,24,french,3,5,french,2024-02-07 14:00:07.182851,False,2,359,sounds\english\audio/english_930.wav,"[[  0.         -52.65701122]
 [  0.1        -24.36484499]
 [  0.2          4.10813066]
 [  0.3         93.74919515]
 [  0.32341667  66.31726896]]","[[0.         0.60066533]
 [0.1        1.33650528]
 [0.2        0.15979886]
 [0.3        1.46288505]
 [0.32341667 0.93993915]]",0,0.247
3,m,24,french,3,5,french,2024-02-07 14:00:07.182851,False,2,360,sounds\english\audio/english_1.wav,"[[  0.          53.99031816]
 [  0.1        -58.32145174]
 [  0.2        -86.75659624]
 [  0.3        -31.84945767]
 [  0.32341667 -59.21997754]]","[[0.         1.91732561]
 [0.1        0.75352701]
 [0.2        1.40297919]
 [0.3        0.12157709]
 [0.32341667 1.57687546]]",0,0.561
3,m,24,french,3,5,french,2024-02-07 14:00:07.182851,False,2,361,sounds\english\audio/english_780.wav,"[[  0.         -15.29393571]
 [  0.1        -51.86215325]
 [  0.2        -27.43889325]
 [  0.3         37.56841363]
 [  0.32341667 -40.51855496]]","[[0.         0.99089132]
 [0.1        0.3216491 ]
 [0.2        1.38797184]
 [0.3        0.96060741]
 [0.32341667 0.89048449]]",0,0.45
3,m,24,french,3,5,french,2024-02-07 14:00:07.182851,False,2,362,sounds\english\audio/english_456.wav,"[[ 0.         43.57092671]
 [ 0.1        59.73787768]
 [ 0.2        82.18665257]
 [ 0.3        84.09992258]
 [ 0.32341667 14.68455092]]","[[0.         0.12750432]
 [0.1        0.97340157]
 [0.2        0.43547726]
 [0.3        1.17970357]
 [0.32341667 0.64309566]]",1,0.685
3,m,24,french,3,5,french,2024-02-07 14:00:07.182851,False,2,363,sounds\english\audio/english_375.wav,"[[  0.          18.096335  ]
 [  0.1        -55.77885891]
 [  0.2        -79.80603762]
 [  0.3        -57.7566014 ]
 [  0.32341667  74.14673873]]","[[0.         0.30735121]
 [0.1        1.17808606]
 [0.2        1.03107785]
 [0.3        0.46519988]
 [0.32341667 1.41875211]]",0,0.178
3,m,24,french,3,5,french,2024-02-07 14:00:07.182851,False,2,364,sounds\english\audio/english_681.wav,"[[ 0.         65.45313908]
 [ 0.1        23.22224239]
 [ 0.2        44.35096717]
 [ 0.3        67.45757963]
 [ 0.32341667 55.5822091 ]]","[[0.         1.43173201]
 [0.1        1.64604346]
 [0.2        0.82186037]
 [0.3        0.26689352]
 [0.32341667 1.64490636]]",0,0.389
3,m,24,french,3,5,french,2024-02-07 14:00:07.182851,False,2,365,sounds\english\audio/english_901.wav,"[[  0.         -14.81770559]
 [  0.1        -27.73561163]
 [  0.2        -22.44015454]
 [  0.3        -41.34815185]
 [  0.32341667  10.13492358]]","[[0.         1.5194741 ]
 [0.1        1.98674938]
 [0.2        0.54356598]
 [0.3        1.30497628]
 [0.32341667 0.61526789]]",0,0.401
3,m,24,french,3,5,french,2024-02-07 14:00:07.182851,False,2,366,sounds\english\audio/english_324.wav,"[[  0.          49.07155908]
 [  0.1        -58.77252084]
 [  0.2        -55.40155542]
 [  0.3         19.02224292]
 [  0.32341667  21.20382854]]","[[0.         0.10864525]
 [0.1        1.61132735]
 [0.2        0.60180616]
 [0.3        0.93555132]
 [0.32341667 0.34417591]]",1,0.284
3,m,24,french,3,5,french,2024-02-07 14:00:07.182851,False,2,367,sounds\english\audio/english_807.wav,"[[  0.         -70.27095807]
 [  0.1         84.77391363]
 [  0.2        -27.52537388]
 [  0.3         36.82986288]
 [  0.32341667  16.63983573]]","[[0.         1.48455572]
 [0.1        1.24837561]
 [0.2        0.77726095]
 [0.3        1.65388598]
 [0.32341667 1.10343216]]",0,0.221
3,m,24,french,3,5,french,2024-02-07 14:00:07.182851,False,2,368,sounds\english\audio/english_288.wav,"[[  0.          35.15100251]
 [  0.1         49.55485069]
 [  0.2         28.604189  ]
 [  0.3         38.59633835]
 [  0.32341667 -98.9026904 ]]","[[0.         1.01330681]
 [0.1        0.90213232]
 [0.2        1.8181607 ]
 [0.3        1.82579698]
 [0.32341667 0.14571105]]",0,0.19
3,m,24,french,3,5,french,2024-02-07 14:00:07.182851,False,2,369,sounds\english\audio/english_213.wav,"[[  0.         -29.91874444]
 [  0.1         41.64704809]
 [  0.2        -87.11075848]
 [  0.3        -61.54877495]
 [  0.32341667 -34.29429643]]","[[0.         1.42031243]
 [0.1        0.59218852]
 [0.2        1.10576613]
 [0.3        0.09529021]
 [0.32341667 1.15583312]]",1,0.432
3,m,24,french,3,5,french,2024-02-07 14:00:07.182851,False,2,370,sounds\english\audio/english_923.wav,"[[  0.          -0.59122564]
 [  0.1         -5.70499959]
 [  0.2        -29.88927864]
 [  0.3        -82.02126299]
 [  0.32341667  16.89967319]]","[[0.         1.19594648]
 [0.1        1.05419104]
 [0.2        0.73000078]
 [0.3        1.36390543]
 [0.32341667 1.13865732]]",0,0.229
3,m,24,french,3,5,french,2024-02-07 14:00:07.182851,False,2,371,sounds\english\audio/english_87.wav,"[[  0.          54.83056612]
 [  0.1         56.31531505]
 [  0.2        -65.55002777]
 [  0.3        -25.15788212]
 [  0.32341667  22.72349562]]","[[0.         1.56132998]
 [0.1        1.28614089]
 [0.2        1.44579989]
 [0.3        0.3607766 ]
 [0.32341667 0.17745198]]",0,0.239
3,m,24,french,3,5,french,2024-02-07 14:00:07.182851,False,2,372,sounds\english\audio/english_662.wav,"[[  0.         -34.20942979]
 [  0.1        -64.9220759 ]
 [  0.2        -46.13526655]
 [  0.3         16.61128262]
 [  0.32341667 -72.42442326]]","[[0.         0.58122658]
 [0.1        0.35407044]
 [0.2        1.02300599]
 [0.3        0.09808433]
 [0.32341667 0.71975239]]",1,0.304
3,m,24,french,3,5,french,2024-02-07 14:00:07.182851,False,2,373,sounds\english\audio/english_818.wav,"[[  0.          88.49542613]
 [  0.1         -7.37005163]
 [  0.2         -1.58613611]
 [  0.3        -69.41222379]
 [  0.32341667  14.01707612]]","[[0.         1.4873036 ]
 [0.1        1.25102077]
 [0.2        0.80764036]
 [0.3        0.80656775]
 [0.32341667 1.41859799]]",0,0.082
3,m,24,french,3,5,french,2024-02-07 14:00:07.182851,False,2,374,sounds\english\audio/english_631.wav,"[[  0.         -74.37700429]
 [  0.1        -18.72790858]
 [  0.2        -40.03216697]
 [  0.3        -98.5967418 ]
 [  0.32341667 -41.89017921]]","[[0.         0.77307226]
 [0.1        0.75923189]
 [0.2        1.00825659]
 [0.3        1.46579839]
 [0.32341667 0.34107994]]",0,0.171
3,m,24,french,3,5,french,2024-02-07 14:00:07.182851,False,2,375,sounds\english\audio/english_172.wav,"[[  0.           8.59493981]
 [  0.1        -56.34346079]
 [  0.2        -95.76423912]
 [  0.3         11.69646411]
 [  0.32341667 -55.10661496]]","[[0.         0.93080222]
 [0.1        0.53387901]
 [0.2        0.34406097]
 [0.3        0.74935371]
 [0.32341667 0.42041327]]",1,0.47
3,m,24,french,3,5,french,2024-02-07 14:00:07.182851,False,2,376,sounds\english\audio/english_675.wav,"[[  0.         -31.75128323]
 [  0.1         60.52679753]
 [  0.2        -22.8835824 ]
 [  0.3         -6.32596177]
 [  0.32341667 -61.06491024]]","[[0.         1.35198954]
 [0.1        1.32787853]
 [0.2        1.57632911]
 [0.3        0.80140737]
 [0.32341667 0.99818917]]",0,0.177
3,m,24,french,3,5,french,2024-02-07 14:00:07.182851,False,2,377,sounds\english\audio/english_397.wav,"[[  0.          89.67962381]
 [  0.1        -80.29722345]
 [  0.2         60.53564011]
 [  0.3          9.94565725]
 [  0.32341667   0.1319882 ]]","[[0.         0.42719638]
 [0.1        0.89466904]
 [0.2        0.56174568]
 [0.3        0.1553242 ]
 [0.32341667 1.89079641]]",1,0.547
3,m,24,french,3,5,french,2024-02-07 14:00:07.182851,False,2,378,sounds\english\audio/english_766.wav,"[[  0.         -86.57417509]
 [  0.1        -67.75686223]
 [  0.2         74.21258041]
 [  0.3         65.20164426]
 [  0.32341667 -26.41371036]]","[[0.         1.21737292]
 [0.1        1.61484435]
 [0.2        1.47872362]
 [0.3        1.81064247]
 [0.32341667 1.37776493]]",0,0.031
3,m,24,french,3,5,french,2024-02-07 14:00:07.182851,False,2,379,sounds\english\audio/english_733.wav,"[[  0.         -77.09135463]
 [  0.1        -30.68901019]
 [  0.2        -27.18135709]
 [  0.3        -10.74804936]
 [  0.32341667 -57.14773718]]","[[0.         1.21028291]
 [0.1        1.14931675]
 [0.2        1.68866455]
 [0.3        0.29390693]
 [0.32341667 0.43305962]]",0,0.201
3,m,24,french,3,5,french,2024-02-07 14:00:07.182851,False,2,380,sounds\english\audio/english_569.wav,"[[  0.         -44.4695194 ]
 [  0.1         50.36705327]
 [  0.2        -76.17438636]
 [  0.3         55.47083669]
 [  0.32341667 -10.68913609]]","[[0.         1.56768834]
 [0.1        0.42032873]
 [0.2        0.31133764]
 [0.3        0.91900801]
 [0.32341667 1.26529561]]",1,0.267
3,m,24,french,3,5,french,2024-02-07 14:00:07.182851,False,2,381,sounds\english\audio/english_886.wav,"[[  0.          52.0334205 ]
 [  0.1        -34.60142464]
 [  0.2         77.69993065]
 [  0.3         29.08950905]
 [  0.32341667 -98.8324779 ]]","[[0.         0.43451348]
 [0.1        1.57387994]
 [0.2        1.05416836]
 [0.3        0.32554246]
 [0.32341667 1.85669509]]",0,0.115
3,m,24,french,3,5,french,2024-02-07 14:00:07.182851,False,2,382,sounds\english\audio/english_243.wav,"[[  0.         -74.41503345]
 [  0.1        -16.65530333]
 [  0.2         -1.41224798]
 [  0.3         37.30419975]
 [  0.32341667  -3.40378668]]","[[0.         0.65151457]
 [0.1        0.20623253]
 [0.2        0.87153721]
 [0.3        0.28583671]
 [0.32341667 1.90700275]]",1,0.334
3,m,24,french,3,5,french,2024-02-07 14:00:07.182851,False,2,383,sounds\english\audio/english_437.wav,"[[  0.          61.91803223]
 [  0.1          0.99543568]
 [  0.2        -50.96874522]
 [  0.3        -47.73319396]
 [  0.32341667  15.35939938]]","[[0.         0.36516876]
 [0.1        0.43500315]
 [0.2        1.25398366]
 [0.3        0.60570222]
 [0.32341667 0.97208355]]",1,0.395
3,m,24,french,3,5,french,2024-02-07 14:00:07.182851,False,2,384,sounds\english\audio/english_1000.wav,"[[  0.          27.35321797]
 [  0.1         42.13438871]
 [  0.2         95.34760893]
 [  0.3        -34.10168873]
 [  0.32341667  64.49689477]]","[[0.         1.01803417]
 [0.1        0.4558176 ]
 [0.2        0.52251179]
 [0.3        0.90165507]
 [0.32341667 0.38395199]]",1,0.388
3,m,24,french,3,5,french,2024-02-07 14:00:07.182851,False,2,385,sounds\english\audio/english_935.wav,"[[  0.          64.39543101]
 [  0.1         86.95314533]
 [  0.2        -18.93400703]
 [  0.3         36.25821345]
 [  0.32341667 -52.75689815]]","[[0.         0.53440609]
 [0.1        0.5847186 ]
 [0.2        0.87093815]
 [0.3        1.35336039]
 [0.32341667 1.46825192]]",1,0.293
3,m,24,french,3,5,french,2024-02-07 14:00:07.182851,False,2,386,sounds\english\audio/english_846.wav,"[[  0.          61.87306923]
 [  0.1         -5.64177324]
 [  0.2         86.75305487]
 [  0.3        -27.71752308]
 [  0.32341667 -26.78048177]]","[[0.         1.6800264 ]
 [0.1        0.32387551]
 [0.2        0.09122421]
 [0.3        0.55014386]
 [0.32341667 0.82256102]]",1,0.413
3,m,24,french,3,5,french,2024-02-07 14:00:07.182851,False,2,387,sounds\english\audio/english_814.wav,"[[  0.         -63.32480856]
 [  0.1         34.42157774]
 [  0.2         -1.27362148]
 [  0.3         11.18388565]
 [  0.32341667  -9.56708644]]","[[0.         1.93717082]
 [0.1        0.66627456]
 [0.2        1.33718687]
 [0.3        1.12749716]
 [0.32341667 0.66623879]]",0,0.08
3,m,24,french,3,5,french,2024-02-07 14:00:07.182851,False,2,388,sounds\english\audio/english_301.wav,"[[  0.         -78.18927369]
 [  0.1         -3.52439177]
 [  0.2        -23.22473782]
 [  0.3        -11.7220967 ]
 [  0.32341667  -5.78047748]]","[[0.         1.31935747]
 [0.1        1.41636911]
 [0.2        1.38842862]
 [0.3        1.25169603]
 [0.32341667 1.38740104]]",0,0.181
3,m,24,french,3,5,french,2024-02-07 14:00:07.182851,False,2,389,sounds\english\audio/english_326.wav,"[[  0.         -13.70476372]
 [  0.1         47.7156259 ]
 [  0.2         23.24839736]
 [  0.3         67.08212267]
 [  0.32341667  78.79356023]]","[[0.         1.64570887]
 [0.1        0.91266102]
 [0.2        0.36997562]
 [0.3        1.96258237]
 [0.32341667 1.01334204]]",1,0.068
3,m,24,french,3,5,french,2024-02-07 14:00:07.182851,False,2,390,sounds\english\audio/english_314.wav,"[[  0.         -64.95449137]
 [  0.1         41.76232806]
 [  0.2         68.0199099 ]
 [  0.3        -18.86846342]
 [  0.32341667  -2.58545886]]","[[0.         1.33019215]
 [0.1        0.95010379]
 [0.2        0.0418164 ]
 [0.3        0.3847457 ]
 [0.32341667 1.31154336]]",0,1.135
3,m,24,french,3,5,french,2024-02-07 14:00:07.182851,False,2,391,sounds\english\audio/english_297.wav,"[[  0.          43.84745313]
 [  0.1        -76.77337823]
 [  0.2         52.72097055]
 [  0.3        -53.36684977]
 [  0.32341667  81.15212258]]","[[0.         1.28698197]
 [0.1        0.55126404]
 [0.2        0.14077967]
 [0.3        1.29889067]
 [0.32341667 1.30715655]]",1,0.271
3,m,24,french,3,5,french,2024-02-07 14:00:07.182851,False,2,392,sounds\english\audio/english_512.wav,"[[  0.          92.76608442]
 [  0.1        -20.68005196]
 [  0.2        -55.10098951]
 [  0.3         79.8086149 ]
 [  0.32341667 -91.21136492]]","[[0.         1.91273189]
 [0.1        1.02897077]
 [0.2        0.7965214 ]
 [0.3        1.98502062]
 [0.32341667 0.13323305]]",0,0.055
3,m,24,french,3,5,french,2024-02-07 14:00:07.182851,False,2,393,sounds\english\audio/english_864.wav,"[[  0.         -41.66547405]
 [  0.1         47.36949562]
 [  0.2         87.97635609]
 [  0.3        -18.88921291]
 [  0.32341667  13.88839096]]","[[0.         0.15536101]
 [0.1        1.78739046]
 [0.2        1.48310956]
 [0.3        0.35838492]
 [0.32341667 0.21709894]]",0,0.154
3,m,24,french,3,5,french,2024-02-07 14:00:07.182851,False,2,394,sounds\english\audio/english_310.wav,"[[  0.          82.1385274 ]
 [  0.1        -33.74608058]
 [  0.2         62.12487376]
 [  0.3         96.31437548]
 [  0.32341667 -23.64802517]]","[[0.         0.14341218]
 [0.1        1.80934389]
 [0.2        1.28785402]
 [0.3        1.13060378]
 [0.32341667 1.05137249]]",0,0.082
3,m,24,french,3,5,french,2024-02-07 14:00:07.182851,False,2,395,sounds\english\audio/english_788.wav,"[[  0.         -93.79628683]
 [  0.1        -45.29703147]
 [  0.2        -46.01001772]
 [  0.3        -56.6729179 ]
 [  0.32341667  51.29020462]]","[[0.         0.67330318]
 [0.1        1.33385595]
 [0.2        1.35248941]
 [0.3        1.33220146]
 [0.32341667 1.32468206]]",0,0.107
3,m,24,french,3,5,french,2024-02-07 14:00:07.182851,False,2,396,sounds\english\audio/english_725.wav,"[[  0.          26.80600371]
 [  0.1         82.24352357]
 [  0.2         -3.79901328]
 [  0.3         68.54562933]
 [  0.32341667 -39.79698803]]","[[0.         0.25466557]
 [0.1        0.77088778]
 [0.2        0.70697722]
 [0.3        1.24247197]
 [0.32341667 1.34526742]]",1,0.145
3,m,24,french,3,5,french,2024-02-07 14:00:07.182851,False,2,397,sounds\english\audio/english_894.wav,"[[  0.          55.36181915]
 [  0.1          1.74798824]
 [  0.2         53.5320483 ]
 [  0.3        -10.60196251]
 [  0.32341667  46.95013059]]","[[0.         0.37154348]
 [0.1        0.78809476]
 [0.2        0.08099688]
 [0.3        1.90254096]
 [0.32341667 0.68783971]]",1,0.274
3,m,24,french,3,5,french,2024-02-07 14:00:07.182851,False,2,398,sounds\english\audio/english_212.wav,"[[  0.          -8.03708838]
 [  0.1         72.60121642]
 [  0.2        -98.76374397]
 [  0.3         31.47742107]
 [  0.32341667  53.59344022]]","[[0.         0.69940518]
 [0.1        1.0039509 ]
 [0.2        1.17731185]
 [0.3        0.88066499]
 [0.32341667 0.33624016]]",0,0.224
3,m,24,french,3,5,french,2024-02-07 14:00:07.182851,False,2,399,sounds\english\audio/english_953.wav,"[[  0.         -16.02430182]
 [  0.1         29.58660593]
 [  0.2        -69.77021268]
 [  0.3         10.24378989]
 [  0.32341667 -68.66835117]]","[[0.         0.31806788]
 [0.1        0.5983964 ]
 [0.2        1.47459901]
 [0.3        1.63555671]
 [0.32341667 1.74756834]]",1,0.068
3,m,24,french,3,5,french,2024-02-07 14:00:07.182851,False,2,400,sounds\english\audio/english_58.wav,"[[  0.          20.12478601]
 [  0.1        -22.60038942]
 [  0.2         34.38627512]
 [  0.3         30.90369434]
 [  0.32341667  11.39971337]]","[[0.         1.19415515]
 [0.1        0.26098942]
 [0.2        1.99195241]
 [0.3        0.42925074]
 [0.32341667 0.50368767]]",0,0.51
3,m,24,french,3,5,french,2024-02-07 14:00:07.182851,False,2,401,sounds\english\audio/english_647.wav,"[[  0.          -8.76796469]
 [  0.1        -49.13996982]
 [  0.2         43.79634461]
 [  0.3          5.5781311 ]
 [  0.32341667  17.41251701]]","[[0.         1.6238225 ]
 [0.1        1.56934089]
 [0.2        0.78560304]
 [0.3        0.61771672]
 [0.32341667 1.2404866 ]]",0,0.405
3,m,24,french,3,5,french,2024-02-07 14:00:07.182851,False,2,402,sounds\english\audio/english_19.wav,"[[  0.          51.84788699]
 [  0.1         59.68091475]
 [  0.2        -27.71167756]
 [  0.3        -29.56443604]
 [  0.32341667 -58.55228515]]","[[0.         0.3981759 ]
 [0.1        1.61217409]
 [0.2        0.35158216]
 [0.3        0.8770992 ]
 [0.32341667 0.51670124]]",1,0.367
3,m,24,french,3,5,french,2024-02-07 14:00:07.182851,False,2,403,sounds\english\audio/english_272.wav,"[[  0.          61.82030971]
 [  0.1          4.16580657]
 [  0.2        -53.2567432 ]
 [  0.3        -52.99830768]
 [  0.32341667 -92.9943793 ]]","[[0.         1.51341556]
 [0.1        0.43290826]
 [0.2        1.82734584]
 [0.3        0.22094446]
 [0.32341667 1.88040337]]",0,0.163
3,m,24,french,3,5,french,2024-02-07 14:00:07.182851,False,2,404,sounds\english\audio/english_775.wav,"[[ 0.         58.00753923]
 [ 0.1        88.61433734]
 [ 0.2        97.9031651 ]
 [ 0.3        14.61974867]
 [ 0.32341667 -5.44703254]]","[[0.         1.75560269]
 [0.1        0.86519841]
 [0.2        0.93867241]
 [0.3        1.86901891]
 [0.32341667 0.0946911 ]]",0,0.225
3,m,24,french,3,5,french,2024-02-07 14:00:07.182851,False,2,405,sounds\english\audio/english_526.wav,"[[  0.         -32.34532461]
 [  0.1        -46.6208459 ]
 [  0.2        -42.84927068]
 [  0.3          3.47643827]
 [  0.32341667  52.79087598]]","[[0.         0.924261  ]
 [0.1        0.25414499]
 [0.2        1.01925886]
 [0.3        0.65966822]
 [0.32341667 1.50872035]]",1,0.383
3,m,24,french,3,5,french,2024-02-07 14:00:07.182851,False,2,406,sounds\english\audio/english_764.wav,"[[  0.           7.00590276]
 [  0.1        -69.33047837]
 [  0.2        -20.89747671]
 [  0.3        -96.63564891]
 [  0.32341667  78.55111455]]","[[0.         1.84020442]
 [0.1        0.1607256 ]
 [0.2        1.70981587]
 [0.3        1.13854431]
 [0.32341667 1.5536836 ]]",0,0.43
3,m,24,french,3,5,french,2024-02-07 14:00:07.182851,False,2,407,sounds\english\audio/english_585.wav,"[[  0.         -47.47167609]
 [  0.1        -85.73018253]
 [  0.2          4.69567907]
 [  0.3         51.83381109]
 [  0.32341667  14.12777642]]","[[0.         0.91486293]
 [0.1        0.8051019 ]
 [0.2        1.25289508]
 [0.3        0.83258124]
 [0.32341667 1.43411439]]",0,0.496
3,m,24,french,3,5,french,2024-02-07 14:00:07.182851,False,2,408,sounds\english\audio/english_391.wav,"[[  0.          67.64906061]
 [  0.1         79.28195584]
 [  0.2         62.27299227]
 [  0.3        -11.10764883]
 [  0.32341667  57.41338752]]","[[0.         0.41951577]
 [0.1        0.03526883]
 [0.2        0.81828659]
 [0.3        1.2900604 ]
 [0.32341667 1.95373865]]",1,0.216
3,m,24,french,3,5,french,2024-02-07 14:00:07.182851,False,2,409,sounds\english\audio/english_752.wav,"[[  0.         -89.50526135]
 [  0.1         16.42916277]
 [  0.2        -62.11724863]
 [  0.3        -22.7839786 ]
 [  0.32341667  21.77934146]]","[[0.         1.26833375]
 [0.1        1.25445964]
 [0.2        1.84048801]
 [0.3        0.96813738]
 [0.32341667 1.95604557]]",0,0.065
3,m,24,french,3,5,french,2024-02-07 14:00:07.182851,False,2,410,sounds\english\audio/english_167.wav,"[[ 0.         57.26975159]
 [ 0.1        54.31010869]
 [ 0.2        99.57020207]
 [ 0.3        27.92735821]
 [ 0.32341667 73.13424206]]","[[0.         0.44729063]
 [0.1        1.623568  ]
 [0.2        0.28743218]
 [0.3        0.71837494]
 [0.32341667 1.35815305]]",1,0.673
3,m,24,french,3,5,french,2024-02-07 14:00:07.182851,False,2,411,sounds\english\audio/english_197.wav,"[[  0.         -60.72223742]
 [  0.1        -88.93421142]
 [  0.2         51.43827126]
 [  0.3          7.80125839]
 [  0.32341667 -53.06876459]]","[[0.         1.8449777 ]
 [0.1        1.74693134]
 [0.2        1.11057597]
 [0.3        1.67371275]
 [0.32341667 1.16077516]]",0,0.045
3,m,24,french,3,5,french,2024-02-07 14:00:07.182851,False,2,412,sounds\english\audio/english_578.wav,"[[  0.         -76.90925642]
 [  0.1        -68.48676994]
 [  0.2         36.30884798]
 [  0.3        -36.82491274]
 [  0.32341667  -4.04717442]]","[[0.         1.21901793]
 [0.1        1.4118495 ]
 [0.2        0.05521057]
 [0.3        1.45629656]
 [0.32341667 1.80268091]]",0,0.082
3,m,24,french,3,5,french,2024-02-07 14:00:07.182851,False,2,413,sounds\english\audio/english_524.wav,"[[  0.         -67.97449296]
 [  0.1         11.07328714]
 [  0.2        -43.89657964]
 [  0.3        -41.15015074]
 [  0.32341667 -33.76804681]]","[[0.         0.75247726]
 [0.1        0.25589602]
 [0.2        0.70559599]
 [0.3        0.70218971]
 [0.32341667 0.11352048]]",1,0.257
3,m,24,french,3,5,french,2024-02-07 14:00:07.182851,False,2,414,sounds\english\audio/english_486.wav,"[[  0.          31.41997184]
 [  0.1         58.03480486]
 [  0.2        -62.84801238]
 [  0.3         10.62451678]
 [  0.32341667  10.31835057]]","[[0.         1.22599644]
 [0.1        1.4547445 ]
 [0.2        0.27967606]
 [0.3        0.02065399]
 [0.32341667 0.3128479 ]]",0,0.507
3,m,24,french,3,5,french,2024-02-07 14:00:07.182851,False,2,415,sounds\english\audio/english_298.wav,"[[  0.         -71.75530507]
 [  0.1         76.25876358]
 [  0.2         11.95102224]
 [  0.3         79.91037795]
 [  0.32341667  30.12462174]]","[[0.         0.91890611]
 [0.1        0.7322353 ]
 [0.2        0.50601445]
 [0.3        0.41160049]
 [0.32341667 0.81223035]]",1,0.348
3,m,24,french,3,5,french,2024-02-07 14:00:07.182851,False,2,416,sounds\english\audio/english_432.wav,"[[  0.          34.04923955]
 [  0.1        -20.16773507]
 [  0.2         58.06800811]
 [  0.3         46.82268278]
 [  0.32341667  16.04458546]]","[[0.         0.51661687]
 [0.1        0.2259012 ]
 [0.2        1.98214485]
 [0.3        1.23025235]
 [0.32341667 1.72803009]]",0,0.227
3,m,24,french,3,5,french,2024-02-07 14:00:07.182851,False,2,417,sounds\english\audio/english_84.wav,"[[  0.         -42.35488886]
 [  0.1         17.86576323]
 [  0.2        -56.36172821]
 [  0.3         69.8537656 ]
 [  0.32341667 -47.30652012]]","[[0.         0.45116064]
 [0.1        1.91320005]
 [0.2        1.53140363]
 [0.3        0.53091011]
 [0.32341667 1.59279301]]",0,0.129
3,m,24,french,3,5,french,2024-02-07 14:00:07.182851,False,2,418,sounds\english\audio/english_350.wav,"[[  0.          97.64268741]
 [  0.1         23.96704837]
 [  0.2         50.30792237]
 [  0.3         71.77937185]
 [  0.32341667 -64.81416361]]","[[0.         0.61487918]
 [0.1        0.40988424]
 [0.2        0.86872158]
 [0.3        1.01783109]
 [0.32341667 0.68761283]]",1,0.543
3,m,24,french,3,5,french,2024-02-07 14:00:07.182851,False,2,419,sounds\english\audio/english_615.wav,"[[  0.          76.05955912]
 [  0.1         54.62950786]
 [  0.2        -31.02204933]
 [  0.3         -3.27946314]
 [  0.32341667  51.350795  ]]","[[0.         1.68553334]
 [0.1        1.5058876 ]
 [0.2        1.66676809]
 [0.3        1.09840801]
 [0.32341667 0.25314986]]",0,0.814
3,m,24,french,3,5,french,2024-02-07 14:00:07.182851,False,2,420,sounds\english\audio/english_789.wav,"[[  0.          70.69388181]
 [  0.1        -91.45782136]
 [  0.2        -94.67801392]
 [  0.3         83.76501612]
 [  0.32341667  -4.60584958]]","[[0.         1.62690516]
 [0.1        1.02092359]
 [0.2        0.93437639]
 [0.3        1.8239896 ]
 [0.32341667 1.29596798]]",1,0.32
3,m,24,french,3,5,french,2024-02-07 14:00:07.182851,False,2,421,sounds\english\audio/english_529.wav,"[[  0.          13.90759343]
 [  0.1        -33.526088  ]
 [  0.2        -34.32120589]
 [  0.3        -18.30112723]
 [  0.32341667  16.4796061 ]]","[[0.         0.83001961]
 [0.1        0.02518437]
 [0.2        1.61112877]
 [0.3        0.91948239]
 [0.32341667 0.33204613]]",1,0.71
3,m,24,french,3,5,french,2024-02-07 14:00:07.182851,False,2,422,sounds\english\audio/english_388.wav,"[[  0.          17.9760939 ]
 [  0.1        -43.00340989]
 [  0.2        -30.55059063]
 [  0.3        -92.55876504]
 [  0.32341667 -64.21175873]]","[[0.         0.95494184]
 [0.1        0.10281418]
 [0.2        1.52164503]
 [0.3        1.24827519]
 [0.32341667 0.08180338]]",1,0.636
3,m,24,french,3,5,french,2024-02-07 14:00:07.182851,False,2,423,sounds\english\audio/english_118.wav,"[[  0.         -46.26080879]
 [  0.1        -14.63576669]
 [  0.2         85.04541628]
 [  0.3        -49.31762638]
 [  0.32341667  16.64479416]]","[[0.         0.77156844]
 [0.1        0.55135676]
 [0.2        0.92804695]
 [0.3        1.40435072]
 [0.32341667 1.67291824]]",0,0.251
3,m,24,french,3,5,french,2024-02-07 14:00:07.182851,False,2,424,sounds\english\audio/english_875.wav,"[[  0.         -72.29566874]
 [  0.1         40.49821439]
 [  0.2         61.66936014]
 [  0.3         36.92950197]
 [  0.32341667  61.03530789]]","[[0.         0.47412948]
 [0.1        0.97105678]
 [0.2        1.31175081]
 [0.3        0.55015514]
 [0.32341667 1.23529794]]",0,0.614
3,m,24,french,3,5,french,2024-02-07 14:00:07.182851,False,2,425,sounds\english\audio/english_536.wav,"[[  0.          19.16157828]
 [  0.1        -70.44875328]
 [  0.2          9.3844651 ]
 [  0.3         54.79833109]
 [  0.32341667 -43.58683919]]","[[0.         1.0914138 ]
 [0.1        1.55996729]
 [0.2        1.22014226]
 [0.3        0.24268308]
 [0.32341667 1.12643869]]",0,0.539
3,m,24,french,3,5,french,2024-02-07 14:00:07.182851,False,2,426,sounds\english\audio/english_173.wav,"[[  0.          11.1251521 ]
 [  0.1         94.22411188]
 [  0.2         89.44753043]
 [  0.3         74.30769895]
 [  0.32341667 -37.47679669]]","[[0.         0.60172576]
 [0.1        0.44802145]
 [0.2        1.27552997]
 [0.3        1.09756939]
 [0.32341667 0.7907315 ]]",1,0.264
3,m,24,french,3,5,french,2024-02-07 14:00:07.182851,False,2,427,sounds\english\audio/english_728.wav,"[[  0.          -6.4565561 ]
 [  0.1          2.02882612]
 [  0.2        -40.29513079]
 [  0.3        -29.37287389]
 [  0.32341667 -32.17490136]]","[[0.         1.7247049 ]
 [0.1        1.95158608]
 [0.2        0.21085377]
 [0.3        0.85434083]
 [0.32341667 1.52436666]]",0,0.246
3,m,24,french,3,5,french,2024-02-07 14:00:07.182851,False,2,428,sounds\english\audio/english_11.wav,"[[  0.         -20.45826732]
 [  0.1        -31.26113472]
 [  0.2         84.03210455]
 [  0.3         30.35463164]
 [  0.32341667 -63.36217442]]","[[0.         1.19869378]
 [0.1        0.2059713 ]
 [0.2        0.62296143]
 [0.3        1.49781179]
 [0.32341667 0.18750748]]",1,0.335
3,m,24,french,3,5,french,2024-02-07 14:00:07.182851,False,2,429,sounds\english\audio/english_90.wav,"[[  0.          82.68866707]
 [  0.1        -81.25370946]
 [  0.2         56.28719083]
 [  0.3        -46.43338119]
 [  0.32341667 -19.93520327]]","[[0.         0.54239523]
 [0.1        1.03335699]
 [0.2        1.93576477]
 [0.3        0.74570916]
 [0.32341667 1.11115504]]",0,0.103
3,m,24,french,3,5,french,2024-02-07 14:00:07.182851,False,2,430,sounds\english\audio/english_960.wav,"[[  0.          35.80457434]
 [  0.1        -19.98469691]
 [  0.2         -8.88025322]
 [  0.3          6.59365348]
 [  0.32341667  64.0885905 ]]","[[0.         0.79357899]
 [0.1        0.63900775]
 [0.2        1.83966222]
 [0.3        1.05168668]
 [0.32341667 1.66020449]]",0,0.293
3,m,24,french,3,5,french,2024-02-07 14:00:07.182851,False,2,431,sounds\english\audio/english_135.wav,"[[  0.          92.53632507]
 [  0.1         42.68843281]
 [  0.2         87.27237188]
 [  0.3        -70.62725941]
 [  0.32341667  91.37204548]]","[[0.         0.8813083 ]
 [0.1        1.60503348]
 [0.2        0.22265806]
 [0.3        0.4233462 ]
 [0.32341667 0.99500327]]",1,0.322
3,m,24,french,3,5,french,2024-02-07 14:00:07.182851,False,2,432,sounds\english\audio/english_824.wav,"[[  0.          80.46503136]
 [  0.1        -48.668347  ]
 [  0.2         37.27765876]
 [  0.3        -91.29945309]
 [  0.32341667  14.46507007]]","[[0.         1.43025592]
 [0.1        0.89138167]
 [0.2        1.91281619]
 [0.3        0.71335031]
 [0.32341667 0.89780818]]",0,0.378
3,m,24,french,3,5,french,2024-02-07 14:00:07.182851,False,2,433,sounds\english\audio/english_396.wav,"[[  0.           2.39126912]
 [  0.1        -38.95035948]
 [  0.2         78.31320688]
 [  0.3         16.98024706]
 [  0.32341667  44.66397079]]","[[0.         1.48231007]
 [0.1        0.85829723]
 [0.2        1.16655306]
 [0.3        0.51680164]
 [0.32341667 1.5133775 ]]",0,0.229
3,m,24,french,3,5,french,2024-02-07 14:00:07.182851,False,2,434,sounds\english\audio/english_890.wav,"[[  0.         -68.21158685]
 [  0.1        -83.19360642]
 [  0.2         79.13343252]
 [  0.3         80.54326003]
 [  0.32341667 -30.48737523]]","[[0.         0.82535308]
 [0.1        1.79167423]
 [0.2        0.78297904]
 [0.3        0.23441015]
 [0.32341667 1.41044901]]",1,0.377
3,m,24,french,3,5,french,2024-02-07 14:00:07.182851,False,2,435,sounds\english\audio/english_402.wav,"[[  0.         -69.75327375]
 [  0.1        -37.13247603]
 [  0.2         95.06865819]
 [  0.3        -83.65219271]
 [  0.32341667 -39.65623645]]","[[0.         0.88104294]
 [0.1        1.50830761]
 [0.2        0.86613458]
 [0.3        1.46195184]
 [0.32341667 1.78030697]]",0,1.53
3,m,24,french,3,5,french,2024-02-07 14:00:07.182851,False,2,436,sounds\english\audio/english_662.wav,"[[  0.         -34.20942979]
 [  0.1        -64.9220759 ]
 [  0.2        -46.13526655]
 [  0.3         16.61128262]
 [  0.32341667 -72.42442326]]","[[0.         0.58122658]
 [0.1        0.35407044]
 [0.2        1.02300599]
 [0.3        0.09808433]
 [0.32341667 0.71975239]]",1,0.407
3,m,24,french,3,5,french,2024-02-07 14:00:07.182851,False,2,437,sounds\english\audio/english_311.wav,"[[  0.         -35.59355899]
 [  0.1        -50.39310557]
 [  0.2        -53.37222601]
 [  0.3         72.25802658]
 [  0.32341667  48.72421008]]","[[0.         0.16094856]
 [0.1        1.33895436]
 [0.2        0.01028283]
 [0.3        0.48497386]
 [0.32341667 0.48591183]]",0,0.205
3,m,24,french,3,5,french,2024-02-07 14:00:07.182851,False,2,438,sounds\english\audio/english_783.wav,"[[ 0.         23.05268069]
 [ 0.1         9.36005369]
 [ 0.2        62.81522218]
 [ 0.3        67.71456376]
 [ 0.32341667 77.96788237]]","[[0.         1.49549247]
 [0.1        0.13797177]
 [0.2        1.80236654]
 [0.3        0.33800471]
 [0.32341667 1.97708045]]",0,0.27
3,m,24,french,3,5,french,2024-02-07 14:00:07.182851,False,2,439,sounds\english\audio/english_57.wav,"[[  0.         -27.39668164]
 [  0.1         63.52389761]
 [  0.2        -55.42033209]
 [  0.3         40.81906742]
 [  0.32341667 -12.75543821]]","[[0.         1.97835384]
 [0.1        0.69906452]
 [0.2        0.75389415]
 [0.3        0.20375649]
 [0.32341667 1.65585112]]",0,0.827
3,m,24,french,3,5,french,2024-02-07 14:00:07.182851,False,2,440,sounds\english\audio/english_214.wav,"[[  0.          58.82847816]
 [  0.1         87.26801489]
 [  0.2        -28.10234025]
 [  0.3        -36.12188516]
 [  0.32341667 -45.93983978]]","[[0.         1.81864401]
 [0.1        0.97241975]
 [0.2        1.91423566]
 [0.3        1.71940232]
 [0.32341667 0.68694042]]",0,0.206
3,m,24,french,3,5,french,2024-02-07 14:00:07.182851,False,2,441,sounds\english\audio/english_541.wav,"[[  0.         -20.13323906]
 [  0.1          2.48768759]
 [  0.2        -86.20966861]
 [  0.3         59.01445297]
 [  0.32341667  61.23853539]]","[[0.         0.51383156]
 [0.1        0.65082056]
 [0.2        0.48716137]
 [0.3        0.54905673]
 [0.32341667 1.76268899]]",1,0.199
3,m,24,french,3,5,french,2024-02-07 14:00:07.182851,False,2,442,sounds\english\audio/english_713.wav,"[[ 0.         18.77281956]
 [ 0.1        40.78610286]
 [ 0.2        84.18153491]
 [ 0.3        47.00827256]
 [ 0.32341667 66.01008384]]","[[0.         1.04868626]
 [0.1        0.48332939]
 [0.2        0.83217717]
 [0.3        1.90318663]
 [0.32341667 0.50055362]]",0,0.693
3,m,24,french,3,5,french,2024-02-07 14:00:07.182851,False,2,443,sounds\english\audio/english_251.wav,"[[  0.         -35.26640223]
 [  0.1        -82.14936791]
 [  0.2         39.53587687]
 [  0.3        -75.44024907]
 [  0.32341667  26.94148116]]","[[0.         1.59441442]
 [0.1        1.21410308]
 [0.2        0.89125894]
 [0.3        0.14763688]
 [0.32341667 1.71797298]]",1,0.382
3,m,24,french,3,5,french,2024-02-07 14:00:07.182851,False,2,444,sounds\english\audio/english_874.wav,"[[  0.          32.94582558]
 [  0.1         73.76521909]
 [  0.2        -83.94992572]
 [  0.3        -61.86791133]
 [  0.32341667 -94.71312943]]","[[0.         0.77720789]
 [0.1        1.44852608]
 [0.2        1.18086928]
 [0.3        0.75042975]
 [0.32341667 1.11461748]]",0,0.405
3,m,24,french,3,5,french,2024-02-07 14:00:07.182851,False,2,445,sounds\english\audio/english_208.wav,"[[  0.         -16.36413188]
 [  0.1         25.67725806]
 [  0.2         15.43722313]
 [  0.3        -39.3158007 ]
 [  0.32341667  38.48956167]]","[[0.         1.19542909]
 [0.1        0.42717457]
 [0.2        1.01088833]
 [0.3        1.09044814]
 [0.32341667 1.60091335]]",1,0.807
3,m,24,french,3,5,french,2024-02-07 14:00:07.182851,False,2,446,sounds\english\audio/english_484.wav,"[[  0.          79.97188672]
 [  0.1        -84.58904822]
 [  0.2         70.2960477 ]
 [  0.3        -66.44520929]
 [  0.32341667 -78.91715359]]","[[0.         0.20745104]
 [0.1        1.46214797]
 [0.2        0.40821612]
 [0.3        1.23203415]
 [0.32341667 1.26593617]]",0,0.385
3,m,24,french,3,5,french,2024-02-07 14:00:07.182851,False,2,447,sounds\english\audio/english_279.wav,"[[  0.         -20.90398108]
 [  0.1         98.83098338]
 [  0.2        -95.37608427]
 [  0.3        -52.65380993]
 [  0.32341667  47.72500112]]","[[0.         0.60114424]
 [0.1        0.92336304]
 [0.2        1.39045705]
 [0.3        0.64938935]
 [0.32341667 1.57478054]]",0,2.103
3,m,24,french,3,5,french,2024-02-07 14:00:07.182851,False,2,448,sounds\english\audio/english_690.wav,"[[0.00000000e+00 3.30476540e+01]
 [1.00000000e-01 2.12167444e-02]
 [2.00000000e-01 2.13432370e+01]
 [3.00000000e-01 3.54710796e+01]
 [3.23416667e-01 7.94400816e+01]]","[[0.         1.58265684]
 [0.1        0.6931717 ]
 [0.2        1.47002515]
 [0.3        1.9856235 ]
 [0.32341667 1.00479917]]",0,0.303
3,m,24,french,3,5,french,2024-02-07 14:00:07.182851,False,2,449,sounds\english\audio/english_257.wav,"[[  0.         -68.31428674]
 [  0.1        -13.90908686]
 [  0.2         54.08743226]
 [  0.3        -42.73693867]
 [  0.32341667  -1.03846516]]","[[0.         1.40239735]
 [0.1        1.49673114]
 [0.2        1.07658057]
 [0.3        0.27427112]
 [0.32341667 1.90516482]]",1,0.854
3,m,24,french,3,5,french,2024-02-07 14:00:07.182851,False,2,450,sounds\english\audio/english_603.wav,"[[  0.         -14.17444723]
 [  0.1         -4.64921339]
 [  0.2        -23.32469505]
 [  0.3        -59.01260874]
 [  0.32341667  88.53711532]]","[[0.         1.28295305]
 [0.1        0.35920956]
 [0.2        0.60281559]
 [0.3        0.58107079]
 [0.32341667 1.19087365]]",1,0.452
3,m,24,french,3,5,french,2024-02-07 14:00:07.182851,False,2,451,sounds\english\audio/english_619.wav,"[[  0.          38.53351318]
 [  0.1        -11.21157995]
 [  0.2         29.79887689]
 [  0.3         48.6384615 ]
 [  0.32341667 -66.5905708 ]]","[[0.         1.25542912]
 [0.1        0.83005785]
 [0.2        1.51254928]
 [0.3        0.37972577]
 [0.32341667 0.44889873]]",0,0.115
3,m,24,french,3,5,french,2024-02-07 14:00:07.182851,False,2,452,sounds\english\audio/english_236.wav,"[[  0.          14.26564849]
 [  0.1         60.97219358]
 [  0.2        -12.39626346]
 [  0.3        -62.87774076]
 [  0.32341667 -75.97684705]]","[[0.         0.89253674]
 [0.1        0.38957934]
 [0.2        1.55558051]
 [0.3        0.2682718 ]
 [0.32341667 1.92182597]]",1,0.488
3,m,24,french,3,5,french,2024-02-07 14:00:07.182851,False,2,453,sounds\english\audio/english_858.wav,"[[  0.          45.12570132]
 [  0.1        -46.71359417]
 [  0.2        -60.32464978]
 [  0.3        -70.46241098]
 [  0.32341667  76.51169453]]","[[0.         0.50395823]
 [0.1        1.50658612]
 [0.2        0.86887416]
 [0.3        0.20520469]
 [0.32341667 1.05885662]]",0,0.191
3,m,24,french,3,5,french,2024-02-07 14:00:07.182851,False,2,454,sounds\english\audio/english_417.wav,"[[  0.         -17.25972862]
 [  0.1         72.11413149]
 [  0.2         83.70212603]
 [  0.3         67.19530478]
 [  0.32341667  29.72084594]]","[[0.         1.29903721]
 [0.1        0.87773419]
 [0.2        1.45838331]
 [0.3        0.90979472]
 [0.32341667 0.1224986 ]]",0,0.268
3,m,24,french,3,5,french,2024-02-07 14:00:07.182851,False,2,455,sounds\english\audio/english_998.wav,"[[  0.         -57.03196796]
 [  0.1        -12.93623633]
 [  0.2        -24.63186366]
 [  0.3        -10.49750637]
 [  0.32341667  22.76793653]]","[[0.         0.0179282 ]
 [0.1        1.72217412]
 [0.2        0.91011795]
 [0.3        1.24282972]
 [0.32341667 0.40520665]]",1,0.853
3,m,24,french,3,5,french,2024-02-07 14:00:07.182851,False,2,456,sounds\english\audio/english_104.wav,"[[  0.          42.44693926]
 [  0.1         82.22484934]
 [  0.2          7.21737924]
 [  0.3         26.54640215]
 [  0.32341667 -33.4974026 ]]","[[0.         0.1741435 ]
 [0.1        0.11379641]
 [0.2        1.60376175]
 [0.3        1.08059257]
 [0.32341667 1.8061622 ]]",0,0.392
3,m,24,french,3,5,french,2024-02-07 14:00:07.182851,False,2,457,sounds\english\audio/english_99.wav,"[[  0.           9.75149611]
 [  0.1         -7.37998228]
 [  0.2         29.15889261]
 [  0.3        -23.23230809]
 [  0.32341667  51.25937721]]","[[0.         0.79411887]
 [0.1        0.53064308]
 [0.2        0.10254027]
 [0.3        0.53999741]
 [0.32341667 0.74302856]]",1,0.555
3,m,24,french,3,5,french,2024-02-07 14:00:07.182851,False,2,458,sounds\english\audio/english_792.wav,"[[  0.         -56.39949456]
 [  0.1        -76.36067248]
 [  0.2        -58.44160547]
 [  0.3         25.29086486]
 [  0.32341667  -6.58788169]]","[[0.         1.32676777]
 [0.1        1.08004851]
 [0.2        1.5809308 ]
 [0.3        0.16508433]
 [0.32341667 1.18870574]]",0,0.113
3,m,24,french,3,5,french,2024-02-07 14:00:07.182851,False,2,459,sounds\english\audio/english_124.wav,"[[  0.         -16.92140416]
 [  0.1         97.41289205]
 [  0.2        -78.49167412]
 [  0.3         -3.48618202]
 [  0.32341667   5.32047068]]","[[0.         1.25482105]
 [0.1        1.97830042]
 [0.2        1.09846955]
 [0.3        0.36540564]
 [0.32341667 0.96325389]]",0,0.262
3,m,24,french,3,5,french,2024-02-07 14:00:07.182851,False,2,460,sounds\english\audio/english_753.wav,"[[  0.          38.61944715]
 [  0.1        -76.3398938 ]
 [  0.2        -80.92813522]
 [  0.3        -16.48508052]
 [  0.32341667  16.23487259]]","[[0.         0.75641923]
 [0.1        1.17320485]
 [0.2        0.63072958]
 [0.3        1.96252246]
 [0.32341667 1.97125296]]",1,0.28
3,m,24,french,3,5,french,2024-02-07 14:00:07.182851,False,2,461,sounds\english\audio/english_715.wav,"[[  0.         -64.21420564]
 [  0.1         77.40813629]
 [  0.2        -98.26791609]
 [  0.3        -32.66334796]
 [  0.32341667  93.12500574]]","[[0.         1.80154013]
 [0.1        0.51096517]
 [0.2        0.49870215]
 [0.3        0.64344691]
 [0.32341667 1.17662216]]",1,0.295
3,m,24,french,3,5,french,2024-02-07 14:00:07.182851,False,2,462,sounds\english\audio/english_330.wav,"[[ 0.00000000e+00 -6.60623823e+01]
 [ 1.00000000e-01 -9.07862333e+01]
 [ 2.00000000e-01 -8.10713819e-03]
 [ 3.00000000e-01 -6.12450651e+01]
 [ 3.23416667e-01 -3.44586516e-01]]","[[0.         1.84658225]
 [0.1        0.94726644]
 [0.2        1.52006519]
 [0.3        1.63286843]
 [0.32341667 1.74173618]]",0,0.818
3,m,24,french,3,5,french,2024-02-07 14:00:07.182851,False,2,463,sounds\english\audio/english_598.wav,"[[  0.           4.26365523]
 [  0.1        -29.634957  ]
 [  0.2        -17.49120793]
 [  0.3        -34.93876912]
 [  0.32341667  49.49845506]]","[[0.         0.04069017]
 [0.1        1.27980102]
 [0.2        0.98781586]
 [0.3        1.55939702]
 [0.32341667 1.74128412]]",1,0.229
3,m,24,french,3,5,french,2024-02-07 14:00:07.182851,False,2,464,sounds\english\audio/english_133.wav,"[[  0.          12.35833749]
 [  0.1         40.12315016]
 [  0.2         21.09458129]
 [  0.3        -98.82286682]
 [  0.32341667 -85.44748976]]","[[0.         0.72635311]
 [0.1        1.38782059]
 [0.2        0.15947395]
 [0.3        0.28433836]
 [0.32341667 1.2581514 ]]",1,0.631
3,m,24,french,3,5,french,2024-02-07 14:00:07.182851,False,2,465,sounds\english\audio/english_693.wav,"[[  0.         -83.71635172]
 [  0.1         32.46406691]
 [  0.2          8.27548994]
 [  0.3         15.80660539]
 [  0.32341667  74.32681132]]","[[0.         0.35753224]
 [0.1        1.09553371]
 [0.2        1.67166692]
 [0.3        1.61413862]
 [0.32341667 1.90943184]]",0,0.101
3,m,24,french,3,5,french,2024-02-07 14:00:07.182851,False,2,466,sounds\english\audio/english_68.wav,"[[  0.         -23.38152803]
 [  0.1        -36.0918901 ]
 [  0.2         65.46592862]
 [  0.3         48.57602628]
 [  0.32341667 -93.64245591]]","[[0.         1.83565324]
 [0.1        0.35162477]
 [0.2        1.10705723]
 [0.3        1.09550925]
 [0.32341667 0.05753383]]",1,1.282
3,m,24,french,3,5,french,2024-02-07 14:00:07.182851,False,2,467,sounds\english\audio/english_648.wav,"[[  0.         -36.17742204]
 [  0.1         30.10697278]
 [  0.2        -67.31320052]
 [  0.3        -10.94597212]
 [  0.32341667  72.59648235]]","[[0.         0.57576188]
 [0.1        1.1310908 ]
 [0.2        1.67112441]
 [0.3        0.39641968]
 [0.32341667 1.93789316]]",0,0.182
3,m,24,french,3,5,french,2024-02-07 14:00:07.182851,False,2,468,sounds\english\audio/english_393.wav,"[[  0.           3.63201436]
 [  0.1         64.52667935]
 [  0.2        -51.23523019]
 [  0.3        -89.75219839]
 [  0.32341667 -66.06218428]]","[[0.         1.68653621]
 [0.1        0.22518435]
 [0.2        0.07728703]
 [0.3        0.70962284]
 [0.32341667 0.7432397 ]]",1,0.303
3,m,24,french,3,5,french,2024-02-07 14:00:07.182851,False,2,469,sounds\english\audio/english_41.wav,"[[  0.          42.21237724]
 [  0.1         33.8271633 ]
 [  0.2         20.96644351]
 [  0.3        -53.61985723]
 [  0.32341667 -55.68725705]]","[[0.         0.98996482]
 [0.1        0.77076848]
 [0.2        0.37402384]
 [0.3        1.98545705]
 [0.32341667 1.53352273]]",1,0.603
3,m,24,french,3,5,french,2024-02-07 14:00:07.182851,False,2,470,sounds\english\audio/english_873.wav,"[[  0.          85.43762199]
 [  0.1        -27.24751419]
 [  0.2         -8.79829555]
 [  0.3        -97.88620301]
 [  0.32341667  49.57089273]]","[[0.         1.00056931]
 [0.1        0.47504393]
 [0.2        0.788147  ]
 [0.3        0.64075463]
 [0.32341667 0.87603086]]",1,0.762
3,m,24,french,3,5,french,2024-02-07 14:00:07.182851,False,2,471,sounds\english\audio/english_69.wav,"[[  0.         -57.18730239]
 [  0.1         16.22212469]
 [  0.2        -44.28071093]
 [  0.3        -70.80378082]
 [  0.32341667 -58.3439892 ]]","[[0.         0.11878381]
 [0.1        1.00797921]
 [0.2        0.42082068]
 [0.3        0.50205716]
 [0.32341667 0.68985838]]",0,0.525
3,m,24,french,3,5,french,2024-02-07 14:00:07.182851,False,2,472,sounds\english\audio/english_59.wav,"[[  0.          30.26604033]
 [  0.1         25.69112756]
 [  0.2        -24.85549033]
 [  0.3        -31.2790444 ]
 [  0.32341667  86.30355152]]","[[0.         1.5973148 ]
 [0.1        0.24758472]
 [0.2        0.1547886 ]
 [0.3        0.30754036]
 [0.32341667 0.40312024]]",1,0.439
3,m,24,french,3,5,french,2024-02-07 14:00:07.182851,False,2,473,sounds\english\audio/english_441.wav,"[[  0.         -34.50722314]
 [  0.1         91.55175756]
 [  0.2        -74.07917439]
 [  0.3         82.08396891]
 [  0.32341667  13.2563292 ]]","[[0.         1.86415324]
 [0.1        1.34062972]
 [0.2        1.20894222]
 [0.3        0.00248362]
 [0.32341667 0.67485278]]",0,0.104
3,m,24,french,3,5,french,2024-02-07 14:00:07.182851,False,2,474,sounds\english\audio/english_531.wav,"[[  0.         -79.40575395]
 [  0.1         24.69139357]
 [  0.2         31.85465478]
 [  0.3          0.37788074]
 [  0.32341667 -42.85922685]]","[[0.         0.23141906]
 [0.1        1.34739197]
 [0.2        0.44473315]
 [0.3        1.31624907]
 [0.32341667 0.82105614]]",0,0.153
3,m,24,french,3,5,french,2024-02-07 14:00:07.182851,False,2,475,sounds\english\audio/english_912.wav,"[[  0.         -43.64864707]
 [  0.1         94.54433808]
 [  0.2         67.98324072]
 [  0.3          9.27329172]
 [  0.32341667 -55.44973818]]","[[0.         0.87210048]
 [0.1        1.43243955]
 [0.2        1.49899487]
 [0.3        0.42663795]
 [0.32341667 0.19299009]]",0,0.049
3,m,24,french,3,5,french,2024-02-07 14:00:07.182851,False,2,476,sounds\english\audio/english_970.wav,"[[  0.          37.22911191]
 [  0.1         36.57191813]
 [  0.2         20.2344678 ]
 [  0.3        -86.31030026]
 [  0.32341667 -83.96880691]]","[[0.         0.60712849]
 [0.1        1.26781741]
 [0.2        1.29373459]
 [0.3        0.18112256]
 [0.32341667 1.07780169]]",0,0.149
3,m,24,french,3,5,french,2024-02-07 14:00:07.182851,False,2,477,sounds\english\audio/english_925.wav,"[[  0.         -23.38055082]
 [  0.1         12.69502826]
 [  0.2         77.53463838]
 [  0.3         58.05299948]
 [  0.32341667  54.12197927]]","[[0.         1.07708889]
 [0.1        1.65606803]
 [0.2        0.48648737]
 [0.3        0.8939016 ]
 [0.32341667 0.72199492]]",1,0.631
3,m,24,french,3,5,french,2024-02-07 14:00:07.182851,False,2,478,sounds\english\audio/english_763.wav,"[[ 0.         64.63144232]
 [ 0.1         8.86346429]
 [ 0.2        32.79569159]
 [ 0.3        10.55051177]
 [ 0.32341667  6.38738619]]","[[0.         0.7800836 ]
 [0.1        1.26656169]
 [0.2        1.93170043]
 [0.3        0.29422641]
 [0.32341667 1.43860225]]",0,0.109
3,m,24,french,3,5,french,2024-02-07 14:00:07.182851,False,2,479,sounds\english\audio/english_245.wav,"[[  0.          74.89239003]
 [  0.1         41.98679172]
 [  0.2         99.42105985]
 [  0.3        -75.11958538]
 [  0.32341667 -62.10664415]]","[[0.         1.30710747]
 [0.1        0.93119149]
 [0.2        1.84379828]
 [0.3        1.72828743]
 [0.32341667 0.50124118]]",0,0.556
3,m,24,french,3,5,french,2024-02-07 14:00:07.182851,False,2,480,sounds\english\audio/english_982.wav,"[[  0.          12.44046596]
 [  0.1        -60.41666302]
 [  0.2        -35.31499742]
 [  0.3        -10.96739076]
 [  0.32341667  44.50624474]]","[[0.         0.81508625]
 [0.1        0.92712357]
 [0.2        0.77678916]
 [0.3        1.0294352 ]
 [0.32341667 1.1322674 ]]",1,0.406
3,m,24,french,3,5,french,2024-02-07 14:00:07.182851,False,2,481,sounds\english\audio/english_211.wav,"[[  0.          37.34807541]
 [  0.1         97.98979508]
 [  0.2        -20.02981109]
 [  0.3        -69.8116311 ]
 [  0.32341667  35.11126142]]","[[0.         1.77380832]
 [0.1        1.35747523]
 [0.2        1.74013371]
 [0.3        0.94808553]
 [0.32341667 0.23094119]]",0,0.795
3,m,24,french,3,5,french,2024-02-07 14:00:07.182851,False,2,482,sounds\english\audio/english_907.wav,"[[  0.          13.97638225]
 [  0.1         36.81481791]
 [  0.2          1.21651202]
 [  0.3         35.47405672]
 [  0.32341667 -27.93760057]]","[[0.         0.68575839]
 [0.1        1.58611259]
 [0.2        1.59547025]
 [0.3        0.75888392]
 [0.32341667 0.06937964]]",0,0.717
3,m,24,french,3,5,french,2024-02-07 14:00:07.182851,False,2,483,sounds\english\audio/english_375.wav,"[[  0.          18.096335  ]
 [  0.1        -55.77885891]
 [  0.2        -79.80603762]
 [  0.3        -57.7566014 ]
 [  0.32341667  74.14673873]]","[[0.         0.30735121]
 [0.1        1.17808606]
 [0.2        1.03107785]
 [0.3        0.46519988]
 [0.32341667 1.41875211]]",1,0.222
3,m,24,french,3,5,french,2024-02-07 14:00:07.182851,False,2,484,sounds\english\audio/english_636.wav,"[[  0.         -20.37295141]
 [  0.1        -84.7288786 ]
 [  0.2         24.84265136]
 [  0.3         -9.2443485 ]
 [  0.32341667  49.04875774]]","[[0.         1.69276631]
 [0.1        1.69908726]
 [0.2        1.44836333]
 [0.3        1.36647816]
 [0.32341667 0.88112598]]",0,0.796
3,m,24,french,3,5,french,2024-02-07 14:00:07.182851,False,2,485,sounds\english\audio/english_757.wav,"[[  0.         -71.37581006]
 [  0.1        -34.89028362]
 [  0.2         97.72444176]
 [  0.3          8.64322444]
 [  0.32341667 -59.15215987]]","[[0.         0.57944866]
 [0.1        1.76833087]
 [0.2        0.43040584]
 [0.3        1.84780211]
 [0.32341667 0.21714226]]",1,1.07
3,m,24,french,3,5,french,2024-02-07 14:00:07.182851,False,2,486,sounds\english\audio/english_584.wav,"[[  0.          10.38934641]
 [  0.1         16.58552078]
 [  0.2         93.24376001]
 [  0.3        -17.62367845]
 [  0.32341667  35.31863132]]","[[0.         1.28044862]
 [0.1        0.12750447]
 [0.2        0.67889343]
 [0.3        1.20299248]
 [0.32341667 1.61660781]]",1,0.379
3,m,24,french,3,5,french,2024-02-07 14:00:07.182851,False,2,487,sounds\english\audio/english_255.wav,"[[  0.         -42.74550593]
 [  0.1         35.44578771]
 [  0.2         98.7346041 ]
 [  0.3         14.08839822]
 [  0.32341667 -55.38739786]]","[[0.         1.65518669]
 [0.1        1.85823386]
 [0.2        1.2123315 ]
 [0.3        0.62099519]
 [0.32341667 1.08486436]]",0,0.052
3,m,24,french,3,5,french,2024-02-07 14:00:07.182851,False,2,488,sounds\english\audio/english_928.wav,"[[  0.          55.07207497]
 [  0.1         83.71672672]
 [  0.2        -43.28929986]
 [  0.3        -17.1692271 ]
 [  0.32341667 -36.644272  ]]","[[0.         1.22706758]
 [0.1        0.97206042]
 [0.2        0.16969859]
 [0.3        0.90092586]
 [0.32341667 0.43024518]]",1,0.332
3,m,24,french,3,5,french,2024-02-07 14:00:07.182851,False,2,489,sounds\english\audio/english_956.wav,"[[  0.         -98.71257913]
 [  0.1        -36.05702295]
 [  0.2        -31.95582623]
 [  0.3        -81.31295359]
 [  0.32341667  45.09425789]]","[[0.         1.5828524 ]
 [0.1        0.66985857]
 [0.2        0.13798036]
 [0.3        0.22663358]
 [0.32341667 0.54862974]]",0,0.758
3,m,24,french,3,5,french,2024-02-07 14:00:07.182851,False,2,490,sounds\english\audio/english_32.wav,"[[  0.          89.50349963]
 [  0.1         51.51128255]
 [  0.2        -58.32910347]
 [  0.3         15.96172744]
 [  0.32341667  84.40449403]]","[[0.         1.73304916]
 [0.1        0.02192789]
 [0.2        1.71493142]
 [0.3        1.28451373]
 [0.32341667 1.22971166]]",0,0.353
3,m,24,french,3,5,french,2024-02-07 14:00:07.182851,False,2,491,sounds\english\audio/english_147.wav,"[[  0.         -14.37625717]
 [  0.1        -48.99147792]
 [  0.2        -76.025031  ]
 [  0.3         -4.271985  ]
 [  0.32341667  90.36670579]]","[[0.         1.08714974]
 [0.1        1.05600262]
 [0.2        0.62193731]
 [0.3        1.23272935]
 [0.32341667 0.90867663]]",0,0.249
3,m,24,french,3,5,french,2024-02-07 14:00:07.182851,False,2,492,sounds\english\audio/english_91.wav,"[[  0.         -67.73951944]
 [  0.1         83.83337034]
 [  0.2        -12.75649653]
 [  0.3          5.95502951]
 [  0.32341667  59.56964586]]","[[0.         0.2772338 ]
 [0.1        0.0816757 ]
 [0.2        0.92538416]
 [0.3        0.40714056]
 [0.32341667 1.8717525 ]]",1,0.392
3,m,24,french,3,5,french,2024-02-07 14:00:07.182851,False,2,493,sounds\english\audio/english_944.wav,"[[  0.          70.24274457]
 [  0.1        -48.79231442]
 [  0.2         -6.42324239]
 [  0.3         -7.7338836 ]
 [  0.32341667  69.46240638]]","[[0.         0.61048125]
 [0.1        1.63310511]
 [0.2        0.21687347]
 [0.3        0.45027042]
 [0.32341667 0.90306897]]",0,0.194
3,m,24,french,3,5,french,2024-02-07 14:00:07.182851,False,2,494,sounds\english\audio/english_684.wav,"[[  0.           0.36394418]
 [  0.1         28.47964645]
 [  0.2         60.47995017]
 [  0.3        -33.43266819]
 [  0.32341667 -31.86672206]]","[[0.         1.65924935]
 [0.1        1.32149406]
 [0.2        0.32417562]
 [0.3        1.42108385]
 [0.32341667 1.29243289]]",1,0.361
3,m,24,french,3,5,french,2024-02-07 14:00:07.182851,False,2,495,sounds\english\audio/english_260.wav,"[[  0.         -45.73422918]
 [  0.1        -23.757295  ]
 [  0.2         -1.17180464]
 [  0.3         42.98000529]
 [  0.32341667   7.49715463]]","[[0.         1.75247731]
 [0.1        1.29821829]
 [0.2        0.50372963]
 [0.3        1.19905143]
 [0.32341667 0.66690199]]",0,0.221
3,m,24,french,3,5,french,2024-02-07 14:00:07.182851,False,2,496,sounds\english\audio/english_737.wav,"[[  0.          21.35751723]
 [  0.1         61.52152077]
 [  0.2        -29.75610596]
 [  0.3        -39.80249708]
 [  0.32341667 -14.64937497]]","[[0.         1.17499048]
 [0.1        1.09581395]
 [0.2        0.62940412]
 [0.3        0.11793022]
 [0.32341667 0.62377861]]",1,0.286
3,m,24,french,3,5,french,2024-02-07 14:00:07.182851,False,2,497,sounds\english\audio/english_621.wav,"[[  0.         -58.25251841]
 [  0.1         21.8974524 ]
 [  0.2        -22.03552483]
 [  0.3        -56.80446909]
 [  0.32341667 -23.41760562]]","[[0.         1.01186344]
 [0.1        1.03560921]
 [0.2        0.97057504]
 [0.3        1.33131235]
 [0.32341667 0.49151525]]",0,0.128
3,m,24,french,3,5,french,2024-02-07 14:00:07.182851,False,2,498,sounds\english\audio/english_863.wav,"[[  0.          52.03013683]
 [  0.1         21.53783975]
 [  0.2        -42.8061331 ]
 [  0.3         -9.69253087]
 [  0.32341667  56.44290307]]","[[0.         1.83111202]
 [0.1        0.9779226 ]
 [0.2        1.19089157]
 [0.3        0.269847  ]
 [0.32341667 0.87913369]]",0,0.503
3,m,24,french,3,5,french,2024-02-07 14:00:07.182851,False,2,499,sounds\english\audio/english_932.wav,"[[  0.          -3.8848098 ]
 [  0.1        -32.48916274]
 [  0.2         81.26251807]
 [  0.3        -18.23478105]
 [  0.32341667   7.90132089]]","[[0.         1.00949787]
 [0.1        1.44703087]
 [0.2        0.10808594]
 [0.3        0.03465182]
 [0.32341667 0.79845554]]",1,0.325
3,m,24,french,3,5,french,2024-02-07 14:00:07.182851,False,2,500,sounds\english\audio/english_594.wav,"[[  0.         -85.15725243]
 [  0.1         18.57908242]
 [  0.2        -52.1381203 ]
 [  0.3         77.56862162]
 [  0.32341667  89.7133381 ]]","[[0.         1.49995106]
 [0.1        1.36683942]
 [0.2        1.31792707]
 [0.3        0.76119001]
 [0.32341667 1.77084997]]",0,0.175
3,m,24,french,3,5,french,2024-02-07 14:00:07.182851,False,2,501,sounds\english\audio/english_211.wav,"[[  0.          37.34807541]
 [  0.1         97.98979508]
 [  0.2        -20.02981109]
 [  0.3        -69.8116311 ]
 [  0.32341667  35.11126142]]","[[0.         1.77380832]
 [0.1        1.35747523]
 [0.2        1.74013371]
 [0.3        0.94808553]
 [0.32341667 0.23094119]]",0,0.257
3,m,24,french,3,5,french,2024-02-07 14:00:07.182851,False,2,502,sounds\english\audio/english_521.wav,"[[  0.         -39.78859965]
 [  0.1         94.65680132]
 [  0.2        -68.68225016]
 [  0.3         19.56493677]
 [  0.32341667  69.42990376]]","[[0.         1.84590666]
 [0.1        0.33665341]
 [0.2        1.01474729]
 [0.3        0.73624599]
 [0.32341667 1.4391639 ]]",1,0.224
3,m,24,french,3,5,french,2024-02-07 14:00:07.182851,False,2,503,sounds\english\audio/english_798.wav,"[[  0.         -16.40769998]
 [  0.1          3.00381127]
 [  0.2        -31.24410556]
 [  0.3        -53.27973877]
 [  0.32341667  91.43563813]]","[[0.         1.85457914]
 [0.1        1.50219522]
 [0.2        0.78751403]
 [0.3        1.17339142]
 [0.32341667 1.30184409]]",0,0.071
3,m,24,french,3,5,french,2024-02-07 14:00:07.182851,False,2,504,sounds\english\audio/english_375.wav,"[[  0.          18.096335  ]
 [  0.1        -55.77885891]
 [  0.2        -79.80603762]
 [  0.3        -57.7566014 ]
 [  0.32341667  74.14673873]]","[[0.         0.30735121]
 [0.1        1.17808606]
 [0.2        1.03107785]
 [0.3        0.46519988]
 [0.32341667 1.41875211]]",1,2.711
3,m,24,french,3,5,french,2024-02-07 14:00:07.182851,False,2,505,sounds\english\audio/english_646.wav,"[[  0.          65.65927644]
 [  0.1        -31.23211399]
 [  0.2         62.59110385]
 [  0.3        -86.43369357]
 [  0.32341667  41.84315348]]","[[0.         1.85038449]
 [0.1        1.10748568]
 [0.2        1.14052106]
 [0.3        1.38971404]
 [0.32341667 0.49971738]]",0,0.118
3,m,24,french,3,5,french,2024-02-07 14:00:07.182851,False,2,506,sounds\english\audio/english_119.wav,"[[  0.         -72.13623542]
 [  0.1        -47.93500709]
 [  0.2         91.39212861]
 [  0.3         -4.62561099]
 [  0.32341667 -33.86599352]]","[[0.         1.33116293]
 [0.1        0.14257244]
 [0.2        1.10285667]
 [0.3        0.57572872]
 [0.32341667 1.36512269]]",1,0.535
3,m,24,french,3,5,french,2024-02-07 14:00:07.182851,False,2,507,sounds\english\audio/english_933.wav,"[[  0.         -48.12258855]
 [  0.1         27.26905516]
 [  0.2          0.35087756]
 [  0.3         94.96402149]
 [  0.32341667  61.52669097]]","[[0.         1.54767366]
 [0.1        0.30219473]
 [0.2        1.50410475]
 [0.3        1.44820406]
 [0.32341667 0.05049928]]",0,0.173
3,m,24,french,3,5,french,2024-02-07 14:00:07.182851,False,2,508,sounds\english\audio/english_243.wav,"[[  0.         -74.41503345]
 [  0.1        -16.65530333]
 [  0.2         -1.41224798]
 [  0.3         37.30419975]
 [  0.32341667  -3.40378668]]","[[0.         0.65151457]
 [0.1        0.20623253]
 [0.2        0.87153721]
 [0.3        0.28583671]
 [0.32341667 1.90700275]]",1,0.373
3,m,24,french,3,5,french,2024-02-07 14:00:07.182851,False,2,509,sounds\english\audio/english_768.wav,"[[  0.         -28.93145359]
 [  0.1         59.49166151]
 [  0.2         41.87955621]
 [  0.3        -92.17589111]
 [  0.32341667  15.2364545 ]]","[[0.         1.5002074 ]
 [0.1        1.15432208]
 [0.2        0.01731471]
 [0.3        0.98337229]
 [0.32341667 0.4381055 ]]",1,0.409
3,m,24,french,3,5,french,2024-02-07 14:00:07.182851,False,2,510,sounds\english\audio/english_543.wav,"[[  0.          13.74009622]
 [  0.1         51.80972721]
 [  0.2         86.3964352 ]
 [  0.3        -66.39783761]
 [  0.32341667  31.11863834]]","[[0.         0.63900578]
 [0.1        1.6206981 ]
 [0.2        0.03304675]
 [0.3        1.7049324 ]
 [0.32341667 1.46507556]]",0,0.318
3,m,24,french,3,5,french,2024-02-07 14:00:07.182851,False,2,511,sounds\english\audio/english_394.wav,"[[ 0.         73.08757955]
 [ 0.1         5.60908311]
 [ 0.2        76.56705043]
 [ 0.3        18.85166324]
 [ 0.32341667  8.45052692]]","[[0.         1.29313131]
 [0.1        0.62691873]
 [0.2        1.4938005 ]
 [0.3        1.2266925 ]
 [0.32341667 0.67844158]]",0,0.38
3,m,24,french,3,5,french,2024-02-07 14:00:07.182851,False,2,512,sounds\english\audio/english_189.wav,"[[  0.         -22.70456848]
 [  0.1        -12.00888723]
 [  0.2         15.14046376]
 [  0.3        -19.30106293]
 [  0.32341667 -20.57313834]]","[[0.         0.82906961]
 [0.1        0.58408113]
 [0.2        0.19058783]
 [0.3        0.57788611]
 [0.32341667 0.32577637]]",1,0.432
3,m,24,french,3,5,french,2024-02-07 14:00:07.182851,False,2,513,sounds\english\audio/english_520.wav,"[[  0.          86.3711843 ]
 [  0.1         30.73905166]
 [  0.2          6.06230503]
 [  0.3        -72.93527416]
 [  0.32341667  40.17700679]]","[[0.         1.94117834]
 [0.1        1.71866566]
 [0.2        1.15295637]
 [0.3        0.80072648]
 [0.32341667 1.71054199]]",0,0.094
3,m,24,french,3,5,french,2024-02-07 14:00:07.182851,False,2,514,sounds\english\audio/english_320.wav,"[[  0.         -85.59568725]
 [  0.1        -85.79055124]
 [  0.2        -34.52195848]
 [  0.3         14.03031204]
 [  0.32341667  45.83597199]]","[[0.         1.40519879]
 [0.1        0.4213256 ]
 [0.2        0.82537755]
 [0.3        0.50617831]
 [0.32341667 1.22725326]]",1,0.222
3,m,24,french,3,5,french,2024-02-07 14:00:07.182851,False,2,515,sounds\english\audio/english_592.wav,"[[  0.         -77.34060672]
 [  0.1         27.41551815]
 [  0.2        -17.47445882]
 [  0.3        -61.08462212]
 [  0.32341667  74.7675789 ]]","[[0.         0.96869857]
 [0.1        1.75134411]
 [0.2        1.41680483]
 [0.3        1.07260777]
 [0.32341667 0.73150904]]",0,0.101
3,m,24,french,3,5,french,2024-02-07 14:00:07.182851,False,2,516,sounds\english\audio/english_723.wav,"[[  0.         -85.17156731]
 [  0.1         92.93654667]
 [  0.2        -28.89042756]
 [  0.3         36.79914563]
 [  0.32341667   6.86426773]]","[[0.         1.02541656]
 [0.1        0.92088513]
 [0.2        0.78256854]
 [0.3        1.22887413]
 [0.32341667 1.77193963]]",1,0.196
3,m,24,french,3,5,french,2024-02-07 14:00:07.182851,False,2,517,sounds\english\audio/english_885.wav,"[[  0.          36.3288655 ]
 [  0.1        -33.4786966 ]
 [  0.2          8.05827153]
 [  0.3         84.98004341]
 [  0.32341667 -34.65749493]]","[[0.         0.78617108]
 [0.1        0.96292114]
 [0.2        0.70266535]
 [0.3        0.45613544]
 [0.32341667 0.81873504]]",0,0.471
3,m,24,french,3,5,french,2024-02-07 14:00:07.182851,False,2,518,sounds\english\audio/english_904.wav,"[[  0.          54.28678019]
 [  0.1        -13.24417266]
 [  0.2         18.94666669]
 [  0.3        -21.97018078]
 [  0.32341667   4.05624244]]","[[0.         0.96279628]
 [0.1        0.20212872]
 [0.2        1.39381084]
 [0.3        1.57516234]
 [0.32341667 0.97228596]]",0,0.232
3,m,24,french,3,5,french,2024-02-07 14:00:07.182851,False,2,519,sounds\english\audio/english_735.wav,"[[  0.          51.40973306]
 [  0.1         -5.42867159]
 [  0.2         13.71146629]
 [  0.3        -14.17202169]
 [  0.32341667  14.98699592]]","[[0.         0.29099813]
 [0.1        1.62833375]
 [0.2        0.32849247]
 [0.3        0.46991549]
 [0.32341667 0.51625305]]",1,0.388
3,m,24,french,3,5,french,2024-02-07 14:00:07.182851,False,2,520,sounds\english\audio/english_39.wav,"[[  0.          28.0167149 ]
 [  0.1          0.73047565]
 [  0.2        -55.83763262]
 [  0.3        -59.78026112]
 [  0.32341667  81.1603589 ]]","[[0.         1.3269735 ]
 [0.1        0.59121622]
 [0.2        0.32613901]
 [0.3        1.39661139]
 [0.32341667 0.76065887]]",1,0.419
3,m,24,french,3,5,french,2024-02-07 14:00:07.182851,False,2,521,sounds\english\audio/english_278.wav,"[[  0.         -49.55521664]
 [  0.1         60.24292507]
 [  0.2         34.32984246]
 [  0.3         91.69210883]
 [  0.32341667  78.84715657]]","[[0.         0.96598769]
 [0.1        1.32709354]
 [0.2        0.84496159]
 [0.3        1.50157491]
 [0.32341667 1.85534648]]",0,0.086
3,m,24,french,3,5,french,2024-02-07 14:00:07.182851,False,2,522,sounds\english\audio/english_764.wav,"[[  0.           7.00590276]
 [  0.1        -69.33047837]
 [  0.2        -20.89747671]
 [  0.3        -96.63564891]
 [  0.32341667  78.55111455]]","[[0.         1.84020442]
 [0.1        0.1607256 ]
 [0.2        1.70981587]
 [0.3        1.13854431]
 [0.32341667 1.5536836 ]]",0,0.71
3,m,24,french,3,5,french,2024-02-07 14:00:07.182851,False,2,523,sounds\english\audio/english_832.wav,"[[  0.         -21.62855277]
 [  0.1        -35.3834786 ]
 [  0.2         52.65867494]
 [  0.3         62.52082964]
 [  0.32341667  46.66062952]]","[[0.         1.31372842]
 [0.1        1.55258378]
 [0.2        1.50567803]
 [0.3        1.2163301 ]
 [0.32341667 1.20100353]]",0,0.162
3,m,24,french,3,5,french,2024-02-07 14:00:07.182851,False,2,524,sounds\english\audio/english_29.wav,"[[  0.          -2.71310826]
 [  0.1         17.7201972 ]
 [  0.2        -20.17501418]
 [  0.3         12.48271646]
 [  0.32341667  29.42079391]]","[[0.         1.50712016]
 [0.1        0.83644439]
 [0.2        0.76078741]
 [0.3        0.17009155]
 [0.32341667 1.26727983]]",1,0.324
3,m,24,french,3,5,french,2024-02-07 14:00:07.182851,False,2,525,sounds\english\audio/english_330.wav,"[[ 0.00000000e+00 -6.60623823e+01]
 [ 1.00000000e-01 -9.07862333e+01]
 [ 2.00000000e-01 -8.10713819e-03]
 [ 3.00000000e-01 -6.12450651e+01]
 [ 3.23416667e-01 -3.44586516e-01]]","[[0.         1.84658225]
 [0.1        0.94726644]
 [0.2        1.52006519]
 [0.3        1.63286843]
 [0.32341667 1.74173618]]",0,0.077
3,m,24,french,3,5,french,2024-02-07 14:00:07.182851,False,2,526,sounds\english\audio/english_468.wav,"[[  0.         -33.82586043]
 [  0.1        -42.55840131]
 [  0.2        -36.6492295 ]
 [  0.3         39.91321296]
 [  0.32341667  54.14936319]]","[[0.         0.35164089]
 [0.1        0.20114733]
 [0.2        1.40729654]
 [0.3        0.04300573]
 [0.32341667 1.79642733]]",1,0.315
3,m,24,french,3,5,french,2024-02-07 14:00:07.182851,False,2,527,sounds\english\audio/english_565.wav,"[[  0.         -89.95965492]
 [  0.1         67.55938023]
 [  0.2         26.6208604 ]
 [  0.3        -54.20230035]
 [  0.32341667 -98.16020256]]","[[0.         1.93181176]
 [0.1        1.29027557]
 [0.2        0.36054668]
 [0.3        1.25973455]
 [0.32341667 0.92743077]]",0,0.731
3,m,24,french,3,5,french,2024-02-07 14:00:07.182851,False,2,528,sounds\english\audio/english_800.wav,"[[  0.          -9.91001254]
 [  0.1        -86.79409322]
 [  0.2        -27.39997365]
 [  0.3         13.46737707]
 [  0.32341667 -32.56208711]]","[[0.         0.13142639]
 [0.1        1.71040153]
 [0.2        0.18637657]
 [0.3        1.09766523]
 [0.32341667 1.57940615]]",1,0.279
3,m,24,french,3,5,french,2024-02-07 14:00:07.182851,False,2,529,sounds\english\audio/english_938.wav,"[[  0.          55.68553541]
 [  0.1         19.57508628]
 [  0.2         99.59707332]
 [  0.3        -43.3789335 ]
 [  0.32341667  90.00594125]]","[[0.         1.13527087]
 [0.1        0.57526943]
 [0.2        0.71873046]
 [0.3        0.88566698]
 [0.32341667 0.39461425]]",1,0.413
3,m,24,french,3,5,french,2024-02-07 14:00:07.182851,False,2,530,sounds\english\audio/english_922.wav,"[[  0.         -90.36253489]
 [  0.1         -6.38761956]
 [  0.2        -78.09661245]
 [  0.3        -92.75722173]
 [  0.32341667 -80.16719401]]","[[0.         0.33253962]
 [0.1        1.51366693]
 [0.2        0.40049791]
 [0.3        1.29207892]
 [0.32341667 1.40400382]]",1,0.535
3,m,24,french,3,5,french,2024-02-07 14:00:07.182851,False,2,531,sounds\english\audio/english_428.wav,"[[  0.         -98.34466569]
 [  0.1        -10.51162175]
 [  0.2         97.93427859]
 [  0.3         35.61870537]
 [  0.32341667 -12.49352836]]","[[0.         1.83106884]
 [0.1        1.34345266]
 [0.2        0.65853672]
 [0.3        1.28105878]
 [0.32341667 0.15324236]]",0,0.158
3,m,24,french,3,5,french,2024-02-07 14:00:07.182851,False,2,532,sounds\english\audio/english_1.wav,"[[  0.          53.99031816]
 [  0.1        -58.32145174]
 [  0.2        -86.75659624]
 [  0.3        -31.84945767]
 [  0.32341667 -59.21997754]]","[[0.         1.91732561]
 [0.1        0.75352701]
 [0.2        1.40297919]
 [0.3        0.12157709]
 [0.32341667 1.57687546]]",0,0.145
3,m,24,french,3,5,french,2024-02-07 14:00:07.182851,False,2,533,sounds\english\audio/english_582.wav,"[[  0.         -29.81423477]
 [  0.1         37.42565533]
 [  0.2         79.58894888]
 [  0.3         49.55779855]
 [  0.32341667  54.00509918]]","[[0.         0.27230029]
 [0.1        0.84765039]
 [0.2        1.99526631]
 [0.3        1.55519667]
 [0.32341667 1.66653349]]",0,0.894
3,m,24,french,3,5,french,2024-02-07 14:00:07.182851,False,2,534,sounds\english\audio/english_945.wav,"[[  0.          63.16075011]
 [  0.1         87.55520176]
 [  0.2        -69.60467193]
 [  0.3        -69.25530384]
 [  0.32341667 -47.64160087]]","[[0.         1.8314946 ]
 [0.1        1.3737613 ]
 [0.2        0.61639792]
 [0.3        1.67239747]
 [0.32341667 1.88344595]]",1,0.522
3,m,24,french,3,5,french,2024-02-07 14:00:07.182851,False,2,535,sounds\english\audio/english_932.wav,"[[  0.          -3.8848098 ]
 [  0.1        -32.48916274]
 [  0.2         81.26251807]
 [  0.3        -18.23478105]
 [  0.32341667   7.90132089]]","[[0.         1.00949787]
 [0.1        1.44703087]
 [0.2        0.10808594]
 [0.3        0.03465182]
 [0.32341667 0.79845554]]",1,0.391
3,m,24,french,3,5,french,2024-02-07 14:00:07.182851,False,2,536,sounds\english\audio/english_775.wav,"[[ 0.         58.00753923]
 [ 0.1        88.61433734]
 [ 0.2        97.9031651 ]
 [ 0.3        14.61974867]
 [ 0.32341667 -5.44703254]]","[[0.         1.75560269]
 [0.1        0.86519841]
 [0.2        0.93867241]
 [0.3        1.86901891]
 [0.32341667 0.0946911 ]]",0,0.393
3,m,24,french,3,5,french,2024-02-07 14:00:07.182851,False,2,537,sounds\english\audio/english_202.wav,"[[  0.         -30.7410802 ]
 [  0.1        -19.68361402]
 [  0.2         -9.93463647]
 [  0.3         -7.1971022 ]
 [  0.32341667 -23.97797133]]","[[0.         1.48506999]
 [0.1        1.61937363]
 [0.2        0.73964021]
 [0.3        1.93955383]
 [0.32341667 1.43199581]]",0,0.921
3,m,24,french,3,5,french,2024-02-07 14:00:07.182851,False,2,538,sounds\english\audio/english_605.wav,"[[  0.         -82.65591545]
 [  0.1         35.78886654]
 [  0.2        -36.80716754]
 [  0.3         -4.39131435]
 [  0.32341667 -17.17702763]]","[[0.         0.90945233]
 [0.1        1.65178877]
 [0.2        0.21181898]
 [0.3        1.21754483]
 [0.32341667 1.60493484]]",0,2.446
3,m,24,french,3,5,french,2024-02-07 14:00:07.182851,False,2,539,sounds\english\audio/english_306.wav,"[[  0.         -78.46406697]
 [  0.1        -60.64765069]
 [  0.2         41.654101  ]
 [  0.3         58.45609749]
 [  0.32341667 -89.32145871]]","[[0.         1.96625377]
 [0.1        1.9128761 ]
 [0.2        0.92284414]
 [0.3        1.12546267]
 [0.32341667 0.77622038]]",0,0.133
3,m,24,french,3,5,french,2024-02-07 14:00:07.182851,False,2,540,sounds\english\audio/english_437.wav,"[[  0.          61.91803223]
 [  0.1          0.99543568]
 [  0.2        -50.96874522]
 [  0.3        -47.73319396]
 [  0.32341667  15.35939938]]","[[0.         0.36516876]
 [0.1        0.43500315]
 [0.2        1.25398366]
 [0.3        0.60570222]
 [0.32341667 0.97208355]]",1,0.324
3,m,24,french,3,5,french,2024-02-07 14:00:07.182851,False,2,541,sounds\english\audio/english_815.wav,"[[  0.         -76.1669867 ]
 [  0.1        -40.517901  ]
 [  0.2        -46.68959253]
 [  0.3        -79.23468646]
 [  0.32341667 -63.63497058]]","[[0.         0.29426078]
 [0.1        0.96858733]
 [0.2        0.83382199]
 [0.3        1.13727176]
 [0.32341667 0.09357312]]",1,0.295
3,m,24,french,3,5,french,2024-02-07 14:00:07.182851,False,2,542,sounds\english\audio/english_565.wav,"[[  0.         -89.95965492]
 [  0.1         67.55938023]
 [  0.2         26.6208604 ]
 [  0.3        -54.20230035]
 [  0.32341667 -98.16020256]]","[[0.         1.93181176]
 [0.1        1.29027557]
 [0.2        0.36054668]
 [0.3        1.25973455]
 [0.32341667 0.92743077]]",0,0.14
3,m,24,french,3,5,french,2024-02-07 14:00:07.182851,False,2,543,sounds\english\audio/english_691.wav,"[[  0.          28.79078449]
 [  0.1         99.1184909 ]
 [  0.2        -54.13985733]
 [  0.3        -85.36319246]
 [  0.32341667 -73.61621094]]","[[0.         1.07683297]
 [0.1        1.07376069]
 [0.2        0.28522735]
 [0.3        0.85701066]
 [0.32341667 1.71165398]]",1,0.172
3,m,24,french,3,5,french,2024-02-07 14:00:07.182851,False,2,544,sounds\english\audio/english_198.wav,"[[ 0.         -3.53881338]
 [ 0.1        58.04445454]
 [ 0.2        67.39523563]
 [ 0.3        56.58835275]
 [ 0.32341667  7.34595052]]","[[0.         0.6033193 ]
 [0.1        0.57837506]
 [0.2        1.37850613]
 [0.3        0.73107668]
 [0.32341667 0.42006089]]",0,0.144
3,m,24,french,3,5,french,2024-02-07 14:00:07.182851,False,2,545,sounds\english\audio/english_575.wav,"[[  0.          61.73461998]
 [  0.1        -88.57549656]
 [  0.2        -30.88461278]
 [  0.3        -63.73327026]
 [  0.32341667  -0.55806298]]","[[0.         1.8510319 ]
 [0.1        1.54102878]
 [0.2        1.19801244]
 [0.3        1.20026237]
 [0.32341667 1.04112184]]",0,0.779
3,m,24,french,3,5,french,2024-02-07 14:00:07.182851,False,2,546,sounds\english\audio/english_385.wav,"[[  0.         -55.07910634]
 [  0.1        -94.47680079]
 [  0.2         38.70414457]
 [  0.3        -46.17691   ]
 [  0.32341667   2.5941508 ]]","[[0.         1.75648555]
 [0.1        1.20856462]
 [0.2        0.98103352]
 [0.3        1.45745263]
 [0.32341667 0.88353815]]",0,0.383
3,m,24,french,3,5,french,2024-02-07 14:00:07.182851,False,2,547,sounds\english\audio/english_854.wav,"[[  0.          -3.2532791 ]
 [  0.1         19.40039505]
 [  0.2        -14.62360686]
 [  0.3        -63.13820282]
 [  0.32341667  44.42181264]]","[[0.         1.78139632]
 [0.1        1.50161717]
 [0.2        0.8978804 ]
 [0.3        1.66267041]
 [0.32341667 1.68588082]]",0,0.732
3,m,24,french,3,5,french,2024-02-07 14:00:07.182851,False,2,548,sounds\english\audio/english_812.wav,"[[  0.          70.24469457]
 [  0.1        -27.51466786]
 [  0.2         60.55844263]
 [  0.3         52.93607499]
 [  0.32341667  74.74872052]]","[[0.         0.85599223]
 [0.1        0.39005905]
 [0.2        1.43275618]
 [0.3        1.34329238]
 [0.32341667 0.96810209]]",0,1.035
3,m,24,french,3,5,french,2024-02-07 14:00:07.182851,False,2,549,sounds\english\audio/english_202.wav,"[[  0.         -30.7410802 ]
 [  0.1        -19.68361402]
 [  0.2         -9.93463647]
 [  0.3         -7.1971022 ]
 [  0.32341667 -23.97797133]]","[[0.         1.48506999]
 [0.1        1.61937363]
 [0.2        0.73964021]
 [0.3        1.93955383]
 [0.32341667 1.43199581]]",1,0.419
3,m,24,french,3,5,french,2024-02-07 14:00:07.182851,False,2,550,sounds\english\audio/english_583.wav,"[[  0.         -35.26485382]
 [  0.1        -69.50197994]
 [  0.2         73.6796048 ]
 [  0.3         -1.04664171]
 [  0.32341667 -55.46924107]]","[[0.         0.11557093]
 [0.1        0.9917357 ]
 [0.2        1.33727714]
 [0.3        0.97646566]
 [0.32341667 1.06585671]]",1,0.999
3,m,24,french,3,5,french,2024-02-07 14:00:07.182851,False,2,551,sounds\english\audio/english_80.wav,"[[  0.          33.21374474]
 [  0.1        -72.2618742 ]
 [  0.2        -29.44860443]
 [  0.3        -33.36418129]
 [  0.32341667 -65.11319145]]","[[0.         1.09809668]
 [0.1        1.73594877]
 [0.2        0.30037535]
 [0.3        0.36613598]
 [0.32341667 0.50687614]]",0,0.121
3,m,24,french,3,5,french,2024-02-07 14:00:07.182851,False,2,552,sounds\english\audio/english_950.wav,"[[  0.         -21.9776243 ]
 [  0.1        -41.40023943]
 [  0.2         48.01515584]
 [  0.3        -87.95551252]
 [  0.32341667 -39.5252386 ]]","[[0.         0.20752278]
 [0.1        1.93939622]
 [0.2        1.55608343]
 [0.3        1.49634866]
 [0.32341667 0.91783384]]",0,0.384
3,m,24,french,3,5,french,2024-02-07 14:00:07.182851,False,2,553,sounds\english\audio/english_2.wav,"[[  0.         -99.15346184]
 [  0.1         80.90141422]
 [  0.2         25.8663891 ]
 [  0.3         75.24606714]
 [  0.32341667 -83.41413367]]","[[0.         1.13720105]
 [0.1        1.91777804]
 [0.2        0.47706995]
 [0.3        0.3458575 ]
 [0.32341667 0.38623968]]",1,0.521
3,m,24,french,3,5,french,2024-02-07 14:00:07.182851,False,2,554,sounds\english\audio/english_351.wav,"[[  0.         -56.55455818]
 [  0.1        -81.1333892 ]
 [  0.2         70.95296343]
 [  0.3        -82.79021433]
 [  0.32341667 -21.34496407]]","[[0.         0.98366365]
 [0.1        1.13800808]
 [0.2        1.04915948]
 [0.3        1.70890302]
 [0.32341667 1.83807055]]",0,0.164
3,m,24,french,3,5,french,2024-02-07 14:00:07.182851,False,2,555,sounds\english\audio/english_903.wav,"[[  0.          73.58848698]
 [  0.1        -95.58060262]
 [  0.2         17.41642173]
 [  0.3         94.35223882]
 [  0.32341667 -49.48803877]]","[[0.         0.30588109]
 [0.1        0.88963747]
 [0.2        1.73634476]
 [0.3        0.71257749]
 [0.32341667 1.4824474 ]]",0,0.358
3,m,24,french,3,5,french,2024-02-07 14:00:07.182851,False,2,556,sounds\english\audio/english_815.wav,"[[  0.         -76.1669867 ]
 [  0.1        -40.517901  ]
 [  0.2        -46.68959253]
 [  0.3        -79.23468646]
 [  0.32341667 -63.63497058]]","[[0.         0.29426078]
 [0.1        0.96858733]
 [0.2        0.83382199]
 [0.3        1.13727176]
 [0.32341667 0.09357312]]",1,1.701
3,m,24,french,3,5,french,2024-02-07 14:00:07.182851,False,2,557,sounds\english\audio/english_948.wav,"[[  0.          12.28616187]
 [  0.1         33.44634687]
 [  0.2         98.80566767]
 [  0.3        -93.57044844]
 [  0.32341667 -51.09398555]]","[[0.         1.33435242]
 [0.1        1.33862855]
 [0.2        1.25876505]
 [0.3        1.87938727]
 [0.32341667 1.88731406]]",0,1.049
3,m,24,french,3,5,french,2024-02-07 14:00:07.182851,False,2,558,sounds\english\audio/english_153.wav,"[[  0.           1.34878197]
 [  0.1        -86.14475674]
 [  0.2          3.24582423]
 [  0.3         -6.94068795]
 [  0.32341667 -76.91560753]]","[[0.         1.20280718]
 [0.1        1.60924223]
 [0.2        0.94422247]
 [0.3        0.98008297]
 [0.32341667 0.34988026]]",1,0.343
3,m,24,french,3,5,french,2024-02-07 14:00:07.182851,False,2,559,sounds\english\audio/english_653.wav,"[[  0.           8.14815906]
 [  0.1          4.49815435]
 [  0.2        -96.80954485]
 [  0.3         -0.49075979]
 [  0.32341667  98.12577208]]","[[0.         1.27061672]
 [0.1        1.37470465]
 [0.2        1.57421691]
 [0.3        1.39011427]
 [0.32341667 0.75484601]]",0,0.283
3,m,24,french,3,5,french,2024-02-07 14:00:07.182851,False,2,560,sounds\english\audio/english_896.wav,"[[  0.         -76.63716622]
 [  0.1        -73.11298951]
 [  0.2         48.53347054]
 [  0.3         -4.46661278]
 [  0.32341667 -44.69533701]]","[[0.         1.08893336]
 [0.1        0.41748987]
 [0.2        0.32012442]
 [0.3        0.63387312]
 [0.32341667 1.27766005]]",1,0.464
3,m,24,french,3,5,french,2024-02-07 14:00:07.182851,False,2,561,sounds\english\audio/english_572.wav,"[[  0.         -16.16189062]
 [  0.1        -40.8511413 ]
 [  0.2        -77.3747243 ]
 [  0.3         87.62803369]
 [  0.32341667  81.6005998 ]]","[[0.         1.82210005]
 [0.1        0.80249033]
 [0.2        0.69959732]
 [0.3        0.43311894]
 [0.32341667 1.25204325]]",0,0.434
3,m,24,french,3,5,french,2024-02-07 14:00:07.182851,False,2,562,sounds\english\audio/english_608.wav,"[[  0.          78.8022196 ]
 [  0.1         59.03316834]
 [  0.2        -13.94961152]
 [  0.3         55.83681575]
