subj,sex,age,language,english,french,native_lang,date,practice,block,trial,stim,pitch,stretch,response,rt
8729829169,f,18,french,3,5,french,2024-02-01 10:28:31.264933,False,2,253,sounds\english\audio/english_440.wav,"[[  0.          44.70308901]
 [  0.1        -88.0257567 ]
 [  0.2          1.19893433]
 [  0.3         19.45485395]
 [  0.32341667  13.00088222]]","[[0.00000000e+00 1.51497438e+00]
 [1.00000000e-01 1.05972447e+00]
 [2.00000000e-01 5.90820378e-01]
 [3.00000000e-01 6.80586803e-01]
 [3.23416667e-01 6.18341324e-04]]",0,1.462
8729829169,f,18,french,3,5,french,2024-02-01 10:28:31.264933,False,2,254,sounds\english\audio/english_949.wav,"[[  0.          48.32946721]
 [  0.1         73.83586198]
 [  0.2        -30.27812065]
 [  0.3        -32.50397555]
 [  0.32341667  96.46984971]]","[[0.         1.50413289]
 [0.1        1.55745414]
 [0.2        1.00772566]
 [0.3        0.86702054]
 [0.32341667 1.67836019]]",0,0.389
8729829169,f,18,french,3,5,french,2024-02-01 10:28:31.264933,False,2,255,sounds\english\audio/english_674.wav,"[[  0.         -38.60253285]
 [  0.1         46.14948962]
 [  0.2        -49.76414787]
 [  0.3        -66.16492387]
 [  0.32341667  28.37583826]]","[[0.         0.25488683]
 [0.1        1.80679583]
 [0.2        1.59420413]
 [0.3        1.25714797]
 [0.32341667 1.20557216]]",0,0.481
8729829169,f,18,french,3,5,french,2024-02-01 10:28:31.264933,False,2,256,sounds\english\audio/english_736.wav,"[[  0.          44.94907169]
 [  0.1        -89.05982676]
 [  0.2         27.88925208]
 [  0.3         77.01163693]
 [  0.32341667 -28.23601136]]","[[0.         1.40223879]
 [0.1        1.76358699]
 [0.2        0.99111008]
 [0.3        1.90426439]
 [0.32341667 1.97036362]]",0,0.299
8729829169,f,18,french,3,5,french,2024-02-01 10:28:31.264933,False,2,257,sounds\english\audio/english_845.wav,"[[  0.         -39.21264236]
 [  0.1         99.78041888]
 [  0.2        -59.29104422]
 [  0.3         57.0409613 ]
 [  0.32341667 -93.6361214 ]]","[[0.         0.82761504]
 [0.1        0.53375751]
 [0.2        1.24236426]
 [0.3        1.27736464]
 [0.32341667 0.79024728]]",1,0.694
8729829169,f,18,french,3,5,french,2024-02-01 10:28:31.264933,False,2,258,sounds\english\audio/english_248.wav,"[[  0.          62.49888219]
 [  0.1        -37.43052778]
 [  0.2         50.26474258]
 [  0.3        -90.47385391]
 [  0.32341667 -16.4169983 ]]","[[0.         0.01612638]
 [0.1        0.65001727]
 [0.2        1.10053755]
 [0.3        0.93833438]
 [0.32341667 1.90627888]]",1,0.929
8729829169,f,18,french,3,5,french,2024-02-01 10:28:31.264933,False,2,259,sounds\english\audio/english_935.wav,"[[  0.          64.39543101]
 [  0.1         86.95314533]
 [  0.2        -18.93400703]
 [  0.3         36.25821345]
 [  0.32341667 -52.75689815]]","[[0.         0.53440609]
 [0.1        0.5847186 ]
 [0.2        0.87093815]
 [0.3        1.35336039]
 [0.32341667 1.46825192]]",0,0.507
8729829169,f,18,french,3,5,french,2024-02-01 10:28:31.264933,False,2,260,sounds\english\audio/english_955.wav,"[[  0.         -93.58498903]
 [  0.1        -11.56731864]
 [  0.2         60.37787928]
 [  0.3         83.42366765]
 [  0.32341667 -60.32056418]]","[[0.         1.26703381]
 [0.1        0.51967441]
 [0.2        1.0313906 ]
 [0.3        1.58878747]
 [0.32341667 1.0025339 ]]",0,0.459
8729829169,f,18,french,3,5,french,2024-02-01 10:28:31.264933,False,2,261,sounds\english\audio/english_83.wav,"[[  0.          98.86804112]
 [  0.1        -37.42051535]
 [  0.2         23.85234946]
 [  0.3         28.05435803]
 [  0.32341667   2.44147447]]","[[0.         0.82381457]
 [0.1        1.26275754]
 [0.2        0.74836396]
 [0.3        0.41584898]
 [0.32341667 1.88336536]]",0,0.534
8729829169,f,18,french,3,5,french,2024-02-01 10:28:31.264933,False,2,262,sounds\english\audio/english_859.wav,"[[  0.          71.31858369]
 [  0.1        -33.60875554]
 [  0.2        -64.15502461]
 [  0.3        -36.22537369]
 [  0.32341667 -23.59955866]]","[[0.         0.11764496]
 [0.1        0.29827778]
 [0.2        0.43254339]
 [0.3        0.12368506]
 [0.32341667 0.97858169]]",1,0.447
8729829169,f,18,french,3,5,french,2024-02-01 10:28:31.264933,False,2,263,sounds\english\audio/english_197.wav,"[[  0.         -60.72223742]
 [  0.1        -88.93421142]
 [  0.2         51.43827126]
 [  0.3          7.80125839]
 [  0.32341667 -53.06876459]]","[[0.         1.8449777 ]
 [0.1        1.74693134]
 [0.2        1.11057597]
 [0.3        1.67371275]
 [0.32341667 1.16077516]]",0,0.153
8729829169,f,18,french,3,5,french,2024-02-01 10:28:31.264933,False,2,264,sounds\english\audio/english_353.wav,"[[  0.          51.44050484]
 [  0.1         -8.32491594]
 [  0.2        -53.32966552]
 [  0.3         68.29246543]
 [  0.32341667 -32.22441747]]","[[0.         0.16518243]
 [0.1        1.32533476]
 [0.2        0.41923861]
 [0.3        1.87374553]
 [0.32341667 1.13071195]]",0,0.36
8729829169,f,18,french,3,5,french,2024-02-01 10:28:31.264933,False,2,265,sounds\english\audio/english_927.wav,"[[  0.          81.66311017]
 [  0.1          0.87570902]
 [  0.2        -59.21619647]
 [  0.3        -57.6787773 ]
 [  0.32341667 -30.87043146]]","[[0.         1.3783001 ]
 [0.1        0.51323502]
 [0.2        0.98265958]
 [0.3        0.30790993]
 [0.32341667 1.17222751]]",0,0.344
8729829169,f,18,french,3,5,french,2024-02-01 10:28:31.264933,False,2,266,sounds\english\audio/english_343.wav,"[[  0.         -26.15456552]
 [  0.1         -4.26522308]
 [  0.2         55.3227334 ]
 [  0.3        -26.26518208]
 [  0.32341667 -18.3065251 ]]","[[0.         0.99905336]
 [0.1        0.59066439]
 [0.2        1.69088488]
 [0.3        1.70645599]
 [0.32341667 0.13143106]]",0,0.284
8729829169,f,18,french,3,5,french,2024-02-01 10:28:31.264933,False,2,267,sounds\english\audio/english_700.wav,"[[  0.         -76.89056698]
 [  0.1        -93.17552037]
 [  0.2         51.24439156]
 [  0.3         89.4516499 ]
 [  0.32341667 -68.48659069]]","[[0.         0.13963816]
 [0.1        0.76842729]
 [0.2        0.49149542]
 [0.3        1.08714417]
 [0.32341667 1.35188588]]",0,0.308
8729829169,f,18,french,3,5,french,2024-02-01 10:28:31.264933,False,2,268,sounds\english\audio/english_336.wav,"[[  0.          29.43389708]
 [  0.1        -98.82505887]
 [  0.2         33.95949266]
 [  0.3        -57.79711044]
 [  0.32341667  81.65015026]]","[[0.         1.05594545]
 [0.1        1.57774783]
 [0.2        1.35373128]
 [0.3        1.04960404]
 [0.32341667 0.39151968]]",0,0.292
8729829169,f,18,french,3,5,french,2024-02-01 10:28:31.264933,False,2,269,sounds\english\audio/english_879.wav,"[[  0.         -56.32485069]
 [  0.1         64.67592183]
 [  0.2         25.82204554]
 [  0.3          5.66794257]
 [  0.32341667 -31.65503708]]","[[0.         0.53184386]
 [0.1        1.34296213]
 [0.2        0.44649674]
 [0.3        0.79707043]
 [0.32341667 1.19804995]]",1,0.569
8729829169,f,18,french,3,5,french,2024-02-01 10:28:31.264933,False,2,270,sounds\english\audio/english_26.wav,"[[  0.          54.38966875]
 [  0.1          0.3460174 ]
 [  0.2        -72.33258957]
 [  0.3         67.09142092]
 [  0.32341667  16.00565239]]","[[0.         1.86679487]
 [0.1        0.79762949]
 [0.2        0.93682052]
 [0.3        1.42469209]
 [0.32341667 1.17807545]]",0,0.13
8729829169,f,18,french,3,5,french,2024-02-01 10:28:31.264933,False,2,271,sounds\english\audio/english_498.wav,"[[  0.           2.49020902]
 [  0.1        -20.55300452]
 [  0.2        -34.14985779]
 [  0.3         79.54997135]
 [  0.32341667  20.54695207]]","[[0.         0.78964515]
 [0.1        0.24391593]
 [0.2        0.11401041]
 [0.3        1.52582154]
 [0.32341667 0.62547878]]",1,0.332
8729829169,f,18,french,3,5,french,2024-02-01 10:28:31.264933,False,2,272,sounds\english\audio/english_873.wav,"[[  0.          85.43762199]
 [  0.1        -27.24751419]
 [  0.2         -8.79829555]
 [  0.3        -97.88620301]
 [  0.32341667  49.57089273]]","[[0.         1.00056931]
 [0.1        0.47504393]
 [0.2        0.788147  ]
 [0.3        0.64075463]
 [0.32341667 0.87603086]]",0,0.771
8729829169,f,18,french,3,5,french,2024-02-01 10:28:31.264933,False,2,273,sounds\english\audio/english_728.wav,"[[  0.          -6.4565561 ]
 [  0.1          2.02882612]
 [  0.2        -40.29513079]
 [  0.3        -29.37287389]
 [  0.32341667 -32.17490136]]","[[0.         1.7247049 ]
 [0.1        1.95158608]
 [0.2        0.21085377]
 [0.3        0.85434083]
 [0.32341667 1.52436666]]",0,0.285
8729829169,f,18,french,3,5,french,2024-02-01 10:28:31.264933,False,2,274,sounds\english\audio/english_463.wav,"[[  0.         -17.89775534]
 [  0.1        -21.51631701]
 [  0.2        -12.53951077]
 [  0.3         33.47501925]
 [  0.32341667 -93.09525534]]","[[0.         1.84132871]
 [0.1        1.66361617]
 [0.2        0.64060514]
 [0.3        1.01091097]
 [0.32341667 0.69499506]]",0,0.184
8729829169,f,18,french,3,5,french,2024-02-01 10:28:31.264933,False,2,275,sounds\english\audio/english_324.wav,"[[  0.          49.07155908]
 [  0.1        -58.77252084]
 [  0.2        -55.40155542]
 [  0.3         19.02224292]
 [  0.32341667  21.20382854]]","[[0.         0.10864525]
 [0.1        1.61132735]
 [0.2        0.60180616]
 [0.3        0.93555132]
 [0.32341667 0.34417591]]",0,0.987
8729829169,f,18,french,3,5,french,2024-02-01 10:28:31.264933,False,2,276,sounds\english\audio/english_304.wav,"[[  0.         -80.7192326 ]
 [  0.1         34.14230443]
 [  0.2        -43.78548789]
 [  0.3         85.79520644]
 [  0.32341667 -29.32737886]]","[[0.         0.54130022]
 [0.1        0.20766845]
 [0.2        1.25157904]
 [0.3        0.76195837]
 [0.32341667 0.20991234]]",0,0.534
8729829169,f,18,french,3,5,french,2024-02-01 10:28:31.264933,False,2,277,sounds\english\audio/english_347.wav,"[[  0.          34.89178431]
 [  0.1         53.24978685]
 [  0.2          4.11185022]
 [  0.3         89.26663646]
 [  0.32341667 -53.02646266]]","[[0.         1.32203506]
 [0.1        0.28714436]
 [0.2        1.66093526]
 [0.3        1.29826057]
 [0.32341667 0.05504814]]",0,0.627
8729829169,f,18,french,3,5,french,2024-02-01 10:28:31.264933,False,2,278,sounds\english\audio/english_451.wav,"[[  0.         -87.31297583]
 [  0.1        -44.51362963]
 [  0.2        -15.52945473]
 [  0.3         11.70886435]
 [  0.32341667  82.84342256]]","[[0.         0.44823779]
 [0.1        0.44678563]
 [0.2        1.69444841]
 [0.3        0.18586344]
 [0.32341667 0.9677256 ]]",0,0.704
8729829169,f,18,french,3,5,french,2024-02-01 10:28:31.264933,False,2,279,sounds\english\audio/english_723.wav,"[[  0.         -85.17156731]
 [  0.1         92.93654667]
 [  0.2        -28.89042756]
 [  0.3         36.79914563]
 [  0.32341667   6.86426773]]","[[0.         1.02541656]
 [0.1        0.92088513]
 [0.2        0.78256854]
 [0.3        1.22887413]
 [0.32341667 1.77193963]]",1,0.452
8729829169,f,18,french,3,5,french,2024-02-01 10:28:31.264933,False,2,280,sounds\english\audio/english_970.wav,"[[  0.          37.22911191]
 [  0.1         36.57191813]
 [  0.2         20.2344678 ]
 [  0.3        -86.31030026]
 [  0.32341667 -83.96880691]]","[[0.         0.60712849]
 [0.1        1.26781741]
 [0.2        1.29373459]
 [0.3        0.18112256]
 [0.32341667 1.07780169]]",0,0.889
8729829169,f,18,french,3,5,french,2024-02-01 10:28:31.264933,False,2,281,sounds\english\audio/english_891.wav,"[[  0.          21.29241244]
 [  0.1         -1.23713702]
 [  0.2        -74.86460599]
 [  0.3         18.81587233]
 [  0.32341667  35.3489582 ]]","[[0.         0.7419472 ]
 [0.1        1.09270952]
 [0.2        0.8129571 ]
 [0.3        0.16019775]
 [0.32341667 1.17476401]]",0,0.539
8729829169,f,18,french,3,5,french,2024-02-01 10:28:31.264933,False,2,282,sounds\english\audio/english_837.wav,"[[  0.         -10.72674788]
 [  0.1         33.60933966]
 [  0.2         -1.37827911]
 [  0.3         29.3498758 ]
 [  0.32341667  31.86641091]]","[[0.         0.56055933]
 [0.1        1.16716927]
 [0.2        1.02731607]
 [0.3        1.96665864]
 [0.32341667 0.45425732]]",0,0.294
8729829169,f,18,french,3,5,french,2024-02-01 10:28:31.264933,False,2,283,sounds\english\audio/english_244.wav,"[[  0.         -70.20374383]
 [  0.1         67.84882107]
 [  0.2          0.61676271]
 [  0.3        -96.58934439]
 [  0.32341667 -77.46985837]]","[[0.         1.65134166]
 [0.1        1.23738837]
 [0.2        0.90147553]
 [0.3        1.79293216]
 [0.32341667 1.15013727]]",0,0.338
8729829169,f,18,french,3,5,french,2024-02-01 10:28:31.264933,False,2,284,sounds\english\audio/english_315.wav,"[[  0.           3.76150079]
 [  0.1          4.93204799]
 [  0.2        -81.53480532]
 [  0.3         45.94577355]
 [  0.32341667 -55.96194099]]","[[0.         1.04293113]
 [0.1        0.55537984]
 [0.2        1.13024782]
 [0.3        1.06792043]
 [0.32341667 1.80369969]]",0,0.532
8729829169,f,18,french,3,5,french,2024-02-01 10:28:31.264933,False,2,285,sounds\english\audio/english_557.wav,"[[  0.          43.94308994]
 [  0.1         84.77773598]
 [  0.2        -14.75143777]
 [  0.3        -37.76141322]
 [  0.32341667  -5.99076179]]","[[0.         0.38165316]
 [0.1        1.19567933]
 [0.2        1.35103773]
 [0.3        1.69174007]
 [0.32341667 0.4334092 ]]",1,0.64
8729829169,f,18,french,3,5,french,2024-02-01 10:28:31.264933,False,2,286,sounds\english\audio/english_89.wav,"[[  0.         -42.28936571]
 [  0.1         12.96738115]
 [  0.2         -0.92476461]
 [  0.3         54.46155283]
 [  0.32341667  -5.27724964]]","[[0.         1.68633095]
 [0.1        0.49078122]
 [0.2        0.75584791]
 [0.3        1.37155139]
 [0.32341667 0.6613642 ]]",0,0.34
8729829169,f,18,french,3,5,french,2024-02-01 10:28:31.264933,False,2,287,sounds\english\audio/english_801.wav,"[[  0.          66.50571345]
 [  0.1        -53.03260979]
 [  0.2         -3.89459646]
 [  0.3          8.32951864]
 [  0.32341667 -87.46806733]]","[[0.         0.19311528]
 [0.1        0.48683601]
 [0.2        1.16293258]
 [0.3        1.55734707]
 [0.32341667 0.63471681]]",1,0.875
8729829169,f,18,french,3,5,french,2024-02-01 10:28:31.264933,False,2,288,sounds\english\audio/english_391.wav,"[[  0.          67.64906061]
 [  0.1         79.28195584]
 [  0.2         62.27299227]
 [  0.3        -11.10764883]
 [  0.32341667  57.41338752]]","[[0.         0.41951577]
 [0.1        0.03526883]
 [0.2        0.81828659]
 [0.3        1.2900604 ]
 [0.32341667 1.95373865]]",1,0.671
8729829169,f,18,french,3,5,french,2024-02-01 10:28:31.264933,False,2,289,sounds\english\audio/english_232.wav,"[[  0.          15.13134779]
 [  0.1        -49.29605083]
 [  0.2         59.10606455]
 [  0.3         48.81708847]
 [  0.32341667  14.83590121]]","[[0.         0.53160298]
 [0.1        0.4519978 ]
 [0.2        0.39260156]
 [0.3        0.4692084 ]
 [0.32341667 0.46233459]]",1,0.69
8729829169,f,18,french,3,5,french,2024-02-01 10:28:31.264933,False,2,290,sounds\english\audio/english_376.wav,"[[  0.         -10.66231765]
 [  0.1        -53.95799634]
 [  0.2        -44.60014177]
 [  0.3        -84.32777745]
 [  0.32341667  -2.76179289]]","[[0.         0.83936518]
 [0.1        1.7265478 ]
 [0.2        0.44309389]
 [0.3        1.91772458]
 [0.32341667 0.76255227]]",0,0.222
8729829169,f,18,french,3,5,french,2024-02-01 10:28:31.264933,False,2,291,sounds\english\audio/english_662.wav,"[[  0.         -34.20942979]
 [  0.1        -64.9220759 ]
 [  0.2        -46.13526655]
 [  0.3         16.61128262]
 [  0.32341667 -72.42442326]]","[[0.         0.58122658]
 [0.1        0.35407044]
 [0.2        1.02300599]
 [0.3        0.09808433]
 [0.32341667 0.71975239]]",0,0.995
8729829169,f,18,french,3,5,french,2024-02-01 10:28:31.264933,False,2,292,sounds\english\audio/english_550.wav,"[[  0.          19.46608022]
 [  0.1        -94.3556307 ]
 [  0.2        -80.90695222]
 [  0.3        -65.36230075]
 [  0.32341667 -18.45722395]]","[[0.         0.78600887]
 [0.1        1.03273328]
 [0.2        0.36941932]
 [0.3        0.47038634]
 [0.32341667 0.11798167]]",0,0.586
8729829169,f,18,french,3,5,french,2024-02-01 10:28:31.264933,False,2,293,sounds\english\audio/english_507.wav,"[[  0.         -61.1842488 ]
 [  0.1        -67.40048172]
 [  0.2         12.41471853]
 [  0.3        -23.82579329]
 [  0.32341667   9.53005369]]","[[0.         1.97653192]
 [0.1        1.52355847]
 [0.2        0.98006415]
 [0.3        0.44372312]
 [0.32341667 0.65281453]]",0,0.357
8729829169,f,18,french,3,5,french,2024-02-01 10:28:31.264933,False,2,294,sounds\english\audio/english_410.wav,"[[  0.         -74.64506245]
 [  0.1         65.24401488]
 [  0.2        -65.86471953]
 [  0.3         98.79489106]
 [  0.32341667  14.95451541]]","[[0.         0.42358098]
 [0.1        0.42526697]
 [0.2        1.12385183]
 [0.3        0.33588109]
 [0.32341667 1.7246864 ]]",1,1.229
8729829169,f,18,french,3,5,french,2024-02-01 10:28:31.264933,False,2,295,sounds\english\audio/english_123.wav,"[[  0.          67.91608163]
 [  0.1        -92.32097988]
 [  0.2         57.07371841]
 [  0.3         19.28317816]
 [  0.32341667  15.30546887]]","[[0.         1.13046919]
 [0.1        1.99597614]
 [0.2        1.53523853]
 [0.3        0.24385811]
 [0.32341667 0.39158976]]",0,0.215
8729829169,f,18,french,3,5,french,2024-02-01 10:28:31.264933,False,2,296,sounds\english\audio/english_309.wav,"[[  0.          59.8258624 ]
 [  0.1         73.70427758]
 [  0.2         -8.71125849]
 [  0.3        -86.6882155 ]
 [  0.32341667 -90.77340978]]","[[0.         0.58100331]
 [0.1        0.81024997]
 [0.2        0.10827203]
 [0.3        0.09670208]
 [0.32341667 1.53063904]]",1,0.724
8729829169,f,18,french,3,5,french,2024-02-01 10:28:31.264933,False,2,297,sounds\english\audio/english_476.wav,"[[  0.          67.27413703]
 [  0.1        -35.99891676]
 [  0.2         53.1347651 ]
 [  0.3        -27.53585108]
 [  0.32341667  13.88563074]]","[[0.         1.71507594]
 [0.1        1.5691203 ]
 [0.2        0.1869461 ]
 [0.3        0.94822926]
 [0.32341667 1.63186757]]",0,0.27
8729829169,f,18,french,3,5,french,2024-02-01 10:28:31.264933,False,2,298,sounds\english\audio/english_206.wav,"[[  0.          29.86029141]
 [  0.1        -65.49550847]
 [  0.2         -8.37849199]
 [  0.3         16.32170521]
 [  0.32341667 -96.55544023]]","[[0.         0.9413203 ]
 [0.1        1.58501733]
 [0.2        1.84833856]
 [0.3        1.12864021]
 [0.32341667 0.85017735]]",0,0.428
8729829169,f,18,french,3,5,french,2024-02-01 10:28:31.264933,False,2,299,sounds\english\audio/english_623.wav,"[[  0.         -23.54178515]
 [  0.1        -47.52772515]
 [  0.2         47.20668934]
 [  0.3        -98.32001938]
 [  0.32341667 -63.09014275]]","[[0.         1.91881792]
 [0.1        0.99675119]
 [0.2        0.26332691]
 [0.3        1.33317057]
 [0.32341667 1.04211108]]",0,0.622
8729829169,f,18,french,3,5,french,2024-02-01 10:28:31.264933,False,2,300,sounds\english\audio/english_914.wav,"[[  0.          37.51857345]
 [  0.1        -30.53068311]
 [  0.2        -12.980452  ]
 [  0.3        -99.09260462]
 [  0.32341667 -34.91402533]]","[[0.         0.04486829]
 [0.1        1.18486584]
 [0.2        1.58356311]
 [0.3        1.35478251]
 [0.32341667 1.16671671]]",1,0.589
8729829169,f,18,french,3,5,french,2024-02-01 10:28:31.264933,False,2,301,sounds\english\audio/english_692.wav,"[[  0.         -29.13306787]
 [  0.1        -41.86406343]
 [  0.2        -94.94051661]
 [  0.3         78.40426091]
 [  0.32341667 -47.11562344]]","[[0.         0.55849531]
 [0.1        1.96517265]
 [0.2        0.19953253]
 [0.3        1.89357941]
 [0.32341667 1.37874109]]",0,0.405
8729829169,f,18,french,3,5,french,2024-02-01 10:28:31.264933,False,2,302,sounds\english\audio/english_464.wav,"[[  0.          53.08614354]
 [  0.1         30.21863436]
 [  0.2        -72.79337117]
 [  0.3         91.0452741 ]
 [  0.32341667 -31.40181873]]","[[0.         0.76512863]
 [0.1        1.75958979]
 [0.2        0.91412587]
 [0.3        1.02089091]
 [0.32341667 1.37846458]]",0,0.392
8729829169,f,18,french,3,5,french,2024-02-01 10:28:31.264933,False,2,303,sounds\english\audio/english_688.wav,"[[  0.         -45.64286614]
 [  0.1         39.73956276]
 [  0.2         40.53719602]
 [  0.3        -71.29470492]
 [  0.32341667  73.7490074 ]]","[[0.         1.06356906]
 [0.1        0.85197809]
 [0.2        0.68718846]
 [0.3        1.67995478]
 [0.32341667 1.45979079]]",0,0.81
8729829169,f,18,french,3,5,french,2024-02-01 10:28:31.264933,False,2,304,sounds\english\audio/english_820.wav,"[[  0.         -46.83321603]
 [  0.1         41.6487922 ]
 [  0.2          8.4156442 ]
 [  0.3        -54.82963666]
 [  0.32341667  30.43602938]]","[[0.         0.84618107]
 [0.1        0.98544532]
 [0.2        0.7701051 ]
 [0.3        1.20043732]
 [0.32341667 1.85489027]]",0,0.618
8729829169,f,18,french,3,5,french,2024-02-01 10:28:31.264933,False,2,305,sounds\english\audio/english_388.wav,"[[  0.          17.9760939 ]
 [  0.1        -43.00340989]
 [  0.2        -30.55059063]
 [  0.3        -92.55876504]
 [  0.32341667 -64.21175873]]","[[0.         0.95494184]
 [0.1        0.10281418]
 [0.2        1.52164503]
 [0.3        1.24827519]
 [0.32341667 0.08180338]]",0,0.526
8729829169,f,18,french,3,5,french,2024-02-01 10:28:31.264933,False,2,306,sounds\english\audio/english_918.wav,"[[  0.         -64.11083249]
 [  0.1         75.84330997]
 [  0.2        -30.10314186]
 [  0.3         91.40385877]
 [  0.32341667 -14.12068895]]","[[0.         1.38668504]
 [0.1        1.4522357 ]
 [0.2        1.37046734]
 [0.3        0.70209545]
 [0.32341667 0.09881605]]",0,0.5
8729829169,f,18,french,3,5,french,2024-02-01 10:28:31.264933,False,2,307,sounds\english\audio/english_22.wav,"[[  0.          78.11206964]
 [  0.1         30.08823316]
 [  0.2         62.70691674]
 [  0.3        -69.9857022 ]
 [  0.32341667  -1.96178027]]","[[0.         1.48448967]
 [0.1        0.28770474]
 [0.2        1.03274311]
 [0.3        0.45071415]
 [0.32341667 0.30900593]]",0,5.916
8729829169,f,18,french,3,5,french,2024-02-01 10:28:31.264933,False,2,308,sounds\english\audio/english_651.wav,"[[  0.          94.66063372]
 [  0.1         53.93234837]
 [  0.2        -71.35755131]
 [  0.3         50.84025958]
 [  0.32341667 -24.67252949]]","[[0.         0.16277223]
 [0.1        1.71236475]
 [0.2        0.37376336]
 [0.3        0.80998932]
 [0.32341667 0.23835763]]",1,0.384
8729829169,f,18,french,3,5,french,2024-02-01 10:28:31.264933,False,2,309,sounds\english\audio/english_283.wav,"[[  0.         -27.01977409]
 [  0.1        -58.6063919 ]
 [  0.2         36.15867228]
 [  0.3        -77.91689069]
 [  0.32341667 -77.99680679]]","[[0.         1.23470843]
 [0.1        0.41737987]
 [0.2        0.64455365]
 [0.3        1.80541824]
 [0.32341667 1.86024907]]",1,0.375
8729829169,f,18,french,3,5,french,2024-02-01 10:28:31.264933,False,2,310,sounds\english\audio/english_304.wav,"[[  0.         -80.7192326 ]
 [  0.1         34.14230443]
 [  0.2        -43.78548789]
 [  0.3         85.79520644]
 [  0.32341667 -29.32737886]]","[[0.         0.54130022]
 [0.1        0.20766845]
 [0.2        1.25157904]
 [0.3        0.76195837]
 [0.32341667 0.20991234]]",0,1.113
8729829169,f,18,french,3,5,french,2024-02-01 10:28:31.264933,False,2,311,sounds\english\audio/english_379.wav,"[[  0.          30.14616912]
 [  0.1        -79.51193423]
 [  0.2          7.34860539]
 [  0.3        -43.99342265]
 [  0.32341667  37.72881761]]","[[0.         1.43961489]
 [0.1        1.4219763 ]
 [0.2        0.62633101]
 [0.3        1.13621958]
 [0.32341667 1.35387794]]",0,0.667
8729829169,f,18,french,3,5,french,2024-02-01 10:28:31.264933,False,2,312,sounds\english\audio/english_186.wav,"[[  0.         -54.7664391 ]
 [  0.1         -8.4263529 ]
 [  0.2          6.22451559]
 [  0.3        -12.35671223]
 [  0.32341667  86.21839615]]","[[0.         1.87021502]
 [0.1        1.36390049]
 [0.2        1.69942617]
 [0.3        1.8066537 ]
 [0.32341667 1.2511354 ]]",0,1.225
8729829169,f,18,french,3,5,french,2024-02-01 10:28:31.264933,False,2,313,sounds\english\audio/english_620.wav,"[[ 0.00000000e+00 -9.29203055e+01]
 [ 1.00000000e-01  2.67086056e+01]
 [ 2.00000000e-01  8.91883135e+01]
 [ 3.00000000e-01 -5.57738795e-02]
 [ 3.23416667e-01  2.97872430e+00]]","[[0.         0.43561856]
 [0.1        0.24535421]
 [0.2        1.34102831]
 [0.3        1.80103954]
 [0.32341667 0.21248525]]",0,1.251
8729829169,f,18,french,3,5,french,2024-02-01 10:28:31.264933,False,2,314,sounds\english\audio/english_295.wav,"[[  0.         -76.51454746]
 [  0.1        -96.9380047 ]
 [  0.2        -72.79782389]
 [  0.3        -31.86888898]
 [  0.32341667 -51.47839766]]","[[0.         1.12273409]
 [0.1        0.2018376 ]
 [0.2        1.81703153]
 [0.3        0.31799467]
 [0.32341667 0.71777059]]",0,0.658
8729829169,f,18,french,3,5,french,2024-02-01 10:28:31.264933,False,2,315,sounds\english\audio/english_937.wav,"[[  0.          76.77394395]
 [  0.1         49.33576264]
 [  0.2        -87.39935237]
 [  0.3         11.02170053]
 [  0.32341667  91.99381322]]","[[0.         1.55370699]
 [0.1        1.82028848]
 [0.2        1.42487505]
 [0.3        0.87896062]
 [0.32341667 0.96516852]]",0,0.436
8729829169,f,18,french,3,5,french,2024-02-01 10:28:31.264933,False,2,316,sounds\english\audio/english_323.wav,"[[  0.          92.33188111]
 [  0.1          4.22577609]
 [  0.2        -35.48560344]
 [  0.3          7.73763769]
 [  0.32341667  55.62458321]]","[[0.         1.59668922]
 [0.1        1.75306106]
 [0.2        1.06071567]
 [0.3        1.9328625 ]
 [0.32341667 1.27347405]]",0,0.436
8729829169,f,18,french,3,5,french,2024-02-01 10:28:31.264933,False,2,317,sounds\english\audio/english_334.wav,"[[  0.         -67.45724149]
 [  0.1         -9.29085452]
 [  0.2        -52.27794836]
 [  0.3         97.74689659]
 [  0.32341667  69.13668576]]","[[0.         1.41500124]
 [0.1        1.93519658]
 [0.2        1.67457228]
 [0.3        1.80763723]
 [0.32341667 0.68141016]]",0,0.286
8729829169,f,18,french,3,5,french,2024-02-01 10:28:31.264933,False,2,318,sounds\english\audio/english_552.wav,"[[  0.         -54.22317773]
 [  0.1         23.75537749]
 [  0.2        -67.43154965]
 [  0.3        -83.62242399]
 [  0.32341667  64.2322812 ]]","[[0.         0.14479657]
 [0.1        1.96762023]
 [0.2        0.75812729]
 [0.3        0.84420129]
 [0.32341667 0.73382384]]",0,0.733
8729829169,f,18,french,3,5,french,2024-02-01 10:28:31.264933,False,2,319,sounds\english\audio/english_101.wav,"[[  0.          60.77829508]
 [  0.1         43.41373716]
 [  0.2         56.16195873]
 [  0.3        -99.94719329]
 [  0.32341667  -1.35074094]]","[[0.         0.77962125]
 [0.1        0.02040908]
 [0.2        0.79248433]
 [0.3        1.74003505]
 [0.32341667 1.66206156]]",1,0.396
8729829169,f,18,french,3,5,french,2024-02-01 10:28:31.264933,False,2,320,sounds\english\audio/english_102.wav,"[[  0.          32.71328306]
 [  0.1         59.73255369]
 [  0.2         -0.64397298]
 [  0.3        -37.18099902]
 [  0.32341667  41.63197766]]","[[0.         1.2311829 ]
 [0.1        0.25599615]
 [0.2        1.7526023 ]
 [0.3        1.98319627]
 [0.32341667 1.38410598]]",0,0.317
8729829169,f,18,french,3,5,french,2024-02-01 10:28:31.264933,False,2,321,sounds\english\audio/english_744.wav,"[[  0.          43.39686976]
 [  0.1        -61.67573043]
 [  0.2          0.51873183]
 [  0.3         12.88130512]
 [  0.32341667  57.31714449]]","[[0.         0.75505854]
 [0.1        1.01311725]
 [0.2        0.73457108]
 [0.3        0.90154102]
 [0.32341667 1.01338509]]",1,0.333
8729829169,f,18,french,3,5,french,2024-02-01 10:28:31.264933,False,2,322,sounds\english\audio/english_792.wav,"[[  0.         -56.39949456]
 [  0.1        -76.36067248]
 [  0.2        -58.44160547]
 [  0.3         25.29086486]
 [  0.32341667  -6.58788169]]","[[0.         1.32676777]
 [0.1        1.08004851]
 [0.2        1.5809308 ]
 [0.3        0.16508433]
 [0.32341667 1.18870574]]",0,0.599
8729829169,f,18,french,3,5,french,2024-02-01 10:28:31.264933,False,2,323,sounds\english\audio/english_818.wav,"[[  0.          88.49542613]
 [  0.1         -7.37005163]
 [  0.2         -1.58613611]
 [  0.3        -69.41222379]
 [  0.32341667  14.01707612]]","[[0.         1.4873036 ]
 [0.1        1.25102077]
 [0.2        0.80764036]
 [0.3        0.80656775]
 [0.32341667 1.41859799]]",0,0.385
8729829169,f,18,french,3,5,french,2024-02-01 10:28:31.264933,False,2,324,sounds\english\audio/english_641.wav,"[[  0.         -90.88934322]
 [  0.1         13.36673253]
 [  0.2        -36.70414591]
 [  0.3         -4.62417375]
 [  0.32341667  15.34366305]]","[[0.         1.28926835]
 [0.1        0.02464493]
 [0.2        0.5505433 ]
 [0.3        0.52188675]
 [0.32341667 0.01360039]]",1,0.904
8729829169,f,18,french,3,5,french,2024-02-01 10:28:31.264933,False,2,325,sounds\english\audio/english_603.wav,"[[  0.         -14.17444723]
 [  0.1         -4.64921339]
 [  0.2        -23.32469505]
 [  0.3        -59.01260874]
 [  0.32341667  88.53711532]]","[[0.         1.28295305]
 [0.1        0.35920956]
 [0.2        0.60281559]
 [0.3        0.58107079]
 [0.32341667 1.19087365]]",0,0.686
8729829169,f,18,french,3,5,french,2024-02-01 10:28:31.264933,False,2,326,sounds\english\audio/english_924.wav,"[[  0.          63.64154058]
 [  0.1        -60.55254199]
 [  0.2        -47.94670646]
 [  0.3        -76.50696127]
 [  0.32341667  44.23103111]]","[[0.         1.83477076]
 [0.1        0.21366754]
 [0.2        1.07859551]
 [0.3        1.9507375 ]
 [0.32341667 1.33476666]]",0,0.264
8729829169,f,18,french,3,5,french,2024-02-01 10:28:31.264933,False,2,327,sounds\english\audio/english_256.wav,"[[  0.          22.60769813]
 [  0.1        -95.01444593]
 [  0.2        -19.91310746]
 [  0.3         -6.39209363]
 [  0.32341667  24.02209282]]","[[0.         1.84037168]
 [0.1        0.47687766]
 [0.2        0.85339151]
 [0.3        0.75097161]
 [0.32341667 1.98695073]]",0,0.341
8729829169,f,18,french,3,5,french,2024-02-01 10:28:31.264933,False,2,328,sounds\english\audio/english_745.wav,"[[  0.         -57.64472866]
 [  0.1        -14.80975681]
 [  0.2         44.46939178]
 [  0.3         56.80280999]
 [  0.32341667 -16.53068296]]","[[0.         1.88925258]
 [0.1        0.26333653]
 [0.2        1.01945351]
 [0.3        0.00901457]
 [0.32341667 0.38778228]]",0,0.453
8729829169,f,18,french,3,5,french,2024-02-01 10:28:31.264933,False,2,329,sounds\english\audio/english_393.wav,"[[  0.           3.63201436]
 [  0.1         64.52667935]
 [  0.2        -51.23523019]
 [  0.3        -89.75219839]
 [  0.32341667 -66.06218428]]","[[0.         1.68653621]
 [0.1        0.22518435]
 [0.2        0.07728703]
 [0.3        0.70962284]
 [0.32341667 0.7432397 ]]",0,0.909
8729829169,f,18,french,3,5,french,2024-02-01 10:28:31.264933,False,2,330,sounds\english\audio/english_660.wav,"[[  0.         -18.17224728]
 [  0.1        -51.94390165]
 [  0.2        -79.57293034]
 [  0.3         67.99606973]
 [  0.32341667  -2.00416122]]","[[0.         0.25133372]
 [0.1        0.1756709 ]
 [0.2        0.660284  ]
 [0.3        1.08301436]
 [0.32341667 0.81155284]]",0,0.615
8729829169,f,18,french,3,5,french,2024-02-01 10:28:31.264933,False,2,331,sounds\english\audio/english_345.wav,"[[  0.         -46.00579497]
 [  0.1        -45.5805492 ]
 [  0.2        -14.04378539]
 [  0.3         63.72413351]
 [  0.32341667  18.03717792]]","[[0.         1.58751342]
 [0.1        1.0202646 ]
 [0.2        0.61561299]
 [0.3        1.21547564]
 [0.32341667 1.47127253]]",0,0.308
8729829169,f,18,french,3,5,french,2024-02-01 10:28:31.264933,False,2,332,sounds\english\audio/english_203.wav,"[[  0.         -22.28277813]
 [  0.1         13.21695477]
 [  0.2         63.23651974]
 [  0.3        -20.14830746]
 [  0.32341667 -78.55276631]]","[[0.         1.31475846]
 [0.1        1.08922412]
 [0.2        0.55450355]
 [0.3        1.72034007]
 [0.32341667 0.92481053]]",0,0.319
8729829169,f,18,french,3,5,french,2024-02-01 10:28:31.264933,False,2,333,sounds\english\audio/english_411.wav,"[[  0.          75.357241  ]
 [  0.1        -55.75688593]
 [  0.2         61.10111178]
 [  0.3         90.25367142]
 [  0.32341667  26.85831553]]","[[0.         0.83773649]
 [0.1        0.80885485]
 [0.2        0.61144368]
 [0.3        0.73863407]
 [0.32341667 0.4624235 ]]",0,1.169
8729829169,f,18,french,3,5,french,2024-02-01 10:28:31.264933,False,2,334,sounds\english\audio/english_826.wav,"[[  0.          24.96468068]
 [  0.1          1.37616969]
 [  0.2        -71.19975556]
 [  0.3        -48.49913399]
 [  0.32341667  40.69153462]]","[[0.         1.6444456 ]
 [0.1        0.97947611]
 [0.2        0.49097947]
 [0.3        0.98819908]
 [0.32341667 1.05842158]]",0,0.418
8729829169,f,18,french,3,5,french,2024-02-01 10:28:31.264933,False,2,335,sounds\english\audio/english_164.wav,"[[  0.         -18.99376005]
 [  0.1        -38.65269109]
 [  0.2         64.75288033]
 [  0.3        -33.8407164 ]
 [  0.32341667  27.96502681]]","[[0.         1.91320144]
 [0.1        0.23857652]
 [0.2        1.41883879]
 [0.3        1.34667564]
 [0.32341667 0.04602263]]",0,0.385
8729829169,f,18,french,3,5,french,2024-02-01 10:28:31.264933,False,2,336,sounds\english\audio/english_964.wav,"[[  0.          11.04708611]
 [  0.1        -10.67848967]
 [  0.2         64.95328634]
 [  0.3        -78.10341524]
 [  0.32341667 -48.61651995]]","[[0.         0.74384055]
 [0.1        0.46038505]
 [0.2        0.80934661]
 [0.3        1.94282647]
 [0.32341667 1.99482071]]",0,1.935
8729829169,f,18,french,3,5,french,2024-02-01 10:28:31.264933,False,2,337,sounds\english\audio/english_690.wav,"[[0.00000000e+00 3.30476540e+01]
 [1.00000000e-01 2.12167444e-02]
 [2.00000000e-01 2.13432370e+01]
 [3.00000000e-01 3.54710796e+01]
 [3.23416667e-01 7.94400816e+01]]","[[0.         1.58265684]
 [0.1        0.6931717 ]
 [0.2        1.47002515]
 [0.3        1.9856235 ]
 [0.32341667 1.00479917]]",0,0.441
8729829169,f,18,french,3,5,french,2024-02-01 10:28:31.264933,False,2,338,sounds\english\audio/english_846.wav,"[[  0.          61.87306923]
 [  0.1         -5.64177324]
 [  0.2         86.75305487]
 [  0.3        -27.71752308]
 [  0.32341667 -26.78048177]]","[[0.         1.6800264 ]
 [0.1        0.32387551]
 [0.2        0.09122421]
 [0.3        0.55014386]
 [0.32341667 0.82256102]]",1,0.519
8729829169,f,18,french,3,5,french,2024-02-01 10:28:31.264933,False,2,339,sounds\english\audio/english_685.wav,"[[  0.          91.61032892]
 [  0.1         39.6206555 ]
 [  0.2         -3.19880539]
 [  0.3        -72.84721689]
 [  0.32341667  98.11411302]]","[[0.         0.4504418 ]
 [0.1        1.04279806]
 [0.2        1.33634651]
 [0.3        1.25094987]
 [0.32341667 0.37726169]]",0,0.299
8729829169,f,18,french,3,5,french,2024-02-01 10:28:31.264933,False,2,340,sounds\english\audio/english_615.wav,"[[  0.          76.05955912]
 [  0.1         54.62950786]
 [  0.2        -31.02204933]
 [  0.3         -3.27946314]
 [  0.32341667  51.350795  ]]","[[0.         1.68553334]
 [0.1        1.5058876 ]
 [0.2        1.66676809]
 [0.3        1.09840801]
 [0.32341667 0.25314986]]",0,0.296
8729829169,f,18,french,3,5,french,2024-02-01 10:28:31.264933,False,2,341,sounds\english\audio/english_706.wav,"[[  0.         -14.02426606]
 [  0.1         23.81630209]
 [  0.2         94.24266466]
 [  0.3         20.03642156]
 [  0.32341667  57.92570785]]","[[0.         0.18721001]
 [0.1        0.48464851]
 [0.2        1.46456973]
 [0.3        0.11403632]
 [0.32341667 0.61389372]]",1,0.299
8729829169,f,18,french,3,5,french,2024-02-01 10:28:31.264933,False,2,342,sounds\english\audio/english_115.wav,"[[  0.          -6.4126324 ]
 [  0.1        -78.70213007]
 [  0.2         -0.36204046]
 [  0.3        -47.97210547]
 [  0.32341667   3.06964689]]","[[0.         0.37361158]
 [0.1        1.5865766 ]
 [0.2        1.00360432]
 [0.3        1.3933449 ]
 [0.32341667 1.1205092 ]]",0,0.169
8729829169,f,18,french,3,5,french,2024-02-01 10:28:31.264933,False,2,343,sounds\english\audio/english_527.wav,"[[  0.         -32.70996179]
 [  0.1        -61.96334317]
 [  0.2         86.46317242]
 [  0.3        -18.9429262 ]
 [  0.32341667 -59.75355058]]","[[0.         0.06646481]
 [0.1        1.75268105]
 [0.2        0.41061726]
 [0.3        1.43024268]
 [0.32341667 0.73468543]]",1,0.339
8729829169,f,18,french,3,5,french,2024-02-01 10:28:31.264933,False,2,344,sounds\english\audio/english_279.wav,"[[  0.         -20.90398108]
 [  0.1         98.83098338]
 [  0.2        -95.37608427]
 [  0.3        -52.65380993]
 [  0.32341667  47.72500112]]","[[0.         0.60114424]
 [0.1        0.92336304]
 [0.2        1.39045705]
 [0.3        0.64938935]
 [0.32341667 1.57478054]]",1,0.126
8729829169,f,18,french,3,5,french,2024-02-01 10:28:31.264933,False,2,345,sounds\english\audio/english_863.wav,"[[  0.          52.03013683]
 [  0.1         21.53783975]
 [  0.2        -42.8061331 ]
 [  0.3         -9.69253087]
 [  0.32341667  56.44290307]]","[[0.         1.83111202]
 [0.1        0.9779226 ]
 [0.2        1.19089157]
 [0.3        0.269847  ]
 [0.32341667 0.87913369]]",1,0.527
8729829169,f,18,french,3,5,french,2024-02-01 10:28:31.264933,False,2,346,sounds\english\audio/english_729.wav,"[[  0.          31.16849918]
 [  0.1        -74.04657477]
 [  0.2         98.28479208]
 [  0.3         45.68234461]
 [  0.32341667 -23.12232547]]","[[0.         1.30127688]
 [0.1        1.28998605]
 [0.2        0.71365363]
 [0.3        0.61436371]
 [0.32341667 0.96520681]]",0,0.352
8729829169,f,18,french,3,5,french,2024-02-01 10:28:31.264933,False,2,347,sounds\english\audio/english_128.wav,"[[  0.         -84.07301703]
 [  0.1          0.2051398 ]
 [  0.2         50.77588291]
 [  0.3          3.27834455]
 [  0.32341667  59.5943459 ]]","[[0.         0.96445051]
 [0.1        0.77165422]
 [0.2        0.60279997]
 [0.3        0.59915485]
 [0.32341667 0.43521132]]",1,0.957
8729829169,f,18,french,3,5,french,2024-02-01 10:28:31.264933,False,2,348,sounds\english\audio/english_336.wav,"[[  0.          29.43389708]
 [  0.1        -98.82505887]
 [  0.2         33.95949266]
 [  0.3        -57.79711044]
 [  0.32341667  81.65015026]]","[[0.         1.05594545]
 [0.1        1.57774783]
 [0.2        1.35373128]
 [0.3        1.04960404]
 [0.32341667 0.39151968]]",0,0.306
8729829169,f,18,french,3,5,french,2024-02-01 10:28:31.264933,False,2,349,sounds\english\audio/english_483.wav,"[[  0.          -5.76716701]
 [  0.1         70.49761143]
 [  0.2        -45.60331281]
 [  0.3         83.6717315 ]
 [  0.32341667 -49.24362833]]","[[0.         0.46419013]
 [0.1        1.51640771]
 [0.2        0.16811565]
 [0.3        0.53401791]
 [0.32341667 1.0404632 ]]",1,0.658
8729829169,f,18,french,3,5,french,2024-02-01 10:28:31.264933,False,2,350,sounds\english\audio/english_682.wav,"[[  0.         -19.80167737]
 [  0.1        -30.98220326]
 [  0.2         26.07010201]
 [  0.3         -7.79776739]
 [  0.32341667 -10.9148898 ]]","[[0.         1.6131825 ]
 [0.1        1.03205672]
 [0.2        1.08357256]
 [0.3        1.70642947]
 [0.32341667 0.86858281]]",0,0.367
8729829169,f,18,french,3,5,french,2024-02-01 10:28:31.264933,False,2,351,sounds\english\audio/english_616.wav,"[[  0.         -71.12360497]
 [  0.1         55.35355355]
 [  0.2        -15.85026512]
 [  0.3        -22.60587367]
 [  0.32341667 -45.64131884]]","[[0.         0.83412473]
 [0.1        1.49185731]
 [0.2        1.32170209]
 [0.3        0.90458331]
 [0.32341667 1.17134835]]",0,0.443
8729829169,f,18,french,3,5,french,2024-02-01 10:28:31.264933,False,2,352,sounds\english\audio/english_744.wav,"[[  0.          43.39686976]
 [  0.1        -61.67573043]
 [  0.2          0.51873183]
 [  0.3         12.88130512]
 [  0.32341667  57.31714449]]","[[0.         0.75505854]
 [0.1        1.01311725]
 [0.2        0.73457108]
 [0.3        0.90154102]
 [0.32341667 1.01338509]]",0,0.465
8729829169,f,18,french,3,5,french,2024-02-01 10:28:31.264933,False,2,353,sounds\english\audio/english_73.wav,"[[  0.         -73.49165063]
 [  0.1         65.54847429]
 [  0.2        -55.11967081]
 [  0.3         68.77466141]
 [  0.32341667 -37.79888894]]","[[0.         1.41947215]
 [0.1        1.68852165]
 [0.2        0.59259525]
 [0.3        0.85140805]
 [0.32341667 1.17745107]]",0,0.339
8729829169,f,18,french,3,5,french,2024-02-01 10:28:31.264933,False,2,354,sounds\english\audio/english_901.wav,"[[  0.         -14.81770559]
 [  0.1        -27.73561163]
 [  0.2        -22.44015454]
 [  0.3        -41.34815185]
 [  0.32341667  10.13492358]]","[[0.         1.5194741 ]
 [0.1        1.98674938]
 [0.2        0.54356598]
 [0.3        1.30497628]
 [0.32341667 0.61526789]]",0,0.413
8729829169,f,18,french,3,5,french,2024-02-01 10:28:31.264933,False,2,355,sounds\english\audio/english_461.wav,"[[  0.         -99.86661298]
 [  0.1         65.11959058]
 [  0.2        -96.19635976]
 [  0.3         56.69155656]
 [  0.32341667 -82.13106063]]","[[0.         0.04975834]
 [0.1        1.27856071]
 [0.2        1.53618081]
 [0.3        1.97602464]
 [0.32341667 1.41647384]]",1,0.625
8729829169,f,18,french,3,5,french,2024-02-01 10:28:31.264933,False,2,356,sounds\english\audio/english_138.wav,"[[  0.         -79.80620147]
 [  0.1        -15.42889109]
 [  0.2        -88.31677226]
 [  0.3         26.6486106 ]
 [  0.32341667 -42.18894711]]","[[0.         0.37063564]
 [0.1        0.81801141]
 [0.2        0.0634538 ]
 [0.3        1.85131452]
 [0.32341667 1.66059024]]",0,0.481
8729829169,f,18,french,3,5,french,2024-02-01 10:28:31.264933,False,2,357,sounds\english\audio/english_41.wav,"[[  0.          42.21237724]
 [  0.1         33.8271633 ]
 [  0.2         20.96644351]
 [  0.3        -53.61985723]
 [  0.32341667 -55.68725705]]","[[0.         0.98996482]
 [0.1        0.77076848]
 [0.2        0.37402384]
 [0.3        1.98545705]
 [0.32341667 1.53352273]]",0,0.471
8729829169,f,18,french,3,5,french,2024-02-01 10:28:31.264933,False,2,358,sounds\english\audio/english_596.wav,"[[  0.          90.29147433]
 [  0.1         12.52853873]
 [  0.2         50.53853174]
 [  0.3        -77.3590695 ]
 [  0.32341667  -1.65440801]]","[[0.         0.88361056]
 [0.1        0.63799557]
 [0.2        0.09787331]
 [0.3        1.15168959]
 [0.32341667 0.06773829]]",0,0.581
8729829169,f,18,french,3,5,french,2024-02-01 10:28:31.264933,False,2,359,sounds\english\audio/english_374.wav,"[[  0.         -43.98521466]
 [  0.1        -24.87181663]
 [  0.2        -29.31566683]
 [  0.3        -43.36019392]
 [  0.32341667 -35.5175379 ]]","[[0.         1.11607514]
 [0.1        0.38249505]
 [0.2        1.56774755]
 [0.3        1.33837662]
 [0.32341667 0.68793086]]",0,0.649
8729829169,f,18,french,3,5,french,2024-02-01 10:28:31.264933,False,2,360,sounds\english\audio/english_870.wav,"[[  0.         -85.66751388]
 [  0.1         30.55194498]
 [  0.2        -98.28008273]
 [  0.3        -58.1418371 ]
 [  0.32341667  81.20200135]]","[[0.         1.70746054]
 [0.1        0.68953906]
 [0.2        1.62274852]
 [0.3        0.74531017]
 [0.32341667 1.06596266]]",0,0.306
8729829169,f,18,french,3,5,french,2024-02-01 10:28:31.264933,False,2,361,sounds\english\audio/english_535.wav,"[[  0.          -5.32882057]
 [  0.1        -34.98045039]
 [  0.2         30.10834221]
 [  0.3        -70.22542568]
 [  0.32341667 -73.0016054 ]]","[[0.         0.21055966]
 [0.1        0.89683134]
 [0.2        1.11178172]
 [0.3        0.20123235]
 [0.32341667 0.99564794]]",1,1.307
8729829169,f,18,french,3,5,french,2024-02-01 10:28:31.264933,False,2,362,sounds\english\audio/english_786.wav,"[[  0.          50.77560123]
 [  0.1        -87.08435808]
 [  0.2        -36.07136163]
 [  0.3         98.77618087]
 [  0.32341667  86.70070823]]","[[0.         0.9907589 ]
 [0.1        0.48193409]
 [0.2        1.01949061]
 [0.3        1.06334926]
 [0.32341667 0.94164836]]",0,0.99
8729829169,f,18,french,3,5,french,2024-02-01 10:28:31.264933,False,2,363,sounds\english\audio/english_751.wav,"[[  0.          45.03630887]
 [  0.1         46.59103402]
 [  0.2        -30.90440374]
 [  0.3        -61.26470289]
 [  0.32341667  34.91384756]]","[[0.         0.43450625]
 [0.1        1.30072592]
 [0.2        1.20093797]
 [0.3        0.81911259]
 [0.32341667 0.19140491]]",0,0.253
8729829169,f,18,french,3,5,french,2024-02-01 10:28:31.264933,False,2,364,sounds\english\audio/english_312.wav,"[[  0.          44.01610098]
 [  0.1        -34.76139374]
 [  0.2        -43.47986862]
 [  0.3         -9.79517271]
 [  0.32341667  85.48914895]]","[[0.         1.36033213]
 [0.1        0.08557756]
 [0.2        1.06509633]
 [0.3        0.67257935]
 [0.32341667 0.12614926]]",1,0.488
8729829169,f,18,french,3,5,french,2024-02-01 10:28:31.264933,False,2,365,sounds\english\audio/english_35.wav,"[[  0.         -35.14158545]
 [  0.1        -54.49669119]
 [  0.2         37.91149238]
 [  0.3        -55.38086503]
 [  0.32341667  54.77667999]]","[[0.         0.855771  ]
 [0.1        0.5452371 ]
 [0.2        1.65995376]
 [0.3        0.74505496]
 [0.32341667 0.83530932]]",0,0.432
8729829169,f,18,french,3,5,french,2024-02-01 10:28:31.264933,False,2,366,sounds\english\audio/english_755.wav,"[[  0.         -15.85533995]
 [  0.1        -97.95934782]
 [  0.2         -5.14559719]
 [  0.3         32.74087849]
 [  0.32341667 -56.93437429]]","[[0.         0.06987403]
 [0.1        0.83204773]
 [0.2        1.06816443]
 [0.3        1.42856986]
 [0.32341667 0.58130438]]",1,0.562
8729829169,f,18,french,3,5,french,2024-02-01 10:28:31.264933,False,2,367,sounds\english\audio/english_464.wav,"[[  0.          53.08614354]
 [  0.1         30.21863436]
 [  0.2        -72.79337117]
 [  0.3         91.0452741 ]
 [  0.32341667 -31.40181873]]","[[0.         0.76512863]
 [0.1        1.75958979]
 [0.2        0.91412587]
 [0.3        1.02089091]
 [0.32341667 1.37846458]]",0,0.253
8729829169,f,18,french,3,5,french,2024-02-01 10:28:31.264933,False,2,368,sounds\english\audio/english_281.wav,"[[  0.         -55.42099824]
 [  0.1         30.44020676]
 [  0.2         53.34739709]
 [  0.3        -32.26512488]
 [  0.32341667 -59.86883114]]","[[0.         1.64310908]
 [0.1        0.76997124]
 [0.2        0.1940809 ]
 [0.3        0.25794937]
 [0.32341667 1.27043487]]",0,0.742
8729829169,f,18,french,3,5,french,2024-02-01 10:28:31.264933,False,2,369,sounds\english\audio/english_351.wav,"[[  0.         -56.55455818]
 [  0.1        -81.1333892 ]
 [  0.2         70.95296343]
 [  0.3        -82.79021433]
 [  0.32341667 -21.34496407]]","[[0.         0.98366365]
 [0.1        1.13800808]
 [0.2        1.04915948]
 [0.3        1.70890302]
 [0.32341667 1.83807055]]",0,0.299
8729829169,f,18,french,3,5,french,2024-02-01 10:28:31.264933,False,2,370,sounds\english\audio/english_311.wav,"[[  0.         -35.59355899]
 [  0.1        -50.39310557]
 [  0.2        -53.37222601]
 [  0.3         72.25802658]
 [  0.32341667  48.72421008]]","[[0.         0.16094856]
 [0.1        1.33895436]
 [0.2        0.01028283]
 [0.3        0.48497386]
 [0.32341667 0.48591183]]",1,0.457
8729829169,f,18,french,3,5,french,2024-02-01 10:28:31.264933,False,2,371,sounds\english\audio/english_927.wav,"[[  0.          81.66311017]
 [  0.1          0.87570902]
 [  0.2        -59.21619647]
 [  0.3        -57.6787773 ]
 [  0.32341667 -30.87043146]]","[[0.         1.3783001 ]
 [0.1        0.51323502]
 [0.2        0.98265958]
 [0.3        0.30790993]
 [0.32341667 1.17222751]]",0,2.003
8729829169,f,18,french,3,5,french,2024-02-01 10:28:31.264933,False,2,372,sounds\english\audio/english_678.wav,"[[  0.          87.86222938]
 [  0.1        -47.14792626]
 [  0.2         -6.84659798]
 [  0.3         87.67045201]
 [  0.32341667 -51.71213936]]","[[0.         1.6760541 ]
 [0.1        0.22369522]
 [0.2        1.1260271 ]
 [0.3        1.53941447]
 [0.32341667 1.37136581]]",0,0.31
8729829169,f,18,french,3,5,french,2024-02-01 10:28:31.264933,False,2,373,sounds\english\audio/english_586.wav,"[[  0.         -62.23642036]
 [  0.1         79.13201234]
 [  0.2        -89.54923437]
 [  0.3        -19.27573078]
 [  0.32341667 -62.71214645]]","[[0.         1.06144709]
 [0.1        0.54207142]
 [0.2        0.72134233]
 [0.3        0.33417878]
 [0.32341667 1.54129631]]",1,0.397
8729829169,f,18,french,3,5,french,2024-02-01 10:28:31.264933,False,2,374,sounds\english\audio/english_383.wav,"[[  0.          -1.49759031]
 [  0.1         48.0809444 ]
 [  0.2        -84.09524499]
 [  0.3         95.23220486]
 [  0.32341667  64.91086902]]","[[0.         0.61403304]
 [0.1        0.69225556]
 [0.2        0.33452268]
 [0.3        1.06792504]
 [0.32341667 0.58483827]]",1,0.739
8729829169,f,18,french,3,5,french,2024-02-01 10:28:31.264933,False,2,375,sounds\english\audio/english_430.wav,"[[  0.          72.23510535]
 [  0.1         -9.56156918]
 [  0.2         36.71559936]
 [  0.3        -33.55254317]
 [  0.32341667 -25.71861109]]","[[0.         0.8682214 ]
 [0.1        0.26781202]
 [0.2        1.38873793]
 [0.3        0.29076709]
 [0.32341667 0.30869259]]",0,0.467
8729829169,f,18,french,3,5,french,2024-02-01 10:28:31.264933,False,2,376,sounds\english\audio/english_85.wav,"[[  0.          69.91092253]
 [  0.1         90.04885235]
 [  0.2        -54.471964  ]
 [  0.3        -32.42862041]
 [  0.32341667 -26.25094384]]","[[0.         1.07696769]
 [0.1        1.65675227]
 [0.2        1.18566865]
 [0.3        0.43131811]
 [0.32341667 1.88641509]]",0,0.345
8729829169,f,18,french,3,5,french,2024-02-01 10:28:31.264933,False,2,377,sounds\english\audio/english_966.wav,"[[  0.          23.00954068]
 [  0.1         -2.7733657 ]
 [  0.2         -6.00176123]
 [  0.3        -64.80320904]
 [  0.32341667  94.15296916]]","[[0.         1.02848684]
 [0.1        1.22612364]
 [0.2        0.03461529]
 [0.3        0.22357585]
 [0.32341667 0.55383001]]",0,0.704
8729829169,f,18,french,3,5,french,2024-02-01 10:28:31.264933,False,2,378,sounds\english\audio/english_343.wav,"[[  0.         -26.15456552]
 [  0.1         -4.26522308]
 [  0.2         55.3227334 ]
 [  0.3        -26.26518208]
 [  0.32341667 -18.3065251 ]]","[[0.         0.99905336]
 [0.1        0.59066439]
 [0.2        1.69088488]
 [0.3        1.70645599]
 [0.32341667 0.13143106]]",0,0.265
8729829169,f,18,french,3,5,french,2024-02-01 10:28:31.264933,False,2,379,sounds\english\audio/english_620.wav,"[[ 0.00000000e+00 -9.29203055e+01]
 [ 1.00000000e-01  2.67086056e+01]
 [ 2.00000000e-01  8.91883135e+01]
 [ 3.00000000e-01 -5.57738795e-02]
 [ 3.23416667e-01  2.97872430e+00]]","[[0.         0.43561856]
 [0.1        0.24535421]
 [0.2        1.34102831]
 [0.3        1.80103954]
 [0.32341667 0.21248525]]",0,0.483
8729829169,f,18,french,3,5,french,2024-02-01 10:28:31.264933,False,2,380,sounds\english\audio/english_147.wav,"[[  0.         -14.37625717]
 [  0.1        -48.99147792]
 [  0.2        -76.025031  ]
 [  0.3         -4.271985  ]
 [  0.32341667  90.36670579]]","[[0.         1.08714974]
 [0.1        1.05600262]
 [0.2        0.62193731]
 [0.3        1.23272935]
 [0.32341667 0.90867663]]",0,0.494
8729829169,f,18,french,3,5,french,2024-02-01 10:28:31.264933,False,2,381,sounds\english\audio/english_437.wav,"[[  0.          61.91803223]
 [  0.1          0.99543568]
 [  0.2        -50.96874522]
 [  0.3        -47.73319396]
 [  0.32341667  15.35939938]]","[[0.         0.36516876]
 [0.1        0.43500315]
 [0.2        1.25398366]
 [0.3        0.60570222]
 [0.32341667 0.97208355]]",0,0.546
8729829169,f,18,french,3,5,french,2024-02-01 10:28:31.264933,False,2,382,sounds\english\audio/english_492.wav,"[[  0.         -66.2832746 ]
 [  0.1        -19.36008054]
 [  0.2         95.25769545]
 [  0.3        -42.69351484]
 [  0.32341667  48.13359561]]","[[0.         0.52930651]
 [0.1        1.11739795]
 [0.2        1.86018292]
 [0.3        0.07313262]
 [0.32341667 0.30480454]]",0,0.832
8729829169,f,18,french,3,5,french,2024-02-01 10:28:31.264933,False,2,383,sounds\english\audio/english_764.wav,"[[  0.           7.00590276]
 [  0.1        -69.33047837]
 [  0.2        -20.89747671]
 [  0.3        -96.63564891]
 [  0.32341667  78.55111455]]","[[0.         1.84020442]
 [0.1        0.1607256 ]
 [0.2        1.70981587]
 [0.3        1.13854431]
 [0.32341667 1.5536836 ]]",1,0.563
8729829169,f,18,french,3,5,french,2024-02-01 10:28:31.264933,False,2,384,sounds\english\audio/english_497.wav,"[[  0.           3.92391523]
 [  0.1        -39.44421726]
 [  0.2        -70.21843081]
 [  0.3        -95.13281119]
 [  0.32341667 -23.7064256 ]]","[[0.         0.25005623]
 [0.1        1.18920756]
 [0.2        1.75478959]
 [0.3        0.47878412]
 [0.32341667 0.88125504]]",0,0.926
8729829169,f,18,french,3,5,french,2024-02-01 10:28:31.264933,False,2,385,sounds\english\audio/english_240.wav,"[[  0.         -96.55121617]
 [  0.1         73.99435309]
 [  0.2        -27.17256968]
 [  0.3         -2.05185553]
 [  0.32341667  80.37406519]]","[[0.         1.04823872]
 [0.1        1.11556714]
 [0.2        0.68795106]
 [0.3        1.30325309]
 [0.32341667 0.86977317]]",0,0.656
8729829169,f,18,french,3,5,french,2024-02-01 10:28:31.264933,False,2,386,sounds\english\audio/english_997.wav,"[[  0.          93.4252615 ]
 [  0.1         62.16088314]
 [  0.2        -26.38638022]
 [  0.3         89.15363163]
 [  0.32341667 -25.83137337]]","[[0.         0.4603395 ]
 [0.1        0.21654412]
 [0.2        1.36234896]
 [0.3        1.07462804]
 [0.32341667 0.84007196]]",1,1.086
8729829169,f,18,french,3,5,french,2024-02-01 10:28:31.264933,False,2,387,sounds\english\audio/english_799.wav,"[[  0.         -48.4958847 ]
 [  0.1         -9.52866418]
 [  0.2          1.94176449]
 [  0.3          5.71676827]
 [  0.32341667  30.27282792]]","[[0.         1.9233431 ]
 [0.1        1.11542891]
 [0.2        0.95865462]
 [0.3        0.6616034 ]
 [0.32341667 1.91183458]]",0,0.337
8729829169,f,18,french,3,5,french,2024-02-01 10:28:31.264933,False,2,388,sounds\english\audio/english_41.wav,"[[  0.          42.21237724]
 [  0.1         33.8271633 ]
 [  0.2         20.96644351]
 [  0.3        -53.61985723]
 [  0.32341667 -55.68725705]]","[[0.         0.98996482]
 [0.1        0.77076848]
 [0.2        0.37402384]
 [0.3        1.98545705]
 [0.32341667 1.53352273]]",0,0.485
8729829169,f,18,french,3,5,french,2024-02-01 10:28:31.264933,False,2,389,sounds\english\audio/english_773.wav,"[[  0.         -97.46951928]
 [  0.1         85.58858853]
 [  0.2        -54.69649905]
 [  0.3        -97.24656559]
 [  0.32341667  40.28006613]]","[[0.         0.54003315]
 [0.1        1.35505424]
 [0.2        1.09283168]
 [0.3        1.42526307]
 [0.32341667 0.69844725]]",0,0.407
8729829169,f,18,french,3,5,french,2024-02-01 10:28:31.264933,False,2,390,sounds\english\audio/english_611.wav,"[[  0.           4.04989913]
 [  0.1        -26.35519993]
 [  0.2        -41.22744209]
 [  0.3        -72.41198747]
 [  0.32341667 -60.09703168]]","[[0.         1.48647041]
 [0.1        0.87297853]
 [0.2        0.91907267]
 [0.3        0.12624761]
 [0.32341667 0.964981  ]]",0,0.886
8729829169,f,18,french,3,5,french,2024-02-01 10:28:31.264933,False,2,391,sounds\english\audio/english_922.wav,"[[  0.         -90.36253489]
 [  0.1         -6.38761956]
 [  0.2        -78.09661245]
 [  0.3        -92.75722173]
 [  0.32341667 -80.16719401]]","[[0.         0.33253962]
 [0.1        1.51366693]
 [0.2        0.40049791]
 [0.3        1.29207892]
 [0.32341667 1.40400382]]",1,0.533
8729829169,f,18,french,3,5,french,2024-02-01 10:28:31.264933,False,2,392,sounds\english\audio/english_332.wav,"[[  0.         -51.41680869]
 [  0.1          4.985172  ]
 [  0.2         88.20327684]
 [  0.3        -58.40734817]
 [  0.32341667  68.30800912]]","[[0.         1.58782391]
 [0.1        0.72138411]
 [0.2        1.12265768]
 [0.3        0.23569111]
 [0.32341667 1.23583309]]",1,0.35
8729829169,f,18,french,3,5,french,2024-02-01 10:28:31.264933,False,2,393,sounds\english\audio/english_510.wav,"[[  0.         -39.77235695]
 [  0.1        -55.9025784 ]
 [  0.2         42.12378864]
 [  0.3         -5.9333084 ]
 [  0.32341667  84.8199861 ]]","[[0.         0.97080384]
 [0.1        0.1022914 ]
 [0.2        1.56878682]
 [0.3        1.19302163]
 [0.32341667 1.45606517]]",0,0.294
8729829169,f,18,french,3,5,french,2024-02-01 10:28:31.264933,False,2,394,sounds\english\audio/english_239.wav,"[[  0.          87.44943986]
 [  0.1         50.09814929]
 [  0.2        -20.91132269]
 [  0.3          1.56869958]
 [  0.32341667  15.23790706]]","[[0.         1.42022081]
 [0.1        0.64261102]
 [0.2        0.17156284]
 [0.3        1.89365974]
 [0.32341667 1.86939691]]",0,1.126
8729829169,f,18,french,3,5,french,2024-02-01 10:28:31.264933,False,2,395,sounds\english\audio/english_133.wav,"[[  0.          12.35833749]
 [  0.1         40.12315016]
 [  0.2         21.09458129]
 [  0.3        -98.82286682]
 [  0.32341667 -85.44748976]]","[[0.         0.72635311]
 [0.1        1.38782059]
 [0.2        0.15947395]
 [0.3        0.28433836]
 [0.32341667 1.2581514 ]]",1,0.999
8729829169,f,18,french,3,5,french,2024-02-01 10:28:31.264933,False,2,396,sounds\english\audio/english_209.wav,"[[ 0.         14.15361396]
 [ 0.1        85.95109622]
 [ 0.2        18.04804687]
 [ 0.3        28.2522976 ]
 [ 0.32341667  5.36776296]]","[[0.         1.44232267]
 [0.1        1.49291498]
 [0.2        1.19611731]
 [0.3        1.49647535]
 [0.32341667 0.30324849]]",0,0.336
8729829169,f,18,french,3,5,french,2024-02-01 10:28:31.264933,False,2,397,sounds\english\audio/english_455.wav,"[[  0.          16.09493262]
 [  0.1         24.58982   ]
 [  0.2        -59.31201859]
 [  0.3         40.79603426]
 [  0.32341667 -39.30035714]]","[[0.         0.21208686]
 [0.1        1.0305564 ]
 [0.2        1.53057992]
 [0.3        0.62599766]
 [0.32341667 1.43054244]]",1,0.792
8729829169,f,18,french,3,5,french,2024-02-01 10:28:31.264933,False,2,398,sounds\english\audio/english_820.wav,"[[  0.         -46.83321603]
 [  0.1         41.6487922 ]
 [  0.2          8.4156442 ]
 [  0.3        -54.82963666]
 [  0.32341667  30.43602938]]","[[0.         0.84618107]
 [0.1        0.98544532]
 [0.2        0.7701051 ]
 [0.3        1.20043732]
 [0.32341667 1.85489027]]",0,0.599
8729829169,f,18,french,3,5,french,2024-02-01 10:28:31.264933,False,2,399,sounds\english\audio/english_406.wav,"[[  0.          28.09923375]
 [  0.1        -15.10813675]
 [  0.2        -12.43931725]
 [  0.3        -27.33468297]
 [  0.32341667 -62.66931892]]","[[0.         1.43312072]
 [0.1        0.8890381 ]
 [0.2        0.60560557]
 [0.3        1.13565345]
 [0.32341667 1.8467177 ]]",0,0.578
8729829169,f,18,french,3,5,french,2024-02-01 10:28:31.264933,False,2,400,sounds\english\audio/english_6.wav,"[[  0.          -8.2116192 ]
 [  0.1        -28.50933877]
 [  0.2        -90.20174912]
 [  0.3         -7.18062469]
 [  0.32341667 -36.83558467]]","[[0.         1.24832701]
 [0.1        0.74984456]
 [0.2        1.37568362]
 [0.3        0.47637706]
 [0.32341667 0.68255954]]",0,0.324
8729829169,f,18,french,3,5,french,2024-02-01 10:28:31.264933,False,2,401,sounds\english\audio/english_729.wav,"[[  0.          31.16849918]
 [  0.1        -74.04657477]
 [  0.2         98.28479208]
 [  0.3         45.68234461]
 [  0.32341667 -23.12232547]]","[[0.         1.30127688]
 [0.1        1.28998605]
 [0.2        0.71365363]
 [0.3        0.61436371]
 [0.32341667 0.96520681]]",0,0.536
8729829169,f,18,french,3,5,french,2024-02-01 10:28:31.264933,False,2,402,sounds\english\audio/english_436.wav,"[[  0.          58.73131257]
 [  0.1         65.29204538]
 [  0.2          7.63213906]
 [  0.3         -2.54756362]
 [  0.32341667 -11.40614268]]","[[0.         0.30497449]
 [0.1        1.04665744]
 [0.2        1.03883923]
 [0.3        0.97345352]
 [0.32341667 0.16121918]]",0,0.824
8729829169,f,18,french,3,5,french,2024-02-01 10:28:31.264933,False,2,403,sounds\english\audio/english_618.wav,"[[  0.          58.31579708]
 [  0.1          6.96253647]
 [  0.2         -4.41581756]
 [  0.3        -63.5775247 ]
 [  0.32341667  97.77631762]]","[[0.         1.46895394]
 [0.1        0.48660613]
 [0.2        1.00963977]
 [0.3        1.29399549]
 [0.32341667 0.84060701]]",0,0.198
8729829169,f,18,french,3,5,french,2024-02-01 10:28:31.264933,False,2,404,sounds\english\audio/english_196.wav,"[[  0.         -86.38202104]
 [  0.1          0.95731439]
 [  0.2        -48.4797064 ]
 [  0.3         50.57477866]
 [  0.32341667 -52.07184875]]","[[0.         1.63362226]
 [0.1        1.36148231]
 [0.2        0.68683683]
 [0.3        1.59869277]
 [0.32341667 0.40963154]]",0,0.415
8729829169,f,18,french,3,5,french,2024-02-01 10:28:31.264933,False,2,405,sounds\english\audio/english_348.wav,"[[  0.          21.35215111]
 [  0.1         14.79849269]
 [  0.2         53.1788992 ]
 [  0.3        -95.85723561]
 [  0.32341667   5.27283499]]","[[0.         0.19799702]
 [0.1        0.60931017]
 [0.2        0.16102666]
 [0.3        1.54818605]
 [0.32341667 0.26552753]]",1,0.338
8729829169,f,18,french,3,5,french,2024-02-01 10:28:31.264933,False,2,406,sounds\english\audio/english_453.wav,"[[  0.         -60.23429987]
 [  0.1         80.38725697]
 [  0.2         66.16689695]
 [  0.3        -59.46214637]
 [  0.32341667 -39.76201882]]","[[0.         1.87756573]
 [0.1        0.94070469]
 [0.2        1.71191258]
 [0.3        0.56012011]
 [0.32341667 0.35119419]]",0,0.204
8729829169,f,18,french,3,5,french,2024-02-01 10:28:31.264933,False,2,407,sounds\english\audio/english_329.wav,"[[  0.         -48.89108629]
 [  0.1         55.67852038]
 [  0.2         48.16827585]
 [  0.3         73.70818564]
 [  0.32341667  85.70797026]]","[[0.         1.2424848 ]
 [0.1        1.73811564]
 [0.2        0.4928271 ]
 [0.3        0.68407289]
 [0.32341667 1.92917435]]",0,0.743
8729829169,f,18,french,3,5,french,2024-02-01 10:28:31.264933,False,2,408,sounds\english\audio/english_831.wav,"[[  0.          -7.33710711]
 [  0.1        -87.69782071]
 [  0.2         34.03975531]
 [  0.3         -2.18295653]
 [  0.32341667  20.908766  ]]","[[0.         1.53159971]
 [0.1        1.22669962]
 [0.2        0.70180407]
 [0.3        1.02244347]
 [0.32341667 1.06702443]]",0,0.673
8729829169,f,18,french,3,5,french,2024-02-01 10:28:31.264933,False,2,409,sounds\english\audio/english_375.wav,"[[  0.          18.096335  ]
 [  0.1        -55.77885891]
 [  0.2        -79.80603762]
 [  0.3        -57.7566014 ]
 [  0.32341667  74.14673873]]","[[0.         0.30735121]
 [0.1        1.17808606]
 [0.2        1.03107785]
 [0.3        0.46519988]
 [0.32341667 1.41875211]]",0,0.466
8729829169,f,18,french,3,5,french,2024-02-01 10:28:31.264933,False,2,410,sounds\english\audio/english_472.wav,"[[  0.         -33.48324222]
 [  0.1        -52.47175565]
 [  0.2        -13.12063744]
 [  0.3         83.57117959]
 [  0.32341667  95.60610647]]","[[0.         1.19367533]
 [0.1        0.64788551]
 [0.2        0.92970714]
 [0.3        0.61503547]
 [0.32341667 0.52013695]]",0,0.394
8729829169,f,18,french,3,5,french,2024-02-01 10:28:31.264933,False,2,411,sounds\english\audio/english_162.wav,"[[  0.         -93.72635155]
 [  0.1        -77.68974918]
 [  0.2         15.19581884]
 [  0.3         64.44828449]
 [  0.32341667 -98.3856278 ]]","[[0.         0.46304305]
 [0.1        1.90149112]
 [0.2        1.02605911]
 [0.3        1.67084882]
 [0.32341667 0.11792656]]",0,0.266
8729829169,f,18,french,3,5,french,2024-02-01 10:28:31.264933,False,2,412,sounds\english\audio/english_812.wav,"[[  0.          70.24469457]
 [  0.1        -27.51466786]
 [  0.2         60.55844263]
 [  0.3         52.93607499]
 [  0.32341667  74.74872052]]","[[0.         0.85599223]
 [0.1        0.39005905]
 [0.2        1.43275618]
 [0.3        1.34329238]
 [0.32341667 0.96810209]]",0,0.718
8729829169,f,18,french,3,5,french,2024-02-01 10:28:31.264933,False,2,413,sounds\english\audio/english_561.wav,"[[  0.          62.21065415]
 [  0.1         -9.84770717]
 [  0.2        -12.92274306]
 [  0.3         16.08334811]
 [  0.32341667 -22.38830035]]","[[0.         1.32725493]
 [0.1        1.15871491]
 [0.2        0.82816789]
 [0.3        1.72308293]
 [0.32341667 0.72943893]]",0,1.807
8729829169,f,18,french,3,5,french,2024-02-01 10:28:31.264933,False,2,414,sounds\english\audio/english_580.wav,"[[  0.          92.13406767]
 [  0.1        -85.58685866]
 [  0.2         57.10945482]
 [  0.3         32.92004132]
 [  0.32341667  52.08708517]]","[[0.         1.93694744]
 [0.1        0.28773753]
 [0.2        0.86433335]
 [0.3        0.96651265]
 [0.32341667 1.25003658]]",0,0.864
8729829169,f,18,french,3,5,french,2024-02-01 10:28:31.264933,False,2,415,sounds\english\audio/english_152.wav,"[[  0.         -21.97873044]
 [  0.1         85.66675034]
 [  0.2        -66.57447909]
 [  0.3        -33.8772441 ]
 [  0.32341667 -46.50239179]]","[[0.         1.75752799]
 [0.1        1.21467008]
 [0.2        0.82299352]
 [0.3        0.48869868]
 [0.32341667 0.31705885]]",0,0.384
8729829169,f,18,french,3,5,french,2024-02-01 10:28:31.264933,False,2,416,sounds\english\audio/english_547.wav,"[[  0.          30.48969685]
 [  0.1        -38.27442703]
 [  0.2         29.58442849]
 [  0.3         -4.27268154]
 [  0.32341667  58.02076364]]","[[0.         1.04682874]
 [0.1        0.75017858]
 [0.2        0.7996645 ]
 [0.3        1.92102789]
 [0.32341667 1.77056707]]",1,0.34
8729829169,f,18,french,3,5,french,2024-02-01 10:28:31.264933,False,2,417,sounds\english\audio/english_340.wav,"[[  0.          42.62794877]
 [  0.1         67.09042835]
 [  0.2        -80.28719593]
 [  0.3        -47.97556268]
 [  0.32341667  32.7013797 ]]","[[0.         1.44385011]
 [0.1        1.29329602]
 [0.2        1.71068781]
 [0.3        0.48872717]
 [0.32341667 1.09000269]]",0,0.471
8729829169,f,18,french,3,5,french,2024-02-01 10:28:31.264933,False,2,418,sounds\english\audio/english_597.wav,"[[  0.         -83.66792118]
 [  0.1        -19.98744657]
 [  0.2        -30.38458549]
 [  0.3        -63.4406446 ]
 [  0.32341667  25.67812426]]","[[0.         0.17389721]
 [0.1        0.39349672]
 [0.2        1.97590818]
 [0.3        1.84988074]
 [0.32341667 1.17620678]]",1,0.555
8729829169,f,18,french,3,5,french,2024-02-01 10:28:31.264933,False,2,419,sounds\english\audio/english_579.wav,"[[  0.          78.52989573]
 [  0.1        -26.17758211]
 [  0.2        -65.60231522]
 [  0.3        -66.03357835]
 [  0.32341667 -36.23940811]]","[[0.         1.74799876]
 [0.1        0.36264633]
 [0.2        1.15645327]
 [0.3        1.81639149]
 [0.32341667 1.38509752]]",0,0.73
8729829169,f,18,french,3,5,french,2024-02-01 10:28:31.264933,False,2,420,sounds\english\audio/english_896.wav,"[[  0.         -76.63716622]
 [  0.1        -73.11298951]
 [  0.2         48.53347054]
 [  0.3         -4.46661278]
 [  0.32341667 -44.69533701]]","[[0.         1.08893336]
 [0.1        0.41748987]
 [0.2        0.32012442]
 [0.3        0.63387312]
 [0.32341667 1.27766005]]",1,0.625
8729829169,f,18,french,3,5,french,2024-02-01 10:28:31.264933,False,2,421,sounds\english\audio/english_43.wav,"[[  0.          22.40064366]
 [  0.1        -68.20152198]
 [  0.2         62.56231291]
 [  0.3         45.0736378 ]
 [  0.32341667 -36.46791656]]","[[0.         1.74132857]
 [0.1        0.12763156]
 [0.2        0.31420738]
 [0.3        0.98572154]
 [0.32341667 0.91325677]]",1,0.84
8729829169,f,18,french,3,5,french,2024-02-01 10:28:31.264933,False,2,422,sounds\english\audio/english_605.wav,"[[  0.         -82.65591545]
 [  0.1         35.78886654]
 [  0.2        -36.80716754]
 [  0.3         -4.39131435]
 [  0.32341667 -17.17702763]]","[[0.         0.90945233]
 [0.1        1.65178877]
 [0.2        0.21181898]
 [0.3        1.21754483]
 [0.32341667 1.60493484]]",0,2.834
8729829169,f,18,french,3,5,french,2024-02-01 10:28:31.264933,False,2,423,sounds\english\audio/english_449.wav,"[[  0.         -46.54576765]
 [  0.1         20.05422573]
 [  0.2         54.52400621]
 [  0.3         73.66855139]
 [  0.32341667  -1.88675615]]","[[0.         0.60085197]
 [0.1        1.74901032]
 [0.2        1.9506545 ]
 [0.3        1.81044704]
 [0.32341667 0.93562966]]",0,0.536
8729829169,f,18,french,3,5,french,2024-02-01 10:28:31.264933,False,2,424,sounds\english\audio/english_192.wav,"[[  0.          78.04280759]
 [  0.1        -85.52188616]
 [  0.2        -14.2601202 ]
 [  0.3         29.76504865]
 [  0.32341667  82.81048791]]","[[0.         0.73118961]
 [0.1        0.7164391 ]
 [0.2        1.68273927]
 [0.3        0.51501418]
 [0.32341667 1.16986294]]",0,0.693
8729829169,f,18,french,3,5,french,2024-02-01 10:28:31.264933,False,2,425,sounds\english\audio/english_426.wav,"[[  0.          84.66887763]
 [  0.1          6.08176803]
 [  0.2         90.82211143]
 [  0.3         42.04787562]
 [  0.32341667 -40.19306584]]","[[0.         0.58495982]
 [0.1        0.31710055]
 [0.2        1.7123379 ]
 [0.3        1.38911617]
 [0.32341667 1.84862951]]",0,0.626
8729829169,f,18,french,3,5,french,2024-02-01 10:28:31.264933,False,2,426,sounds\english\audio/english_319.wav,"[[  0.         -84.37928886]
 [  0.1        -52.76931383]
 [  0.2         56.06390533]
 [  0.3        -69.46438111]
 [  0.32341667  91.86152445]]","[[0.         1.17141126]
 [0.1        1.13741792]
 [0.2        0.91618882]
 [0.3        0.7080153 ]
 [0.32341667 0.5910213 ]]",0,0.75
8729829169,f,18,french,3,5,french,2024-02-01 10:28:31.264933,False,2,427,sounds\english\audio/english_618.wav,"[[  0.          58.31579708]
 [  0.1          6.96253647]
 [  0.2         -4.41581756]
 [  0.3        -63.5775247 ]
 [  0.32341667  97.77631762]]","[[0.         1.46895394]
 [0.1        0.48660613]
 [0.2        1.00963977]
 [0.3        1.29399549]
 [0.32341667 0.84060701]]",0,0.451
8729829169,f,18,french,3,5,french,2024-02-01 10:28:31.264933,False,2,428,sounds\english\audio/english_931.wav,"[[  0.         -78.99767873]
 [  0.1        -34.67093685]
 [  0.2          2.25144273]
 [  0.3        -93.87287365]
 [  0.32341667  57.8562517 ]]","[[0.         0.72988395]
 [0.1        1.40858855]
 [0.2        1.82787629]
 [0.3        1.51045502]
 [0.32341667 1.42241625]]",0,0.689
8729829169,f,18,french,3,5,french,2024-02-01 10:28:31.264933,False,2,429,sounds\english\audio/english_309.wav,"[[  0.          59.8258624 ]
 [  0.1         73.70427758]
 [  0.2         -8.71125849]
 [  0.3        -86.6882155 ]
 [  0.32341667 -90.77340978]]","[[0.         0.58100331]
 [0.1        0.81024997]
 [0.2        0.10827203]
 [0.3        0.09670208]
 [0.32341667 1.53063904]]",1,0.391
8729829169,f,18,french,3,5,french,2024-02-01 10:28:31.264933,False,2,430,sounds\english\audio/english_182.wav,"[[  0.          57.43769915]
 [  0.1        -87.06676545]
 [  0.2        -91.52107401]
 [  0.3         52.0843588 ]
 [  0.32341667  18.07264914]]","[[0.         0.89919812]
 [0.1        1.25243937]
 [0.2        1.35021358]
 [0.3        0.52787795]
 [0.32341667 0.72620624]]",0,0.358
8729829169,f,18,french,3,5,french,2024-02-01 10:28:31.264933,False,2,431,sounds\english\audio/english_647.wav,"[[  0.          -8.76796469]
 [  0.1        -49.13996982]
 [  0.2         43.79634461]
 [  0.3          5.5781311 ]
 [  0.32341667  17.41251701]]","[[0.         1.6238225 ]
 [0.1        1.56934089]
 [0.2        0.78560304]
 [0.3        0.61771672]
 [0.32341667 1.2404866 ]]",0,0.679
8729829169,f,18,french,3,5,french,2024-02-01 10:28:31.264933,False,2,432,sounds\english\audio/english_42.wav,"[[  0.         -15.36487641]
 [  0.1         11.43696078]
 [  0.2         34.58464447]
 [  0.3         68.67640378]
 [  0.32341667 -67.59461511]]","[[0.         1.81244548]
 [0.1        1.472484  ]
 [0.2        0.21504119]
 [0.3        0.80253652]
 [0.32341667 1.53231421]]",0,2.053
8729829169,f,18,french,3,5,french,2024-02-01 10:28:31.264933,False,2,433,sounds\english\audio/english_144.wav,"[[  0.         -68.95587174]
 [  0.1        -74.16141139]
 [  0.2        -19.31034794]
 [  0.3        -77.96768175]
 [  0.32341667   3.46911061]]","[[0.         0.23806678]
 [0.1        0.77020267]
 [0.2        0.33858197]
 [0.3        1.42512122]
 [0.32341667 0.57629619]]",1,0.656
8729829169,f,18,french,3,5,french,2024-02-01 10:28:31.264933,False,2,434,sounds\english\audio/english_863.wav,"[[  0.          52.03013683]
 [  0.1         21.53783975]
 [  0.2        -42.8061331 ]
 [  0.3         -9.69253087]
 [  0.32341667  56.44290307]]","[[0.         1.83111202]
 [0.1        0.9779226 ]
 [0.2        1.19089157]
 [0.3        0.269847  ]
 [0.32341667 0.87913369]]",0,0.24
8729829169,f,18,french,3,5,french,2024-02-01 10:28:31.264933,False,2,435,sounds\english\audio/english_479.wav,"[[  0.          74.98268857]
 [  0.1         16.03290679]
 [  0.2         78.97784812]
 [  0.3        -15.63843586]
 [  0.32341667  42.04802753]]","[[0.         0.98081986]
 [0.1        0.71187618]
 [0.2        0.27050369]
 [0.3        1.15797271]
 [0.32341667 1.51318639]]",1,0.679
8729829169,f,18,french,3,5,french,2024-02-01 10:28:31.264933,False,2,436,sounds\english\audio/english_399.wav,"[[  0.          77.00947727]
 [  0.1         68.68212777]
 [  0.2         29.89909441]
 [  0.3        -37.60275897]
 [  0.32341667 -61.49193386]]","[[0.         0.99570417]
 [0.1        1.08385584]
 [0.2        0.2210854 ]
 [0.3        0.41623588]
 [0.32341667 0.38461981]]",0,0.975
8729829169,f,18,french,3,5,french,2024-02-01 10:28:31.264933,False,2,437,sounds\english\audio/english_233.wav,"[[  0.          -3.83672366]
 [  0.1        -39.8423846 ]
 [  0.2         85.69163348]
 [  0.3         40.61484277]
 [  0.32341667 -44.9800047 ]]","[[0.         0.89757337]
 [0.1        0.76715273]
 [0.2        1.38961473]
 [0.3        0.78787282]
 [0.32341667 0.48224738]]",0,0.219
8729829169,f,18,french,3,5,french,2024-02-01 10:28:31.264933,False,2,438,sounds\english\audio/english_606.wav,"[[  0.         -54.19201916]
 [  0.1         -9.49104439]
 [  0.2          1.17868262]
 [  0.3        -95.39718692]
 [  0.32341667 -48.659775  ]]","[[0.         1.71730642]
 [0.1        0.42216081]
 [0.2        1.31506394]
 [0.3        0.06922913]
 [0.32341667 0.08316227]]",1,2.168
8729829169,f,18,french,3,5,french,2024-02-01 10:28:31.264933,False,2,439,sounds\english\audio/english_869.wav,"[[  0.          31.82870938]
 [  0.1         55.69153841]
 [  0.2         44.83997999]
 [  0.3        -64.6596515 ]
 [  0.32341667 -51.58434075]]","[[0.         0.91730192]
 [0.1        1.54634356]
 [0.2        0.32401745]
 [0.3        1.34292926]
 [0.32341667 0.99771643]]",0,1.701
8729829169,f,18,french,3,5,french,2024-02-01 10:28:31.264933,False,2,440,sounds\english\audio/english_768.wav,"[[  0.         -28.93145359]
 [  0.1         59.49166151]
 [  0.2         41.87955621]
 [  0.3        -92.17589111]
 [  0.32341667  15.2364545 ]]","[[0.         1.5002074 ]
 [0.1        1.15432208]
 [0.2        0.01731471]
 [0.3        0.98337229]
 [0.32341667 0.4381055 ]]",0,0.931
8729829169,f,18,french,3,5,french,2024-02-01 10:28:31.264933,False,2,441,sounds\english\audio/english_705.wav,"[[  0.           3.76426423]
 [  0.1         90.96696755]
 [  0.2        -32.86898574]
 [  0.3        -21.12550784]
 [  0.32341667  39.74077299]]","[[0.         0.9500377 ]
 [0.1        0.74173997]
 [0.2        1.78776637]
 [0.3        0.8178788 ]
 [0.32341667 1.54913024]]",0,0.474
8729829169,f,18,french,3,5,french,2024-02-01 10:28:31.264933,False,2,442,sounds\english\audio/english_290.wav,"[[  0.          73.71968657]
 [  0.1        -59.85317413]
 [  0.2         71.1426587 ]
 [  0.3        -18.50007061]
 [  0.32341667 -65.91143137]]","[[0.         0.30552726]
 [0.1        1.31636279]
 [0.2        0.54925413]
 [0.3        1.26204455]
 [0.32341667 0.60528556]]",0,1.035
8729829169,f,18,french,3,5,french,2024-02-01 10:28:31.264933,False,2,443,sounds\english\audio/english_356.wav,"[[  0.          87.74309864]
 [  0.1         -4.48264388]
 [  0.2         90.19031952]
 [  0.3        -69.40540064]
 [  0.32341667  65.10278108]]","[[0.         0.22820547]
 [0.1        1.49009691]
 [0.2        1.39023362]
 [0.3        1.78473098]
 [0.32341667 0.80628385]]",0,1.143
8729829169,f,18,french,3,5,french,2024-02-01 10:28:31.264933,False,2,444,sounds\english\audio/english_59.wav,"[[  0.          30.26604033]
 [  0.1         25.69112756]
 [  0.2        -24.85549033]
 [  0.3        -31.2790444 ]
 [  0.32341667  86.30355152]]","[[0.         1.5973148 ]
 [0.1        0.24758472]
 [0.2        0.1547886 ]
 [0.3        0.30754036]
 [0.32341667 0.40312024]]",0,1.612
8729829169,f,18,french,3,5,french,2024-02-01 10:28:31.264933,False,2,445,sounds\english\audio/english_613.wav,"[[  0.         -12.80235787]
 [  0.1         38.67858639]
 [  0.2         21.08834288]
 [  0.3         94.81469787]
 [  0.32341667  18.45506868]]","[[0.         0.8409713 ]
 [0.1        0.30410002]
 [0.2        0.031636  ]
 [0.3        1.79222997]
 [0.32341667 1.98455664]]",1,0.457
8729829169,f,18,french,3,5,french,2024-02-01 10:28:31.264933,False,2,446,sounds\english\audio/english_864.wav,"[[  0.         -41.66547405]
 [  0.1         47.36949562]
 [  0.2         87.97635609]
 [  0.3        -18.88921291]
 [  0.32341667  13.88839096]]","[[0.         0.15536101]
 [0.1        1.78739046]
 [0.2        1.48310956]
 [0.3        0.35838492]
 [0.32341667 0.21709894]]",0,1.585
8729829169,f,18,french,3,5,french,2024-02-01 10:28:31.264933,False,2,447,sounds\english\audio/english_189.wav,"[[  0.         -22.70456848]
 [  0.1        -12.00888723]
 [  0.2         15.14046376]
 [  0.3        -19.30106293]
 [  0.32341667 -20.57313834]]","[[0.         0.82906961]
 [0.1        0.58408113]
 [0.2        0.19058783]
 [0.3        0.57788611]
 [0.32341667 0.32577637]]",1,0.531
8729829169,f,18,french,3,5,french,2024-02-01 10:28:31.264933,False,2,448,sounds\english\audio/english_956.wav,"[[  0.         -98.71257913]
 [  0.1        -36.05702295]
 [  0.2        -31.95582623]
 [  0.3        -81.31295359]
 [  0.32341667  45.09425789]]","[[0.         1.5828524 ]
 [0.1        0.66985857]
 [0.2        0.13798036]
 [0.3        0.22663358]
 [0.32341667 0.54862974]]",1,0.636
8729829169,f,18,french,3,5,french,2024-02-01 10:28:31.264933,False,2,449,sounds\english\audio/english_953.wav,"[[  0.         -16.02430182]
 [  0.1         29.58660593]
 [  0.2        -69.77021268]
 [  0.3         10.24378989]
 [  0.32341667 -68.66835117]]","[[0.         0.31806788]
 [0.1        0.5983964 ]
 [0.2        1.47459901]
 [0.3        1.63555671]
 [0.32341667 1.74756834]]",0,0.519
8729829169,f,18,french,3,5,french,2024-02-01 10:28:31.264933,False,2,450,sounds\english\audio/english_514.wav,"[[  0.         -61.65105701]
 [  0.1         49.84264816]
 [  0.2         14.14440898]
 [  0.3        -30.10662908]
 [  0.32341667  90.48337022]]","[[0.         1.12509033]
 [0.1        0.78701739]
 [0.2        0.37052689]
 [0.3        1.42053426]
 [0.32341667 1.94621598]]",0,0.933
8729829169,f,18,french,3,5,french,2024-02-01 10:28:31.264933,False,2,451,sounds\english\audio/english_740.wav,"[[  0.          17.63845752]
 [  0.1         36.88289119]
 [  0.2        -63.85348159]
 [  0.3        -97.96670479]
 [  0.32341667  43.035587  ]]","[[0.         0.65519257]
 [0.1        0.996231  ]
 [0.2        0.85360158]
 [0.3        1.42654033]
 [0.32341667 1.01691569]]",0,0.486
8729829169,f,18,french,3,5,french,2024-02-01 10:28:31.264933,False,2,452,sounds\english\audio/english_732.wav,"[[  0.         -12.49530298]
 [  0.1         77.35683448]
 [  0.2         46.14200593]
 [  0.3        -17.19403126]
 [  0.32341667 -81.60069167]]","[[0.         1.28394154]
 [0.1        1.95772399]
 [0.2        1.14408971]
 [0.3        0.21034957]
 [0.32341667 0.50538316]]",0,0.373
8729829169,f,18,french,3,5,french,2024-02-01 10:28:31.264933,False,2,453,sounds\english\audio/english_533.wav,"[[  0.         -10.36570298]
 [  0.1        -67.04420928]
 [  0.2        -31.24691396]
 [  0.3        -22.73912087]
 [  0.32341667  -4.63915005]]","[[0.         0.10013008]
 [0.1        1.73583104]
 [0.2        1.00550506]
 [0.3        1.21009828]
 [0.32341667 1.69946188]]",0,0.296
8729829169,f,18,french,3,5,french,2024-02-01 10:28:31.264933,False,2,454,sounds\english\audio/english_575.wav,"[[  0.          61.73461998]
 [  0.1        -88.57549656]
 [  0.2        -30.88461278]
 [  0.3        -63.73327026]
 [  0.32341667  -0.55806298]]","[[0.         1.8510319 ]
 [0.1        1.54102878]
 [0.2        1.19801244]
 [0.3        1.20026237]
 [0.32341667 1.04112184]]",0,0.163
8729829169,f,18,french,3,5,french,2024-02-01 10:28:31.264933,False,2,455,sounds\english\audio/english_66.wav,"[[  0.          16.07147303]
 [  0.1         50.76577123]
 [  0.2        -29.1595681 ]
 [  0.3        -80.89120138]
 [  0.32341667  -8.46229461]]","[[0.         1.75051971]
 [0.1        0.02971233]
 [0.2        0.63583886]
 [0.3        1.46734397]
 [0.32341667 1.61280944]]",1,0.603
8729829169,f,18,french,3,5,french,2024-02-01 10:28:31.264933,False,2,456,sounds\english\audio/english_645.wav,"[[  0.          44.09023725]
 [  0.1         53.49741331]
 [  0.2         28.7784214 ]
 [  0.3        -38.38386911]
 [  0.32341667  30.31484035]]","[[0.         0.24999948]
 [0.1        0.20669006]
 [0.2        0.13451906]
 [0.3        0.64617788]
 [0.32341667 0.83061833]]",1,0.369
8729829169,f,18,french,3,5,french,2024-02-01 10:28:31.264933,False,2,457,sounds\english\audio/english_422.wav,"[[  0.         -79.81150205]
 [  0.1         -2.02836706]
 [  0.2        -11.18998235]
 [  0.3         52.04958687]
 [  0.32341667 -63.48776447]]","[[0.         1.34332733]
 [0.1        0.77514932]
 [0.2        0.33214039]
 [0.3        0.53493982]
 [0.32341667 0.45685022]]",1,0.292
8729829169,f,18,french,3,5,french,2024-02-01 10:28:31.264933,False,2,458,sounds\english\audio/english_905.wav,"[[  0.          73.76258642]
 [  0.1         49.84186991]
 [  0.2        -84.55275191]
 [  0.3         70.45460649]
 [  0.32341667 -84.87734561]]","[[0.         1.30259847]
 [0.1        0.15786419]
 [0.2        0.47562292]
 [0.3        1.69272047]
 [0.32341667 1.28570309]]",0,1.367
8729829169,f,18,french,3,5,french,2024-02-01 10:28:31.264933,False,2,459,sounds\english\audio/english_388.wav,"[[  0.          17.9760939 ]
 [  0.1        -43.00340989]
 [  0.2        -30.55059063]
 [  0.3        -92.55876504]
 [  0.32341667 -64.21175873]]","[[0.         0.95494184]
 [0.1        0.10281418]
 [0.2        1.52164503]
 [0.3        1.24827519]
 [0.32341667 0.08180338]]",0,0.247
8729829169,f,18,french,3,5,french,2024-02-01 10:28:31.264933,False,2,460,sounds\english\audio/english_304.wav,"[[  0.         -80.7192326 ]
 [  0.1         34.14230443]
 [  0.2        -43.78548789]
 [  0.3         85.79520644]
 [  0.32341667 -29.32737886]]","[[0.         0.54130022]
 [0.1        0.20766845]
 [0.2        1.25157904]
 [0.3        0.76195837]
 [0.32341667 0.20991234]]",0,0.672
8729829169,f,18,french,3,5,french,2024-02-01 10:28:31.264933,False,2,461,sounds\english\audio/english_824.wav,"[[  0.          80.46503136]
 [  0.1        -48.668347  ]
 [  0.2         37.27765876]
 [  0.3        -91.29945309]
 [  0.32341667  14.46507007]]","[[0.         1.43025592]
 [0.1        0.89138167]
 [0.2        1.91281619]
 [0.3        0.71335031]
 [0.32341667 0.89780818]]",0,0.253
8729829169,f,18,french,3,5,french,2024-02-01 10:28:31.264933,False,2,462,sounds\english\audio/english_628.wav,"[[  0.         -19.71295886]
 [  0.1        -79.294697  ]
 [  0.2        -59.93256946]
 [  0.3        -18.46863719]
 [  0.32341667  53.30350975]]","[[0.         0.8960583 ]
 [0.1        1.61949508]
 [0.2        0.65483299]
 [0.3        0.12001531]
 [0.32341667 0.85308449]]",0,0.129
8729829169,f,18,french,3,5,french,2024-02-01 10:28:31.264933,False,2,463,sounds\english\audio/english_154.wav,"[[  0.          69.79630433]
 [  0.1        -67.81892388]
 [  0.2         14.97335347]
 [  0.3          8.47433965]
 [  0.32341667  32.47098569]]","[[0.         0.95543174]
 [0.1        1.87835363]
 [0.2        1.19287874]
 [0.3        1.12321966]
 [0.32341667 0.66995817]]",0,0.075
8729829169,f,18,french,3,5,french,2024-02-01 10:28:31.264933,False,2,464,sounds\english\audio/english_799.wav,"[[  0.         -48.4958847 ]
 [  0.1         -9.52866418]
 [  0.2          1.94176449]
 [  0.3          5.71676827]
 [  0.32341667  30.27282792]]","[[0.         1.9233431 ]
 [0.1        1.11542891]
 [0.2        0.95865462]
 [0.3        0.6616034 ]
 [0.32341667 1.91183458]]",0,0.118
8729829169,f,18,french,3,5,french,2024-02-01 10:28:31.264933,False,2,465,sounds\english\audio/english_37.wav,"[[  0.          -5.54999706]
 [  0.1         23.22206304]
 [  0.2        -57.36481589]
 [  0.3         58.0578648 ]
 [  0.32341667  66.03280024]]","[[0.         1.12257854]
 [0.1        1.8669628 ]
 [0.2        0.39386712]
 [0.3        1.21765674]
 [0.32341667 0.74428952]]",0,0.314
8729829169,f,18,french,3,5,french,2024-02-01 10:28:31.264933,False,2,466,sounds\english\audio/english_860.wav,"[[ 0.         10.25066679]
 [ 0.1        55.87909831]
 [ 0.2        81.09373959]
 [ 0.3        15.52286826]
 [ 0.32341667 58.18702512]]","[[0.         1.47817545]
 [0.1        1.32859058]
 [0.2        0.99201561]
 [0.3        0.3312489 ]
 [0.32341667 0.66001743]]",0,0.335
8729829169,f,18,french,3,5,french,2024-02-01 10:28:31.264933,False,2,467,sounds\english\audio/english_452.wav,"[[  0.         -15.91859121]
 [  0.1         66.54493607]
 [  0.2         49.2405228 ]
 [  0.3         -8.75382859]
 [  0.32341667 -35.51952716]]","[[0.         0.16050204]
 [0.1        1.05820221]
 [0.2        1.42476674]
 [0.3        0.48128336]
 [0.32341667 0.52453318]]",0,0.327
8729829169,f,18,french,3,5,french,2024-02-01 10:28:31.264933,False,2,468,sounds\english\audio/english_769.wav,"[[  0.         -12.68288087]
 [  0.1         13.58895245]
 [  0.2         -5.57429841]
 [  0.3        -26.44516544]
 [  0.32341667  85.93285426]]","[[0.         1.59358978]
 [0.1        0.16681031]
 [0.2        0.74292099]
 [0.3        0.17250104]
 [0.32341667 0.16730253]]",0,2.502
8729829169,f,18,french,3,5,french,2024-02-01 10:28:31.264933,False,2,469,sounds\english\audio/english_809.wav,"[[  0.          -9.08149959]
 [  0.1         12.16544582]
 [  0.2         40.52205867]
 [  0.3        -94.19679153]
 [  0.32341667  -5.82752377]]","[[0.         0.73203403]
 [0.1        0.53159531]
 [0.2        1.48114639]
 [0.3        1.77078339]
 [0.32341667 1.36117577]]",0,0.467
8729829169,f,18,french,3,5,french,2024-02-01 10:28:31.264933,False,2,470,sounds\english\audio/english_202.wav,"[[  0.         -30.7410802 ]
 [  0.1        -19.68361402]
 [  0.2         -9.93463647]
 [  0.3         -7.1971022 ]
 [  0.32341667 -23.97797133]]","[[0.         1.48506999]
 [0.1        1.61937363]
 [0.2        0.73964021]
 [0.3        1.93955383]
 [0.32341667 1.43199581]]",0,0.247
8729829169,f,18,french,3,5,french,2024-02-01 10:28:31.264933,False,2,471,sounds\english\audio/english_806.wav,"[[ 0.         17.38837614]
 [ 0.1        50.31160736]
 [ 0.2        74.21499327]
 [ 0.3        16.647622  ]
 [ 0.32341667 27.12519974]]","[[0.         1.03842349]
 [0.1        1.08461549]
 [0.2        1.8436814 ]
 [0.3        1.85846725]
 [0.32341667 1.15820289]]",0,0.375
8729829169,f,18,french,3,5,french,2024-02-01 10:28:31.264933,False,2,472,sounds\english\audio/english_310.wav,"[[  0.          82.1385274 ]
 [  0.1        -33.74608058]
 [  0.2         62.12487376]
 [  0.3         96.31437548]
 [  0.32341667 -23.64802517]]","[[0.         0.14341218]
 [0.1        1.80934389]
 [0.2        1.28785402]
 [0.3        1.13060378]
 [0.32341667 1.05137249]]",0,0.303
8729829169,f,18,french,3,5,french,2024-02-01 10:28:31.264933,False,2,473,sounds\english\audio/english_814.wav,"[[  0.         -63.32480856]
 [  0.1         34.42157774]
 [  0.2         -1.27362148]
 [  0.3         11.18388565]
 [  0.32341667  -9.56708644]]","[[0.         1.93717082]
 [0.1        0.66627456]
 [0.2        1.33718687]
 [0.3        1.12749716]
 [0.32341667 0.66623879]]",0,0.351
8729829169,f,18,french,3,5,french,2024-02-01 10:28:31.264933,False,2,474,sounds\english\audio/english_82.wav,"[[  0.         -21.02351082]
 [  0.1          1.53612588]
 [  0.2         82.9198569 ]
 [  0.3         67.34737065]
 [  0.32341667 -34.9418752 ]]","[[0.         0.76668052]
 [0.1        0.94640395]
 [0.2        1.02754902]
 [0.3        1.57368428]
 [0.32341667 0.67195212]]",0,0.335
8729829169,f,18,french,3,5,french,2024-02-01 10:28:31.264933,False,2,475,sounds\english\audio/english_878.wav,"[[  0.          84.19501339]
 [  0.1         76.71234668]
 [  0.2        -74.61835319]
 [  0.3         83.79758366]
 [  0.32341667 -29.32243698]]","[[0.         0.22676298]
 [0.1        0.28568495]
 [0.2        0.74220819]
 [0.3        1.72755148]
 [0.32341667 1.88938616]]",1,0.651
8729829169,f,18,french,3,5,french,2024-02-01 10:28:31.264933,False,2,476,sounds\english\audio/english_445.wav,"[[  0.          88.00598922]
 [  0.1         96.51328737]
 [  0.2         29.11093561]
 [  0.3         69.6076589 ]
 [  0.32341667 -59.73938179]]","[[0.         1.42174052]
 [0.1        1.49122509]
 [0.2        0.62095286]
 [0.3        1.14630865]
 [0.32341667 1.38538671]]",0,1.368
8729829169,f,18,french,3,5,french,2024-02-01 10:28:31.264933,False,2,477,sounds\english\audio/english_54.wav,"[[  0.           1.86764875]
 [  0.1         -1.78672474]
 [  0.2        -26.58380414]
 [  0.3         -2.56688864]
 [  0.32341667 -76.29238916]]","[[0.         1.47639799]
 [0.1        1.92944336]
 [0.2        0.76292987]
 [0.3        1.78735236]
 [0.32341667 0.80366269]]",0,0.941
8729829169,f,18,french,3,5,french,2024-02-01 10:28:31.264933,False,2,478,sounds\english\audio/english_165.wav,"[[  0.         -65.85966689]
 [  0.1         57.4210377 ]
 [  0.2        -53.4891742 ]
 [  0.3        -32.80877015]
 [  0.32341667 -23.63509804]]","[[0.         0.99094124]
 [0.1        1.25140592]
 [0.2        1.66606931]
 [0.3        0.56557264]
 [0.32341667 1.31427626]]",0,1.346
8729829169,f,18,french,3,5,french,2024-02-01 10:28:31.264933,False,2,479,sounds\english\audio/english_987.wav,"[[  0.          91.33137772]
 [  0.1        -39.20299527]
 [  0.2         78.9852337 ]
 [  0.3        -94.66209845]
 [  0.32341667 -71.76730894]]","[[0.         1.82656395]
 [0.1        1.12122948]
 [0.2        1.12025045]
 [0.3        1.02557261]
 [0.32341667 1.06580695]]",0,0.505
8729829169,f,18,french,3,5,french,2024-02-01 10:28:31.264933,False,2,480,sounds\english\audio/english_236.wav,"[[  0.          14.26564849]
 [  0.1         60.97219358]
 [  0.2        -12.39626346]
 [  0.3        -62.87774076]
 [  0.32341667 -75.97684705]]","[[0.         0.89253674]
 [0.1        0.38957934]
 [0.2        1.55558051]
 [0.3        0.2682718 ]
 [0.32341667 1.92182597]]",0,1.607
8729829169,f,18,french,3,5,french,2024-02-01 10:28:31.264933,False,2,481,sounds\english\audio/english_46.wav,"[[  0.         -29.32250151]
 [  0.1         -3.06808063]
 [  0.2         90.97923358]
 [  0.3         10.7462216 ]
 [  0.32341667 -76.74347892]]","[[0.         0.64118776]
 [0.1        0.73649566]
 [0.2        1.88790792]
 [0.3        0.26788582]
 [0.32341667 0.543593  ]]",0,1.206
8729829169,f,18,french,3,5,french,2024-02-01 10:28:31.264933,False,2,482,sounds\english\audio/english_158.wav,"[[  0.          33.09785739]
 [  0.1        -85.08083727]
 [  0.2         97.70701203]
 [  0.3          2.54261044]
 [  0.32341667 -59.73934841]]","[[0.         1.71128449]
 [0.1        1.56145129]
 [0.2        0.69707892]
 [0.3        1.19647348]
 [0.32341667 1.17782448]]",0,0.934
8729829169,f,18,french,3,5,french,2024-02-01 10:28:31.264933,False,2,483,sounds\english\audio/english_136.wav,"[[  0.          12.04186247]
 [  0.1        -56.97950323]
 [  0.2         32.29793995]
 [  0.3         40.05814767]
 [  0.32341667  61.40693937]]","[[0.         0.70846626]
 [0.1        1.3229906 ]
 [0.2        0.25119571]
 [0.3        1.28510755]
 [0.32341667 1.20697433]]",1,0.473
8729829169,f,18,french,3,5,french,2024-02-01 10:28:31.264933,False,2,484,sounds\english\audio/english_514.wav,"[[  0.         -61.65105701]
 [  0.1         49.84264816]
 [  0.2         14.14440898]
 [  0.3        -30.10662908]
 [  0.32341667  90.48337022]]","[[0.         1.12509033]
 [0.1        0.78701739]
 [0.2        0.37052689]
 [0.3        1.42053426]
 [0.32341667 1.94621598]]",1,1.395
8729829169,f,18,french,3,5,french,2024-02-01 10:28:31.264933,False,2,485,sounds\english\audio/english_397.wav,"[[  0.          89.67962381]
 [  0.1        -80.29722345]
 [  0.2         60.53564011]
 [  0.3          9.94565725]
 [  0.32341667   0.1319882 ]]","[[0.         0.42719638]
 [0.1        0.89466904]
 [0.2        0.56174568]
 [0.3        0.1553242 ]
 [0.32341667 1.89079641]]",1,0.757
8729829169,f,18,french,3,5,french,2024-02-01 10:28:31.264933,False,2,486,sounds\english\audio/english_838.wav,"[[  0.         -46.43239877]
 [  0.1         -0.77549132]
 [  0.2        -47.56158581]
 [  0.3          7.18116474]
 [  0.32341667 -87.38880816]]","[[0.         0.57293762]
 [0.1        1.65450135]
 [0.2        0.30574951]
 [0.3        0.96315644]
 [0.32341667 0.83017899]]",0,0.306
8729829169,f,18,french,3,5,french,2024-02-01 10:28:31.264933,False,2,487,sounds\english\audio/english_258.wav,"[[  0.          -7.1133109 ]
 [  0.1         44.58564752]
 [  0.2         45.36800295]
 [  0.3         25.81301737]
 [  0.32341667 -77.97513924]]","[[0.         1.89026761]
 [0.1        1.79361992]
 [0.2        0.43687845]
 [0.3        0.04688612]
 [0.32341667 0.52567924]]",0,0.469
8729829169,f,18,french,3,5,french,2024-02-01 10:28:31.264933,False,2,488,sounds\english\audio/english_562.wav,"[[  0.         -40.22672309]
 [  0.1         77.961849  ]
 [  0.2         25.52463525]
 [  0.3         84.62788358]
 [  0.32341667 -53.67427145]]","[[0.         0.64031882]
 [0.1        0.7637006 ]
 [0.2        0.87632482]
 [0.3        0.98972612]
 [0.32341667 0.74010285]]",0,0.842
8729829169,f,18,french,3,5,french,2024-02-01 10:28:31.264933,False,2,489,sounds\english\audio/english_934.wav,"[[ 0.         48.23169593]
 [ 0.1        42.81145804]
 [ 0.2        79.06411095]
 [ 0.3        69.44528076]
 [ 0.32341667 88.54940569]]","[[0.         1.38760579]
 [0.1        1.74622613]
 [0.2        0.2874918 ]
 [0.3        1.61606763]
 [0.32341667 1.62058381]]",0,0.404
8729829169,f,18,french,3,5,french,2024-02-01 10:28:31.264933,False,2,490,sounds\english\audio/english_968.wav,"[[  0.         -36.76350372]
 [  0.1        -99.8991193 ]
 [  0.2         27.503089  ]
 [  0.3        -34.85106147]
 [  0.32341667  68.2869663 ]]","[[0.         0.52322451]
 [0.1        0.66419732]
 [0.2        0.44232096]
 [0.3        1.90778707]
 [0.32341667 0.59652698]]",1,0.778
8729829169,f,18,french,3,5,french,2024-02-01 10:28:31.264933,False,2,491,sounds\english\audio/english_106.wav,"[[  0.         -46.25200282]
 [  0.1        -83.38564728]
 [  0.2         68.00501759]
 [  0.3         49.15199267]
 [  0.32341667  -5.93966373]]","[[0.         0.21046793]
 [0.1        1.42142181]
 [0.2        0.86156936]
 [0.3        0.65348811]
 [0.32341667 0.76273979]]",0,0.478
8729829169,f,18,french,3,5,french,2024-02-01 10:28:31.264933,False,2,492,sounds\english\audio/english_832.wav,"[[  0.         -21.62855277]
 [  0.1        -35.3834786 ]
 [  0.2         52.65867494]
 [  0.3         62.52082964]
 [  0.32341667  46.66062952]]","[[0.         1.31372842]
 [0.1        1.55258378]
 [0.2        1.50567803]
 [0.3        1.2163301 ]
 [0.32341667 1.20100353]]",0,0.313
8729829169,f,18,french,3,5,french,2024-02-01 10:28:31.264933,False,2,493,sounds\english\audio/english_89.wav,"[[  0.         -42.28936571]
 [  0.1         12.96738115]
 [  0.2         -0.92476461]
 [  0.3         54.46155283]
 [  0.32341667  -5.27724964]]","[[0.         1.68633095]
 [0.1        0.49078122]
 [0.2        0.75584791]
 [0.3        1.37155139]
 [0.32341667 0.6613642 ]]",0,0.483
8729829169,f,18,french,3,5,french,2024-02-01 10:28:31.264933,False,2,494,sounds\english\audio/english_446.wav,"[[  0.         -50.90487531]
 [  0.1         77.9515464 ]
 [  0.2         12.96913102]
 [  0.3         31.20275809]
 [  0.32341667 -30.39700356]]","[[0.         0.84721497]
 [0.1        0.90863808]
 [0.2        0.45582271]
 [0.3        0.65529325]
 [0.32341667 0.08422993]]",0,1.079
8729829169,f,18,french,3,5,french,2024-02-01 10:28:31.264933,False,2,495,sounds\english\audio/english_163.wav,"[[  0.         -28.85321754]
 [  0.1          9.37410395]
 [  0.2        -43.22266742]
 [  0.3         48.63715122]
 [  0.32341667 -94.22333204]]","[[0.         1.43434597]
 [0.1        1.75766865]
 [0.2        0.90391943]
 [0.3        1.21743426]
 [0.32341667 1.8516503 ]]",0,0.476
8729829169,f,18,french,3,5,french,2024-02-01 10:28:31.264933,False,2,496,sounds\english\audio/english_532.wav,"[[  0.         -19.59321792]
 [  0.1         84.44945775]
 [  0.2         -5.6477907 ]
 [  0.3        -66.11375502]
 [  0.32341667 -46.16722618]]","[[0.         1.69826346]
 [0.1        1.19849103]
 [0.2        0.05164805]
 [0.3        0.74129516]
 [0.32341667 0.11393119]]",1,0.729
8729829169,f,18,french,3,5,french,2024-02-01 10:28:31.264933,False,2,497,sounds\english\audio/english_615.wav,"[[  0.          76.05955912]
 [  0.1         54.62950786]
 [  0.2        -31.02204933]
 [  0.3         -3.27946314]
 [  0.32341667  51.350795  ]]","[[0.         1.68553334]
 [0.1        1.5058876 ]
 [0.2        1.66676809]
 [0.3        1.09840801]
 [0.32341667 0.25314986]]",0,0.554
8729829169,f,18,french,3,5,french,2024-02-01 10:28:31.264933,False,2,498,sounds\english\audio/english_253.wav,"[[  0.          12.9108365 ]
 [  0.1        -70.83420593]
 [  0.2         -6.13796162]
 [  0.3         38.03543053]
 [  0.32341667 -61.21147917]]","[[0.         0.20464585]
 [0.1        1.97412558]
 [0.2        1.12401504]
 [0.3        1.75851492]
 [0.32341667 0.77953826]]",0,0.477
8729829169,f,18,french,3,5,french,2024-02-01 10:28:31.264933,False,2,499,sounds\english\audio/english_46.wav,"[[  0.         -29.32250151]
 [  0.1         -3.06808063]
 [  0.2         90.97923358]
 [  0.3         10.7462216 ]
 [  0.32341667 -76.74347892]]","[[0.         0.64118776]
 [0.1        0.73649566]
 [0.2        1.88790792]
 [0.3        0.26788582]
 [0.32341667 0.543593  ]]",0,1.293
8729829169,f,18,french,3,5,french,2024-02-01 10:28:31.264933,False,2,500,sounds\english\audio/english_966.wav,"[[  0.          23.00954068]
 [  0.1         -2.7733657 ]
 [  0.2         -6.00176123]
 [  0.3        -64.80320904]
 [  0.32341667  94.15296916]]","[[0.         1.02848684]
 [0.1        1.22612364]
 [0.2        0.03461529]
 [0.3        0.22357585]
 [0.32341667 0.55383001]]",1,0.842
8729829169,f,18,french,3,5,french,2024-02-01 10:28:31.264933,False,2,501,sounds\english\audio/english_813.wav,"[[ 0.         55.66932548]
 [ 0.1        81.68960615]
 [ 0.2        55.75765178]
 [ 0.3        -1.25572602]
 [ 0.32341667 95.15429199]]","[[0.         1.32885027]
 [0.1        1.76450173]
 [0.2        0.71046445]
 [0.3        1.00431818]
 [0.32341667 0.60962601]]",0,0.393
8729829169,f,18,french,3,5,french,2024-02-01 10:28:31.264933,False,2,502,sounds\english\audio/english_5.wav,"[[  0.         -15.92383461]
 [  0.1        -20.01914587]
 [  0.2         40.70457056]
 [  0.3        -94.67131236]
 [  0.32341667 -88.33027294]]","[[0.         0.27445408]
 [0.1        0.54328549]
 [0.2        0.32172142]
 [0.3        1.15903644]
 [0.32341667 0.94870148]]",1,0.603
