subj,trial,block,date,stim,stim_order,response,rt,age,english,french,language,sex,param_index,segment,pitch,stretch
5e2e147d047efa000c6b833d,0,0,2024-02-27T12:28:43.945Z,french_473.wav,0,poule,3413,36,5,2,English,m,0,0.0,-59.88543895,0.32878746
5e2e147d047efa000c6b833d,0,0,2024-02-27T12:28:43.945Z,french_473.wav,0,poule,3413,36,5,2,English,m,1,0.1,36.52277503,0.29204452
5e2e147d047efa000c6b833d,0,0,2024-02-27T12:28:43.945Z,french_473.wav,0,poule,3413,36,5,2,English,m,2,0.2,-76.47045714,0.65259503
5e2e147d047efa000c6b833d,0,0,2024-02-27T12:28:43.945Z,french_473.wav,0,poule,3413,36,5,2,English,m,3,0.25666667,-69.05057232,0.35645849
5e2e147d047efa000c6b833d,1,0,2024-02-27T12:28:43.945Z,french_546.wav,0,poule,2468,36,5,2,English,m,0,0.0,36.39546499,1.70532748
5e2e147d047efa000c6b833d,1,0,2024-02-27T12:28:43.945Z,french_546.wav,0,poule,2468,36,5,2,English,m,1,0.1,-76.59722628,1.24815266
5e2e147d047efa000c6b833d,1,0,2024-02-27T12:28:43.945Z,french_546.wav,0,poule,2468,36,5,2,English,m,2,0.2,-20.75900546,1.81852615
5e2e147d047efa000c6b833d,1,0,2024-02-27T12:28:43.945Z,french_546.wav,0,poule,2468,36,5,2,English,m,3,0.25666667,8.86958668,0.22376713
5e2e147d047efa000c6b833d,2,0,2024-02-27T12:28:43.945Z,french_824.wav,0,pull,1599,36,5,2,English,m,0,0.0,95.58094713,1.84230129
5e2e147d047efa000c6b833d,2,0,2024-02-27T12:28:43.945Z,french_824.wav,0,pull,1599,36,5,2,English,m,1,0.1,-47.05258515,1.74244762
5e2e147d047efa000c6b833d,2,0,2024-02-27T12:28:43.945Z,french_824.wav,0,pull,1599,36,5,2,English,m,2,0.2,43.18521816,1.04703492
5e2e147d047efa000c6b833d,2,0,2024-02-27T12:28:43.945Z,french_824.wav,0,pull,1599,36,5,2,English,m,3,0.25666667,-5.69582576,0.75358401
5e2e147d047efa000c6b833d,3,0,2024-02-27T12:28:43.945Z,french_492.wav,0,pull,1390,36,5,2,English,m,0,0.0,26.23401792,1.39276004
5e2e147d047efa000c6b833d,3,0,2024-02-27T12:28:43.945Z,french_492.wav,0,pull,1390,36,5,2,English,m,1,0.1,-24.69700304,1.17915575
5e2e147d047efa000c6b833d,3,0,2024-02-27T12:28:43.945Z,french_492.wav,0,pull,1390,36,5,2,English,m,2,0.2,20.89476161,0.89700471
5e2e147d047efa000c6b833d,3,0,2024-02-27T12:28:43.945Z,french_492.wav,0,pull,1390,36,5,2,English,m,3,0.25666667,-5.21833306,0.44164607
5e2e147d047efa000c6b833d,4,0,2024-02-27T12:28:43.945Z,french_814.wav,0,pull,471,36,5,2,English,m,0,0.0,83.0056253,1.4499936
5e2e147d047efa000c6b833d,4,0,2024-02-27T12:28:43.945Z,french_814.wav,0,pull,471,36,5,2,English,m,1,0.1,-71.4586846,0.77595229
5e2e147d047efa000c6b833d,4,0,2024-02-27T12:28:43.945Z,french_814.wav,0,pull,471,36,5,2,English,m,2,0.2,12.63844789,0.21302651
5e2e147d047efa000c6b833d,4,0,2024-02-27T12:28:43.945Z,french_814.wav,0,pull,471,36,5,2,English,m,3,0.25666667,12.39326704,0.16177964
5e2e147d047efa000c6b833d,5,0,2024-02-27T12:28:43.945Z,french_913.wav,0,poule,1638,36,5,2,English,m,0,0.0,5.31236155,1.37558602
5e2e147d047efa000c6b833d,5,0,2024-02-27T12:28:43.945Z,french_913.wav,0,poule,1638,36,5,2,English,m,1,0.1,-59.65057946,0.3561265
5e2e147d047efa000c6b833d,5,0,2024-02-27T12:28:43.945Z,french_913.wav,0,poule,1638,36,5,2,English,m,2,0.2,27.87230438,1.61604884
5e2e147d047efa000c6b833d,5,0,2024-02-27T12:28:43.945Z,french_913.wav,0,poule,1638,36,5,2,English,m,3,0.25666667,-58.49443874,0.97981321
5e2e147d047efa000c6b833d,6,0,2024-02-27T12:28:43.945Z,french_196.wav,0,poule,2062,36,5,2,English,m,0,0.0,-51.30508497,1.16005851
5e2e147d047efa000c6b833d,6,0,2024-02-27T12:28:43.945Z,french_196.wav,0,poule,2062,36,5,2,English,m,1,0.1,89.17651026,0.87725998
5e2e147d047efa000c6b833d,6,0,2024-02-27T12:28:43.945Z,french_196.wav,0,poule,2062,36,5,2,English,m,2,0.2,77.92993737,1.23506332
5e2e147d047efa000c6b833d,6,0,2024-02-27T12:28:43.945Z,french_196.wav,0,poule,2062,36,5,2,English,m,3,0.25666667,-86.11962375,1.33141167
5e2e147d047efa000c6b833d,7,0,2024-02-27T12:28:43.945Z,french_564.wav,0,pull,1084,36,5,2,English,m,0,0.0,-42.85760261,0.14777183
5e2e147d047efa000c6b833d,7,0,2024-02-27T12:28:43.945Z,french_564.wav,0,pull,1084,36,5,2,English,m,1,0.1,78.12316343,1.08229262
5e2e147d047efa000c6b833d,7,0,2024-02-27T12:28:43.945Z,french_564.wav,0,pull,1084,36,5,2,English,m,2,0.2,32.53186734,0.52251513
5e2e147d047efa000c6b833d,7,0,2024-02-27T12:28:43.945Z,french_564.wav,0,pull,1084,36,5,2,English,m,3,0.25666667,60.20924512,1.40255579
5e2e147d047efa000c6b833d,8,0,2024-02-27T12:28:43.945Z,french_11.wav,0,poule,2568,36,5,2,English,m,0,0.0,-27.01625533,0.65463853
5e2e147d047efa000c6b833d,8,0,2024-02-27T12:28:43.945Z,french_11.wav,0,poule,2568,36,5,2,English,m,1,0.1,30.5454192,0.82547758
5e2e147d047efa000c6b833d,8,0,2024-02-27T12:28:43.945Z,french_11.wav,0,poule,2568,36,5,2,English,m,2,0.2,-10.3355652,1.18020414
5e2e147d047efa000c6b833d,8,0,2024-02-27T12:28:43.945Z,french_11.wav,0,poule,2568,36,5,2,English,m,3,0.25666667,-1.40658107,0.75245655
5e2e147d047efa000c6b833d,9,0,2024-02-27T12:28:43.945Z,french_163.wav,0,poule,2442,36,5,2,English,m,0,0.0,95.00435891,1.26837246
5e2e147d047efa000c6b833d,9,0,2024-02-27T12:28:43.945Z,french_163.wav,0,poule,2442,36,5,2,English,m,1,0.1,41.67922454,0.25754486
5e2e147d047efa000c6b833d,9,0,2024-02-27T12:28:43.945Z,french_163.wav,0,poule,2442,36,5,2,English,m,2,0.2,-79.43338234,1.96804031
5e2e147d047efa000c6b833d,9,0,2024-02-27T12:28:43.945Z,french_163.wav,0,poule,2442,36,5,2,English,m,3,0.25666667,-47.45672342,0.46721947
5e2e147d047efa000c6b833d,10,0,2024-02-27T12:28:43.945Z,french_718.wav,0,poule,1472,36,5,2,English,m,0,0.0,60.10154263,0.48894908
5e2e147d047efa000c6b833d,10,0,2024-02-27T12:28:43.945Z,french_718.wav,0,poule,1472,36,5,2,English,m,1,0.1,11.66591821,1.65193902
5e2e147d047efa000c6b833d,10,0,2024-02-27T12:28:43.945Z,french_718.wav,0,poule,1472,36,5,2,English,m,2,0.2,18.23831634,1.63024081
5e2e147d047efa000c6b833d,10,0,2024-02-27T12:28:43.945Z,french_718.wav,0,poule,1472,36,5,2,English,m,3,0.25666667,-0.86268038,0.33166429
5e2e147d047efa000c6b833d,11,0,2024-02-27T12:28:43.945Z,french_561.wav,0,pull,1085,36,5,2,English,m,0,0.0,43.72245453,1.14403907
5e2e147d047efa000c6b833d,11,0,2024-02-27T12:28:43.945Z,french_561.wav,0,pull,1085,36,5,2,English,m,1,0.1,-99.96065046,0.22103922
5e2e147d047efa000c6b833d,11,0,2024-02-27T12:28:43.945Z,french_561.wav,0,pull,1085,36,5,2,English,m,2,0.2,-79.74506532,0.12690813
5e2e147d047efa000c6b833d,11,0,2024-02-27T12:28:43.945Z,french_561.wav,0,pull,1085,36,5,2,English,m,3,0.25666667,3.19515671,1.47601923
5e2e147d047efa000c6b833d,12,0,2024-02-27T12:28:43.945Z,french_646.wav,0,pull,817,36,5,2,English,m,0,0.0,98.47808426,1.66300853
5e2e147d047efa000c6b833d,12,0,2024-02-27T12:28:43.945Z,french_646.wav,0,pull,817,36,5,2,English,m,1,0.1,98.7741611,0.58876545
5e2e147d047efa000c6b833d,12,0,2024-02-27T12:28:43.945Z,french_646.wav,0,pull,817,36,5,2,English,m,2,0.2,-51.76092723,0.47940067
5e2e147d047efa000c6b833d,12,0,2024-02-27T12:28:43.945Z,french_646.wav,0,pull,817,36,5,2,English,m,3,0.25666667,53.55118827,0.48942216
5e2e147d047efa000c6b833d,13,0,2024-02-27T12:28:43.945Z,french_669.wav,0,poule,1811,36,5,2,English,m,0,0.0,0.0785638242,1.32851713
5e2e147d047efa000c6b833d,13,0,2024-02-27T12:28:43.945Z,french_669.wav,0,poule,1811,36,5,2,English,m,1,0.1,6.42084207,1.65603836
5e2e147d047efa000c6b833d,13,0,2024-02-27T12:28:43.945Z,french_669.wav,0,poule,1811,36,5,2,English,m,2,0.2,84.3922519,1.32676382
5e2e147d047efa000c6b833d,13,0,2024-02-27T12:28:43.945Z,french_669.wav,0,poule,1811,36,5,2,English,m,3,0.256666667,1.87399725,0.80161972
5e2e147d047efa000c6b833d,14,0,2024-02-27T12:28:43.945Z,french_431.wav,0,poule,997,36,5,2,English,m,0,0.0,-54.98282588,1.39465542
5e2e147d047efa000c6b833d,14,0,2024-02-27T12:28:43.945Z,french_431.wav,0,poule,997,36,5,2,English,m,1,0.1,-84.59035382,1.77814632
5e2e147d047efa000c6b833d,14,0,2024-02-27T12:28:43.945Z,french_431.wav,0,poule,997,36,5,2,English,m,2,0.2,-24.91317649,0.57412197
5e2e147d047efa000c6b833d,14,0,2024-02-27T12:28:43.945Z,french_431.wav,0,poule,997,36,5,2,English,m,3,0.25666667,11.58207854,1.85348509
5e2e147d047efa000c6b833d,15,0,2024-02-27T12:28:43.945Z,french_263.wav,0,pull,1790,36,5,2,English,m,0,0.0,25.02930943,0.29249845
5e2e147d047efa000c6b833d,15,0,2024-02-27T12:28:43.945Z,french_263.wav,0,pull,1790,36,5,2,English,m,1,0.1,77.59070044,1.82268286
5e2e147d047efa000c6b833d,15,0,2024-02-27T12:28:43.945Z,french_263.wav,0,pull,1790,36,5,2,English,m,2,0.2,61.13366196,0.69638669
5e2e147d047efa000c6b833d,15,0,2024-02-27T12:28:43.945Z,french_263.wav,0,pull,1790,36,5,2,English,m,3,0.25666667,-46.58539851,0.57279137
5e2e147d047efa000c6b833d,16,0,2024-02-27T12:28:43.945Z,french_1.wav,0,poule,1618,36,5,2,English,m,0,0.0,91.87409443,0.51984737
5e2e147d047efa000c6b833d,16,0,2024-02-27T12:28:43.945Z,french_1.wav,0,poule,1618,36,5,2,English,m,1,0.1,-48.89112434,0.07214845
5e2e147d047efa000c6b833d,16,0,2024-02-27T12:28:43.945Z,french_1.wav,0,poule,1618,36,5,2,English,m,2,0.2,27.67932603,1.75660136
5e2e147d047efa000c6b833d,16,0,2024-02-27T12:28:43.945Z,french_1.wav,0,poule,1618,36,5,2,English,m,3,0.25666667,13.64945055,0.58315139
5e2e147d047efa000c6b833d,17,0,2024-02-27T12:28:43.945Z,french_108.wav,0,poule,934,36,5,2,English,m,0,0.0,-38.50953818,1.14488094
5e2e147d047efa000c6b833d,17,0,2024-02-27T12:28:43.945Z,french_108.wav,0,poule,934,36,5,2,English,m,1,0.1,44.47590219,1.3820118
5e2e147d047efa000c6b833d,17,0,2024-02-27T12:28:43.945Z,french_108.wav,0,poule,934,36,5,2,English,m,2,0.2,35.73303492,1.04224754
5e2e147d047efa000c6b833d,17,0,2024-02-27T12:28:43.945Z,french_108.wav,0,poule,934,36,5,2,English,m,3,0.25666667,-90.35369633,1.51933791
5e2e147d047efa000c6b833d,18,0,2024-02-27T12:28:43.945Z,french_698.wav,0,poule,1031,36,5,2,English,m,0,0.0,77.87531809,1.86418809
5e2e147d047efa000c6b833d,18,0,2024-02-27T12:28:43.945Z,french_698.wav,0,poule,1031,36,5,2,English,m,1,0.1,-26.89699032,0.30357323
5e2e147d047efa000c6b833d,18,0,2024-02-27T12:28:43.945Z,french_698.wav,0,poule,1031,36,5,2,English,m,2,0.2,-54.93316964,1.97458381
5e2e147d047efa000c6b833d,18,0,2024-02-27T12:28:43.945Z,french_698.wav,0,poule,1031,36,5,2,English,m,3,0.25666667,-94.94644501,1.01877906
5e2e147d047efa000c6b833d,19,0,2024-02-27T12:28:43.945Z,french_577.wav,0,pull,985,36,5,2,English,m,0,0.0,-34.34323574,0.85646341
5e2e147d047efa000c6b833d,19,0,2024-02-27T12:28:43.945Z,french_577.wav,0,pull,985,36,5,2,English,m,1,0.1,42.3591335,0.14355807
5e2e147d047efa000c6b833d,19,0,2024-02-27T12:28:43.945Z,french_577.wav,0,pull,985,36,5,2,English,m,2,0.2,-17.66243752,0.33082023
5e2e147d047efa000c6b833d,19,0,2024-02-27T12:28:43.945Z,french_577.wav,0,pull,985,36,5,2,English,m,3,0.25666667,-25.14969583,0.85136365
5e2e147d047efa000c6b833d,20,0,2024-02-27T12:28:43.945Z,french_509.wav,0,poule,805,36,5,2,English,m,0,0.0,98.86127545,0.38470371
5e2e147d047efa000c6b833d,20,0,2024-02-27T12:28:43.945Z,french_509.wav,0,poule,805,36,5,2,English,m,1,0.1,-58.47415861,0.77077576
5e2e147d047efa000c6b833d,20,0,2024-02-27T12:28:43.945Z,french_509.wav,0,poule,805,36,5,2,English,m,2,0.2,23.95425933,1.30836253
5e2e147d047efa000c6b833d,20,0,2024-02-27T12:28:43.945Z,french_509.wav,0,poule,805,36,5,2,English,m,3,0.25666667,74.34097669,1.2187589
5e2e147d047efa000c6b833d,21,0,2024-02-27T12:28:43.945Z,french_388.wav,0,poule,1565,36,5,2,English,m,0,0.0,-56.99851318,0.76802497
5e2e147d047efa000c6b833d,21,0,2024-02-27T12:28:43.945Z,french_388.wav,0,poule,1565,36,5,2,English,m,1,0.1,-28.42117093,1.07190306
5e2e147d047efa000c6b833d,21,0,2024-02-27T12:28:43.945Z,french_388.wav,0,poule,1565,36,5,2,English,m,2,0.2,-17.37440647,0.91030877
5e2e147d047efa000c6b833d,21,0,2024-02-27T12:28:43.945Z,french_388.wav,0,poule,1565,36,5,2,English,m,3,0.25666667,19.5608334,0.1576099
5e2e147d047efa000c6b833d,22,0,2024-02-27T12:28:43.945Z,french_856.wav,0,pull,980,36,5,2,English,m,0,0.0,-64.45291012,0.77997639
5e2e147d047efa000c6b833d,22,0,2024-02-27T12:28:43.945Z,french_856.wav,0,pull,980,36,5,2,English,m,1,0.1,51.16318907,0.05317495
5e2e147d047efa000c6b833d,22,0,2024-02-27T12:28:43.945Z,french_856.wav,0,pull,980,36,5,2,English,m,2,0.2,51.97117103,0.19638347
5e2e147d047efa000c6b833d,22,0,2024-02-27T12:28:43.945Z,french_856.wav,0,pull,980,36,5,2,English,m,3,0.25666667,78.82524423,1.64847488
5e2e147d047efa000c6b833d,23,0,2024-02-27T12:28:43.945Z,french_859.wav,0,poule,813,36,5,2,English,m,0,0.0,52.92786792,1.14238893
5e2e147d047efa000c6b833d,23,0,2024-02-27T12:28:43.945Z,french_859.wav,0,poule,813,36,5,2,English,m,1,0.1,18.54274392,1.12707434
5e2e147d047efa000c6b833d,23,0,2024-02-27T12:28:43.945Z,french_859.wav,0,poule,813,36,5,2,English,m,2,0.2,-25.06242892,1.93999144
5e2e147d047efa000c6b833d,23,0,2024-02-27T12:28:43.945Z,french_859.wav,0,poule,813,36,5,2,English,m,3,0.25666667,0.70946668,1.31682519
5e2e147d047efa000c6b833d,24,0,2024-02-27T12:28:43.945Z,french_733.wav,0,poule,718,36,5,2,English,m,0,0.0,96.30835656,1.00234216
5e2e147d047efa000c6b833d,24,0,2024-02-27T12:28:43.945Z,french_733.wav,0,poule,718,36,5,2,English,m,1,0.1,-16.80147809,0.65355169
5e2e147d047efa000c6b833d,24,0,2024-02-27T12:28:43.945Z,french_733.wav,0,poule,718,36,5,2,English,m,2,0.2,34.50045069,1.63394937
5e2e147d047efa000c6b833d,24,0,2024-02-27T12:28:43.945Z,french_733.wav,0,poule,718,36,5,2,English,m,3,0.25666667,-6.11336577,0.15404628
5e2e147d047efa000c6b833d,25,0,2024-02-27T12:28:43.945Z,french_896.wav,0,poule,534,36,5,2,English,m,0,0.0,-50.03367973,0.4350745
5e2e147d047efa000c6b833d,25,0,2024-02-27T12:28:43.945Z,french_896.wav,0,poule,534,36,5,2,English,m,1,0.1,73.95849411,1.7879982
5e2e147d047efa000c6b833d,25,0,2024-02-27T12:28:43.945Z,french_896.wav,0,poule,534,36,5,2,English,m,2,0.2,16.78858773,0.61207276
5e2e147d047efa000c6b833d,25,0,2024-02-27T12:28:43.945Z,french_896.wav,0,poule,534,36,5,2,English,m,3,0.25666667,-49.02431976,0.35432813
5e2e147d047efa000c6b833d,26,0,2024-02-27T12:28:43.945Z,french_789.wav,0,poule,544,36,5,2,English,m,0,0.0,16.13130467,1.41580253
5e2e147d047efa000c6b833d,26,0,2024-02-27T12:28:43.945Z,french_789.wav,0,poule,544,36,5,2,English,m,1,0.1,-53.51301261,1.63533644
5e2e147d047efa000c6b833d,26,0,2024-02-27T12:28:43.945Z,french_789.wav,0,poule,544,36,5,2,English,m,2,0.2,91.10833978,0.42839577
5e2e147d047efa000c6b833d,26,0,2024-02-27T12:28:43.945Z,french_789.wav,0,poule,544,36,5,2,English,m,3,0.25666667,9.61415248,0.64971622
5e2e147d047efa000c6b833d,27,0,2024-02-27T12:28:43.945Z,french_438.wav,0,poule,1414,36,5,2,English,m,0,0.0,38.28600595,0.24947118
5e2e147d047efa000c6b833d,27,0,2024-02-27T12:28:43.945Z,french_438.wav,0,poule,1414,36,5,2,English,m,1,0.1,-2.73615403,0.88566368
5e2e147d047efa000c6b833d,27,0,2024-02-27T12:28:43.945Z,french_438.wav,0,poule,1414,36,5,2,English,m,2,0.2,-43.32822043,0.23078024
5e2e147d047efa000c6b833d,27,0,2024-02-27T12:28:43.945Z,french_438.wav,0,poule,1414,36,5,2,English,m,3,0.25666667,-21.43836029,1.64360752
5e2e147d047efa000c6b833d,28,0,2024-02-27T12:28:43.945Z,french_708.wav,0,poule,503,36,5,2,English,m,0,0.0,77.88438146,0.30850898
5e2e147d047efa000c6b833d,28,0,2024-02-27T12:28:43.945Z,french_708.wav,0,poule,503,36,5,2,English,m,1,0.1,-89.66132416,1.49064351
5e2e147d047efa000c6b833d,28,0,2024-02-27T12:28:43.945Z,french_708.wav,0,poule,503,36,5,2,English,m,2,0.2,66.08375885,1.28629193
5e2e147d047efa000c6b833d,28,0,2024-02-27T12:28:43.945Z,french_708.wav,0,poule,503,36,5,2,English,m,3,0.25666667,-39.93161414,1.01533724
5e2e147d047efa000c6b833d,29,0,2024-02-27T12:28:43.945Z,french_57.wav,0,poule,329,36,5,2,English,m,0,0.0,5.04798132,0.30893924
5e2e147d047efa000c6b833d,29,0,2024-02-27T12:28:43.945Z,french_57.wav,0,poule,329,36,5,2,English,m,1,0.1,34.86476391,1.37192861
5e2e147d047efa000c6b833d,29,0,2024-02-27T12:28:43.945Z,french_57.wav,0,poule,329,36,5,2,English,m,2,0.2,8.76450083,1.2366194
5e2e147d047efa000c6b833d,29,0,2024-02-27T12:28:43.945Z,french_57.wav,0,poule,329,36,5,2,English,m,3,0.25666667,-66.01533982,1.17459784
5e2e147d047efa000c6b833d,30,0,2024-02-27T12:28:43.945Z,french_280.wav,0,poule,702,36,5,2,English,m,0,0.0,-67.41100242,0.87165921
5e2e147d047efa000c6b833d,30,0,2024-02-27T12:28:43.945Z,french_280.wav,0,poule,702,36,5,2,English,m,1,0.1,-0.65291527,0.40210454
5e2e147d047efa000c6b833d,30,0,2024-02-27T12:28:43.945Z,french_280.wav,0,poule,702,36,5,2,English,m,2,0.2,-45.07946214,0.8560963
5e2e147d047efa000c6b833d,30,0,2024-02-27T12:28:43.945Z,french_280.wav,0,poule,702,36,5,2,English,m,3,0.25666667,-37.24252155,1.09108247
5e2e147d047efa000c6b833d,31,0,2024-02-27T12:28:43.945Z,french_359.wav,0,poule,491,36,5,2,English,m,0,0.0,4.86221528,1.66863127
5e2e147d047efa000c6b833d,31,0,2024-02-27T12:28:43.945Z,french_359.wav,0,poule,491,36,5,2,English,m,1,0.1,41.19609007,0.25992168
5e2e147d047efa000c6b833d,31,0,2024-02-27T12:28:43.945Z,french_359.wav,0,poule,491,36,5,2,English,m,2,0.2,55.98013436,1.95186144
5e2e147d047efa000c6b833d,31,0,2024-02-27T12:28:43.945Z,french_359.wav,0,poule,491,36,5,2,English,m,3,0.25666667,-59.88256532,1.64110453
5e2e147d047efa000c6b833d,32,0,2024-02-27T12:28:43.945Z,french_302.wav,0,poule,974,36,5,2,English,m,0,0.0,8.4067376,0.06791418
5e2e147d047efa000c6b833d,32,0,2024-02-27T12:28:43.945Z,french_302.wav,0,poule,974,36,5,2,English,m,1,0.1,-29.32780789,1.46578571
5e2e147d047efa000c6b833d,32,0,2024-02-27T12:28:43.945Z,french_302.wav,0,poule,974,36,5,2,English,m,2,0.2,-43.35590711,1.81098556
5e2e147d047efa000c6b833d,32,0,2024-02-27T12:28:43.945Z,french_302.wav,0,poule,974,36,5,2,English,m,3,0.25666667,-44.50549756,1.40235265
5e2e147d047efa000c6b833d,33,0,2024-02-27T12:28:43.945Z,french_720.wav,0,poule,585,36,5,2,English,m,0,0.0,-84.90658582,1.45299565
5e2e147d047efa000c6b833d,33,0,2024-02-27T12:28:43.945Z,french_720.wav,0,poule,585,36,5,2,English,m,1,0.1,42.34331668,1.58494494
5e2e147d047efa000c6b833d,33,0,2024-02-27T12:28:43.945Z,french_720.wav,0,poule,585,36,5,2,English,m,2,0.2,-51.84568825,1.67187292
5e2e147d047efa000c6b833d,33,0,2024-02-27T12:28:43.945Z,french_720.wav,0,poule,585,36,5,2,English,m,3,0.25666667,70.93496883,0.90000718
5e2e147d047efa000c6b833d,34,0,2024-02-27T12:28:43.945Z,french_95.wav,0,poule,508,36,5,2,English,m,0,0.0,35.71270194,1.05464779
5e2e147d047efa000c6b833d,34,0,2024-02-27T12:28:43.945Z,french_95.wav,0,poule,508,36,5,2,English,m,1,0.1,34.21637588,0.916907
5e2e147d047efa000c6b833d,34,0,2024-02-27T12:28:43.945Z,french_95.wav,0,poule,508,36,5,2,English,m,2,0.2,69.23850983,0.63861668
5e2e147d047efa000c6b833d,34,0,2024-02-27T12:28:43.945Z,french_95.wav,0,poule,508,36,5,2,English,m,3,0.25666667,-5.02213551,0.96363956
5e2e147d047efa000c6b833d,35,0,2024-02-27T12:28:43.945Z,french_81.wav,0,poule,639,36,5,2,English,m,0,0.0,43.03410676,0.84411959
5e2e147d047efa000c6b833d,35,0,2024-02-27T12:28:43.945Z,french_81.wav,0,poule,639,36,5,2,English,m,1,0.1,37.87573495,1.10924478
5e2e147d047efa000c6b833d,35,0,2024-02-27T12:28:43.945Z,french_81.wav,0,poule,639,36,5,2,English,m,2,0.2,-9.17332854,1.82652056
5e2e147d047efa000c6b833d,35,0,2024-02-27T12:28:43.945Z,french_81.wav,0,poule,639,36,5,2,English,m,3,0.25666667,10.13667473,1.52638082
5e2e147d047efa000c6b833d,36,0,2024-02-27T12:28:43.945Z,french_28.wav,0,pull,2776,36,5,2,English,m,0,0.0,-42.04092007,0.8096396
5e2e147d047efa000c6b833d,36,0,2024-02-27T12:28:43.945Z,french_28.wav,0,pull,2776,36,5,2,English,m,1,0.1,-47.89065573,0.68168646
5e2e147d047efa000c6b833d,36,0,2024-02-27T12:28:43.945Z,french_28.wav,0,pull,2776,36,5,2,English,m,2,0.2,88.67668081,0.86103635
5e2e147d047efa000c6b833d,36,0,2024-02-27T12:28:43.945Z,french_28.wav,0,pull,2776,36,5,2,English,m,3,0.25666667,23.25138011,1.13642067
5e2e147d047efa000c6b833d,37,0,2024-02-27T12:28:43.945Z,french_717.wav,0,pull,603,36,5,2,English,m,0,0.0,-84.32189387,1.00877352
5e2e147d047efa000c6b833d,37,0,2024-02-27T12:28:43.945Z,french_717.wav,0,pull,603,36,5,2,English,m,1,0.1,40.2374262,0.42603024
5e2e147d047efa000c6b833d,37,0,2024-02-27T12:28:43.945Z,french_717.wav,0,pull,603,36,5,2,English,m,2,0.2,80.19404777,0.00517131
5e2e147d047efa000c6b833d,37,0,2024-02-27T12:28:43.945Z,french_717.wav,0,pull,603,36,5,2,English,m,3,0.25666667,-31.07147466,1.19241547
5e2e147d047efa000c6b833d,38,0,2024-02-27T12:28:43.945Z,french_602.wav,0,poule,3504,36,5,2,English,m,0,0.0,88.5156033,1.15034926
5e2e147d047efa000c6b833d,38,0,2024-02-27T12:28:43.945Z,french_602.wav,0,poule,3504,36,5,2,English,m,1,0.1,50.37840389,0.70361943
5e2e147d047efa000c6b833d,38,0,2024-02-27T12:28:43.945Z,french_602.wav,0,poule,3504,36,5,2,English,m,2,0.2,41.99983627,1.85629911
5e2e147d047efa000c6b833d,38,0,2024-02-27T12:28:43.945Z,french_602.wav,0,poule,3504,36,5,2,English,m,3,0.25666667,11.33520808,0.32194213
5e2e147d047efa000c6b833d,39,0,2024-02-27T12:28:43.945Z,french_994.wav,0,poule,787,36,5,2,English,m,0,0.0,-39.66278541,0.39681658
5e2e147d047efa000c6b833d,39,0,2024-02-27T12:28:43.945Z,french_994.wav,0,poule,787,36,5,2,English,m,1,0.1,66.70535545,1.6498105
5e2e147d047efa000c6b833d,39,0,2024-02-27T12:28:43.945Z,french_994.wav,0,poule,787,36,5,2,English,m,2,0.2,-87.43703712,1.48803434
5e2e147d047efa000c6b833d,39,0,2024-02-27T12:28:43.945Z,french_994.wav,0,poule,787,36,5,2,English,m,3,0.25666667,-41.83233866,1.54058484
5e2e147d047efa000c6b833d,40,0,2024-02-27T12:28:43.945Z,french_911.wav,0,pull,1053,36,5,2,English,m,0,0.0,11.85203828,0.91676267
5e2e147d047efa000c6b833d,40,0,2024-02-27T12:28:43.945Z,french_911.wav,0,pull,1053,36,5,2,English,m,1,0.1,-24.36206963,0.3897793
5e2e147d047efa000c6b833d,40,0,2024-02-27T12:28:43.945Z,french_911.wav,0,pull,1053,36,5,2,English,m,2,0.2,-79.91713821,0.96594055
5e2e147d047efa000c6b833d,40,0,2024-02-27T12:28:43.945Z,french_911.wav,0,pull,1053,36,5,2,English,m,3,0.25666667,-65.93332008,1.97851167
5e2e147d047efa000c6b833d,41,0,2024-02-27T12:28:43.945Z,french_77.wav,0,poule,554,36,5,2,English,m,0,0.0,-38.97456477,1.51906971
5e2e147d047efa000c6b833d,41,0,2024-02-27T12:28:43.945Z,french_77.wav,0,poule,554,36,5,2,English,m,1,0.1,-27.77573133,1.43123518
5e2e147d047efa000c6b833d,41,0,2024-02-27T12:28:43.945Z,french_77.wav,0,poule,554,36,5,2,English,m,2,0.2,62.31685549,1.04030098
5e2e147d047efa000c6b833d,41,0,2024-02-27T12:28:43.945Z,french_77.wav,0,poule,554,36,5,2,English,m,3,0.25666667,13.7751853,1.45792424
5e2e147d047efa000c6b833d,42,0,2024-02-27T12:28:43.945Z,french_236.wav,0,poule,346,36,5,2,English,m,0,0.0,25.84118528,0.50094641
5e2e147d047efa000c6b833d,42,0,2024-02-27T12:28:43.945Z,french_236.wav,0,poule,346,36,5,2,English,m,1,0.1,-8.91572412,0.84977658
5e2e147d047efa000c6b833d,42,0,2024-02-27T12:28:43.945Z,french_236.wav,0,poule,346,36,5,2,English,m,2,0.2,11.24728016,1.88634356
5e2e147d047efa000c6b833d,42,0,2024-02-27T12:28:43.945Z,french_236.wav,0,poule,346,36,5,2,English,m,3,0.25666667,27.02911702,1.9832527
5e2e147d047efa000c6b833d,43,0,2024-02-27T12:28:43.945Z,french_204.wav,0,pull,2105,36,5,2,English,m,0,0.0,-28.36319627,0.07789368
5e2e147d047efa000c6b833d,43,0,2024-02-27T12:28:43.945Z,french_204.wav,0,pull,2105,36,5,2,English,m,1,0.1,-92.66891013,0.00203791
5e2e147d047efa000c6b833d,43,0,2024-02-27T12:28:43.945Z,french_204.wav,0,pull,2105,36,5,2,English,m,2,0.2,96.29592204,1.92374636
5e2e147d047efa000c6b833d,43,0,2024-02-27T12:28:43.945Z,french_204.wav,0,pull,2105,36,5,2,English,m,3,0.25666667,-46.81515004,0.97947469
5e2e147d047efa000c6b833d,44,0,2024-02-27T12:28:43.945Z,french_375.wav,0,poule,721,36,5,2,English,m,0,0.0,25.91972282,0.89929791
5e2e147d047efa000c6b833d,44,0,2024-02-27T12:28:43.945Z,french_375.wav,0,poule,721,36,5,2,English,m,1,0.1,-60.98407933,0.6101435
5e2e147d047efa000c6b833d,44,0,2024-02-27T12:28:43.945Z,french_375.wav,0,poule,721,36,5,2,English,m,2,0.2,-55.02276561,1.65353502
5e2e147d047efa000c6b833d,44,0,2024-02-27T12:28:43.945Z,french_375.wav,0,poule,721,36,5,2,English,m,3,0.25666667,50.70039074,0.66964756
5e2e147d047efa000c6b833d,45,0,2024-02-27T12:28:43.945Z,french_609.wav,0,pull,1035,36,5,2,English,m,0,0.0,11.6890167,1.75568789
5e2e147d047efa000c6b833d,45,0,2024-02-27T12:28:43.945Z,french_609.wav,0,pull,1035,36,5,2,English,m,1,0.1,-35.50971605,1.50542158
5e2e147d047efa000c6b833d,45,0,2024-02-27T12:28:43.945Z,french_609.wav,0,pull,1035,36,5,2,English,m,2,0.2,-98.47760025,0.96032408
5e2e147d047efa000c6b833d,45,0,2024-02-27T12:28:43.945Z,french_609.wav,0,pull,1035,36,5,2,English,m,3,0.25666667,-64.00925784,1.1186533
5e2e147d047efa000c6b833d,46,0,2024-02-27T12:28:43.945Z,french_827.wav,0,pull,1760,36,5,2,English,m,0,0.0,52.76736232,0.65431252
5e2e147d047efa000c6b833d,46,0,2024-02-27T12:28:43.945Z,french_827.wav,0,pull,1760,36,5,2,English,m,1,0.1,43.3684124,1.37281261
5e2e147d047efa000c6b833d,46,0,2024-02-27T12:28:43.945Z,french_827.wav,0,pull,1760,36,5,2,English,m,2,0.2,5.13351566,0.35708699
5e2e147d047efa000c6b833d,46,0,2024-02-27T12:28:43.945Z,french_827.wav,0,pull,1760,36,5,2,English,m,3,0.25666667,57.45570888,0.33493738
5e2e147d047efa000c6b833d,47,0,2024-02-27T12:28:43.945Z,french_511.wav,0,pull,773,36,5,2,English,m,0,0.0,-19.9871771,1.33271467
5e2e147d047efa000c6b833d,47,0,2024-02-27T12:28:43.945Z,french_511.wav,0,pull,773,36,5,2,English,m,1,0.1,-61.98813266,1.54343533
5e2e147d047efa000c6b833d,47,0,2024-02-27T12:28:43.945Z,french_511.wav,0,pull,773,36,5,2,English,m,2,0.2,-51.99144191,1.11888865
5e2e147d047efa000c6b833d,47,0,2024-02-27T12:28:43.945Z,french_511.wav,0,pull,773,36,5,2,English,m,3,0.25666667,26.5419494,1.56196296
5e2e147d047efa000c6b833d,48,0,2024-02-27T12:28:43.945Z,french_237.wav,0,pull,1593,36,5,2,English,m,0,0.0,-1.09426196,0.40664609
5e2e147d047efa000c6b833d,48,0,2024-02-27T12:28:43.945Z,french_237.wav,0,pull,1593,36,5,2,English,m,1,0.1,-48.49856075,0.23529618
5e2e147d047efa000c6b833d,48,0,2024-02-27T12:28:43.945Z,french_237.wav,0,pull,1593,36,5,2,English,m,2,0.2,36.42993093,0.05363011
5e2e147d047efa000c6b833d,48,0,2024-02-27T12:28:43.945Z,french_237.wav,0,pull,1593,36,5,2,English,m,3,0.25666667,-47.65767162,1.34950367
5e2e147d047efa000c6b833d,49,0,2024-02-27T12:28:43.945Z,french_779.wav,0,poule,1801,36,5,2,English,m,0,0.0,-23.73686582,0.65858767
5e2e147d047efa000c6b833d,49,0,2024-02-27T12:28:43.945Z,french_779.wav,0,poule,1801,36,5,2,English,m,1,0.1,96.23962081,1.55580865
5e2e147d047efa000c6b833d,49,0,2024-02-27T12:28:43.945Z,french_779.wav,0,poule,1801,36,5,2,English,m,2,0.2,19.26430851,1.22244229
5e2e147d047efa000c6b833d,49,0,2024-02-27T12:28:43.945Z,french_779.wav,0,poule,1801,36,5,2,English,m,3,0.25666667,-72.92378626,1.83333034
5e2e147d047efa000c6b833d,50,1,2024-02-27T12:28:43.945Z,french_857.wav,0,poule,1374,36,5,2,English,m,0,0.0,40.93487779,1.95936394
5e2e147d047efa000c6b833d,50,1,2024-02-27T12:28:43.945Z,french_857.wav,0,poule,1374,36,5,2,English,m,1,0.1,-17.75235864,1.43648621
5e2e147d047efa000c6b833d,50,1,2024-02-27T12:28:43.945Z,french_857.wav,0,poule,1374,36,5,2,English,m,2,0.2,39.31370365,1.12127335
5e2e147d047efa000c6b833d,50,1,2024-02-27T12:28:43.945Z,french_857.wav,0,poule,1374,36,5,2,English,m,3,0.25666667,-10.04228362,0.40363044
5e2e147d047efa000c6b833d,51,1,2024-02-27T12:28:43.945Z,french_968.wav,0,poule,1702,36,5,2,English,m,0,0.0,45.43845159,0.89884875
5e2e147d047efa000c6b833d,51,1,2024-02-27T12:28:43.945Z,french_968.wav,0,poule,1702,36,5,2,English,m,1,0.1,86.71618344,1.25950681
5e2e147d047efa000c6b833d,51,1,2024-02-27T12:28:43.945Z,french_968.wav,0,poule,1702,36,5,2,English,m,2,0.2,-29.06718199,0.29298434
5e2e147d047efa000c6b833d,51,1,2024-02-27T12:28:43.945Z,french_968.wav,0,poule,1702,36,5,2,English,m,3,0.25666667,11.394495,1.98021593
5e2e147d047efa000c6b833d,52,1,2024-02-27T12:28:43.945Z,french_432.wav,0,poule,1365,36,5,2,English,m,0,0.0,41.78718943,1.64767318
5e2e147d047efa000c6b833d,52,1,2024-02-27T12:28:43.945Z,french_432.wav,0,poule,1365,36,5,2,English,m,1,0.1,-73.8341876,1.66923601
5e2e147d047efa000c6b833d,52,1,2024-02-27T12:28:43.945Z,french_432.wav,0,poule,1365,36,5,2,English,m,2,0.2,2.46605077,1.63004177
5e2e147d047efa000c6b833d,52,1,2024-02-27T12:28:43.945Z,french_432.wav,0,poule,1365,36,5,2,English,m,3,0.25666667,-5.34058627,1.91522166
5e2e147d047efa000c6b833d,53,1,2024-02-27T12:28:43.945Z,french_144.wav,0,pull,1094,36,5,2,English,m,0,0.0,54.7439873,1.65699933
5e2e147d047efa000c6b833d,53,1,2024-02-27T12:28:43.945Z,french_144.wav,0,pull,1094,36,5,2,English,m,1,0.1,-90.40840953,0.10946834
5e2e147d047efa000c6b833d,53,1,2024-02-27T12:28:43.945Z,french_144.wav,0,pull,1094,36,5,2,English,m,2,0.2,-23.8496949,0.63660565
5e2e147d047efa000c6b833d,53,1,2024-02-27T12:28:43.945Z,french_144.wav,0,pull,1094,36,5,2,English,m,3,0.25666667,9.69074846,0.31092992
5e2e147d047efa000c6b833d,54,1,2024-02-27T12:28:43.945Z,french_745.wav,0,pull,494,36,5,2,English,m,0,0.0,-23.86566831,1.27696082
5e2e147d047efa000c6b833d,54,1,2024-02-27T12:28:43.945Z,french_745.wav,0,pull,494,36,5,2,English,m,1,0.1,-33.24912316,1.44075169
5e2e147d047efa000c6b833d,54,1,2024-02-27T12:28:43.945Z,french_745.wav,0,pull,494,36,5,2,English,m,2,0.2,45.69666298,0.50413087
5e2e147d047efa000c6b833d,54,1,2024-02-27T12:28:43.945Z,french_745.wav,0,pull,494,36,5,2,English,m,3,0.25666667,-83.60192647,0.37289443
5e2e147d047efa000c6b833d,55,1,2024-02-27T12:28:43.945Z,french_953.wav,0,pull,486,36,5,2,English,m,0,0.0,-27.22394829,1.27693125
5e2e147d047efa000c6b833d,55,1,2024-02-27T12:28:43.945Z,french_953.wav,0,pull,486,36,5,2,English,m,1,0.1,-3.36109764,0.12331262
5e2e147d047efa000c6b833d,55,1,2024-02-27T12:28:43.945Z,french_953.wav,0,pull,486,36,5,2,English,m,2,0.2,79.96390299,1.48485403
5e2e147d047efa000c6b833d,55,1,2024-02-27T12:28:43.945Z,french_953.wav,0,pull,486,36,5,2,English,m,3,0.25666667,-20.83871742,0.51230705
5e2e147d047efa000c6b833d,56,1,2024-02-27T12:28:43.945Z,french_661.wav,0,poule,489,36,5,2,English,m,0,0.0,34.1047988,1.29957539
5e2e147d047efa000c6b833d,56,1,2024-02-27T12:28:43.945Z,french_661.wav,0,poule,489,36,5,2,English,m,1,0.1,-45.42737183,0.81809843
5e2e147d047efa000c6b833d,56,1,2024-02-27T12:28:43.945Z,french_661.wav,0,poule,489,36,5,2,English,m,2,0.2,-32.96226792,1.39938296
5e2e147d047efa000c6b833d,56,1,2024-02-27T12:28:43.945Z,french_661.wav,0,poule,489,36,5,2,English,m,3,0.25666667,51.87575508,1.33634107
5e2e147d047efa000c6b833d,57,1,2024-02-27T12:28:43.945Z,french_46.wav,0,poule,1927,36,5,2,English,m,0,0.0,-59.72524318,1.59606806
5e2e147d047efa000c6b833d,57,1,2024-02-27T12:28:43.945Z,french_46.wav,0,poule,1927,36,5,2,English,m,1,0.1,-28.22082853,1.01173367
5e2e147d047efa000c6b833d,57,1,2024-02-27T12:28:43.945Z,french_46.wav,0,poule,1927,36,5,2,English,m,2,0.2,2.0739194,0.40164164
5e2e147d047efa000c6b833d,57,1,2024-02-27T12:28:43.945Z,french_46.wav,0,poule,1927,36,5,2,English,m,3,0.25666667,-12.25343829,1.6352238
5e2e147d047efa000c6b833d,58,1,2024-02-27T12:28:43.945Z,french_173.wav,0,poule,632,36,5,2,English,m,0,0.0,-85.34625679,1.0505287
5e2e147d047efa000c6b833d,58,1,2024-02-27T12:28:43.945Z,french_173.wav,0,poule,632,36,5,2,English,m,1,0.1,19.71799215,1.50206547
5e2e147d047efa000c6b833d,58,1,2024-02-27T12:28:43.945Z,french_173.wav,0,poule,632,36,5,2,English,m,2,0.2,-84.96079432,1.53807785
5e2e147d047efa000c6b833d,58,1,2024-02-27T12:28:43.945Z,french_173.wav,0,poule,632,36,5,2,English,m,3,0.25666667,-20.27996547,1.54027091
5e2e147d047efa000c6b833d,59,1,2024-02-27T12:28:43.945Z,french_772.wav,0,pull,1304,36,5,2,English,m,0,0.0,13.96800705,0.2991113
5e2e147d047efa000c6b833d,59,1,2024-02-27T12:28:43.945Z,french_772.wav,0,pull,1304,36,5,2,English,m,1,0.1,5.87945336,0.00189684
5e2e147d047efa000c6b833d,59,1,2024-02-27T12:28:43.945Z,french_772.wav,0,pull,1304,36,5,2,English,m,2,0.2,15.35769187,0.99190584
5e2e147d047efa000c6b833d,59,1,2024-02-27T12:28:43.945Z,french_772.wav,0,pull,1304,36,5,2,English,m,3,0.25666667,-12.22278281,1.49955539
5e2e147d047efa000c6b833d,60,1,2024-02-27T12:28:43.945Z,french_241.wav,0,pull,996,36,5,2,English,m,0,0.0,89.40240056,1.53101086
5e2e147d047efa000c6b833d,60,1,2024-02-27T12:28:43.945Z,french_241.wav,0,pull,996,36,5,2,English,m,1,0.1,40.19017079,0.22293869
5e2e147d047efa000c6b833d,60,1,2024-02-27T12:28:43.945Z,french_241.wav,0,pull,996,36,5,2,English,m,2,0.2,6.95264839,0.66477428
5e2e147d047efa000c6b833d,60,1,2024-02-27T12:28:43.945Z,french_241.wav,0,pull,996,36,5,2,English,m,3,0.25666667,60.0147698,1.1640228
5e2e147d047efa000c6b833d,61,1,2024-02-27T12:28:43.945Z,french_58.wav,0,pull,524,36,5,2,English,m,0,0.0,-93.60375949,1.5756198
5e2e147d047efa000c6b833d,61,1,2024-02-27T12:28:43.945Z,french_58.wav,0,pull,524,36,5,2,English,m,1,0.1,-58.1861341,0.16904688
5e2e147d047efa000c6b833d,61,1,2024-02-27T12:28:43.945Z,french_58.wav,0,pull,524,36,5,2,English,m,2,0.2,21.81225572,0.76612631
5e2e147d047efa000c6b833d,61,1,2024-02-27T12:28:43.945Z,french_58.wav,0,pull,524,36,5,2,English,m,3,0.25666667,-92.64730678,0.1809539
5e2e147d047efa000c6b833d,62,1,2024-02-27T12:28:43.945Z,french_740.wav,0,poule,745,36,5,2,English,m,0,0.0,-63.22643447,1.41698272
5e2e147d047efa000c6b833d,62,1,2024-02-27T12:28:43.945Z,french_740.wav,0,poule,745,36,5,2,English,m,1,0.1,-76.79793208,1.15791198
5e2e147d047efa000c6b833d,62,1,2024-02-27T12:28:43.945Z,french_740.wav,0,poule,745,36,5,2,English,m,2,0.2,-90.89358737,1.97460827
5e2e147d047efa000c6b833d,62,1,2024-02-27T12:28:43.945Z,french_740.wav,0,poule,745,36,5,2,English,m,3,0.25666667,-87.57687491,0.61281255
5e2e147d047efa000c6b833d,63,1,2024-02-27T12:28:43.945Z,french_763.wav,0,poule,496,36,5,2,English,m,0,0.0,-96.72958763,0.69845728
5e2e147d047efa000c6b833d,63,1,2024-02-27T12:28:43.945Z,french_763.wav,0,poule,496,36,5,2,English,m,1,0.1,95.66434095,1.4089076
5e2e147d047efa000c6b833d,63,1,2024-02-27T12:28:43.945Z,french_763.wav,0,poule,496,36,5,2,English,m,2,0.2,-84.28875962,1.74428554
5e2e147d047efa000c6b833d,63,1,2024-02-27T12:28:43.945Z,french_763.wav,0,poule,496,36,5,2,English,m,3,0.25666667,-41.37848175,0.12054272
5e2e147d047efa000c6b833d,64,1,2024-02-27T12:28:43.945Z,french_341.wav,0,pull,927,36,5,2,English,m,0,0.0,20.04332725,1.4438644
5e2e147d047efa000c6b833d,64,1,2024-02-27T12:28:43.945Z,french_341.wav,0,pull,927,36,5,2,English,m,1,0.1,-82.29685822,0.08336385
5e2e147d047efa000c6b833d,64,1,2024-02-27T12:28:43.945Z,french_341.wav,0,pull,927,36,5,2,English,m,2,0.2,-35.12302466,0.04329086
5e2e147d047efa000c6b833d,64,1,2024-02-27T12:28:43.945Z,french_341.wav,0,pull,927,36,5,2,English,m,3,0.25666667,58.90486556,0.76896482
5e2e147d047efa000c6b833d,65,1,2024-02-27T12:28:43.945Z,french_922.wav,0,pull,1613,36,5,2,English,m,0,0.0,16.31592569,1.06783245
5e2e147d047efa000c6b833d,65,1,2024-02-27T12:28:43.945Z,french_922.wav,0,pull,1613,36,5,2,English,m,1,0.1,-2.28258737,0.48563761
5e2e147d047efa000c6b833d,65,1,2024-02-27T12:28:43.945Z,french_922.wav,0,pull,1613,36,5,2,English,m,2,0.2,-89.56675227,1.02625397
5e2e147d047efa000c6b833d,65,1,2024-02-27T12:28:43.945Z,french_922.wav,0,pull,1613,36,5,2,English,m,3,0.25666667,35.85711901,0.82092749
5e2e147d047efa000c6b833d,66,1,2024-02-27T12:28:43.945Z,french_730.wav,0,pull,2338,36,5,2,English,m,0,0.0,45.92676741,0.18014666
5e2e147d047efa000c6b833d,66,1,2024-02-27T12:28:43.945Z,french_730.wav,0,pull,2338,36,5,2,English,m,1,0.1,-44.36449205,1.39371349
5e2e147d047efa000c6b833d,66,1,2024-02-27T12:28:43.945Z,french_730.wav,0,pull,2338,36,5,2,English,m,2,0.2,-0.92451291,1.11032992
5e2e147d047efa000c6b833d,66,1,2024-02-27T12:28:43.945Z,french_730.wav,0,pull,2338,36,5,2,English,m,3,0.25666667,30.80646356,1.142585
5e2e147d047efa000c6b833d,67,1,2024-02-27T12:28:43.945Z,french_60.wav,0,poule,1352,36,5,2,English,m,0,0.0,-40.9463495,0.32779355
5e2e147d047efa000c6b833d,67,1,2024-02-27T12:28:43.945Z,french_60.wav,0,poule,1352,36,5,2,English,m,1,0.1,8.65325309,0.55656076
5e2e147d047efa000c6b833d,67,1,2024-02-27T12:28:43.945Z,french_60.wav,0,poule,1352,36,5,2,English,m,2,0.2,-18.23980249,0.81322525
5e2e147d047efa000c6b833d,67,1,2024-02-27T12:28:43.945Z,french_60.wav,0,poule,1352,36,5,2,English,m,3,0.25666667,-34.79014982,0.57120985
5e2e147d047efa000c6b833d,68,1,2024-02-27T12:28:43.945Z,french_2.wav,0,poule,939,36,5,2,English,m,0,0.0,-28.21412584,1.58504822
5e2e147d047efa000c6b833d,68,1,2024-02-27T12:28:43.945Z,french_2.wav,0,poule,939,36,5,2,English,m,1,0.1,66.62162467,1.83034999
5e2e147d047efa000c6b833d,68,1,2024-02-27T12:28:43.945Z,french_2.wav,0,poule,939,36,5,2,English,m,2,0.2,16.24659996,0.31217517
5e2e147d047efa000c6b833d,68,1,2024-02-27T12:28:43.945Z,french_2.wav,0,poule,939,36,5,2,English,m,3,0.25666667,-46.42897327,1.81400659
5e2e147d047efa000c6b833d,69,1,2024-02-27T12:28:43.945Z,french_315.wav,0,pull,1100,36,5,2,English,m,0,0.0,84.5751695,1.39276289
5e2e147d047efa000c6b833d,69,1,2024-02-27T12:28:43.945Z,french_315.wav,0,pull,1100,36,5,2,English,m,1,0.1,-54.9339599,0.42909402
5e2e147d047efa000c6b833d,69,1,2024-02-27T12:28:43.945Z,french_315.wav,0,pull,1100,36,5,2,English,m,2,0.2,-20.4659381,1.80166787
5e2e147d047efa000c6b833d,69,1,2024-02-27T12:28:43.945Z,french_315.wav,0,pull,1100,36,5,2,English,m,3,0.256666667,0.0497627412,1.01422067
5e2e147d047efa000c6b833d,70,1,2024-02-27T12:28:43.945Z,french_417.wav,0,poule,770,36,5,2,English,m,0,0.0,-52.68130191,1.49469738
5e2e147d047efa000c6b833d,70,1,2024-02-27T12:28:43.945Z,french_417.wav,0,poule,770,36,5,2,English,m,1,0.1,73.91368418,1.06358835
5e2e147d047efa000c6b833d,70,1,2024-02-27T12:28:43.945Z,french_417.wav,0,poule,770,36,5,2,English,m,2,0.2,7.73324389,1.12421265
5e2e147d047efa000c6b833d,70,1,2024-02-27T12:28:43.945Z,french_417.wav,0,poule,770,36,5,2,English,m,3,0.25666667,92.88066518,0.65436219
5e2e147d047efa000c6b833d,71,1,2024-02-27T12:28:43.945Z,french_183.wav,0,poule,2454,36,5,2,English,m,0,0.0,-70.39448934,1.64690622
5e2e147d047efa000c6b833d,71,1,2024-02-27T12:28:43.945Z,french_183.wav,0,poule,2454,36,5,2,English,m,1,0.1,53.65669982,0.19500459
5e2e147d047efa000c6b833d,71,1,2024-02-27T12:28:43.945Z,french_183.wav,0,poule,2454,36,5,2,English,m,2,0.2,-2.56135136,1.70333754
5e2e147d047efa000c6b833d,71,1,2024-02-27T12:28:43.945Z,french_183.wav,0,poule,2454,36,5,2,English,m,3,0.25666667,49.12124255,0.71175446
5e2e147d047efa000c6b833d,72,1,2024-02-27T12:28:43.945Z,french_260.wav,0,poule,509,36,5,2,English,m,0,0.0,-3.22947754,0.22766361
5e2e147d047efa000c6b833d,72,1,2024-02-27T12:28:43.945Z,french_260.wav,0,poule,509,36,5,2,English,m,1,0.1,-16.22535722,1.16747398
5e2e147d047efa000c6b833d,72,1,2024-02-27T12:28:43.945Z,french_260.wav,0,poule,509,36,5,2,English,m,2,0.2,-91.54207183,1.39667181
5e2e147d047efa000c6b833d,72,1,2024-02-27T12:28:43.945Z,french_260.wav,0,poule,509,36,5,2,English,m,3,0.25666667,-55.70642268,1.03484551
5e2e147d047efa000c6b833d,73,1,2024-02-27T12:28:43.945Z,french_806.wav,0,poule,507,36,5,2,English,m,0,0.0,97.26957313,1.48673004
5e2e147d047efa000c6b833d,73,1,2024-02-27T12:28:43.945Z,french_806.wav,0,poule,507,36,5,2,English,m,1,0.1,79.44562669,1.9967546
5e2e147d047efa000c6b833d,73,1,2024-02-27T12:28:43.945Z,french_806.wav,0,poule,507,36,5,2,English,m,2,0.2,79.77586719,0.9238106
5e2e147d047efa000c6b833d,73,1,2024-02-27T12:28:43.945Z,french_806.wav,0,poule,507,36,5,2,English,m,3,0.25666667,-46.2684083,1.39755131
5e2e147d047efa000c6b833d,74,1,2024-02-27T12:28:43.945Z,french_174.wav,0,poule,2344,36,5,2,English,m,0,0.0,1.45674265,0.26044346
5e2e147d047efa000c6b833d,74,1,2024-02-27T12:28:43.945Z,french_174.wav,0,poule,2344,36,5,2,English,m,1,0.1,47.27057229,1.87217745
5e2e147d047efa000c6b833d,74,1,2024-02-27T12:28:43.945Z,french_174.wav,0,poule,2344,36,5,2,English,m,2,0.2,-41.5239841,1.40485436
5e2e147d047efa000c6b833d,74,1,2024-02-27T12:28:43.945Z,french_174.wav,0,poule,2344,36,5,2,English,m,3,0.25666667,32.3517821,1.2389409
5e2e147d047efa000c6b833d,75,1,2024-02-27T12:28:43.945Z,french_141.wav,0,pull,908,36,5,2,English,m,0,0.0,88.60100695,0.97838459
5e2e147d047efa000c6b833d,75,1,2024-02-27T12:28:43.945Z,french_141.wav,0,pull,908,36,5,2,English,m,1,0.1,68.96819773,1.47503319
5e2e147d047efa000c6b833d,75,1,2024-02-27T12:28:43.945Z,french_141.wav,0,pull,908,36,5,2,English,m,2,0.2,1.7368606,1.40537453
5e2e147d047efa000c6b833d,75,1,2024-02-27T12:28:43.945Z,french_141.wav,0,pull,908,36,5,2,English,m,3,0.25666667,19.36556264,0.305772
5e2e147d047efa000c6b833d,76,1,2024-02-27T12:28:43.945Z,french_212.wav,0,pull,2427,36,5,2,English,m,0,0.0,-65.85125812,0.99084671
5e2e147d047efa000c6b833d,76,1,2024-02-27T12:28:43.945Z,french_212.wav,0,pull,2427,36,5,2,English,m,1,0.1,4.72891676,1.71951251
5e2e147d047efa000c6b833d,76,1,2024-02-27T12:28:43.945Z,french_212.wav,0,pull,2427,36,5,2,English,m,2,0.2,52.80654505,1.56745001
5e2e147d047efa000c6b833d,76,1,2024-02-27T12:28:43.945Z,french_212.wav,0,pull,2427,36,5,2,English,m,3,0.25666667,75.91927134,1.70119676
5e2e147d047efa000c6b833d,77,1,2024-02-27T12:28:43.945Z,french_743.wav,0,poule,1263,36,5,2,English,m,0,0.0,-33.29442342,0.17876133
5e2e147d047efa000c6b833d,77,1,2024-02-27T12:28:43.945Z,french_743.wav,0,poule,1263,36,5,2,English,m,1,0.1,66.78729562,1.55990879
5e2e147d047efa000c6b833d,77,1,2024-02-27T12:28:43.945Z,french_743.wav,0,poule,1263,36,5,2,English,m,2,0.2,-0.09457626,1.00824872
5e2e147d047efa000c6b833d,77,1,2024-02-27T12:28:43.945Z,french_743.wav,0,poule,1263,36,5,2,English,m,3,0.25666667,-6.43111547,1.50563658
5e2e147d047efa000c6b833d,78,1,2024-02-27T12:28:43.945Z,french_642.wav,0,pull,643,36,5,2,English,m,0,0.0,94.74505174,1.94145252
5e2e147d047efa000c6b833d,78,1,2024-02-27T12:28:43.945Z,french_642.wav,0,pull,643,36,5,2,English,m,1,0.1,-41.90916732,1.43327494
5e2e147d047efa000c6b833d,78,1,2024-02-27T12:28:43.945Z,french_642.wav,0,pull,643,36,5,2,English,m,2,0.2,-70.07976965,0.59817774
5e2e147d047efa000c6b833d,78,1,2024-02-27T12:28:43.945Z,french_642.wav,0,pull,643,36,5,2,English,m,3,0.25666667,42.72168091,1.11755549
5e2e147d047efa000c6b833d,79,1,2024-02-27T12:28:43.945Z,french_125.wav,0,poule,1259,36,5,2,English,m,0,0.0,-5.4163583,1.55997732
5e2e147d047efa000c6b833d,79,1,2024-02-27T12:28:43.945Z,french_125.wav,0,poule,1259,36,5,2,English,m,1,0.1,-78.82020266,1.46538696
5e2e147d047efa000c6b833d,79,1,2024-02-27T12:28:43.945Z,french_125.wav,0,poule,1259,36,5,2,English,m,2,0.2,7.21605105,1.19887704
5e2e147d047efa000c6b833d,79,1,2024-02-27T12:28:43.945Z,french_125.wav,0,poule,1259,36,5,2,English,m,3,0.25666667,-41.55982592,1.01520467
5e2e147d047efa000c6b833d,80,1,2024-02-27T12:28:43.945Z,french_256.wav,0,poule,580,36,5,2,English,m,0,0.0,34.00641445,1.19838094
5e2e147d047efa000c6b833d,80,1,2024-02-27T12:28:43.945Z,french_256.wav,0,poule,580,36,5,2,English,m,1,0.1,78.12380502,0.9412232
5e2e147d047efa000c6b833d,80,1,2024-02-27T12:28:43.945Z,french_256.wav,0,poule,580,36,5,2,English,m,2,0.2,84.97245465,1.34630265
5e2e147d047efa000c6b833d,80,1,2024-02-27T12:28:43.945Z,french_256.wav,0,poule,580,36,5,2,English,m,3,0.25666667,29.4187394,1.86077871
5e2e147d047efa000c6b833d,81,1,2024-02-27T12:28:43.945Z,french_562.wav,0,poule,529,36,5,2,English,m,0,0.0,12.26814589,1.17834032
5e2e147d047efa000c6b833d,81,1,2024-02-27T12:28:43.945Z,french_562.wav,0,poule,529,36,5,2,English,m,1,0.1,-17.58329492,1.15702499
5e2e147d047efa000c6b833d,81,1,2024-02-27T12:28:43.945Z,french_562.wav,0,poule,529,36,5,2,English,m,2,0.2,-20.00100575,1.2863232
5e2e147d047efa000c6b833d,81,1,2024-02-27T12:28:43.945Z,french_562.wav,0,poule,529,36,5,2,English,m,3,0.25666667,-50.75971007,0.02470224
5e2e147d047efa000c6b833d,82,1,2024-02-27T12:28:43.945Z,french_867.wav,0,poule,857,36,5,2,English,m,0,0.0,-56.83459408,0.56298114
5e2e147d047efa000c6b833d,82,1,2024-02-27T12:28:43.945Z,french_867.wav,0,poule,857,36,5,2,English,m,1,0.1,-43.30462201,1.09173708
5e2e147d047efa000c6b833d,82,1,2024-02-27T12:28:43.945Z,french_867.wav,0,poule,857,36,5,2,English,m,2,0.2,-57.08778715,1.10722732
5e2e147d047efa000c6b833d,82,1,2024-02-27T12:28:43.945Z,french_867.wav,0,poule,857,36,5,2,English,m,3,0.25666667,26.25433727,0.48299304
5e2e147d047efa000c6b833d,83,1,2024-02-27T12:28:43.945Z,french_351.wav,0,pull,510,36,5,2,English,m,0,0.0,-22.87012194,0.67033139
5e2e147d047efa000c6b833d,83,1,2024-02-27T12:28:43.945Z,french_351.wav,0,pull,510,36,5,2,English,m,1,0.1,10.68995272,0.80045466
5e2e147d047efa000c6b833d,83,1,2024-02-27T12:28:43.945Z,french_351.wav,0,pull,510,36,5,2,English,m,2,0.2,60.8101445,0.88778875
5e2e147d047efa000c6b833d,83,1,2024-02-27T12:28:43.945Z,french_351.wav,0,pull,510,36,5,2,English,m,3,0.25666667,32.12752515,0.26390259
5e2e147d047efa000c6b833d,84,1,2024-02-27T12:28:43.945Z,french_798.wav,0,poule,1076,36,5,2,English,m,0,0.0,80.80013175,1.56222047
5e2e147d047efa000c6b833d,84,1,2024-02-27T12:28:43.945Z,french_798.wav,0,poule,1076,36,5,2,English,m,1,0.1,8.18850232,1.67765441
5e2e147d047efa000c6b833d,84,1,2024-02-27T12:28:43.945Z,french_798.wav,0,poule,1076,36,5,2,English,m,2,0.2,-10.54144101,1.93747014
5e2e147d047efa000c6b833d,84,1,2024-02-27T12:28:43.945Z,french_798.wav,0,poule,1076,36,5,2,English,m,3,0.25666667,26.86908184,1.76378238
5e2e147d047efa000c6b833d,85,1,2024-02-27T12:28:43.945Z,french_635.wav,0,poule,457,36,5,2,English,m,0,0.0,33.90344979,1.89496442
5e2e147d047efa000c6b833d,85,1,2024-02-27T12:28:43.945Z,french_635.wav,0,poule,457,36,5,2,English,m,1,0.1,-75.47627702,0.79794333
5e2e147d047efa000c6b833d,85,1,2024-02-27T12:28:43.945Z,french_635.wav,0,poule,457,36,5,2,English,m,2,0.2,49.7914685,1.70645199
5e2e147d047efa000c6b833d,85,1,2024-02-27T12:28:43.945Z,french_635.wav,0,poule,457,36,5,2,English,m,3,0.25666667,43.41419086,1.41022612
5e2e147d047efa000c6b833d,86,1,2024-02-27T12:28:43.945Z,french_364.wav,0,poule,362,36,5,2,English,m,0,0.0,-32.92421433,1.35253812
5e2e147d047efa000c6b833d,86,1,2024-02-27T12:28:43.945Z,french_364.wav,0,poule,362,36,5,2,English,m,1,0.1,-56.96078069,1.83722727
5e2e147d047efa000c6b833d,86,1,2024-02-27T12:28:43.945Z,french_364.wav,0,poule,362,36,5,2,English,m,2,0.2,44.72635853,1.43933089
5e2e147d047efa000c6b833d,86,1,2024-02-27T12:28:43.945Z,french_364.wav,0,poule,362,36,5,2,English,m,3,0.25666667,23.55157996,1.1354083
5e2e147d047efa000c6b833d,87,1,2024-02-27T12:28:43.945Z,french_343.wav,0,poule,477,36,5,2,English,m,0,0.0,-21.71261116,1.74552957
5e2e147d047efa000c6b833d,87,1,2024-02-27T12:28:43.945Z,french_343.wav,0,poule,477,36,5,2,English,m,1,0.1,63.21036052,1.86769095
5e2e147d047efa000c6b833d,87,1,2024-02-27T12:28:43.945Z,french_343.wav,0,poule,477,36,5,2,English,m,2,0.2,-29.86802649,0.55355845
5e2e147d047efa000c6b833d,87,1,2024-02-27T12:28:43.945Z,french_343.wav,0,poule,477,36,5,2,English,m,3,0.25666667,57.96835755,1.24725328
5e2e147d047efa000c6b833d,88,1,2024-02-27T12:28:43.945Z,french_887.wav,0,poule,1475,36,5,2,English,m,0,0.0,68.65167503,1.16380924
5e2e147d047efa000c6b833d,88,1,2024-02-27T12:28:43.945Z,french_887.wav,0,poule,1475,36,5,2,English,m,1,0.1,-55.72044546,1.74073633
5e2e147d047efa000c6b833d,88,1,2024-02-27T12:28:43.945Z,french_887.wav,0,poule,1475,36,5,2,English,m,2,0.2,-97.59121662,1.00138394
5e2e147d047efa000c6b833d,88,1,2024-02-27T12:28:43.945Z,french_887.wav,0,poule,1475,36,5,2,English,m,3,0.25666667,-40.12897823,1.21780512
5e2e147d047efa000c6b833d,89,1,2024-02-27T12:28:43.945Z,french_164.wav,0,pull,1372,36,5,2,English,m,0,0.0,-18.17175111,1.54231832
5e2e147d047efa000c6b833d,89,1,2024-02-27T12:28:43.945Z,french_164.wav,0,pull,1372,36,5,2,English,m,1,0.1,76.91542059,0.85273823
5e2e147d047efa000c6b833d,89,1,2024-02-27T12:28:43.945Z,french_164.wav,0,pull,1372,36,5,2,English,m,2,0.2,-44.02896165,1.08595521
5e2e147d047efa000c6b833d,89,1,2024-02-27T12:28:43.945Z,french_164.wav,0,pull,1372,36,5,2,English,m,3,0.25666667,-52.20678857,1.30612675
5e2e147d047efa000c6b833d,90,1,2024-02-27T12:28:43.945Z,french_808.wav,0,poule,971,36,5,2,English,m,0,0.0,-62.09526538,1.28254738
5e2e147d047efa000c6b833d,90,1,2024-02-27T12:28:43.945Z,french_808.wav,0,poule,971,36,5,2,English,m,1,0.1,21.23234707,0.50843795
5e2e147d047efa000c6b833d,90,1,2024-02-27T12:28:43.945Z,french_808.wav,0,poule,971,36,5,2,English,m,2,0.2,-93.15759374,0.88416038
5e2e147d047efa000c6b833d,90,1,2024-02-27T12:28:43.945Z,french_808.wav,0,poule,971,36,5,2,English,m,3,0.25666667,-35.4638748,1.60061847
5e2e147d047efa000c6b833d,91,1,2024-02-27T12:28:43.945Z,french_96.wav,0,poule,1507,36,5,2,English,m,0,0.0,-35.67204937,1.29614461
5e2e147d047efa000c6b833d,91,1,2024-02-27T12:28:43.945Z,french_96.wav,0,poule,1507,36,5,2,English,m,1,0.1,-14.5967046,0.74963508
5e2e147d047efa000c6b833d,91,1,2024-02-27T12:28:43.945Z,french_96.wav,0,poule,1507,36,5,2,English,m,2,0.2,23.77171322,0.96397917
5e2e147d047efa000c6b833d,91,1,2024-02-27T12:28:43.945Z,french_96.wav,0,poule,1507,36,5,2,English,m,3,0.25666667,-43.45086892,0.69619931
5e2e147d047efa000c6b833d,92,1,2024-02-27T12:28:43.945Z,french_898.wav,0,pull,2451,36,5,2,English,m,0,0.0,-10.33405821,1.53220968
5e2e147d047efa000c6b833d,92,1,2024-02-27T12:28:43.945Z,french_898.wav,0,pull,2451,36,5,2,English,m,1,0.1,56.62547765,1.11219982
5e2e147d047efa000c6b833d,92,1,2024-02-27T12:28:43.945Z,french_898.wav,0,pull,2451,36,5,2,English,m,2,0.2,26.06756425,1.10520568
5e2e147d047efa000c6b833d,92,1,2024-02-27T12:28:43.945Z,french_898.wav,0,pull,2451,36,5,2,English,m,3,0.25666667,61.22858123,0.66903516
5e2e147d047efa000c6b833d,93,1,2024-02-27T12:28:43.945Z,french_721.wav,0,poule,2028,36,5,2,English,m,0,0.0,83.32262744,0.77898197
5e2e147d047efa000c6b833d,93,1,2024-02-27T12:28:43.945Z,french_721.wav,0,poule,2028,36,5,2,English,m,1,0.1,53.43911967,1.2749748
5e2e147d047efa000c6b833d,93,1,2024-02-27T12:28:43.945Z,french_721.wav,0,poule,2028,36,5,2,English,m,2,0.2,45.88272958,1.13618558
5e2e147d047efa000c6b833d,93,1,2024-02-27T12:28:43.945Z,french_721.wav,0,poule,2028,36,5,2,English,m,3,0.25666667,34.59804534,1.96642304
5e2e147d047efa000c6b833d,94,1,2024-02-27T12:28:43.945Z,french_572.wav,0,pull,919,36,5,2,English,m,0,0.0,39.88309013,1.43577141
5e2e147d047efa000c6b833d,94,1,2024-02-27T12:28:43.945Z,french_572.wav,0,pull,919,36,5,2,English,m,1,0.1,-96.79862589,0.70754044
5e2e147d047efa000c6b833d,94,1,2024-02-27T12:28:43.945Z,french_572.wav,0,pull,919,36,5,2,English,m,2,0.2,-22.12237888,0.13254452
5e2e147d047efa000c6b833d,94,1,2024-02-27T12:28:43.945Z,french_572.wav,0,pull,919,36,5,2,English,m,3,0.25666667,-29.01009828,0.2743676
5e2e147d047efa000c6b833d,95,1,2024-02-27T12:28:43.945Z,french_429.wav,0,poule,613,36,5,2,English,m,0,0.0,-86.61428582,0.48550144
5e2e147d047efa000c6b833d,95,1,2024-02-27T12:28:43.945Z,french_429.wav,0,poule,613,36,5,2,English,m,1,0.1,-42.15720505,1.43221201
5e2e147d047efa000c6b833d,95,1,2024-02-27T12:28:43.945Z,french_429.wav,0,poule,613,36,5,2,English,m,2,0.2,57.81850322,1.77393014
5e2e147d047efa000c6b833d,95,1,2024-02-27T12:28:43.945Z,french_429.wav,0,poule,613,36,5,2,English,m,3,0.25666667,56.8864302,0.85506946
5e2e147d047efa000c6b833d,96,1,2024-02-27T12:28:43.945Z,french_184.wav,0,poule,553,36,5,2,English,m,0,0.0,48.36861498,1.86119552
5e2e147d047efa000c6b833d,96,1,2024-02-27T12:28:43.945Z,french_184.wav,0,poule,553,36,5,2,English,m,1,0.1,-2.94347193,0.96576449
5e2e147d047efa000c6b833d,96,1,2024-02-27T12:28:43.945Z,french_184.wav,0,poule,553,36,5,2,English,m,2,0.2,-52.00472355,1.69315982
5e2e147d047efa000c6b833d,96,1,2024-02-27T12:28:43.945Z,french_184.wav,0,poule,553,36,5,2,English,m,3,0.25666667,-36.80137507,0.52689434
5e2e147d047efa000c6b833d,97,1,2024-02-27T12:28:43.945Z,french_380.wav,0,poule,654,36,5,2,English,m,0,0.0,24.49292531,0.14533116
5e2e147d047efa000c6b833d,97,1,2024-02-27T12:28:43.945Z,french_380.wav,0,poule,654,36,5,2,English,m,1,0.1,-93.89933718,1.07880785
5e2e147d047efa000c6b833d,97,1,2024-02-27T12:28:43.945Z,french_380.wav,0,poule,654,36,5,2,English,m,2,0.2,-85.93529796,1.01737492
5e2e147d047efa000c6b833d,97,1,2024-02-27T12:28:43.945Z,french_380.wav,0,poule,654,36,5,2,English,m,3,0.25666667,58.85582409,1.87499145
5e2e147d047efa000c6b833d,98,1,2024-02-27T12:28:43.945Z,french_966.wav,0,pull,704,36,5,2,English,m,0,0.0,94.80811126,1.26057873
5e2e147d047efa000c6b833d,98,1,2024-02-27T12:28:43.945Z,french_966.wav,0,pull,704,36,5,2,English,m,1,0.1,-90.73743651,1.58996588
5e2e147d047efa000c6b833d,98,1,2024-02-27T12:28:43.945Z,french_966.wav,0,pull,704,36,5,2,English,m,2,0.2,94.60686235,0.08752829
5e2e147d047efa000c6b833d,98,1,2024-02-27T12:28:43.945Z,french_966.wav,0,pull,704,36,5,2,English,m,3,0.25666667,-83.76406221,0.32239013
5e2e147d047efa000c6b833d,99,1,2024-02-27T12:28:43.945Z,french_402.wav,0,pull,346,36,5,2,English,m,0,0.0,-15.06976312,1.40090564
5e2e147d047efa000c6b833d,99,1,2024-02-27T12:28:43.945Z,french_402.wav,0,pull,346,36,5,2,English,m,1,0.1,-35.17937665,1.12974732
5e2e147d047efa000c6b833d,99,1,2024-02-27T12:28:43.945Z,french_402.wav,0,pull,346,36,5,2,English,m,2,0.2,-39.80354227,1.04756912
5e2e147d047efa000c6b833d,99,1,2024-02-27T12:28:43.945Z,french_402.wav,0,pull,346,36,5,2,English,m,3,0.25666667,-27.78014644,0.16748103
5e2e147d047efa000c6b833d,100,2,2024-02-27T12:28:43.945Z,french_439.wav,0,pull,515,36,5,2,English,m,0,0.0,66.25011988,1.00096297
5e2e147d047efa000c6b833d,100,2,2024-02-27T12:28:43.945Z,french_439.wav,0,pull,515,36,5,2,English,m,1,0.1,46.32034445,0.12322103
5e2e147d047efa000c6b833d,100,2,2024-02-27T12:28:43.945Z,french_439.wav,0,pull,515,36,5,2,English,m,2,0.2,38.26264731,1.5814324
5e2e147d047efa000c6b833d,100,2,2024-02-27T12:28:43.945Z,french_439.wav,0,pull,515,36,5,2,English,m,3,0.25666667,-42.53278778,0.06125751
5e2e147d047efa000c6b833d,101,2,2024-02-27T12:28:43.945Z,french_145.wav,0,pull,477,36,5,2,English,m,0,0.0,45.95226671,0.38136586
5e2e147d047efa000c6b833d,101,2,2024-02-27T12:28:43.945Z,french_145.wav,0,pull,477,36,5,2,English,m,1,0.1,-66.66601381,1.38589502
5e2e147d047efa000c6b833d,101,2,2024-02-27T12:28:43.945Z,french_145.wav,0,pull,477,36,5,2,English,m,2,0.2,-89.77596615,0.43712509
5e2e147d047efa000c6b833d,101,2,2024-02-27T12:28:43.945Z,french_145.wav,0,pull,477,36,5,2,English,m,3,0.25666667,8.03115864,1.92826262
5e2e147d047efa000c6b833d,102,2,2024-02-27T12:28:43.945Z,french_377.wav,0,poule,705,36,5,2,English,m,0,0.0,99.29202042,1.14982617
5e2e147d047efa000c6b833d,102,2,2024-02-27T12:28:43.945Z,french_377.wav,0,poule,705,36,5,2,English,m,1,0.1,26.86177352,1.68513437
5e2e147d047efa000c6b833d,102,2,2024-02-27T12:28:43.945Z,french_377.wav,0,poule,705,36,5,2,English,m,2,0.2,-57.22110681,0.38363532
5e2e147d047efa000c6b833d,102,2,2024-02-27T12:28:43.945Z,french_377.wav,0,poule,705,36,5,2,English,m,3,0.25666667,67.5545455,0.68728301
5e2e147d047efa000c6b833d,103,2,2024-02-27T12:28:43.945Z,french_249.wav,0,pull,883,36,5,2,English,m,0,0.0,-14.62389142,0.54824935
5e2e147d047efa000c6b833d,103,2,2024-02-27T12:28:43.945Z,french_249.wav,0,pull,883,36,5,2,English,m,1,0.1,82.35169727,0.81625332
5e2e147d047efa000c6b833d,103,2,2024-02-27T12:28:43.945Z,french_249.wav,0,pull,883,36,5,2,English,m,2,0.2,-37.79288698,0.28914805
5e2e147d047efa000c6b833d,103,2,2024-02-27T12:28:43.945Z,french_249.wav,0,pull,883,36,5,2,English,m,3,0.25666667,-94.5306765,0.43241605
5e2e147d047efa000c6b833d,104,2,2024-02-27T12:28:43.945Z,french_559.wav,0,poule,1624,36,5,2,English,m,0,0.0,64.66028359,0.94999591
5e2e147d047efa000c6b833d,104,2,2024-02-27T12:28:43.945Z,french_559.wav,0,poule,1624,36,5,2,English,m,1,0.1,-43.2680873,1.38482691
5e2e147d047efa000c6b833d,104,2,2024-02-27T12:28:43.945Z,french_559.wav,0,poule,1624,36,5,2,English,m,2,0.2,-64.36892284,1.27938883
5e2e147d047efa000c6b833d,104,2,2024-02-27T12:28:43.945Z,french_559.wav,0,poule,1624,36,5,2,English,m,3,0.25666667,44.10109235,0.16591499
5e2e147d047efa000c6b833d,105,2,2024-02-27T12:28:43.945Z,french_791.wav,0,pull,583,36,5,2,English,m,0,0.0,-81.64215326,0.09493453
5e2e147d047efa000c6b833d,105,2,2024-02-27T12:28:43.945Z,french_791.wav,0,pull,583,36,5,2,English,m,1,0.1,84.74526907,0.0053506
5e2e147d047efa000c6b833d,105,2,2024-02-27T12:28:43.945Z,french_791.wav,0,pull,583,36,5,2,English,m,2,0.2,-10.10354349,1.61132934
5e2e147d047efa000c6b833d,105,2,2024-02-27T12:28:43.945Z,french_791.wav,0,pull,583,36,5,2,English,m,3,0.25666667,-10.14583619,1.39802197
5e2e147d047efa000c6b833d,106,2,2024-02-27T12:28:43.945Z,french_636.wav,0,poule,1560,36,5,2,English,m,0,0.0,79.1724471,0.8082817
5e2e147d047efa000c6b833d,106,2,2024-02-27T12:28:43.945Z,french_636.wav,0,poule,1560,36,5,2,English,m,1,0.1,25.25700376,1.50975093
5e2e147d047efa000c6b833d,106,2,2024-02-27T12:28:43.945Z,french_636.wav,0,poule,1560,36,5,2,English,m,2,0.2,72.37529148,0.99206968
5e2e147d047efa000c6b833d,106,2,2024-02-27T12:28:43.945Z,french_636.wav,0,poule,1560,36,5,2,English,m,3,0.25666667,12.21946345,0.17038819
5e2e147d047efa000c6b833d,107,2,2024-02-27T12:28:43.945Z,french_434.wav,0,poule,531,36,5,2,English,m,0,0.0,7.9294609,1.64452419
5e2e147d047efa000c6b833d,107,2,2024-02-27T12:28:43.945Z,french_434.wav,0,poule,531,36,5,2,English,m,1,0.1,36.47837772,0.73911435
5e2e147d047efa000c6b833d,107,2,2024-02-27T12:28:43.945Z,french_434.wav,0,poule,531,36,5,2,English,m,2,0.2,71.3301905,0.53221197
5e2e147d047efa000c6b833d,107,2,2024-02-27T12:28:43.945Z,french_434.wav,0,poule,531,36,5,2,English,m,3,0.25666667,-21.81717993,1.83629349
5e2e147d047efa000c6b833d,108,2,2024-02-27T12:28:43.945Z,french_961.wav,0,poule,396,36,5,2,English,m,0,0.0,-20.33448842,1.15404666
5e2e147d047efa000c6b833d,108,2,2024-02-27T12:28:43.945Z,french_961.wav,0,poule,396,36,5,2,English,m,1,0.1,-4.78685128,0.60063951
5e2e147d047efa000c6b833d,108,2,2024-02-27T12:28:43.945Z,french_961.wav,0,poule,396,36,5,2,English,m,2,0.2,-11.93718074,0.7481002
5e2e147d047efa000c6b833d,108,2,2024-02-27T12:28:43.945Z,french_961.wav,0,poule,396,36,5,2,English,m,3,0.25666667,-89.16955282,0.88090291
5e2e147d047efa000c6b833d,109,2,2024-02-27T12:28:43.945Z,french_513.wav,0,pull,400,36,5,2,English,m,0,0.0,84.63539274,1.68726635
5e2e147d047efa000c6b833d,109,2,2024-02-27T12:28:43.945Z,french_513.wav,0,pull,400,36,5,2,English,m,1,0.1,36.6114333,0.88690679
5e2e147d047efa000c6b833d,109,2,2024-02-27T12:28:43.945Z,french_513.wav,0,pull,400,36,5,2,English,m,2,0.2,14.49628471,0.37350839
5e2e147d047efa000c6b833d,109,2,2024-02-27T12:28:43.945Z,french_513.wav,0,pull,400,36,5,2,English,m,3,0.25666667,-17.17346171,1.74122924
5e2e147d047efa000c6b833d,110,2,2024-02-27T12:28:43.945Z,french_27.wav,0,pull,476,36,5,2,English,m,0,0.0,-24.90567196,0.77746957
5e2e147d047efa000c6b833d,110,2,2024-02-27T12:28:43.945Z,french_27.wav,0,pull,476,36,5,2,English,m,1,0.1,-76.22865867,0.36572894
5e2e147d047efa000c6b833d,110,2,2024-02-27T12:28:43.945Z,french_27.wav,0,pull,476,36,5,2,English,m,2,0.2,-70.77946922,1.07248112
5e2e147d047efa000c6b833d,110,2,2024-02-27T12:28:43.945Z,french_27.wav,0,pull,476,36,5,2,English,m,3,0.25666667,-40.13018173,1.35477464
5e2e147d047efa000c6b833d,111,2,2024-02-27T12:28:43.945Z,french_3.wav,0,poule,562,36,5,2,English,m,0,0.0,-14.61439924,1.57160784
5e2e147d047efa000c6b833d,111,2,2024-02-27T12:28:43.945Z,french_3.wav,0,poule,562,36,5,2,English,m,1,0.1,31.18450832,1.95729533
5e2e147d047efa000c6b833d,111,2,2024-02-27T12:28:43.945Z,french_3.wav,0,poule,562,36,5,2,English,m,2,0.2,25.79538703,1.5259075
5e2e147d047efa000c6b833d,111,2,2024-02-27T12:28:43.945Z,french_3.wav,0,poule,562,36,5,2,English,m,3,0.25666667,-0.91933426,1.3870147
5e2e147d047efa000c6b833d,112,2,2024-02-27T12:28:43.945Z,french_810.wav,0,pull,655,36,5,2,English,m,0,0.0,76.35600219,0.51042634
5e2e147d047efa000c6b833d,112,2,2024-02-27T12:28:43.945Z,french_810.wav,0,pull,655,36,5,2,English,m,1,0.1,33.05643104,0.40354819
5e2e147d047efa000c6b833d,112,2,2024-02-27T12:28:43.945Z,french_810.wav,0,pull,655,36,5,2,English,m,2,0.2,14.69103946,0.8135704
5e2e147d047efa000c6b833d,112,2,2024-02-27T12:28:43.945Z,french_810.wav,0,pull,655,36,5,2,English,m,3,0.25666667,-16.26362119,0.38644961
5e2e147d047efa000c6b833d,113,2,2024-02-27T12:28:43.945Z,french_890.wav,0,pull,876,36,5,2,English,m,0,0.0,17.48321345,1.85587598
5e2e147d047efa000c6b833d,113,2,2024-02-27T12:28:43.945Z,french_890.wav,0,pull,876,36,5,2,English,m,1,0.1,-18.95749083,0.79262665
5e2e147d047efa000c6b833d,113,2,2024-02-27T12:28:43.945Z,french_890.wav,0,pull,876,36,5,2,English,m,2,0.2,0.74707456,0.19694232
5e2e147d047efa000c6b833d,113,2,2024-02-27T12:28:43.945Z,french_890.wav,0,pull,876,36,5,2,English,m,3,0.25666667,92.62024404,1.22282027
5e2e147d047efa000c6b833d,114,2,2024-02-27T12:28:43.945Z,french_371.wav,0,poule,757,36,5,2,English,m,0,0.0,31.80119749,0.65227963
5e2e147d047efa000c6b833d,114,2,2024-02-27T12:28:43.945Z,french_371.wav,0,poule,757,36,5,2,English,m,1,0.1,-38.52135119,1.80763105
5e2e147d047efa000c6b833d,114,2,2024-02-27T12:28:43.945Z,french_371.wav,0,poule,757,36,5,2,English,m,2,0.2,9.85895876,1.44692227
5e2e147d047efa000c6b833d,114,2,2024-02-27T12:28:43.945Z,french_371.wav,0,poule,757,36,5,2,English,m,3,0.25666667,79.11511398,1.12716888
5e2e147d047efa000c6b833d,115,2,2024-02-27T12:28:43.945Z,french_920.wav,0,poule,2347,36,5,2,English,m,0,0.0,98.83591172,0.7646584
5e2e147d047efa000c6b833d,115,2,2024-02-27T12:28:43.945Z,french_920.wav,0,poule,2347,36,5,2,English,m,1,0.1,-64.95643085,1.02879579
5e2e147d047efa000c6b833d,115,2,2024-02-27T12:28:43.945Z,french_920.wav,0,poule,2347,36,5,2,English,m,2,0.2,1.57326281,1.0684491
5e2e147d047efa000c6b833d,115,2,2024-02-27T12:28:43.945Z,french_920.wav,0,poule,2347,36,5,2,English,m,3,0.25666667,-25.63648329,0.89198175
5e2e147d047efa000c6b833d,116,2,2024-02-27T12:28:43.945Z,french_506.wav,0,poule,422,36,5,2,English,m,0,0.0,-29.72839746,0.56251
5e2e147d047efa000c6b833d,116,2,2024-02-27T12:28:43.945Z,french_506.wav,0,poule,422,36,5,2,English,m,1,0.1,-47.17385777,1.58526303
5e2e147d047efa000c6b833d,116,2,2024-02-27T12:28:43.945Z,french_506.wav,0,poule,422,36,5,2,English,m,2,0.2,-30.03244322,0.59604728
5e2e147d047efa000c6b833d,116,2,2024-02-27T12:28:43.945Z,french_506.wav,0,poule,422,36,5,2,English,m,3,0.25666667,17.7760196,1.67426799
5e2e147d047efa000c6b833d,117,2,2024-02-27T12:28:43.945Z,french_811.wav,0,poule,273,36,5,2,English,m,0,0.0,35.12158591,1.63803033
5e2e147d047efa000c6b833d,117,2,2024-02-27T12:28:43.945Z,french_811.wav,0,poule,273,36,5,2,English,m,1,0.1,4.09145181,0.91441893
5e2e147d047efa000c6b833d,117,2,2024-02-27T12:28:43.945Z,french_811.wav,0,poule,273,36,5,2,English,m,2,0.2,-79.3353891,1.53056324
5e2e147d047efa000c6b833d,117,2,2024-02-27T12:28:43.945Z,french_811.wav,0,poule,273,36,5,2,English,m,3,0.25666667,-59.5865152,1.20408751
5e2e147d047efa000c6b833d,118,2,2024-02-27T12:28:43.945Z,french_678.wav,0,pull,995,36,5,2,English,m,0,0.0,8.99494286,0.31277465
5e2e147d047efa000c6b833d,118,2,2024-02-27T12:28:43.945Z,french_678.wav,0,pull,995,36,5,2,English,m,1,0.1,56.3447022,0.04822955
5e2e147d047efa000c6b833d,118,2,2024-02-27T12:28:43.945Z,french_678.wav,0,pull,995,36,5,2,English,m,2,0.2,-85.36803825,0.03738606
5e2e147d047efa000c6b833d,118,2,2024-02-27T12:28:43.945Z,french_678.wav,0,pull,995,36,5,2,English,m,3,0.25666667,-65.39277698,1.60364947
5e2e147d047efa000c6b833d,119,2,2024-02-27T12:28:43.945Z,french_440.wav,0,pull,1866,36,5,2,English,m,0,0.0,-59.81098651,0.93400427
5e2e147d047efa000c6b833d,119,2,2024-02-27T12:28:43.945Z,french_440.wav,0,pull,1866,36,5,2,English,m,1,0.1,55.41661021,0.25641934
5e2e147d047efa000c6b833d,119,2,2024-02-27T12:28:43.945Z,french_440.wav,0,pull,1866,36,5,2,English,m,2,0.2,43.77043266,0.61594081
5e2e147d047efa000c6b833d,119,2,2024-02-27T12:28:43.945Z,french_440.wav,0,pull,1866,36,5,2,English,m,3,0.25666667,-5.41632891,1.32329824
5e2e147d047efa000c6b833d,120,2,2024-02-27T12:28:43.945Z,french_593.wav,0,poule,953,36,5,2,English,m,0,0.0,28.63563643,0.95899308
5e2e147d047efa000c6b833d,120,2,2024-02-27T12:28:43.945Z,french_593.wav,0,poule,953,36,5,2,English,m,1,0.1,-92.54588956,1.11632192
5e2e147d047efa000c6b833d,120,2,2024-02-27T12:28:43.945Z,french_593.wav,0,poule,953,36,5,2,English,m,2,0.2,54.29574758,0.28179711
5e2e147d047efa000c6b833d,120,2,2024-02-27T12:28:43.945Z,french_593.wav,0,poule,953,36,5,2,English,m,3,0.25666667,-51.0775076,1.92785686
5e2e147d047efa000c6b833d,121,2,2024-02-27T12:28:43.945Z,french_208.wav,0,poule,574,36,5,2,English,m,0,0.0,8.68990421,0.76850137
5e2e147d047efa000c6b833d,121,2,2024-02-27T12:28:43.945Z,french_208.wav,0,poule,574,36,5,2,English,m,1,0.1,-43.18378372,1.33781212
5e2e147d047efa000c6b833d,121,2,2024-02-27T12:28:43.945Z,french_208.wav,0,poule,574,36,5,2,English,m,2,0.2,71.27860087,0.39946576
5e2e147d047efa000c6b833d,121,2,2024-02-27T12:28:43.945Z,french_208.wav,0,poule,574,36,5,2,English,m,3,0.25666667,-15.56799856,0.17788265
5e2e147d047efa000c6b833d,122,2,2024-02-27T12:28:43.945Z,french_8.wav,0,poule,323,36,5,2,English,m,0,0.0,75.36204911,1.20802323
5e2e147d047efa000c6b833d,122,2,2024-02-27T12:28:43.945Z,french_8.wav,0,poule,323,36,5,2,English,m,1,0.1,99.77980072,1.04694521
5e2e147d047efa000c6b833d,122,2,2024-02-27T12:28:43.945Z,french_8.wav,0,poule,323,36,5,2,English,m,2,0.2,31.87407215,1.95307637
5e2e147d047efa000c6b833d,122,2,2024-02-27T12:28:43.945Z,french_8.wav,0,poule,323,36,5,2,English,m,3,0.25666667,-3.14162979,0.34441347
5e2e147d047efa000c6b833d,123,2,2024-02-27T12:28:43.945Z,french_276.wav,0,poule,310,36,5,2,English,m,0,0.0,-30.59490391,1.59191255
5e2e147d047efa000c6b833d,123,2,2024-02-27T12:28:43.945Z,french_276.wav,0,poule,310,36,5,2,English,m,1,0.1,35.14119383,1.08920427
5e2e147d047efa000c6b833d,123,2,2024-02-27T12:28:43.945Z,french_276.wav,0,poule,310,36,5,2,English,m,2,0.2,-47.54137466,1.15204711
5e2e147d047efa000c6b833d,123,2,2024-02-27T12:28:43.945Z,french_276.wav,0,poule,310,36,5,2,English,m,3,0.25666667,-36.46330553,0.56107217
5e2e147d047efa000c6b833d,124,2,2024-02-27T12:28:43.945Z,french_629.wav,0,pull,1480,36,5,2,English,m,0,0.0,81.54997922,0.65130664
5e2e147d047efa000c6b833d,124,2,2024-02-27T12:28:43.945Z,french_629.wav,0,pull,1480,36,5,2,English,m,1,0.1,-25.83506989,0.18523019
5e2e147d047efa000c6b833d,124,2,2024-02-27T12:28:43.945Z,french_629.wav,0,pull,1480,36,5,2,English,m,2,0.2,-50.62902687,1.20696076
5e2e147d047efa000c6b833d,124,2,2024-02-27T12:28:43.945Z,french_629.wav,0,pull,1480,36,5,2,English,m,3,0.25666667,-69.1271608,0.57946161
5e2e147d047efa000c6b833d,125,2,2024-02-27T12:28:43.945Z,french_680.wav,0,poule,372,36,5,2,English,m,0,0.0,-51.31535201,1.24719536
5e2e147d047efa000c6b833d,125,2,2024-02-27T12:28:43.945Z,french_680.wav,0,poule,372,36,5,2,English,m,1,0.1,-31.64171723,1.74184859
5e2e147d047efa000c6b833d,125,2,2024-02-27T12:28:43.945Z,french_680.wav,0,poule,372,36,5,2,English,m,2,0.2,81.67923452,0.78878625
5e2e147d047efa000c6b833d,125,2,2024-02-27T12:28:43.945Z,french_680.wav,0,poule,372,36,5,2,English,m,3,0.25666667,54.52860803,1.82878415
5e2e147d047efa000c6b833d,126,2,2024-02-27T12:28:43.945Z,french_776.wav,0,poule,569,36,5,2,English,m,0,0.0,-9.17095967,0.42962635
5e2e147d047efa000c6b833d,126,2,2024-02-27T12:28:43.945Z,french_776.wav,0,poule,569,36,5,2,English,m,1,0.1,-70.57850226,1.70698124
5e2e147d047efa000c6b833d,126,2,2024-02-27T12:28:43.945Z,french_776.wav,0,poule,569,36,5,2,English,m,2,0.2,63.21349252,1.25010697
5e2e147d047efa000c6b833d,126,2,2024-02-27T12:28:43.945Z,french_776.wav,0,poule,569,36,5,2,English,m,3,0.25666667,59.47578694,1.52671833
5e2e147d047efa000c6b833d,127,2,2024-02-27T12:28:43.945Z,french_630.wav,0,poule,586,36,5,2,English,m,0,0.0,77.73428331,1.3363399
5e2e147d047efa000c6b833d,127,2,2024-02-27T12:28:43.945Z,french_630.wav,0,poule,586,36,5,2,English,m,1,0.1,-25.60495453,1.21399003
5e2e147d047efa000c6b833d,127,2,2024-02-27T12:28:43.945Z,french_630.wav,0,poule,586,36,5,2,English,m,2,0.2,64.05787884,0.69039687
5e2e147d047efa000c6b833d,127,2,2024-02-27T12:28:43.945Z,french_630.wav,0,poule,586,36,5,2,English,m,3,0.25666667,12.38181906,0.92340198
5e2e147d047efa000c6b833d,128,2,2024-02-27T12:28:43.945Z,french_671.wav,0,poule,1451,36,5,2,English,m,0,0.0,-43.02390558,0.93196934
5e2e147d047efa000c6b833d,128,2,2024-02-27T12:28:43.945Z,french_671.wav,0,poule,1451,36,5,2,English,m,1,0.1,13.89093856,1.15314194
5e2e147d047efa000c6b833d,128,2,2024-02-27T12:28:43.945Z,french_671.wav,0,poule,1451,36,5,2,English,m,2,0.2,3.48608914,0.54353121
5e2e147d047efa000c6b833d,128,2,2024-02-27T12:28:43.945Z,french_671.wav,0,poule,1451,36,5,2,English,m,3,0.25666667,-98.36263583,1.08598707
5e2e147d047efa000c6b833d,129,2,2024-02-27T12:28:43.945Z,french_225.wav,0,poule,571,36,5,2,English,m,0,0.0,29.07754255,1.10473325
5e2e147d047efa000c6b833d,129,2,2024-02-27T12:28:43.945Z,french_225.wav,0,poule,571,36,5,2,English,m,1,0.1,99.63110947,0.86614983
5e2e147d047efa000c6b833d,129,2,2024-02-27T12:28:43.945Z,french_225.wav,0,poule,571,36,5,2,English,m,2,0.2,-11.85966914,1.10071
5e2e147d047efa000c6b833d,129,2,2024-02-27T12:28:43.945Z,french_225.wav,0,poule,571,36,5,2,English,m,3,0.25666667,-24.94738594,1.32437332
5e2e147d047efa000c6b833d,130,2,2024-02-27T12:28:43.945Z,french_792.wav,0,poule,383,36,5,2,English,m,0,0.0,-30.95032355,0.5884638
5e2e147d047efa000c6b833d,130,2,2024-02-27T12:28:43.945Z,french_792.wav,0,poule,383,36,5,2,English,m,1,0.1,73.05460755,1.61732216
5e2e147d047efa000c6b833d,130,2,2024-02-27T12:28:43.945Z,french_792.wav,0,poule,383,36,5,2,English,m,2,0.2,-0.6809714,1.33614238
5e2e147d047efa000c6b833d,130,2,2024-02-27T12:28:43.945Z,french_792.wav,0,poule,383,36,5,2,English,m,3,0.25666667,25.15150688,0.65397567
5e2e147d047efa000c6b833d,131,2,2024-02-27T12:28:43.945Z,french_765.wav,0,poule,268,36,5,2,English,m,0,0.0,37.74619949,1.94846132
5e2e147d047efa000c6b833d,131,2,2024-02-27T12:28:43.945Z,french_765.wav,0,poule,268,36,5,2,English,m,1,0.1,35.79177818,0.74629838
5e2e147d047efa000c6b833d,131,2,2024-02-27T12:28:43.945Z,french_765.wav,0,poule,268,36,5,2,English,m,2,0.2,-4.82792988,1.12672767
5e2e147d047efa000c6b833d,131,2,2024-02-27T12:28:43.945Z,french_765.wav,0,poule,268,36,5,2,English,m,3,0.25666667,-29.99687949,0.50330326
5e2e147d047efa000c6b833d,132,2,2024-02-27T12:28:43.945Z,french_317.wav,0,poule,440,36,5,2,English,m,0,0.0,16.10159391,1.00024107
5e2e147d047efa000c6b833d,132,2,2024-02-27T12:28:43.945Z,french_317.wav,0,poule,440,36,5,2,English,m,1,0.1,-3.4784276,1.04292902
5e2e147d047efa000c6b833d,132,2,2024-02-27T12:28:43.945Z,french_317.wav,0,poule,440,36,5,2,English,m,2,0.2,-59.35796464,1.9831422
5e2e147d047efa000c6b833d,132,2,2024-02-27T12:28:43.945Z,french_317.wav,0,poule,440,36,5,2,English,m,3,0.25666667,-1.67752252,0.01532069
5e2e147d047efa000c6b833d,133,2,2024-02-27T12:28:43.945Z,french_849.wav,0,poule,341,36,5,2,English,m,0,0.0,-28.99181256,1.60316931
5e2e147d047efa000c6b833d,133,2,2024-02-27T12:28:43.945Z,french_849.wav,0,poule,341,36,5,2,English,m,1,0.1,-23.83365043,0.33831848
5e2e147d047efa000c6b833d,133,2,2024-02-27T12:28:43.945Z,french_849.wav,0,poule,341,36,5,2,English,m,2,0.2,-51.88410218,1.05589654
5e2e147d047efa000c6b833d,133,2,2024-02-27T12:28:43.945Z,french_849.wav,0,poule,341,36,5,2,English,m,3,0.25666667,-29.11212869,1.53017224
5e2e147d047efa000c6b833d,134,2,2024-02-27T12:28:43.945Z,french_527.wav,0,pull,286,36,5,2,English,m,0,0.0,97.81644093,0.09503525
5e2e147d047efa000c6b833d,134,2,2024-02-27T12:28:43.945Z,french_527.wav,0,pull,286,36,5,2,English,m,1,0.1,68.05004199,0.33267387
5e2e147d047efa000c6b833d,134,2,2024-02-27T12:28:43.945Z,french_527.wav,0,pull,286,36,5,2,English,m,2,0.2,-44.05597581,1.51053464
5e2e147d047efa000c6b833d,134,2,2024-02-27T12:28:43.945Z,french_527.wav,0,pull,286,36,5,2,English,m,3,0.25666667,40.91945638,1.37458991
5e2e147d047efa000c6b833d,135,2,2024-02-27T12:28:43.945Z,french_292.wav,0,pull,309,36,5,2,English,m,0,0.0,-5.98307963,1.30181039
5e2e147d047efa000c6b833d,135,2,2024-02-27T12:28:43.945Z,french_292.wav,0,pull,309,36,5,2,English,m,1,0.1,-89.4143915,0.71580693
5e2e147d047efa000c6b833d,135,2,2024-02-27T12:28:43.945Z,french_292.wav,0,pull,309,36,5,2,English,m,2,0.2,50.82370108,0.58623796
5e2e147d047efa000c6b833d,135,2,2024-02-27T12:28:43.945Z,french_292.wav,0,pull,309,36,5,2,English,m,3,0.25666667,-75.87081721,1.49080339
5e2e147d047efa000c6b833d,136,2,2024-02-27T12:28:43.945Z,french_839.wav,0,pull,811,36,5,2,English,m,0,0.0,11.03740457,0.76467652
5e2e147d047efa000c6b833d,136,2,2024-02-27T12:28:43.945Z,french_839.wav,0,pull,811,36,5,2,English,m,1,0.1,23.46119987,0.76268055
5e2e147d047efa000c6b833d,136,2,2024-02-27T12:28:43.945Z,french_839.wav,0,pull,811,36,5,2,English,m,2,0.2,-0.31614798,1.64444165
5e2e147d047efa000c6b833d,136,2,2024-02-27T12:28:43.945Z,french_839.wav,0,pull,811,36,5,2,English,m,3,0.25666667,62.63183259,0.69482811
5e2e147d047efa000c6b833d,137,2,2024-02-27T12:28:43.945Z,french_287.wav,0,pull,351,36,5,2,English,m,0,0.0,-6.24804435,1.11596696
5e2e147d047efa000c6b833d,137,2,2024-02-27T12:28:43.945Z,french_287.wav,0,pull,351,36,5,2,English,m,1,0.1,-47.42967866,0.08887129
5e2e147d047efa000c6b833d,137,2,2024-02-27T12:28:43.945Z,french_287.wav,0,pull,351,36,5,2,English,m,2,0.2,-83.16585562,1.70974676
5e2e147d047efa000c6b833d,137,2,2024-02-27T12:28:43.945Z,french_287.wav,0,pull,351,36,5,2,English,m,3,0.25666667,77.49694817,0.42476907
5e2e147d047efa000c6b833d,138,2,2024-02-27T12:28:43.945Z,french_409.wav,0,pull,468,36,5,2,English,m,0,0.0,-85.45925867,0.92391671
5e2e147d047efa000c6b833d,138,2,2024-02-27T12:28:43.945Z,french_409.wav,0,pull,468,36,5,2,English,m,1,0.1,-75.83462931,0.55779761
5e2e147d047efa000c6b833d,138,2,2024-02-27T12:28:43.945Z,french_409.wav,0,pull,468,36,5,2,English,m,2,0.2,-81.34632848,1.04156293
5e2e147d047efa000c6b833d,138,2,2024-02-27T12:28:43.945Z,french_409.wav,0,pull,468,36,5,2,English,m,3,0.25666667,-4.23490283,0.8536223
5e2e147d047efa000c6b833d,139,2,2024-02-27T12:28:43.945Z,french_788.wav,0,pull,432,36,5,2,English,m,0,0.0,-49.59093674,1.03975343
5e2e147d047efa000c6b833d,139,2,2024-02-27T12:28:43.945Z,french_788.wav,0,pull,432,36,5,2,English,m,1,0.1,-37.12859592,0.12530513
5e2e147d047efa000c6b833d,139,2,2024-02-27T12:28:43.945Z,french_788.wav,0,pull,432,36,5,2,English,m,2,0.2,78.06548219,0.40268526
5e2e147d047efa000c6b833d,139,2,2024-02-27T12:28:43.945Z,french_788.wav,0,pull,432,36,5,2,English,m,3,0.25666667,52.38730842,1.72021211
5e2e147d047efa000c6b833d,140,2,2024-02-27T12:28:43.945Z,french_192.wav,0,pull,380,36,5,2,English,m,0,0.0,73.17690414,1.47156363
5e2e147d047efa000c6b833d,140,2,2024-02-27T12:28:43.945Z,french_192.wav,0,pull,380,36,5,2,English,m,1,0.1,14.65884197,0.92412776
5e2e147d047efa000c6b833d,140,2,2024-02-27T12:28:43.945Z,french_192.wav,0,pull,380,36,5,2,English,m,2,0.2,-6.29840632,0.27182316
5e2e147d047efa000c6b833d,140,2,2024-02-27T12:28:43.945Z,french_192.wav,0,pull,380,36,5,2,English,m,3,0.25666667,-32.28340249,1.34820636
5e2e147d047efa000c6b833d,141,2,2024-02-27T12:28:43.945Z,french_150.wav,0,poule,509,36,5,2,English,m,0,0.0,8.70975457,0.6151883
5e2e147d047efa000c6b833d,141,2,2024-02-27T12:28:43.945Z,french_150.wav,0,poule,509,36,5,2,English,m,1,0.1,-27.10460474,1.35739255
5e2e147d047efa000c6b833d,141,2,2024-02-27T12:28:43.945Z,french_150.wav,0,poule,509,36,5,2,English,m,2,0.2,-81.59186784,1.42530839
5e2e147d047efa000c6b833d,141,2,2024-02-27T12:28:43.945Z,french_150.wav,0,poule,509,36,5,2,English,m,3,0.25666667,-72.54184128,0.64697028
5e2e147d047efa000c6b833d,142,2,2024-02-27T12:28:43.945Z,french_306.wav,0,poule,321,36,5,2,English,m,0,0.0,22.4772117,0.91979461
5e2e147d047efa000c6b833d,142,2,2024-02-27T12:28:43.945Z,french_306.wav,0,poule,321,36,5,2,English,m,1,0.1,-23.30683659,1.83006101
5e2e147d047efa000c6b833d,142,2,2024-02-27T12:28:43.945Z,french_306.wav,0,poule,321,36,5,2,English,m,2,0.2,-85.44667034,1.25602607
5e2e147d047efa000c6b833d,142,2,2024-02-27T12:28:43.945Z,french_306.wav,0,poule,321,36,5,2,English,m,3,0.25666667,-79.47374411,0.84497865
5e2e147d047efa000c6b833d,143,2,2024-02-27T12:28:43.945Z,french_75.wav,0,pull,706,36,5,2,English,m,0,0.0,-2.54190785,0.75594209
5e2e147d047efa000c6b833d,143,2,2024-02-27T12:28:43.945Z,french_75.wav,0,pull,706,36,5,2,English,m,1,0.1,-18.79561653,0.77713134
5e2e147d047efa000c6b833d,143,2,2024-02-27T12:28:43.945Z,french_75.wav,0,pull,706,36,5,2,English,m,2,0.2,-63.16754008,0.0667883
5e2e147d047efa000c6b833d,143,2,2024-02-27T12:28:43.945Z,french_75.wav,0,pull,706,36,5,2,English,m,3,0.25666667,-38.64547488,0.54855801
5e2e147d047efa000c6b833d,144,2,2024-02-27T12:28:43.945Z,french_908.wav,0,poule,871,36,5,2,English,m,0,0.0,-17.448813,1.41004623
5e2e147d047efa000c6b833d,144,2,2024-02-27T12:28:43.945Z,french_908.wav,0,poule,871,36,5,2,English,m,1,0.1,35.46481843,0.76159164
5e2e147d047efa000c6b833d,144,2,2024-02-27T12:28:43.945Z,french_908.wav,0,poule,871,36,5,2,English,m,2,0.2,-20.0899606,1.03892063
5e2e147d047efa000c6b833d,144,2,2024-02-27T12:28:43.945Z,french_908.wav,0,poule,871,36,5,2,English,m,3,0.25666667,-29.56589343,1.03966959
5e2e147d047efa000c6b833d,145,2,2024-02-27T12:28:43.945Z,french_523.wav,0,poule,705,36,5,2,English,m,0,0.0,-20.54401218,1.01178449
5e2e147d047efa000c6b833d,145,2,2024-02-27T12:28:43.945Z,french_523.wav,0,poule,705,36,5,2,English,m,1,0.1,-64.61887171,1.79283511
5e2e147d047efa000c6b833d,145,2,2024-02-27T12:28:43.945Z,french_523.wav,0,poule,705,36,5,2,English,m,2,0.2,-56.67652055,0.92711934
5e2e147d047efa000c6b833d,145,2,2024-02-27T12:28:43.945Z,french_523.wav,0,poule,705,36,5,2,English,m,3,0.25666667,-29.90055738,1.0186138
5e2e147d047efa000c6b833d,146,2,2024-02-27T12:28:43.945Z,french_88.wav,0,poule,912,36,5,2,English,m,0,0.0,27.32194303,1.51306501
5e2e147d047efa000c6b833d,146,2,2024-02-27T12:28:43.945Z,french_88.wav,0,poule,912,36,5,2,English,m,1,0.1,-96.72294389,1.24985366
5e2e147d047efa000c6b833d,146,2,2024-02-27T12:28:43.945Z,french_88.wav,0,poule,912,36,5,2,English,m,2,0.2,60.26388925,0.69332812
5e2e147d047efa000c6b833d,146,2,2024-02-27T12:28:43.945Z,french_88.wav,0,poule,912,36,5,2,English,m,3,0.25666667,24.13475024,1.39714954
5e2e147d047efa000c6b833d,147,2,2024-02-27T12:28:43.945Z,french_982.wav,0,poule,1602,36,5,2,English,m,0,0.0,-37.50079515,0.32253899
5e2e147d047efa000c6b833d,147,2,2024-02-27T12:28:43.945Z,french_982.wav,0,poule,1602,36,5,2,English,m,1,0.1,-23.37923681,1.88868261
5e2e147d047efa000c6b833d,147,2,2024-02-27T12:28:43.945Z,french_982.wav,0,poule,1602,36,5,2,English,m,2,0.2,-55.8234839,0.59835015
5e2e147d047efa000c6b833d,147,2,2024-02-27T12:28:43.945Z,french_982.wav,0,poule,1602,36,5,2,English,m,3,0.25666667,-58.92111767,1.21615752
5e2e147d047efa000c6b833d,148,2,2024-02-27T12:28:43.945Z,french_684.wav,0,poule,1033,36,5,2,English,m,0,0.0,48.27990123,1.19178247
5e2e147d047efa000c6b833d,148,2,2024-02-27T12:28:43.945Z,french_684.wav,0,poule,1033,36,5,2,English,m,1,0.1,7.94375198,1.19295899
5e2e147d047efa000c6b833d,148,2,2024-02-27T12:28:43.945Z,french_684.wav,0,poule,1033,36,5,2,English,m,2,0.2,8.02227037,0.65877552
5e2e147d047efa000c6b833d,148,2,2024-02-27T12:28:43.945Z,french_684.wav,0,poule,1033,36,5,2,English,m,3,0.25666667,-51.87380122,1.73612438
5e2e147d047efa000c6b833d,149,2,2024-02-27T12:28:43.945Z,french_712.wav,0,pull,611,36,5,2,English,m,0,0.0,-3.12485416,1.03174297
5e2e147d047efa000c6b833d,149,2,2024-02-27T12:28:43.945Z,french_712.wav,0,pull,611,36,5,2,English,m,1,0.1,-57.65062989,0.08357112
5e2e147d047efa000c6b833d,149,2,2024-02-27T12:28:43.945Z,french_712.wav,0,pull,611,36,5,2,English,m,2,0.2,-16.00980978,0.04422576
5e2e147d047efa000c6b833d,149,2,2024-02-27T12:28:43.945Z,french_712.wav,0,pull,611,36,5,2,English,m,3,0.25666667,99.38372731,1.3735066
5e2e147d047efa000c6b833d,150,3,2024-02-27T12:28:43.945Z,french_136.wav,0,poule,598,36,5,2,English,m,0,0.0,-19.24670356,0.58320819
5e2e147d047efa000c6b833d,150,3,2024-02-27T12:28:43.945Z,french_136.wav,0,poule,598,36,5,2,English,m,1,0.1,-19.07264886,1.75711633
5e2e147d047efa000c6b833d,150,3,2024-02-27T12:28:43.945Z,french_136.wav,0,poule,598,36,5,2,English,m,2,0.2,-15.66011034,0.20485265
5e2e147d047efa000c6b833d,150,3,2024-02-27T12:28:43.945Z,french_136.wav,0,poule,598,36,5,2,English,m,3,0.25666667,-21.38655245,0.63500763
5e2e147d047efa000c6b833d,151,3,2024-02-27T12:28:43.945Z,french_800.wav,0,pull,848,36,5,2,English,m,0,0.0,43.61588251,1.33995655
5e2e147d047efa000c6b833d,151,3,2024-02-27T12:28:43.945Z,french_800.wav,0,pull,848,36,5,2,English,m,1,0.1,-17.8471941,0.26774995
5e2e147d047efa000c6b833d,151,3,2024-02-27T12:28:43.945Z,french_800.wav,0,pull,848,36,5,2,English,m,2,0.2,-10.2363333,0.87274599
5e2e147d047efa000c6b833d,151,3,2024-02-27T12:28:43.945Z,french_800.wav,0,pull,848,36,5,2,English,m,3,0.25666667,-85.1878963,0.37568781
5e2e147d047efa000c6b833d,152,3,2024-02-27T12:28:43.945Z,french_690.wav,0,pull,484,36,5,2,English,m,0,0.0,79.01312907,1.49686193
5e2e147d047efa000c6b833d,152,3,2024-02-27T12:28:43.945Z,french_690.wav,0,pull,484,36,5,2,English,m,1,0.1,-50.63616883,0.92741038
5e2e147d047efa000c6b833d,152,3,2024-02-27T12:28:43.945Z,french_690.wav,0,pull,484,36,5,2,English,m,2,0.2,19.49439666,0.30770403
5e2e147d047efa000c6b833d,152,3,2024-02-27T12:28:43.945Z,french_690.wav,0,pull,484,36,5,2,English,m,3,0.25666667,-20.64233715,0.53460579
5e2e147d047efa000c6b833d,153,3,2024-02-27T12:28:43.945Z,french_198.wav,0,pull,555,36,5,2,English,m,0,0.0,72.51067349,0.65547069
5e2e147d047efa000c6b833d,153,3,2024-02-27T12:28:43.945Z,french_198.wav,0,pull,555,36,5,2,English,m,1,0.1,26.15359829,0.30610144
5e2e147d047efa000c6b833d,153,3,2024-02-27T12:28:43.945Z,french_198.wav,0,pull,555,36,5,2,English,m,2,0.2,-38.06500424,0.27462822
5e2e147d047efa000c6b833d,153,3,2024-02-27T12:28:43.945Z,french_198.wav,0,pull,555,36,5,2,English,m,3,0.25666667,-63.59150526,1.37790723
5e2e147d047efa000c6b833d,154,3,2024-02-27T12:28:43.945Z,french_617.wav,0,pull,1021,36,5,2,English,m,0,0.0,-34.18466024,0.10021852
5e2e147d047efa000c6b833d,154,3,2024-02-27T12:28:43.945Z,french_617.wav,0,pull,1021,36,5,2,English,m,1,0.1,35.41565559,0.72859392
5e2e147d047efa000c6b833d,154,3,2024-02-27T12:28:43.945Z,french_617.wav,0,pull,1021,36,5,2,English,m,2,0.2,59.04414741,0.77782194
5e2e147d047efa000c6b833d,154,3,2024-02-27T12:28:43.945Z,french_617.wav,0,pull,1021,36,5,2,English,m,3,0.25666667,80.0519445,1.13599019
5e2e147d047efa000c6b833d,155,3,2024-02-27T12:28:43.945Z,french_534.wav,0,pull,1866,36,5,2,English,m,0,0.0,96.41776506,0.28463844
5e2e147d047efa000c6b833d,155,3,2024-02-27T12:28:43.945Z,french_534.wav,0,pull,1866,36,5,2,English,m,1,0.1,-53.52749338,1.69872517
5e2e147d047efa000c6b833d,155,3,2024-02-27T12:28:43.945Z,french_534.wav,0,pull,1866,36,5,2,English,m,2,0.2,51.10087415,0.80798533
5e2e147d047efa000c6b833d,155,3,2024-02-27T12:28:43.945Z,french_534.wav,0,pull,1866,36,5,2,English,m,3,0.25666667,27.39654188,1.79838566
5e2e147d047efa000c6b833d,156,3,2024-02-27T12:28:43.945Z,french_285.wav,0,pull,672,36,5,2,English,m,0,0.0,-14.06099989,0.21649577
5e2e147d047efa000c6b833d,156,3,2024-02-27T12:28:43.945Z,french_285.wav,0,pull,672,36,5,2,English,m,1,0.1,-5.26283055,0.66520183
5e2e147d047efa000c6b833d,156,3,2024-02-27T12:28:43.945Z,french_285.wav,0,pull,672,36,5,2,English,m,2,0.2,18.02137941,0.4490454
5e2e147d047efa000c6b833d,156,3,2024-02-27T12:28:43.945Z,french_285.wav,0,pull,672,36,5,2,English,m,3,0.25666667,46.27962364,1.92778075
5e2e147d047efa000c6b833d,157,3,2024-02-27T12:28:43.945Z,french_313.wav,0,pull,509,36,5,2,English,m,0,0.0,50.15458506,0.55380102
5e2e147d047efa000c6b833d,157,3,2024-02-27T12:28:43.945Z,french_313.wav,0,pull,509,36,5,2,English,m,1,0.1,2.46815661,0.88494107
5e2e147d047efa000c6b833d,157,3,2024-02-27T12:28:43.945Z,french_313.wav,0,pull,509,36,5,2,English,m,2,0.2,44.14025365,0.65214702
5e2e147d047efa000c6b833d,157,3,2024-02-27T12:28:43.945Z,french_313.wav,0,pull,509,36,5,2,English,m,3,0.25666667,-56.8276357,0.5616472
5e2e147d047efa000c6b833d,158,3,2024-02-27T12:28:43.945Z,french_120.wav,0,pull,323,36,5,2,English,m,0,0.0,59.29212404,1.04724114
5e2e147d047efa000c6b833d,158,3,2024-02-27T12:28:43.945Z,french_120.wav,0,pull,323,36,5,2,English,m,1,0.1,4.80411823,0.97380182
5e2e147d047efa000c6b833d,158,3,2024-02-27T12:28:43.945Z,french_120.wav,0,pull,323,36,5,2,English,m,2,0.2,12.26509955,0.22521264
5e2e147d047efa000c6b833d,158,3,2024-02-27T12:28:43.945Z,french_120.wav,0,pull,323,36,5,2,English,m,3,0.25666667,-79.44354783,0.8027629
5e2e147d047efa000c6b833d,159,3,2024-02-27T12:28:43.945Z,french_781.wav,0,poule,793,36,5,2,English,m,0,0.0,33.25938538,1.27105286
5e2e147d047efa000c6b833d,159,3,2024-02-27T12:28:43.945Z,french_781.wav,0,poule,793,36,5,2,English,m,1,0.1,-13.90292419,0.93357863
5e2e147d047efa000c6b833d,159,3,2024-02-27T12:28:43.945Z,french_781.wav,0,poule,793,36,5,2,English,m,2,0.2,-71.59350782,1.0124146
5e2e147d047efa000c6b833d,159,3,2024-02-27T12:28:43.945Z,french_781.wav,0,poule,793,36,5,2,English,m,3,0.25666667,57.07291034,0.68511696
5e2e147d047efa000c6b833d,160,3,2024-02-27T12:28:43.945Z,french_97.wav,0,pull,624,36,5,2,English,m,0,0.0,-26.25195718,1.78322942
5e2e147d047efa000c6b833d,160,3,2024-02-27T12:28:43.945Z,french_97.wav,0,pull,624,36,5,2,English,m,1,0.1,46.36733761,0.61428926
5e2e147d047efa000c6b833d,160,3,2024-02-27T12:28:43.945Z,french_97.wav,0,pull,624,36,5,2,English,m,2,0.2,-70.05850246,0.23760427
5e2e147d047efa000c6b833d,160,3,2024-02-27T12:28:43.945Z,french_97.wav,0,pull,624,36,5,2,English,m,3,0.25666667,-12.16166803,0.84541126
5e2e147d047efa000c6b833d,161,3,2024-02-27T12:28:43.945Z,french_659.wav,0,poule,520,36,5,2,English,m,0,0.0,85.50464417,1.33522586
5e2e147d047efa000c6b833d,161,3,2024-02-27T12:28:43.945Z,french_659.wav,0,poule,520,36,5,2,English,m,1,0.1,65.46448613,1.79413259
5e2e147d047efa000c6b833d,161,3,2024-02-27T12:28:43.945Z,french_659.wav,0,poule,520,36,5,2,English,m,2,0.2,39.40171471,1.57337642
5e2e147d047efa000c6b833d,161,3,2024-02-27T12:28:43.945Z,french_659.wav,0,poule,520,36,5,2,English,m,3,0.25666667,-2.24011696,0.55895062
5e2e147d047efa000c6b833d,162,3,2024-02-27T12:28:43.945Z,french_22.wav,0,poule,1471,36,5,2,English,m,0,0.0,71.14052921,0.14678418
5e2e147d047efa000c6b833d,162,3,2024-02-27T12:28:43.945Z,french_22.wav,0,poule,1471,36,5,2,English,m,1,0.1,32.6622244,0.81024714
5e2e147d047efa000c6b833d,162,3,2024-02-27T12:28:43.945Z,french_22.wav,0,poule,1471,36,5,2,English,m,2,0.2,96.1292121,1.14392668
5e2e147d047efa000c6b833d,162,3,2024-02-27T12:28:43.945Z,french_22.wav,0,poule,1471,36,5,2,English,m,3,0.25666667,65.79523532,1.62437335
5e2e147d047efa000c6b833d,163,3,2024-02-27T12:28:43.945Z,french_969.wav,0,poule,538,36,5,2,English,m,0,0.0,-10.47620341,0.56181474
5e2e147d047efa000c6b833d,163,3,2024-02-27T12:28:43.945Z,french_969.wav,0,poule,538,36,5,2,English,m,1,0.1,-9.05898311,1.62172025
5e2e147d047efa000c6b833d,163,3,2024-02-27T12:28:43.945Z,french_969.wav,0,poule,538,36,5,2,English,m,2,0.2,-40.12378042,1.31687422
5e2e147d047efa000c6b833d,163,3,2024-02-27T12:28:43.945Z,french_969.wav,0,poule,538,36,5,2,English,m,3,0.25666667,9.74664574,0.40962586
5e2e147d047efa000c6b833d,164,3,2024-02-27T12:28:43.945Z,french_372.wav,0,poule,331,36,5,2,English,m,0,0.0,2.47243072,0.40204166
5e2e147d047efa000c6b833d,164,3,2024-02-27T12:28:43.945Z,french_372.wav,0,poule,331,36,5,2,English,m,1,0.1,-60.42501292,1.5432551
5e2e147d047efa000c6b833d,164,3,2024-02-27T12:28:43.945Z,french_372.wav,0,poule,331,36,5,2,English,m,2,0.2,-16.68820648,1.17639585
5e2e147d047efa000c6b833d,164,3,2024-02-27T12:28:43.945Z,french_372.wav,0,poule,331,36,5,2,English,m,3,0.25666667,27.86473169,1.5977063
5e2e147d047efa000c6b833d,165,3,2024-02-27T12:28:43.945Z,french_574.wav,0,poule,342,36,5,2,English,m,0,0.0,-78.43657591,1.27247015
5e2e147d047efa000c6b833d,165,3,2024-02-27T12:28:43.945Z,french_574.wav,0,poule,342,36,5,2,English,m,1,0.1,25.16959944,0.78898338
5e2e147d047efa000c6b833d,165,3,2024-02-27T12:28:43.945Z,french_574.wav,0,poule,342,36,5,2,English,m,2,0.2,42.97785019,1.49121094
5e2e147d047efa000c6b833d,165,3,2024-02-27T12:28:43.945Z,french_574.wav,0,poule,342,36,5,2,English,m,3,0.25666667,77.36764491,0.68004104
5e2e147d047efa000c6b833d,166,3,2024-02-27T12:28:43.945Z,french_229.wav,0,poule,634,36,5,2,English,m,0,0.0,17.32899675,0.73401758
5e2e147d047efa000c6b833d,166,3,2024-02-27T12:28:43.945Z,french_229.wav,0,poule,634,36,5,2,English,m,1,0.1,-73.09434366,0.90990932
5e2e147d047efa000c6b833d,166,3,2024-02-27T12:28:43.945Z,french_229.wav,0,poule,634,36,5,2,English,m,2,0.2,-24.47190501,0.8791544
5e2e147d047efa000c6b833d,166,3,2024-02-27T12:28:43.945Z,french_229.wav,0,poule,634,36,5,2,English,m,3,0.25666667,11.45282545,1.1872524
5e2e147d047efa000c6b833d,167,3,2024-02-27T12:28:43.945Z,french_775.wav,0,poule,510,36,5,2,English,m,0,0.0,-25.73289632,0.08278175
5e2e147d047efa000c6b833d,167,3,2024-02-27T12:28:43.945Z,french_775.wav,0,poule,510,36,5,2,English,m,1,0.1,52.55800123,0.7848412
5e2e147d047efa000c6b833d,167,3,2024-02-27T12:28:43.945Z,french_775.wav,0,poule,510,36,5,2,English,m,2,0.2,-82.88064372,1.99473571
5e2e147d047efa000c6b833d,167,3,2024-02-27T12:28:43.945Z,french_775.wav,0,poule,510,36,5,2,English,m,3,0.25666667,71.02003497,0.87564379
5e2e147d047efa000c6b833d,168,3,2024-02-27T12:28:43.945Z,french_543.wav,0,pull,2182,36,5,2,English,m,0,0.0,99.95964938,0.10365101
5e2e147d047efa000c6b833d,168,3,2024-02-27T12:28:43.945Z,french_543.wav,0,pull,2182,36,5,2,English,m,1,0.1,62.1224346,1.02026934
5e2e147d047efa000c6b833d,168,3,2024-02-27T12:28:43.945Z,french_543.wav,0,pull,2182,36,5,2,English,m,2,0.2,-10.06540024,0.56488883
5e2e147d047efa000c6b833d,168,3,2024-02-27T12:28:43.945Z,french_543.wav,0,pull,2182,36,5,2,English,m,3,0.25666667,-5.35888672,0.3884986
5e2e147d047efa000c6b833d,169,3,2024-02-27T12:28:43.945Z,french_456.wav,0,pull,734,36,5,2,English,m,0,0.0,-27.91969988,0.874098
5e2e147d047efa000c6b833d,169,3,2024-02-27T12:28:43.945Z,french_456.wav,0,pull,734,36,5,2,English,m,1,0.1,-6.9905469,0.40632282
5e2e147d047efa000c6b833d,169,3,2024-02-27T12:28:43.945Z,french_456.wav,0,pull,734,36,5,2,English,m,2,0.2,7.34213132,0.88508218
5e2e147d047efa000c6b833d,169,3,2024-02-27T12:28:43.945Z,french_456.wav,0,pull,734,36,5,2,English,m,3,0.25666667,-16.30576404,1.43350061
5e2e147d047efa000c6b833d,170,3,2024-02-27T12:28:43.945Z,french_909.wav,0,pull,319,36,5,2,English,m,0,0.0,-17.91805132,1.11522258
5e2e147d047efa000c6b833d,170,3,2024-02-27T12:28:43.945Z,french_909.wav,0,pull,319,36,5,2,English,m,1,0.1,-79.7145309,0.65372787
5e2e147d047efa000c6b833d,170,3,2024-02-27T12:28:43.945Z,french_909.wav,0,pull,319,36,5,2,English,m,2,0.2,-13.28374128,0.18130759
5e2e147d047efa000c6b833d,170,3,2024-02-27T12:28:43.945Z,french_909.wav,0,pull,319,36,5,2,English,m,3,0.25666667,80.91359626,1.7666171
5e2e147d047efa000c6b833d,171,3,2024-02-27T12:28:43.945Z,french_278.wav,0,pull,303,36,5,2,English,m,0,0.0,0.92058819,0.58166089
5e2e147d047efa000c6b833d,171,3,2024-02-27T12:28:43.945Z,french_278.wav,0,pull,303,36,5,2,English,m,1,0.1,-11.12293645,0.6190237
5e2e147d047efa000c6b833d,171,3,2024-02-27T12:28:43.945Z,french_278.wav,0,pull,303,36,5,2,English,m,2,0.2,51.74113392,1.02661965
5e2e147d047efa000c6b833d,171,3,2024-02-27T12:28:43.945Z,french_278.wav,0,pull,303,36,5,2,English,m,3,0.25666667,59.96495371,0.89915078
5e2e147d047efa000c6b833d,172,3,2024-02-27T12:28:43.945Z,french_699.wav,0,pull,421,36,5,2,English,m,0,0.0,38.02578945,0.2020154
5e2e147d047efa000c6b833d,172,3,2024-02-27T12:28:43.945Z,french_699.wav,0,pull,421,36,5,2,English,m,1,0.1,21.65060188,0.44231897
5e2e147d047efa000c6b833d,172,3,2024-02-27T12:28:43.945Z,french_699.wav,0,pull,421,36,5,2,English,m,2,0.2,73.60148166,1.2945402
5e2e147d047efa000c6b833d,172,3,2024-02-27T12:28:43.945Z,french_699.wav,0,pull,421,36,5,2,English,m,3,0.25666667,94.39755493,1.2548045
5e2e147d047efa000c6b833d,173,3,2024-02-27T12:28:43.945Z,french_670.wav,0,pull,1030,36,5,2,English,m,0,0.0,-38.80852857,0.18324618
5e2e147d047efa000c6b833d,173,3,2024-02-27T12:28:43.945Z,french_670.wav,0,pull,1030,36,5,2,English,m,1,0.1,-8.64332938,0.81857347
5e2e147d047efa000c6b833d,173,3,2024-02-27T12:28:43.945Z,french_670.wav,0,pull,1030,36,5,2,English,m,2,0.2,-55.35683075,1.27404838
5e2e147d047efa000c6b833d,173,3,2024-02-27T12:28:43.945Z,french_670.wav,0,pull,1030,36,5,2,English,m,3,0.25666667,17.57735741,1.12537981
5e2e147d047efa000c6b833d,174,3,2024-02-27T12:28:43.945Z,french_271.wav,0,poule,734,36,5,2,English,m,0,0.0,-86.49285917,1.06522616
5e2e147d047efa000c6b833d,174,3,2024-02-27T12:28:43.945Z,french_271.wav,0,poule,734,36,5,2,English,m,1,0.1,54.15727338,1.2372135
5e2e147d047efa000c6b833d,174,3,2024-02-27T12:28:43.945Z,french_271.wav,0,poule,734,36,5,2,English,m,2,0.2,-55.0986676,1.00925168
5e2e147d047efa000c6b833d,174,3,2024-02-27T12:28:43.945Z,french_271.wav,0,poule,734,36,5,2,English,m,3,0.25666667,7.9559813,0.76785851
5e2e147d047efa000c6b833d,175,3,2024-02-27T12:28:43.945Z,french_510.wav,0,pull,830,36,5,2,English,m,0,0.0,-82.87799208,0.24901575
5e2e147d047efa000c6b833d,175,3,2024-02-27T12:28:43.945Z,french_510.wav,0,pull,830,36,5,2,English,m,1,0.1,65.34741866,0.57837344
5e2e147d047efa000c6b833d,175,3,2024-02-27T12:28:43.945Z,french_510.wav,0,pull,830,36,5,2,English,m,2,0.2,-27.05880307,0.73430832
5e2e147d047efa000c6b833d,175,3,2024-02-27T12:28:43.945Z,french_510.wav,0,pull,830,36,5,2,English,m,3,0.25666667,51.91290048,0.23551409
5e2e147d047efa000c6b833d,176,3,2024-02-27T12:28:43.945Z,french_722.wav,0,poule,1092,36,5,2,English,m,0,0.0,60.56599831,1.86075077
5e2e147d047efa000c6b833d,176,3,2024-02-27T12:28:43.945Z,french_722.wav,0,poule,1092,36,5,2,English,m,1,0.1,-62.73703536,0.80738175
5e2e147d047efa000c6b833d,176,3,2024-02-27T12:28:43.945Z,french_722.wav,0,poule,1092,36,5,2,English,m,2,0.2,-66.13157344,0.80798992
5e2e147d047efa000c6b833d,176,3,2024-02-27T12:28:43.945Z,french_722.wav,0,poule,1092,36,5,2,English,m,3,0.25666667,59.05774632,0.27445487
5e2e147d047efa000c6b833d,177,3,2024-02-27T12:28:43.945Z,french_328.wav,0,poule,594,36,5,2,English,m,0,0.0,-82.86069205,0.98291516
5e2e147d047efa000c6b833d,177,3,2024-02-27T12:28:43.945Z,french_328.wav,0,poule,594,36,5,2,English,m,1,0.1,-76.70984367,1.53428028
5e2e147d047efa000c6b833d,177,3,2024-02-27T12:28:43.945Z,french_328.wav,0,poule,594,36,5,2,English,m,2,0.2,-82.63579977,1.97086095
5e2e147d047efa000c6b833d,177,3,2024-02-27T12:28:43.945Z,french_328.wav,0,poule,594,36,5,2,English,m,3,0.25666667,-88.21582145,0.71580661
5e2e147d047efa000c6b833d,178,3,2024-02-27T12:28:43.945Z,french_865.wav,0,pull,643,36,5,2,English,m,0,0.0,50.32963137,0.72864737
5e2e147d047efa000c6b833d,178,3,2024-02-27T12:28:43.945Z,french_865.wav,0,pull,643,36,5,2,English,m,1,0.1,-34.20059836,0.63562985
5e2e147d047efa000c6b833d,178,3,2024-02-27T12:28:43.945Z,french_865.wav,0,pull,643,36,5,2,English,m,2,0.2,-1.26220982,0.61823994
5e2e147d047efa000c6b833d,178,3,2024-02-27T12:28:43.945Z,french_865.wav,0,pull,643,36,5,2,English,m,3,0.25666667,-35.44054545,1.79442015
5e2e147d047efa000c6b833d,179,3,2024-02-27T12:28:43.945Z,french_13.wav,0,pull,410,36,5,2,English,m,0,0.0,-32.13252367,0.96861247
5e2e147d047efa000c6b833d,179,3,2024-02-27T12:28:43.945Z,french_13.wav,0,pull,410,36,5,2,English,m,1,0.1,70.64746455,0.7552715
5e2e147d047efa000c6b833d,179,3,2024-02-27T12:28:43.945Z,french_13.wav,0,pull,410,36,5,2,English,m,2,0.2,-67.50971173,1.7097775
5e2e147d047efa000c6b833d,179,3,2024-02-27T12:28:43.945Z,french_13.wav,0,pull,410,36,5,2,English,m,3,0.25666667,94.74832862,1.62121013
5e2e147d047efa000c6b833d,180,3,2024-02-27T12:28:43.945Z,french_311.wav,0,poule,494,36,5,2,English,m,0,0.0,-11.62830293,1.293503
5e2e147d047efa000c6b833d,180,3,2024-02-27T12:28:43.945Z,french_311.wav,0,poule,494,36,5,2,English,m,1,0.1,56.07764908,1.34330607
5e2e147d047efa000c6b833d,180,3,2024-02-27T12:28:43.945Z,french_311.wav,0,poule,494,36,5,2,English,m,2,0.2,-9.52866726,1.07022137
5e2e147d047efa000c6b833d,180,3,2024-02-27T12:28:43.945Z,french_311.wav,0,poule,494,36,5,2,English,m,3,0.25666667,52.78176644,0.99072219
5e2e147d047efa000c6b833d,181,3,2024-02-27T12:28:43.945Z,french_186.wav,0,poule,291,36,5,2,English,m,0,0.0,-80.05391137,1.48946386
5e2e147d047efa000c6b833d,181,3,2024-02-27T12:28:43.945Z,french_186.wav,0,poule,291,36,5,2,English,m,1,0.1,-76.4275614,1.35064599
5e2e147d047efa000c6b833d,181,3,2024-02-27T12:28:43.945Z,french_186.wav,0,poule,291,36,5,2,English,m,2,0.2,7.24631247,0.88239158
5e2e147d047efa000c6b833d,181,3,2024-02-27T12:28:43.945Z,french_186.wav,0,poule,291,36,5,2,English,m,3,0.25666667,-47.449751,1.60975952
5e2e147d047efa000c6b833d,182,3,2024-02-27T12:28:43.945Z,french_320.wav,0,poule,254,36,5,2,English,m,0,0.0,-12.08882056,1.76987467
5e2e147d047efa000c6b833d,182,3,2024-02-27T12:28:43.945Z,french_320.wav,0,poule,254,36,5,2,English,m,1,0.1,-69.15560276,1.70079501
5e2e147d047efa000c6b833d,182,3,2024-02-27T12:28:43.945Z,french_320.wav,0,poule,254,36,5,2,English,m,2,0.2,33.30000548,0.4524157
5e2e147d047efa000c6b833d,182,3,2024-02-27T12:28:43.945Z,french_320.wav,0,poule,254,36,5,2,English,m,3,0.25666667,-65.44816773,0.78128465
5e2e147d047efa000c6b833d,183,3,2024-02-27T12:28:43.945Z,french_782.wav,0,pull,907,36,5,2,English,m,0,0.0,-22.12019493,0.33541309
5e2e147d047efa000c6b833d,183,3,2024-02-27T12:28:43.945Z,french_782.wav,0,pull,907,36,5,2,English,m,1,0.1,4.49416446,0.60665876
5e2e147d047efa000c6b833d,183,3,2024-02-27T12:28:43.945Z,french_782.wav,0,pull,907,36,5,2,English,m,2,0.2,95.81757258,0.65040298
5e2e147d047efa000c6b833d,183,3,2024-02-27T12:28:43.945Z,french_782.wav,0,pull,907,36,5,2,English,m,3,0.25666667,37.17912971,0.93901734
5e2e147d047efa000c6b833d,184,3,2024-02-27T12:28:43.945Z,french_238.wav,0,pull,1423,36,5,2,English,m,0,0.0,-7.77377299,1.79398275
5e2e147d047efa000c6b833d,184,3,2024-02-27T12:28:43.945Z,french_238.wav,0,pull,1423,36,5,2,English,m,1,0.1,24.08862247,0.12404774
5e2e147d047efa000c6b833d,184,3,2024-02-27T12:28:43.945Z,french_238.wav,0,pull,1423,36,5,2,English,m,2,0.2,87.10581208,0.76943839
5e2e147d047efa000c6b833d,184,3,2024-02-27T12:28:43.945Z,french_238.wav,0,pull,1423,36,5,2,English,m,3,0.25666667,73.57906518,1.68164748
5e2e147d047efa000c6b833d,185,3,2024-02-27T12:28:43.945Z,french_672.wav,0,pull,425,36,5,2,English,m,0,0.0,-6.36877595,1.19503778
5e2e147d047efa000c6b833d,185,3,2024-02-27T12:28:43.945Z,french_672.wav,0,pull,425,36,5,2,English,m,1,0.1,45.21137281,0.09977323
5e2e147d047efa000c6b833d,185,3,2024-02-27T12:28:43.945Z,french_672.wav,0,pull,425,36,5,2,English,m,2,0.2,80.52737907,0.72738581
5e2e147d047efa000c6b833d,185,3,2024-02-27T12:28:43.945Z,french_672.wav,0,pull,425,36,5,2,English,m,3,0.25666667,83.07440583,0.28099012
5e2e147d047efa000c6b833d,186,3,2024-02-27T12:28:43.945Z,french_952.wav,0,pull,506,36,5,2,English,m,0,0.0,89.6944408,1.65049473
5e2e147d047efa000c6b833d,186,3,2024-02-27T12:28:43.945Z,french_952.wav,0,pull,506,36,5,2,English,m,1,0.1,29.6191185,0.9962644
5e2e147d047efa000c6b833d,186,3,2024-02-27T12:28:43.945Z,french_952.wav,0,pull,506,36,5,2,English,m,2,0.2,82.60414553,0.25471402
5e2e147d047efa000c6b833d,186,3,2024-02-27T12:28:43.945Z,french_952.wav,0,pull,506,36,5,2,English,m,3,0.25666667,-20.57336344,0.85149117
5e2e147d047efa000c6b833d,187,3,2024-02-27T12:28:43.945Z,french_967.wav,0,pull,1122,36,5,2,English,m,0,0.0,79.70451557,1.26694721
5e2e147d047efa000c6b833d,187,3,2024-02-27T12:28:43.945Z,french_967.wav,0,pull,1122,36,5,2,English,m,1,0.1,-96.60134716,0.15349476
5e2e147d047efa000c6b833d,187,3,2024-02-27T12:28:43.945Z,french_967.wav,0,pull,1122,36,5,2,English,m,2,0.2,12.1279289,0.99393875
5e2e147d047efa000c6b833d,187,3,2024-02-27T12:28:43.945Z,french_967.wav,0,pull,1122,36,5,2,English,m,3,0.25666667,-44.3997303,1.32782977
5e2e147d047efa000c6b833d,188,3,2024-02-27T12:28:43.945Z,french_633.wav,0,poule,501,36,5,2,English,m,0,0.0,86.81441283,1.16860967
5e2e147d047efa000c6b833d,188,3,2024-02-27T12:28:43.945Z,french_633.wav,0,poule,501,36,5,2,English,m,1,0.1,-4.21988764,0.88033016
5e2e147d047efa000c6b833d,188,3,2024-02-27T12:28:43.945Z,french_633.wav,0,poule,501,36,5,2,English,m,2,0.2,27.13702415,0.79008737
5e2e147d047efa000c6b833d,188,3,2024-02-27T12:28:43.945Z,french_633.wav,0,poule,501,36,5,2,English,m,3,0.25666667,25.74151368,1.16621919
5e2e147d047efa000c6b833d,189,3,2024-02-27T12:28:43.945Z,french_289.wav,0,pull,607,36,5,2,English,m,0,0.0,-36.76000605,0.0295717
5e2e147d047efa000c6b833d,189,3,2024-02-27T12:28:43.945Z,french_289.wav,0,pull,607,36,5,2,English,m,1,0.1,10.32506406,0.30354321
5e2e147d047efa000c6b833d,189,3,2024-02-27T12:28:43.945Z,french_289.wav,0,pull,607,36,5,2,English,m,2,0.2,-63.16699613,0.64873245
5e2e147d047efa000c6b833d,189,3,2024-02-27T12:28:43.945Z,french_289.wav,0,pull,607,36,5,2,English,m,3,0.25666667,44.4452875,1.33679234
5e2e147d047efa000c6b833d,190,3,2024-02-27T12:28:43.945Z,french_958.wav,0,poule,675,36,5,2,English,m,0,0.0,70.65905064,0.553928
5e2e147d047efa000c6b833d,190,3,2024-02-27T12:28:43.945Z,french_958.wav,0,poule,675,36,5,2,English,m,1,0.1,35.26497317,0.45560148
5e2e147d047efa000c6b833d,190,3,2024-02-27T12:28:43.945Z,french_958.wav,0,poule,675,36,5,2,English,m,2,0.2,64.29920798,1.65592314
5e2e147d047efa000c6b833d,190,3,2024-02-27T12:28:43.945Z,french_958.wav,0,poule,675,36,5,2,English,m,3,0.25666667,78.52381542,1.53733
5e2e147d047efa000c6b833d,191,3,2024-02-27T12:28:43.945Z,french_880.wav,0,poule,457,36,5,2,English,m,0,0.0,34.54343789,1.97652899
5e2e147d047efa000c6b833d,191,3,2024-02-27T12:28:43.945Z,french_880.wav,0,poule,457,36,5,2,English,m,1,0.1,76.62551814,0.35866047
5e2e147d047efa000c6b833d,191,3,2024-02-27T12:28:43.945Z,french_880.wav,0,poule,457,36,5,2,English,m,2,0.2,69.99614697,1.49815227
