subj,trial,block,date,stim,stim_order,response,rt,age,english,french,language,sex,param_index,segment,pitch,stretch
614fcba0d71b7a527a512011,0,0,2024-02-27T12:06:26.359Z,french_734.wav,0,poule,5584,44,5,4,english,f,0,0.0,24.54171911,0.95806039
614fcba0d71b7a527a512011,0,0,2024-02-27T12:06:26.359Z,french_734.wav,0,poule,5584,44,5,4,english,f,1,0.1,62.00217695,1.43009574
614fcba0d71b7a527a512011,0,0,2024-02-27T12:06:26.359Z,french_734.wav,0,poule,5584,44,5,4,english,f,2,0.2,-55.547606,0.47319646
614fcba0d71b7a527a512011,0,0,2024-02-27T12:06:26.359Z,french_734.wav,0,poule,5584,44,5,4,english,f,3,0.25666667,25.07561383,0.83118698
614fcba0d71b7a527a512011,1,0,2024-02-27T12:06:26.359Z,french_400.wav,0,poule,2329,44,5,4,english,f,0,0.0,-93.78872851,1.79390568
614fcba0d71b7a527a512011,1,0,2024-02-27T12:06:26.359Z,french_400.wav,0,poule,2329,44,5,4,english,f,1,0.1,52.09991665,0.45516445
614fcba0d71b7a527a512011,1,0,2024-02-27T12:06:26.359Z,french_400.wav,0,poule,2329,44,5,4,english,f,2,0.2,99.5217597,0.71943881
614fcba0d71b7a527a512011,1,0,2024-02-27T12:06:26.359Z,french_400.wav,0,poule,2329,44,5,4,english,f,3,0.25666667,34.2913143,0.66600511
614fcba0d71b7a527a512011,2,0,2024-02-27T12:06:26.359Z,french_563.wav,0,poule,866,44,5,4,english,f,0,0.0,1.48089244,0.83142925
614fcba0d71b7a527a512011,2,0,2024-02-27T12:06:26.359Z,french_563.wav,0,poule,866,44,5,4,english,f,1,0.1,19.03426996,1.65727988
614fcba0d71b7a527a512011,2,0,2024-02-27T12:06:26.359Z,french_563.wav,0,poule,866,44,5,4,english,f,2,0.2,-28.07832236,1.36487064
614fcba0d71b7a527a512011,2,0,2024-02-27T12:06:26.359Z,french_563.wav,0,poule,866,44,5,4,english,f,3,0.25666667,33.25369521,0.18463038
614fcba0d71b7a527a512011,3,0,2024-02-27T12:06:26.359Z,french_953.wav,0,poule,1200,44,5,4,english,f,0,0.0,-27.22394829,1.27693125
614fcba0d71b7a527a512011,3,0,2024-02-27T12:06:26.359Z,french_953.wav,0,poule,1200,44,5,4,english,f,1,0.1,-3.36109764,0.12331262
614fcba0d71b7a527a512011,3,0,2024-02-27T12:06:26.359Z,french_953.wav,0,poule,1200,44,5,4,english,f,2,0.2,79.96390299,1.48485403
614fcba0d71b7a527a512011,3,0,2024-02-27T12:06:26.359Z,french_953.wav,0,poule,1200,44,5,4,english,f,3,0.25666667,-20.83871742,0.51230705
614fcba0d71b7a527a512011,4,0,2024-02-27T12:06:26.359Z,french_5.wav,0,pull,1614,44,5,4,english,f,0,0.0,-2.8714843,1.07181682
614fcba0d71b7a527a512011,4,0,2024-02-27T12:06:26.359Z,french_5.wav,0,pull,1614,44,5,4,english,f,1,0.1,-50.9441672,0.56733338
614fcba0d71b7a527a512011,4,0,2024-02-27T12:06:26.359Z,french_5.wav,0,pull,1614,44,5,4,english,f,2,0.2,56.21180826,0.26773361
614fcba0d71b7a527a512011,4,0,2024-02-27T12:06:26.359Z,french_5.wav,0,pull,1614,44,5,4,english,f,3,0.25666667,-57.18619957,1.97613039
614fcba0d71b7a527a512011,5,0,2024-02-27T12:06:26.359Z,french_607.wav,0,poule,586,44,5,4,english,f,0,0.0,86.31857573,1.61060215
614fcba0d71b7a527a512011,5,0,2024-02-27T12:06:26.359Z,french_607.wav,0,poule,586,44,5,4,english,f,1,0.1,-46.02697415,1.76940735
614fcba0d71b7a527a512011,5,0,2024-02-27T12:06:26.359Z,french_607.wav,0,poule,586,44,5,4,english,f,2,0.2,45.41214831,0.70600977
614fcba0d71b7a527a512011,5,0,2024-02-27T12:06:26.359Z,french_607.wav,0,poule,586,44,5,4,english,f,3,0.25666667,58.05056059,0.79164166
614fcba0d71b7a527a512011,6,0,2024-02-27T12:06:26.359Z,french_780.wav,0,poule,1112,44,5,4,english,f,0,0.0,-26.4428256,1.10618342
614fcba0d71b7a527a512011,6,0,2024-02-27T12:06:26.359Z,french_780.wav,0,poule,1112,44,5,4,english,f,1,0.1,71.38381251,1.00150251
614fcba0d71b7a527a512011,6,0,2024-02-27T12:06:26.359Z,french_780.wav,0,poule,1112,44,5,4,english,f,2,0.2,23.58434052,0.69699056
614fcba0d71b7a527a512011,6,0,2024-02-27T12:06:26.359Z,french_780.wav,0,poule,1112,44,5,4,english,f,3,0.25666667,-77.81567576,1.24957366
614fcba0d71b7a527a512011,7,0,2024-02-27T12:06:26.359Z,french_266.wav,0,poule,529,44,5,4,english,f,0,0.0,58.27883453,0.79886668
614fcba0d71b7a527a512011,7,0,2024-02-27T12:06:26.359Z,french_266.wav,0,poule,529,44,5,4,english,f,1,0.1,-28.04411439,1.49488383
614fcba0d71b7a527a512011,7,0,2024-02-27T12:06:26.359Z,french_266.wav,0,poule,529,44,5,4,english,f,2,0.2,-38.46127027,0.15170522
614fcba0d71b7a527a512011,7,0,2024-02-27T12:06:26.359Z,french_266.wav,0,poule,529,44,5,4,english,f,3,0.25666667,-84.67234247,1.57053192
614fcba0d71b7a527a512011,8,0,2024-02-27T12:06:26.359Z,french_424.wav,0,poule,653,44,5,4,english,f,0,0.0,61.39777876,0.24361375
614fcba0d71b7a527a512011,8,0,2024-02-27T12:06:26.359Z,french_424.wav,0,poule,653,44,5,4,english,f,1,0.1,-8.76552132,1.04711526
614fcba0d71b7a527a512011,8,0,2024-02-27T12:06:26.359Z,french_424.wav,0,poule,653,44,5,4,english,f,2,0.2,33.4280736,1.33335174
614fcba0d71b7a527a512011,8,0,2024-02-27T12:06:26.359Z,french_424.wav,0,poule,653,44,5,4,english,f,3,0.25666667,8.6823295,0.59077303
614fcba0d71b7a527a512011,9,0,2024-02-27T12:06:26.359Z,french_861.wav,0,poule,1158,44,5,4,english,f,0,0.0,-47.60379447,1.17561317
614fcba0d71b7a527a512011,9,0,2024-02-27T12:06:26.359Z,french_861.wav,0,poule,1158,44,5,4,english,f,1,0.1,8.05593032,0.12143354
614fcba0d71b7a527a512011,9,0,2024-02-27T12:06:26.359Z,french_861.wav,0,poule,1158,44,5,4,english,f,2,0.2,-18.27545885,0.42948795
614fcba0d71b7a527a512011,9,0,2024-02-27T12:06:26.359Z,french_861.wav,0,poule,1158,44,5,4,english,f,3,0.25666667,49.68481265,0.3832977
614fcba0d71b7a527a512011,10,0,2024-02-27T12:06:26.359Z,french_576.wav,0,pull,725,44,5,4,english,f,0,0.0,-77.18723008,1.93193878
614fcba0d71b7a527a512011,10,0,2024-02-27T12:06:26.359Z,french_576.wav,0,pull,725,44,5,4,english,f,1,0.1,32.49939157,0.06461953
614fcba0d71b7a527a512011,10,0,2024-02-27T12:06:26.359Z,french_576.wav,0,pull,725,44,5,4,english,f,2,0.2,-11.29964886,0.24702868
614fcba0d71b7a527a512011,10,0,2024-02-27T12:06:26.359Z,french_576.wav,0,pull,725,44,5,4,english,f,3,0.25666667,24.65334735,1.68209329
614fcba0d71b7a527a512011,11,0,2024-02-27T12:06:26.359Z,french_144.wav,0,poule,777,44,5,4,english,f,0,0.0,54.7439873,1.65699933
614fcba0d71b7a527a512011,11,0,2024-02-27T12:06:26.359Z,french_144.wav,0,poule,777,44,5,4,english,f,1,0.1,-90.40840953,0.10946834
614fcba0d71b7a527a512011,11,0,2024-02-27T12:06:26.359Z,french_144.wav,0,poule,777,44,5,4,english,f,2,0.2,-23.8496949,0.63660565
614fcba0d71b7a527a512011,11,0,2024-02-27T12:06:26.359Z,french_144.wav,0,poule,777,44,5,4,english,f,3,0.25666667,9.69074846,0.31092992
614fcba0d71b7a527a512011,12,0,2024-02-27T12:06:26.359Z,french_787.wav,0,poule,584,44,5,4,english,f,0,0.0,-96.56930436,0.95025141
614fcba0d71b7a527a512011,12,0,2024-02-27T12:06:26.359Z,french_787.wav,0,poule,584,44,5,4,english,f,1,0.1,-14.18878177,1.10577547
614fcba0d71b7a527a512011,12,0,2024-02-27T12:06:26.359Z,french_787.wav,0,poule,584,44,5,4,english,f,2,0.2,-34.79884993,0.4132657
614fcba0d71b7a527a512011,12,0,2024-02-27T12:06:26.359Z,french_787.wav,0,poule,584,44,5,4,english,f,3,0.25666667,-70.75211023,0.64958401
614fcba0d71b7a527a512011,13,0,2024-02-27T12:06:26.359Z,french_184.wav,0,poule,515,44,5,4,english,f,0,0.0,48.36861498,1.86119552
614fcba0d71b7a527a512011,13,0,2024-02-27T12:06:26.359Z,french_184.wav,0,poule,515,44,5,4,english,f,1,0.1,-2.94347193,0.96576449
614fcba0d71b7a527a512011,13,0,2024-02-27T12:06:26.359Z,french_184.wav,0,poule,515,44,5,4,english,f,2,0.2,-52.00472355,1.69315982
614fcba0d71b7a527a512011,13,0,2024-02-27T12:06:26.359Z,french_184.wav,0,poule,515,44,5,4,english,f,3,0.25666667,-36.80137507,0.52689434
614fcba0d71b7a527a512011,14,0,2024-02-27T12:06:26.359Z,french_778.wav,0,poule,559,44,5,4,english,f,0,0.0,-2.76577218,0.74255963
614fcba0d71b7a527a512011,14,0,2024-02-27T12:06:26.359Z,french_778.wav,0,poule,559,44,5,4,english,f,1,0.1,4.49344871,1.48176587
614fcba0d71b7a527a512011,14,0,2024-02-27T12:06:26.359Z,french_778.wav,0,poule,559,44,5,4,english,f,2,0.2,68.81762054,1.59399306
614fcba0d71b7a527a512011,14,0,2024-02-27T12:06:26.359Z,french_778.wav,0,poule,559,44,5,4,english,f,3,0.25666667,89.13075651,1.18058537
614fcba0d71b7a527a512011,15,0,2024-02-27T12:06:26.359Z,french_382.wav,0,poule,1421,44,5,4,english,f,0,0.0,-28.76508335,1.75225743
614fcba0d71b7a527a512011,15,0,2024-02-27T12:06:26.359Z,french_382.wav,0,poule,1421,44,5,4,english,f,1,0.1,37.36249056,1.09069334
614fcba0d71b7a527a512011,15,0,2024-02-27T12:06:26.359Z,french_382.wav,0,poule,1421,44,5,4,english,f,2,0.2,12.02014155,1.36067751
614fcba0d71b7a527a512011,15,0,2024-02-27T12:06:26.359Z,french_382.wav,0,poule,1421,44,5,4,english,f,3,0.25666667,-78.65251684,0.9131152
614fcba0d71b7a527a512011,16,0,2024-02-27T12:06:26.359Z,french_864.wav,0,poule,537,44,5,4,english,f,0,0.0,27.21382842,1.35032716
614fcba0d71b7a527a512011,16,0,2024-02-27T12:06:26.359Z,french_864.wav,0,poule,537,44,5,4,english,f,1,0.1,-8.96687562,1.41041806
614fcba0d71b7a527a512011,16,0,2024-02-27T12:06:26.359Z,french_864.wav,0,poule,537,44,5,4,english,f,2,0.2,47.01768167,0.47669103
614fcba0d71b7a527a512011,16,0,2024-02-27T12:06:26.359Z,french_864.wav,0,poule,537,44,5,4,english,f,3,0.25666667,98.93956807,1.26265942
614fcba0d71b7a527a512011,17,0,2024-02-27T12:06:26.359Z,french_38.wav,0,poule,988,44,5,4,english,f,0,0.0,-0.72741882,1.73508679
614fcba0d71b7a527a512011,17,0,2024-02-27T12:06:26.359Z,french_38.wav,0,poule,988,44,5,4,english,f,1,0.1,17.06804162,1.04827054
614fcba0d71b7a527a512011,17,0,2024-02-27T12:06:26.359Z,french_38.wav,0,poule,988,44,5,4,english,f,2,0.2,-90.47269694,0.06966066
614fcba0d71b7a527a512011,17,0,2024-02-27T12:06:26.359Z,french_38.wav,0,poule,988,44,5,4,english,f,3,0.25666667,-46.03968341,1.13213122
614fcba0d71b7a527a512011,18,0,2024-02-27T12:06:26.359Z,french_27.wav,0,poule,1198,44,5,4,english,f,0,0.0,-24.90567196,0.77746957
614fcba0d71b7a527a512011,18,0,2024-02-27T12:06:26.359Z,french_27.wav,0,poule,1198,44,5,4,english,f,1,0.1,-76.22865867,0.36572894
614fcba0d71b7a527a512011,18,0,2024-02-27T12:06:26.359Z,french_27.wav,0,poule,1198,44,5,4,english,f,2,0.2,-70.77946922,1.07248112
614fcba0d71b7a527a512011,18,0,2024-02-27T12:06:26.359Z,french_27.wav,0,poule,1198,44,5,4,english,f,3,0.25666667,-40.13018173,1.35477464
614fcba0d71b7a527a512011,19,0,2024-02-27T12:06:26.359Z,french_658.wav,0,poule,959,44,5,4,english,f,0,0.0,-96.64822149,1.39139244
614fcba0d71b7a527a512011,19,0,2024-02-27T12:06:26.359Z,french_658.wav,0,poule,959,44,5,4,english,f,1,0.1,49.0828934,0.52881355
614fcba0d71b7a527a512011,19,0,2024-02-27T12:06:26.359Z,french_658.wav,0,poule,959,44,5,4,english,f,2,0.2,12.17217875,0.81868418
614fcba0d71b7a527a512011,19,0,2024-02-27T12:06:26.359Z,french_658.wav,0,poule,959,44,5,4,english,f,3,0.25666667,21.40759607,0.56425508
614fcba0d71b7a527a512011,20,0,2024-02-27T12:06:26.359Z,french_910.wav,0,poule,2004,44,5,4,english,f,0,0.0,-48.65293901,0.34246772
614fcba0d71b7a527a512011,20,0,2024-02-27T12:06:26.359Z,french_910.wav,0,poule,2004,44,5,4,english,f,1,0.1,-4.89021115,1.03510625
614fcba0d71b7a527a512011,20,0,2024-02-27T12:06:26.359Z,french_910.wav,0,poule,2004,44,5,4,english,f,2,0.2,-57.2651588,1.59317518
614fcba0d71b7a527a512011,20,0,2024-02-27T12:06:26.359Z,french_910.wav,0,poule,2004,44,5,4,english,f,3,0.25666667,-57.53771148,0.91667414
614fcba0d71b7a527a512011,21,0,2024-02-27T12:06:26.359Z,french_554.wav,0,poule,520,44,5,4,english,f,0,0.0,-31.9650703,1.45983082
614fcba0d71b7a527a512011,21,0,2024-02-27T12:06:26.359Z,french_554.wav,0,poule,520,44,5,4,english,f,1,0.1,78.95364823,0.40013818
614fcba0d71b7a527a512011,21,0,2024-02-27T12:06:26.359Z,french_554.wav,0,poule,520,44,5,4,english,f,2,0.2,-0.5294376,0.96374115
614fcba0d71b7a527a512011,21,0,2024-02-27T12:06:26.359Z,french_554.wav,0,poule,520,44,5,4,english,f,3,0.25666667,-36.78296127,1.20732856
614fcba0d71b7a527a512011,22,0,2024-02-27T12:06:26.359Z,french_698.wav,0,poule,835,44,5,4,english,f,0,0.0,77.87531809,1.86418809
614fcba0d71b7a527a512011,22,0,2024-02-27T12:06:26.359Z,french_698.wav,0,poule,835,44,5,4,english,f,1,0.1,-26.89699032,0.30357323
614fcba0d71b7a527a512011,22,0,2024-02-27T12:06:26.359Z,french_698.wav,0,poule,835,44,5,4,english,f,2,0.2,-54.93316964,1.97458381
614fcba0d71b7a527a512011,22,0,2024-02-27T12:06:26.359Z,french_698.wav,0,poule,835,44,5,4,english,f,3,0.25666667,-94.94644501,1.01877906
614fcba0d71b7a527a512011,23,0,2024-02-27T12:06:26.359Z,french_786.wav,0,poule,603,44,5,4,english,f,0,0.0,46.81596915,0.36321177
614fcba0d71b7a527a512011,23,0,2024-02-27T12:06:26.359Z,french_786.wav,0,poule,603,44,5,4,english,f,1,0.1,35.10066142,1.24415108
614fcba0d71b7a527a512011,23,0,2024-02-27T12:06:26.359Z,french_786.wav,0,poule,603,44,5,4,english,f,2,0.2,15.54537814,1.19760647
614fcba0d71b7a527a512011,23,0,2024-02-27T12:06:26.359Z,french_786.wav,0,poule,603,44,5,4,english,f,3,0.25666667,97.25347056,0.79076548
614fcba0d71b7a527a512011,24,0,2024-02-27T12:06:26.359Z,french_703.wav,0,poule,406,44,5,4,english,f,0,0.0,84.48201003,0.82331622
614fcba0d71b7a527a512011,24,0,2024-02-27T12:06:26.359Z,french_703.wav,0,poule,406,44,5,4,english,f,1,0.1,-13.2968245,1.50639414
614fcba0d71b7a527a512011,24,0,2024-02-27T12:06:26.359Z,french_703.wav,0,poule,406,44,5,4,english,f,2,0.2,-49.01598543,0.83966854
614fcba0d71b7a527a512011,24,0,2024-02-27T12:06:26.359Z,french_703.wav,0,poule,406,44,5,4,english,f,3,0.25666667,-63.56156529,1.27848793
614fcba0d71b7a527a512011,25,0,2024-02-27T12:06:26.359Z,french_514.wav,0,poule,853,44,5,4,english,f,0,0.0,-99.76210077,0.60226465
614fcba0d71b7a527a512011,25,0,2024-02-27T12:06:26.359Z,french_514.wav,0,poule,853,44,5,4,english,f,1,0.1,-57.79872095,0.08785461
614fcba0d71b7a527a512011,25,0,2024-02-27T12:06:26.359Z,french_514.wav,0,poule,853,44,5,4,english,f,2,0.2,-51.12304885,1.82353854
614fcba0d71b7a527a512011,25,0,2024-02-27T12:06:26.359Z,french_514.wav,0,poule,853,44,5,4,english,f,3,0.25666667,51.53874679,1.77009288
614fcba0d71b7a527a512011,26,0,2024-02-27T12:06:26.359Z,french_572.wav,0,pull,1313,44,5,4,english,f,0,0.0,39.88309013,1.43577141
614fcba0d71b7a527a512011,26,0,2024-02-27T12:06:26.359Z,french_572.wav,0,pull,1313,44,5,4,english,f,1,0.1,-96.79862589,0.70754044
614fcba0d71b7a527a512011,26,0,2024-02-27T12:06:26.359Z,french_572.wav,0,pull,1313,44,5,4,english,f,2,0.2,-22.12237888,0.13254452
614fcba0d71b7a527a512011,26,0,2024-02-27T12:06:26.359Z,french_572.wav,0,pull,1313,44,5,4,english,f,3,0.25666667,-29.01009828,0.2743676
614fcba0d71b7a527a512011,27,0,2024-02-27T12:06:26.359Z,french_757.wav,0,poule,535,44,5,4,english,f,0,0.0,-5.26413125,0.41150667
614fcba0d71b7a527a512011,27,0,2024-02-27T12:06:26.359Z,french_757.wav,0,poule,535,44,5,4,english,f,1,0.1,38.836188,1.11153135
614fcba0d71b7a527a512011,27,0,2024-02-27T12:06:26.359Z,french_757.wav,0,poule,535,44,5,4,english,f,2,0.2,-78.24448509,1.45974829
614fcba0d71b7a527a512011,27,0,2024-02-27T12:06:26.359Z,french_757.wav,0,poule,535,44,5,4,english,f,3,0.25666667,87.29383111,0.22730951
614fcba0d71b7a527a512011,28,0,2024-02-27T12:06:26.359Z,french_247.wav,0,poule,662,44,5,4,english,f,0,0.0,31.18827639,0.50646138
614fcba0d71b7a527a512011,28,0,2024-02-27T12:06:26.359Z,french_247.wav,0,poule,662,44,5,4,english,f,1,0.1,28.69447174,0.63180121
614fcba0d71b7a527a512011,28,0,2024-02-27T12:06:26.359Z,french_247.wav,0,poule,662,44,5,4,english,f,2,0.2,-68.83088208,1.73165753
614fcba0d71b7a527a512011,28,0,2024-02-27T12:06:26.359Z,french_247.wav,0,poule,662,44,5,4,english,f,3,0.25666667,44.69710936,1.77415142
614fcba0d71b7a527a512011,29,0,2024-02-27T12:06:26.359Z,french_686.wav,0,poule,606,44,5,4,english,f,0,0.0,20.49516986,1.86861476
614fcba0d71b7a527a512011,29,0,2024-02-27T12:06:26.359Z,french_686.wav,0,poule,606,44,5,4,english,f,1,0.1,27.4040505,1.87689714
614fcba0d71b7a527a512011,29,0,2024-02-27T12:06:26.359Z,french_686.wav,0,poule,606,44,5,4,english,f,2,0.2,31.96095965,0.80940067
614fcba0d71b7a527a512011,29,0,2024-02-27T12:06:26.359Z,french_686.wav,0,poule,606,44,5,4,english,f,3,0.25666667,61.08066052,0.04075967
614fcba0d71b7a527a512011,30,0,2024-02-27T12:06:26.359Z,french_338.wav,0,poule,575,44,5,4,english,f,0,0.0,-59.42111132,1.60060286
614fcba0d71b7a527a512011,30,0,2024-02-27T12:06:26.359Z,french_338.wav,0,poule,575,44,5,4,english,f,1,0.1,-69.70478814,0.22517269
614fcba0d71b7a527a512011,30,0,2024-02-27T12:06:26.359Z,french_338.wav,0,poule,575,44,5,4,english,f,2,0.2,-12.60920347,1.52190999
614fcba0d71b7a527a512011,30,0,2024-02-27T12:06:26.359Z,french_338.wav,0,poule,575,44,5,4,english,f,3,0.25666667,-82.44797384,0.82265445
614fcba0d71b7a527a512011,31,0,2024-02-27T12:06:26.359Z,french_507.wav,0,poule,400,44,5,4,english,f,0,0.0,-39.00130205,0.88980729
614fcba0d71b7a527a512011,31,0,2024-02-27T12:06:26.359Z,french_507.wav,0,poule,400,44,5,4,english,f,1,0.1,8.15448279,1.12034654
614fcba0d71b7a527a512011,31,0,2024-02-27T12:06:26.359Z,french_507.wav,0,poule,400,44,5,4,english,f,2,0.2,-39.88004764,1.15006522
614fcba0d71b7a527a512011,31,0,2024-02-27T12:06:26.359Z,french_507.wav,0,poule,400,44,5,4,english,f,3,0.25666667,66.54300966,1.10945683
614fcba0d71b7a527a512011,32,0,2024-02-27T12:06:26.359Z,french_323.wav,0,poule,948,44,5,4,english,f,0,0.0,32.98542524,1.64001987
614fcba0d71b7a527a512011,32,0,2024-02-27T12:06:26.359Z,french_323.wav,0,poule,948,44,5,4,english,f,1,0.1,23.31860642,0.049539
614fcba0d71b7a527a512011,32,0,2024-02-27T12:06:26.359Z,french_323.wav,0,poule,948,44,5,4,english,f,2,0.2,85.24347173,1.32093022
614fcba0d71b7a527a512011,32,0,2024-02-27T12:06:26.359Z,french_323.wav,0,poule,948,44,5,4,english,f,3,0.25666667,17.19160257,0.33485384
614fcba0d71b7a527a512011,33,0,2024-02-27T12:06:26.359Z,french_932.wav,0,poule,564,44,5,4,english,f,0,0.0,-46.06723632,0.59994833
614fcba0d71b7a527a512011,33,0,2024-02-27T12:06:26.359Z,french_932.wav,0,poule,564,44,5,4,english,f,1,0.1,66.80974186,1.29573715
614fcba0d71b7a527a512011,33,0,2024-02-27T12:06:26.359Z,french_932.wav,0,poule,564,44,5,4,english,f,2,0.2,39.28685727,0.97302603
614fcba0d71b7a527a512011,33,0,2024-02-27T12:06:26.359Z,french_932.wav,0,poule,564,44,5,4,english,f,3,0.25666667,-66.26323275,1.65300799
614fcba0d71b7a527a512011,34,0,2024-02-27T12:06:26.359Z,french_66.wav,0,poule,681,44,5,4,english,f,0,0.0,3.84925572,1.88939432
614fcba0d71b7a527a512011,34,0,2024-02-27T12:06:26.359Z,french_66.wav,0,poule,681,44,5,4,english,f,1,0.1,75.48045935,0.3012797
614fcba0d71b7a527a512011,34,0,2024-02-27T12:06:26.359Z,french_66.wav,0,poule,681,44,5,4,english,f,2,0.2,22.76512124,0.5045755
614fcba0d71b7a527a512011,34,0,2024-02-27T12:06:26.359Z,french_66.wav,0,poule,681,44,5,4,english,f,3,0.25666667,45.08821781,1.63034278
614fcba0d71b7a527a512011,35,0,2024-02-27T12:06:26.359Z,french_833.wav,0,poule,1204,44,5,4,english,f,0,0.0,-6.16556676,1.54939137
614fcba0d71b7a527a512011,35,0,2024-02-27T12:06:26.359Z,french_833.wav,0,poule,1204,44,5,4,english,f,1,0.1,-32.48345992,0.45028205
614fcba0d71b7a527a512011,35,0,2024-02-27T12:06:26.359Z,french_833.wav,0,poule,1204,44,5,4,english,f,2,0.2,-28.28033803,0.55227402
614fcba0d71b7a527a512011,35,0,2024-02-27T12:06:26.359Z,french_833.wav,0,poule,1204,44,5,4,english,f,3,0.25666667,48.73445236,0.7790443
614fcba0d71b7a527a512011,36,0,2024-02-27T12:06:26.359Z,french_278.wav,0,poule,965,44,5,4,english,f,0,0.0,0.92058819,0.58166089
614fcba0d71b7a527a512011,36,0,2024-02-27T12:06:26.359Z,french_278.wav,0,poule,965,44,5,4,english,f,1,0.1,-11.12293645,0.6190237
614fcba0d71b7a527a512011,36,0,2024-02-27T12:06:26.359Z,french_278.wav,0,poule,965,44,5,4,english,f,2,0.2,51.74113392,1.02661965
614fcba0d71b7a527a512011,36,0,2024-02-27T12:06:26.359Z,french_278.wav,0,poule,965,44,5,4,english,f,3,0.25666667,59.96495371,0.89915078
614fcba0d71b7a527a512011,37,0,2024-02-27T12:06:26.359Z,french_115.wav,0,poule,629,44,5,4,english,f,0,0.0,79.30886426,0.55665137
614fcba0d71b7a527a512011,37,0,2024-02-27T12:06:26.359Z,french_115.wav,0,poule,629,44,5,4,english,f,1,0.1,38.64809671,1.15526328
614fcba0d71b7a527a512011,37,0,2024-02-27T12:06:26.359Z,french_115.wav,0,poule,629,44,5,4,english,f,2,0.2,24.58912206,1.92727625
614fcba0d71b7a527a512011,37,0,2024-02-27T12:06:26.359Z,french_115.wav,0,poule,629,44,5,4,english,f,3,0.25666667,-50.07125558,0.36414304
614fcba0d71b7a527a512011,38,0,2024-02-27T12:06:26.359Z,french_704.wav,0,poule,1320,44,5,4,english,f,0,0.0,47.78235411,1.53952375
614fcba0d71b7a527a512011,38,0,2024-02-27T12:06:26.359Z,french_704.wav,0,poule,1320,44,5,4,english,f,1,0.1,-55.43932,1.15285736
614fcba0d71b7a527a512011,38,0,2024-02-27T12:06:26.359Z,french_704.wav,0,poule,1320,44,5,4,english,f,2,0.2,-4.4200676,1.9057017
614fcba0d71b7a527a512011,38,0,2024-02-27T12:06:26.359Z,french_704.wav,0,poule,1320,44,5,4,english,f,3,0.25666667,92.51428674,1.54517481
614fcba0d71b7a527a512011,39,0,2024-02-27T12:06:26.359Z,french_878.wav,0,poule,895,44,5,4,english,f,0,0.0,-11.41587957,1.5495917
614fcba0d71b7a527a512011,39,0,2024-02-27T12:06:26.359Z,french_878.wav,0,poule,895,44,5,4,english,f,1,0.1,-52.86145621,0.92573348
614fcba0d71b7a527a512011,39,0,2024-02-27T12:06:26.359Z,french_878.wav,0,poule,895,44,5,4,english,f,2,0.2,10.56905128,0.71371417
614fcba0d71b7a527a512011,39,0,2024-02-27T12:06:26.359Z,french_878.wav,0,poule,895,44,5,4,english,f,3,0.25666667,87.23323491,0.72785239
614fcba0d71b7a527a512011,40,0,2024-02-27T12:06:26.359Z,french_253.wav,0,pull,1450,44,5,4,english,f,0,0.0,46.57034738,1.71066879
614fcba0d71b7a527a512011,40,0,2024-02-27T12:06:26.359Z,french_253.wav,0,pull,1450,44,5,4,english,f,1,0.1,95.71705704,0.77231307
614fcba0d71b7a527a512011,40,0,2024-02-27T12:06:26.359Z,french_253.wav,0,pull,1450,44,5,4,english,f,2,0.2,-25.2299753,0.81370988
614fcba0d71b7a527a512011,40,0,2024-02-27T12:06:26.359Z,french_253.wav,0,pull,1450,44,5,4,english,f,3,0.25666667,-10.51050389,1.71668189
614fcba0d71b7a527a512011,41,0,2024-02-27T12:06:26.359Z,french_397.wav,0,pull,1068,44,5,4,english,f,0,0.0,-13.81470081,1.26162917
614fcba0d71b7a527a512011,41,0,2024-02-27T12:06:26.359Z,french_397.wav,0,pull,1068,44,5,4,english,f,1,0.1,50.38281738,1.19612478
614fcba0d71b7a527a512011,41,0,2024-02-27T12:06:26.359Z,french_397.wav,0,pull,1068,44,5,4,english,f,2,0.2,50.22980228,1.02842354
614fcba0d71b7a527a512011,41,0,2024-02-27T12:06:26.359Z,french_397.wav,0,pull,1068,44,5,4,english,f,3,0.25666667,-83.86271009,0.53389444
614fcba0d71b7a527a512011,42,0,2024-02-27T12:06:26.359Z,french_470.wav,0,poule,368,44,5,4,english,f,0,0.0,35.80891732,1.18984778
614fcba0d71b7a527a512011,42,0,2024-02-27T12:06:26.359Z,french_470.wav,0,poule,368,44,5,4,english,f,1,0.1,-69.45523052,0.95727089
614fcba0d71b7a527a512011,42,0,2024-02-27T12:06:26.359Z,french_470.wav,0,poule,368,44,5,4,english,f,2,0.2,14.95046841,1.94704509
614fcba0d71b7a527a512011,42,0,2024-02-27T12:06:26.359Z,french_470.wav,0,poule,368,44,5,4,english,f,3,0.25666667,17.64450191,1.37814226
614fcba0d71b7a527a512011,43,0,2024-02-27T12:06:26.359Z,french_884.wav,0,poule,470,44,5,4,english,f,0,0.0,44.18626496,0.26295785
614fcba0d71b7a527a512011,43,0,2024-02-27T12:06:26.359Z,french_884.wav,0,poule,470,44,5,4,english,f,1,0.1,-64.95611773,1.5401655
614fcba0d71b7a527a512011,43,0,2024-02-27T12:06:26.359Z,french_884.wav,0,poule,470,44,5,4,english,f,2,0.2,-49.1644617,1.25089254
614fcba0d71b7a527a512011,43,0,2024-02-27T12:06:26.359Z,french_884.wav,0,poule,470,44,5,4,english,f,3,0.25666667,-37.6294576,1.82171191
614fcba0d71b7a527a512011,44,0,2024-02-27T12:06:26.359Z,french_904.wav,0,pull,1351,44,5,4,english,f,0,0.0,-3.33486868,1.84649441
614fcba0d71b7a527a512011,44,0,2024-02-27T12:06:26.359Z,french_904.wav,0,pull,1351,44,5,4,english,f,1,0.1,-72.00110742,1.91186975
614fcba0d71b7a527a512011,44,0,2024-02-27T12:06:26.359Z,french_904.wav,0,pull,1351,44,5,4,english,f,2,0.2,32.54458222,0.71589927
614fcba0d71b7a527a512011,44,0,2024-02-27T12:06:26.359Z,french_904.wav,0,pull,1351,44,5,4,english,f,3,0.25666667,13.13318907,0.21658524
614fcba0d71b7a527a512011,45,0,2024-02-27T12:06:26.359Z,french_392.wav,0,poule,551,44,5,4,english,f,0,0.0,-11.14407327,1.55151156
614fcba0d71b7a527a512011,45,0,2024-02-27T12:06:26.359Z,french_392.wav,0,poule,551,44,5,4,english,f,1,0.1,-20.38505303,0.49285085
614fcba0d71b7a527a512011,45,0,2024-02-27T12:06:26.359Z,french_392.wav,0,poule,551,44,5,4,english,f,2,0.2,21.27154916,0.56092788
614fcba0d71b7a527a512011,45,0,2024-02-27T12:06:26.359Z,french_392.wav,0,poule,551,44,5,4,english,f,3,0.25666667,-29.54267832,1.54424804
614fcba0d71b7a527a512011,46,0,2024-02-27T12:06:26.359Z,french_238.wav,0,poule,921,44,5,4,english,f,0,0.0,-7.77377299,1.79398275
614fcba0d71b7a527a512011,46,0,2024-02-27T12:06:26.359Z,french_238.wav,0,poule,921,44,5,4,english,f,1,0.1,24.08862247,0.12404774
614fcba0d71b7a527a512011,46,0,2024-02-27T12:06:26.359Z,french_238.wav,0,poule,921,44,5,4,english,f,2,0.2,87.10581208,0.76943839
614fcba0d71b7a527a512011,46,0,2024-02-27T12:06:26.359Z,french_238.wav,0,poule,921,44,5,4,english,f,3,0.25666667,73.57906518,1.68164748
614fcba0d71b7a527a512011,47,0,2024-02-27T12:06:26.359Z,french_58.wav,0,poule,630,44,5,4,english,f,0,0.0,-93.60375949,1.5756198
614fcba0d71b7a527a512011,47,0,2024-02-27T12:06:26.359Z,french_58.wav,0,poule,630,44,5,4,english,f,1,0.1,-58.1861341,0.16904688
614fcba0d71b7a527a512011,47,0,2024-02-27T12:06:26.359Z,french_58.wav,0,poule,630,44,5,4,english,f,2,0.2,21.81225572,0.76612631
614fcba0d71b7a527a512011,47,0,2024-02-27T12:06:26.359Z,french_58.wav,0,poule,630,44,5,4,english,f,3,0.25666667,-92.64730678,0.1809539
614fcba0d71b7a527a512011,48,0,2024-02-27T12:06:26.359Z,french_96.wav,0,poule,402,44,5,4,english,f,0,0.0,-35.67204937,1.29614461
614fcba0d71b7a527a512011,48,0,2024-02-27T12:06:26.359Z,french_96.wav,0,poule,402,44,5,4,english,f,1,0.1,-14.5967046,0.74963508
614fcba0d71b7a527a512011,48,0,2024-02-27T12:06:26.359Z,french_96.wav,0,poule,402,44,5,4,english,f,2,0.2,23.77171322,0.96397917
614fcba0d71b7a527a512011,48,0,2024-02-27T12:06:26.359Z,french_96.wav,0,poule,402,44,5,4,english,f,3,0.25666667,-43.45086892,0.69619931
614fcba0d71b7a527a512011,49,0,2024-02-27T12:06:26.359Z,french_108.wav,0,poule,425,44,5,4,english,f,0,0.0,-38.50953818,1.14488094
614fcba0d71b7a527a512011,49,0,2024-02-27T12:06:26.359Z,french_108.wav,0,poule,425,44,5,4,english,f,1,0.1,44.47590219,1.3820118
614fcba0d71b7a527a512011,49,0,2024-02-27T12:06:26.359Z,french_108.wav,0,poule,425,44,5,4,english,f,2,0.2,35.73303492,1.04224754
614fcba0d71b7a527a512011,49,0,2024-02-27T12:06:26.359Z,french_108.wav,0,poule,425,44,5,4,english,f,3,0.25666667,-90.35369633,1.51933791
614fcba0d71b7a527a512011,50,1,2024-02-27T12:06:26.359Z,french_309.wav,0,poule,540,44,5,4,english,f,0,0.0,-43.78964232,0.29425556
614fcba0d71b7a527a512011,50,1,2024-02-27T12:06:26.359Z,french_309.wav,0,poule,540,44,5,4,english,f,1,0.1,78.2069368,1.94220297
614fcba0d71b7a527a512011,50,1,2024-02-27T12:06:26.359Z,french_309.wav,0,poule,540,44,5,4,english,f,2,0.2,-31.15110399,1.27018493
614fcba0d71b7a527a512011,50,1,2024-02-27T12:06:26.359Z,french_309.wav,0,poule,540,44,5,4,english,f,3,0.25666667,-73.94684578,1.0788176
614fcba0d71b7a527a512011,51,1,2024-02-27T12:06:26.359Z,french_598.wav,0,poule,914,44,5,4,english,f,0,0.0,21.68363658,1.67467049
614fcba0d71b7a527a512011,51,1,2024-02-27T12:06:26.359Z,french_598.wav,0,poule,914,44,5,4,english,f,1,0.1,-21.32750779,0.64095668
614fcba0d71b7a527a512011,51,1,2024-02-27T12:06:26.359Z,french_598.wav,0,poule,914,44,5,4,english,f,2,0.2,7.72514192,0.23575639
614fcba0d71b7a527a512011,51,1,2024-02-27T12:06:26.359Z,french_598.wav,0,poule,914,44,5,4,english,f,3,0.25666667,-29.17866519,0.51628457
614fcba0d71b7a527a512011,52,1,2024-02-27T12:06:26.359Z,french_290.wav,0,poule,463,44,5,4,english,f,0,0.0,44.0184541,1.95811598
614fcba0d71b7a527a512011,52,1,2024-02-27T12:06:26.359Z,french_290.wav,0,poule,463,44,5,4,english,f,1,0.1,34.90106467,0.34352798
614fcba0d71b7a527a512011,52,1,2024-02-27T12:06:26.359Z,french_290.wav,0,poule,463,44,5,4,english,f,2,0.2,79.90705756,0.77799391
614fcba0d71b7a527a512011,52,1,2024-02-27T12:06:26.359Z,french_290.wav,0,poule,463,44,5,4,english,f,3,0.25666667,-45.9390609,0.55231539
614fcba0d71b7a527a512011,53,1,2024-02-27T12:06:26.359Z,french_711.wav,0,poule,418,44,5,4,english,f,0,0.0,35.46622773,1.8142291
614fcba0d71b7a527a512011,53,1,2024-02-27T12:06:26.359Z,french_711.wav,0,poule,418,44,5,4,english,f,1,0.1,62.41897997,1.39339975
614fcba0d71b7a527a512011,53,1,2024-02-27T12:06:26.359Z,french_711.wav,0,poule,418,44,5,4,english,f,2,0.2,-12.16405894,1.57822467
614fcba0d71b7a527a512011,53,1,2024-02-27T12:06:26.359Z,french_711.wav,0,poule,418,44,5,4,english,f,3,0.25666667,23.8007589,1.63044315
614fcba0d71b7a527a512011,54,1,2024-02-27T12:06:26.359Z,french_643.wav,0,poule,406,44,5,4,english,f,0,0.0,63.91458592,0.06817761
614fcba0d71b7a527a512011,54,1,2024-02-27T12:06:26.359Z,french_643.wav,0,poule,406,44,5,4,english,f,1,0.1,-87.79617997,1.72915736
614fcba0d71b7a527a512011,54,1,2024-02-27T12:06:26.359Z,french_643.wav,0,poule,406,44,5,4,english,f,2,0.2,-35.4412084,1.06879305
614fcba0d71b7a527a512011,54,1,2024-02-27T12:06:26.359Z,french_643.wav,0,poule,406,44,5,4,english,f,3,0.25666667,41.82610472,1.26220402
614fcba0d71b7a527a512011,55,1,2024-02-27T12:06:26.359Z,french_851.wav,0,poule,289,44,5,4,english,f,0,0.0,-16.14738252,1.77999263
614fcba0d71b7a527a512011,55,1,2024-02-27T12:06:26.359Z,french_851.wav,0,poule,289,44,5,4,english,f,1,0.1,19.84507786,0.90385235
614fcba0d71b7a527a512011,55,1,2024-02-27T12:06:26.359Z,french_851.wav,0,poule,289,44,5,4,english,f,2,0.2,-46.64792285,0.51993189
614fcba0d71b7a527a512011,55,1,2024-02-27T12:06:26.359Z,french_851.wav,0,poule,289,44,5,4,english,f,3,0.25666667,-81.41203514,1.06673989
614fcba0d71b7a527a512011,56,1,2024-02-27T12:06:26.359Z,french_100.wav,0,poule,277,44,5,4,english,f,0,0.0,-35.75508116,1.72997046
614fcba0d71b7a527a512011,56,1,2024-02-27T12:06:26.359Z,french_100.wav,0,poule,277,44,5,4,english,f,1,0.1,57.82815341,1.04300978
614fcba0d71b7a527a512011,56,1,2024-02-27T12:06:26.359Z,french_100.wav,0,poule,277,44,5,4,english,f,2,0.2,31.92112674,1.01595182
614fcba0d71b7a527a512011,56,1,2024-02-27T12:06:26.359Z,french_100.wav,0,poule,277,44,5,4,english,f,3,0.25666667,34.87308497,1.9286069
614fcba0d71b7a527a512011,57,1,2024-02-27T12:06:26.359Z,french_699.wav,0,poule,586,44,5,4,english,f,0,0.0,38.02578945,0.2020154
614fcba0d71b7a527a512011,57,1,2024-02-27T12:06:26.359Z,french_699.wav,0,poule,586,44,5,4,english,f,1,0.1,21.65060188,0.44231897
614fcba0d71b7a527a512011,57,1,2024-02-27T12:06:26.359Z,french_699.wav,0,poule,586,44,5,4,english,f,2,0.2,73.60148166,1.2945402
614fcba0d71b7a527a512011,57,1,2024-02-27T12:06:26.359Z,french_699.wav,0,poule,586,44,5,4,english,f,3,0.25666667,94.39755493,1.2548045
614fcba0d71b7a527a512011,58,1,2024-02-27T12:06:26.359Z,french_946.wav,0,poule,562,44,5,4,english,f,0,0.0,-59.20376503,1.07432488
614fcba0d71b7a527a512011,58,1,2024-02-27T12:06:26.359Z,french_946.wav,0,poule,562,44,5,4,english,f,1,0.1,41.31347152,0.26624757
614fcba0d71b7a527a512011,58,1,2024-02-27T12:06:26.359Z,french_946.wav,0,poule,562,44,5,4,english,f,2,0.2,-58.18080138,0.53636085
614fcba0d71b7a527a512011,58,1,2024-02-27T12:06:26.359Z,french_946.wav,0,poule,562,44,5,4,english,f,3,0.25666667,-28.00273528,1.77786979
614fcba0d71b7a527a512011,59,1,2024-02-27T12:06:26.359Z,french_811.wav,0,poule,384,44,5,4,english,f,0,0.0,35.12158591,1.63803033
614fcba0d71b7a527a512011,59,1,2024-02-27T12:06:26.359Z,french_811.wav,0,poule,384,44,5,4,english,f,1,0.1,4.09145181,0.91441893
614fcba0d71b7a527a512011,59,1,2024-02-27T12:06:26.359Z,french_811.wav,0,poule,384,44,5,4,english,f,2,0.2,-79.3353891,1.53056324
614fcba0d71b7a527a512011,59,1,2024-02-27T12:06:26.359Z,french_811.wav,0,poule,384,44,5,4,english,f,3,0.25666667,-59.5865152,1.20408751
614fcba0d71b7a527a512011,60,1,2024-02-27T12:06:26.359Z,french_443.wav,0,poule,622,44,5,4,english,f,0,0.0,-70.8287672,0.48827419
614fcba0d71b7a527a512011,60,1,2024-02-27T12:06:26.359Z,french_443.wav,0,poule,622,44,5,4,english,f,1,0.1,-57.74098156,0.38931866
614fcba0d71b7a527a512011,60,1,2024-02-27T12:06:26.359Z,french_443.wav,0,poule,622,44,5,4,english,f,2,0.2,-4.83347895,0.64406231
614fcba0d71b7a527a512011,60,1,2024-02-27T12:06:26.359Z,french_443.wav,0,poule,622,44,5,4,english,f,3,0.25666667,-81.70376308,1.21599086
614fcba0d71b7a527a512011,61,1,2024-02-27T12:06:26.359Z,french_189.wav,0,poule,556,44,5,4,english,f,0,0.0,25.45363348,0.70243048
614fcba0d71b7a527a512011,61,1,2024-02-27T12:06:26.359Z,french_189.wav,0,poule,556,44,5,4,english,f,1,0.1,10.19219643,0.78977161
614fcba0d71b7a527a512011,61,1,2024-02-27T12:06:26.359Z,french_189.wav,0,poule,556,44,5,4,english,f,2,0.2,79.32306783,0.18017453
614fcba0d71b7a527a512011,61,1,2024-02-27T12:06:26.359Z,french_189.wav,0,poule,556,44,5,4,english,f,3,0.25666667,77.27494318,0.76350619
614fcba0d71b7a527a512011,62,1,2024-02-27T12:06:26.359Z,french_557.wav,0,poule,896,44,5,4,english,f,0,0.0,-4.17762648,0.38732741
614fcba0d71b7a527a512011,62,1,2024-02-27T12:06:26.359Z,french_557.wav,0,poule,896,44,5,4,english,f,1,0.1,91.9464138,1.58225164
614fcba0d71b7a527a512011,62,1,2024-02-27T12:06:26.359Z,french_557.wav,0,poule,896,44,5,4,english,f,2,0.2,-21.05895405,1.02633772
614fcba0d71b7a527a512011,62,1,2024-02-27T12:06:26.359Z,french_557.wav,0,poule,896,44,5,4,english,f,3,0.25666667,45.17146044,0.5187484
614fcba0d71b7a527a512011,63,1,2024-02-27T12:06:26.359Z,french_683.wav,0,poule,1194,44,5,4,english,f,0,0.0,21.98154849,0.17421097
614fcba0d71b7a527a512011,63,1,2024-02-27T12:06:26.359Z,french_683.wav,0,poule,1194,44,5,4,english,f,1,0.1,59.44126587,0.03094343
614fcba0d71b7a527a512011,63,1,2024-02-27T12:06:26.359Z,french_683.wav,0,poule,1194,44,5,4,english,f,2,0.2,-51.05687534,0.79924543
614fcba0d71b7a527a512011,63,1,2024-02-27T12:06:26.359Z,french_683.wav,0,poule,1194,44,5,4,english,f,3,0.25666667,-9.70916743,0.82068176
614fcba0d71b7a527a512011,64,1,2024-02-27T12:06:26.359Z,french_997.wav,0,poule,908,44,5,4,english,f,0,0.0,70.02211451,0.23520638
614fcba0d71b7a527a512011,64,1,2024-02-27T12:06:26.359Z,french_997.wav,0,poule,908,44,5,4,english,f,1,0.1,69.24362731,0.40856699
614fcba0d71b7a527a512011,64,1,2024-02-27T12:06:26.359Z,french_997.wav,0,poule,908,44,5,4,english,f,2,0.2,73.007848,1.59962624
614fcba0d71b7a527a512011,64,1,2024-02-27T12:06:26.359Z,french_997.wav,0,poule,908,44,5,4,english,f,3,0.25666667,83.15376715,0.8906701
614fcba0d71b7a527a512011,65,1,2024-02-27T12:06:26.359Z,french_725.wav,0,poule,543,44,5,4,english,f,0,0.0,61.28532458,0.86285292
614fcba0d71b7a527a512011,65,1,2024-02-27T12:06:26.359Z,french_725.wav,0,poule,543,44,5,4,english,f,1,0.1,25.43953492,0.5175718
614fcba0d71b7a527a512011,65,1,2024-02-27T12:06:26.359Z,french_725.wav,0,poule,543,44,5,4,english,f,2,0.2,31.92964858,1.72668514
614fcba0d71b7a527a512011,65,1,2024-02-27T12:06:26.359Z,french_725.wav,0,poule,543,44,5,4,english,f,3,0.25666667,-96.80759498,1.79225728
614fcba0d71b7a527a512011,66,1,2024-02-27T12:06:26.359Z,french_732.wav,0,poule,360,44,5,4,english,f,0,0.0,-82.9393053,0.90840431
614fcba0d71b7a527a512011,66,1,2024-02-27T12:06:26.359Z,french_732.wav,0,poule,360,44,5,4,english,f,1,0.1,-79.22735873,0.47468339
614fcba0d71b7a527a512011,66,1,2024-02-27T12:06:26.359Z,french_732.wav,0,poule,360,44,5,4,english,f,2,0.2,-67.09796721,1.61768905
614fcba0d71b7a527a512011,66,1,2024-02-27T12:06:26.359Z,french_732.wav,0,poule,360,44,5,4,english,f,3,0.25666667,35.15971491,1.44596926
614fcba0d71b7a527a512011,67,1,2024-02-27T12:06:26.359Z,french_527.wav,0,poule,822,44,5,4,english,f,0,0.0,97.81644093,0.09503525
614fcba0d71b7a527a512011,67,1,2024-02-27T12:06:26.359Z,french_527.wav,0,poule,822,44,5,4,english,f,1,0.1,68.05004199,0.33267387
614fcba0d71b7a527a512011,67,1,2024-02-27T12:06:26.359Z,french_527.wav,0,poule,822,44,5,4,english,f,2,0.2,-44.05597581,1.51053464
614fcba0d71b7a527a512011,67,1,2024-02-27T12:06:26.359Z,french_527.wav,0,poule,822,44,5,4,english,f,3,0.25666667,40.91945638,1.37458991
614fcba0d71b7a527a512011,68,1,2024-02-27T12:06:26.359Z,french_668.wav,0,poule,433,44,5,4,english,f,0,0.0,44.4696917,0.61167569
614fcba0d71b7a527a512011,68,1,2024-02-27T12:06:26.359Z,french_668.wav,0,poule,433,44,5,4,english,f,1,0.1,63.48880943,0.96933631
614fcba0d71b7a527a512011,68,1,2024-02-27T12:06:26.359Z,french_668.wav,0,poule,433,44,5,4,english,f,2,0.2,96.50351719,1.39779359
614fcba0d71b7a527a512011,68,1,2024-02-27T12:06:26.359Z,french_668.wav,0,poule,433,44,5,4,english,f,3,0.25666667,-38.26923088,1.779663
614fcba0d71b7a527a512011,69,1,2024-02-27T12:06:26.359Z,french_881.wav,0,poule,442,44,5,4,english,f,0,0.0,-25.82648211,0.15296837
614fcba0d71b7a527a512011,69,1,2024-02-27T12:06:26.359Z,french_881.wav,0,poule,442,44,5,4,english,f,1,0.1,13.08751975,1.42149925
614fcba0d71b7a527a512011,69,1,2024-02-27T12:06:26.359Z,french_881.wav,0,poule,442,44,5,4,english,f,2,0.2,-84.06590477,1.29281362
614fcba0d71b7a527a512011,69,1,2024-02-27T12:06:26.359Z,french_881.wav,0,poule,442,44,5,4,english,f,3,0.25666667,-28.7935441,1.41538706
614fcba0d71b7a527a512011,70,1,2024-02-27T12:06:26.359Z,french_628.wav,0,poule,548,44,5,4,english,f,0,0.0,68.49177404,1.08718887
614fcba0d71b7a527a512011,70,1,2024-02-27T12:06:26.359Z,french_628.wav,0,poule,548,44,5,4,english,f,1,0.1,-37.23139728,1.92014291
614fcba0d71b7a527a512011,70,1,2024-02-27T12:06:26.359Z,french_628.wav,0,poule,548,44,5,4,english,f,2,0.2,-66.57894256,1.74485312
614fcba0d71b7a527a512011,70,1,2024-02-27T12:06:26.359Z,french_628.wav,0,poule,548,44,5,4,english,f,3,0.25666667,94.63403104,1.25946788
614fcba0d71b7a527a512011,71,1,2024-02-27T12:06:26.359Z,french_927.wav,0,poule,331,44,5,4,english,f,0,0.0,-10.52890049,0.60201579
614fcba0d71b7a527a512011,71,1,2024-02-27T12:06:26.359Z,french_927.wav,0,poule,331,44,5,4,english,f,1,0.1,-14.60087289,1.35124195
614fcba0d71b7a527a512011,71,1,2024-02-27T12:06:26.359Z,french_927.wav,0,poule,331,44,5,4,english,f,2,0.2,-23.19620382,0.97713268
614fcba0d71b7a527a512011,71,1,2024-02-27T12:06:26.359Z,french_927.wav,0,poule,331,44,5,4,english,f,3,0.25666667,-4.91748489,0.83956459
614fcba0d71b7a527a512011,72,1,2024-02-27T12:06:26.359Z,french_916.wav,0,poule,869,44,5,4,english,f,0,0.0,-87.80939928,0.07100827
614fcba0d71b7a527a512011,72,1,2024-02-27T12:06:26.359Z,french_916.wav,0,poule,869,44,5,4,english,f,1,0.1,68.91902004,0.08308916
614fcba0d71b7a527a512011,72,1,2024-02-27T12:06:26.359Z,french_916.wav,0,poule,869,44,5,4,english,f,2,0.2,20.82551071,0.48942561
614fcba0d71b7a527a512011,72,1,2024-02-27T12:06:26.359Z,french_916.wav,0,poule,869,44,5,4,english,f,3,0.25666667,-10.41164891,0.67278955
614fcba0d71b7a527a512011,73,1,2024-02-27T12:06:26.359Z,french_25.wav,0,poule,371,44,5,4,english,f,0,0.0,46.82844357,1.1493518
614fcba0d71b7a527a512011,73,1,2024-02-27T12:06:26.359Z,french_25.wav,0,poule,371,44,5,4,english,f,1,0.1,5.52502331,1.41536953
614fcba0d71b7a527a512011,73,1,2024-02-27T12:06:26.359Z,french_25.wav,0,poule,371,44,5,4,english,f,2,0.2,-34.25373026,0.41949869
614fcba0d71b7a527a512011,73,1,2024-02-27T12:06:26.359Z,french_25.wav,0,poule,371,44,5,4,english,f,3,0.25666667,-52.44039001,0.5013656
614fcba0d71b7a527a512011,74,1,2024-02-27T12:06:26.359Z,french_32.wav,0,poule,732,44,5,4,english,f,0,0.0,-95.97477456,1.5242089
614fcba0d71b7a527a512011,74,1,2024-02-27T12:06:26.359Z,french_32.wav,0,poule,732,44,5,4,english,f,1,0.1,-25.31572866,0.2047991
614fcba0d71b7a527a512011,74,1,2024-02-27T12:06:26.359Z,french_32.wav,0,poule,732,44,5,4,english,f,2,0.2,-25.0492654,1.11388434
614fcba0d71b7a527a512011,74,1,2024-02-27T12:06:26.359Z,french_32.wav,0,poule,732,44,5,4,english,f,3,0.25666667,-74.56689772,1.18772321
614fcba0d71b7a527a512011,75,1,2024-02-27T12:06:26.359Z,french_937.wav,0,pull,600,44,5,4,english,f,0,0.0,27.89553513,1.9323197
614fcba0d71b7a527a512011,75,1,2024-02-27T12:06:26.359Z,french_937.wav,0,pull,600,44,5,4,english,f,1,0.1,-51.2753628,1.67315664
614fcba0d71b7a527a512011,75,1,2024-02-27T12:06:26.359Z,french_937.wav,0,pull,600,44,5,4,english,f,2,0.2,-75.08991272,1.14592467
614fcba0d71b7a527a512011,75,1,2024-02-27T12:06:26.359Z,french_937.wav,0,pull,600,44,5,4,english,f,3,0.25666667,-24.40434042,1.81837395
614fcba0d71b7a527a512011,76,1,2024-02-27T12:06:26.359Z,french_877.wav,0,poule,1377,44,5,4,english,f,0,0.0,-23.96574217,0.96253444
614fcba0d71b7a527a512011,76,1,2024-02-27T12:06:26.359Z,french_877.wav,0,poule,1377,44,5,4,english,f,1,0.1,51.07186547,1.01009898
614fcba0d71b7a527a512011,76,1,2024-02-27T12:06:26.359Z,french_877.wav,0,poule,1377,44,5,4,english,f,2,0.2,26.38223439,1.26042149
614fcba0d71b7a527a512011,76,1,2024-02-27T12:06:26.359Z,french_877.wav,0,poule,1377,44,5,4,english,f,3,0.25666667,57.01482149,0.37917076
614fcba0d71b7a527a512011,77,1,2024-02-27T12:06:26.359Z,french_519.wav,0,poule,514,44,5,4,english,f,0,0.0,86.76456043,1.09635868
614fcba0d71b7a527a512011,77,1,2024-02-27T12:06:26.359Z,french_519.wav,0,poule,514,44,5,4,english,f,1,0.1,8.46145491,1.19136691
614fcba0d71b7a527a512011,77,1,2024-02-27T12:06:26.359Z,french_519.wav,0,poule,514,44,5,4,english,f,2,0.2,-48.6822419,1.7889624
614fcba0d71b7a527a512011,77,1,2024-02-27T12:06:26.359Z,french_519.wav,0,poule,514,44,5,4,english,f,3,0.25666667,-44.03350662,1.1754675
614fcba0d71b7a527a512011,78,1,2024-02-27T12:06:26.359Z,french_485.wav,0,poule,550,44,5,4,english,f,0,0.0,49.72116837,1.80184077
614fcba0d71b7a527a512011,78,1,2024-02-27T12:06:26.359Z,french_485.wav,0,poule,550,44,5,4,english,f,1,0.1,30.83147643,1.80095915
614fcba0d71b7a527a512011,78,1,2024-02-27T12:06:26.359Z,french_485.wav,0,poule,550,44,5,4,english,f,2,0.2,37.98454641,1.42682554
614fcba0d71b7a527a512011,78,1,2024-02-27T12:06:26.359Z,french_485.wav,0,poule,550,44,5,4,english,f,3,0.25666667,-93.0468476,0.86529676
614fcba0d71b7a527a512011,79,1,2024-02-27T12:06:26.359Z,french_863.wav,0,poule,533,44,5,4,english,f,0,0.0,30.03534105,0.49205925
614fcba0d71b7a527a512011,79,1,2024-02-27T12:06:26.359Z,french_863.wav,0,poule,533,44,5,4,english,f,1,0.1,70.10019967,1.5612805
614fcba0d71b7a527a512011,79,1,2024-02-27T12:06:26.359Z,french_863.wav,0,poule,533,44,5,4,english,f,2,0.2,38.31171189,1.70745742
614fcba0d71b7a527a512011,79,1,2024-02-27T12:06:26.359Z,french_863.wav,0,poule,533,44,5,4,english,f,3,0.25666667,76.0150774,0.79908683
614fcba0d71b7a527a512011,80,1,2024-02-27T12:06:26.359Z,french_621.wav,0,poule,367,44,5,4,english,f,0,0.0,-65.12133357,1.7602607
614fcba0d71b7a527a512011,80,1,2024-02-27T12:06:26.359Z,french_621.wav,0,poule,367,44,5,4,english,f,1,0.1,-34.98790471,0.92649718
614fcba0d71b7a527a512011,80,1,2024-02-27T12:06:26.359Z,french_621.wav,0,poule,367,44,5,4,english,f,2,0.2,-12.78608876,1.46782633
614fcba0d71b7a527a512011,80,1,2024-02-27T12:06:26.359Z,french_621.wav,0,poule,367,44,5,4,english,f,3,0.25666667,53.53170361,0.68266442
614fcba0d71b7a527a512011,81,1,2024-02-27T12:06:26.359Z,french_588.wav,0,poule,316,44,5,4,english,f,0,0.0,5.6059992,1.40293782
614fcba0d71b7a527a512011,81,1,2024-02-27T12:06:26.359Z,french_588.wav,0,poule,316,44,5,4,english,f,1,0.1,-3.58339119,1.60743551
614fcba0d71b7a527a512011,81,1,2024-02-27T12:06:26.359Z,french_588.wav,0,poule,316,44,5,4,english,f,2,0.2,-47.44163498,0.8250453
614fcba0d71b7a527a512011,81,1,2024-02-27T12:06:26.359Z,french_588.wav,0,poule,316,44,5,4,english,f,3,0.25666667,15.68204657,1.87203226
614fcba0d71b7a527a512011,82,1,2024-02-27T12:06:26.359Z,french_504.wav,0,pull,745,44,5,4,english,f,0,0.0,-0.09953376,1.58426169
614fcba0d71b7a527a512011,82,1,2024-02-27T12:06:26.359Z,french_504.wav,0,pull,745,44,5,4,english,f,1,0.1,-56.24331475,0.92396286
614fcba0d71b7a527a512011,82,1,2024-02-27T12:06:26.359Z,french_504.wav,0,pull,745,44,5,4,english,f,2,0.2,-79.12350098,0.70640993
614fcba0d71b7a527a512011,82,1,2024-02-27T12:06:26.359Z,french_504.wav,0,pull,745,44,5,4,english,f,3,0.25666667,64.25656878,0.80299587
614fcba0d71b7a527a512011,83,1,2024-02-27T12:06:26.359Z,french_165.wav,0,poule,604,44,5,4,english,f,0,0.0,34.81781775,0.27086967
614fcba0d71b7a527a512011,83,1,2024-02-27T12:06:26.359Z,french_165.wav,0,poule,604,44,5,4,english,f,1,0.1,-0.63630456,1.42196963
614fcba0d71b7a527a512011,83,1,2024-02-27T12:06:26.359Z,french_165.wav,0,poule,604,44,5,4,english,f,2,0.2,85.92593744,1.99513726
614fcba0d71b7a527a512011,83,1,2024-02-27T12:06:26.359Z,french_165.wav,0,poule,604,44,5,4,english,f,3,0.25666667,7.56589877,0.37439059
614fcba0d71b7a527a512011,84,1,2024-02-27T12:06:26.359Z,french_429.wav,0,poule,365,44,5,4,english,f,0,0.0,-86.61428582,0.48550144
614fcba0d71b7a527a512011,84,1,2024-02-27T12:06:26.359Z,french_429.wav,0,poule,365,44,5,4,english,f,1,0.1,-42.15720505,1.43221201
614fcba0d71b7a527a512011,84,1,2024-02-27T12:06:26.359Z,french_429.wav,0,poule,365,44,5,4,english,f,2,0.2,57.81850322,1.77393014
614fcba0d71b7a527a512011,84,1,2024-02-27T12:06:26.359Z,french_429.wav,0,poule,365,44,5,4,english,f,3,0.25666667,56.8864302,0.85506946
614fcba0d71b7a527a512011,85,1,2024-02-27T12:06:26.359Z,french_978.wav,0,poule,653,44,5,4,english,f,0,0.0,-36.32035497,0.76958877
614fcba0d71b7a527a512011,85,1,2024-02-27T12:06:26.359Z,french_978.wav,0,poule,653,44,5,4,english,f,1,0.1,-92.00024605,0.1229223
614fcba0d71b7a527a512011,85,1,2024-02-27T12:06:26.359Z,french_978.wav,0,poule,653,44,5,4,english,f,2,0.2,-85.64640387,1.83920091
614fcba0d71b7a527a512011,85,1,2024-02-27T12:06:26.359Z,french_978.wav,0,poule,653,44,5,4,english,f,3,0.25666667,30.4024855,1.45747353
614fcba0d71b7a527a512011,86,1,2024-02-27T12:06:26.359Z,french_879.wav,0,poule,374,44,5,4,english,f,0,0.0,-48.96816685,1.19104759
614fcba0d71b7a527a512011,86,1,2024-02-27T12:06:26.359Z,french_879.wav,0,poule,374,44,5,4,english,f,1,0.1,-79.01398257,0.98306132
614fcba0d71b7a527a512011,86,1,2024-02-27T12:06:26.359Z,french_879.wav,0,poule,374,44,5,4,english,f,2,0.2,-55.9985187,0.68767433
614fcba0d71b7a527a512011,86,1,2024-02-27T12:06:26.359Z,french_879.wav,0,poule,374,44,5,4,english,f,3,0.25666667,-98.06504365,1.4115175
614fcba0d71b7a527a512011,87,1,2024-02-27T12:06:26.359Z,french_432.wav,0,poule,765,44,5,4,english,f,0,0.0,41.78718943,1.64767318
614fcba0d71b7a527a512011,87,1,2024-02-27T12:06:26.359Z,french_432.wav,0,poule,765,44,5,4,english,f,1,0.1,-73.8341876,1.66923601
614fcba0d71b7a527a512011,87,1,2024-02-27T12:06:26.359Z,french_432.wav,0,poule,765,44,5,4,english,f,2,0.2,2.46605077,1.63004177
614fcba0d71b7a527a512011,87,1,2024-02-27T12:06:26.359Z,french_432.wav,0,poule,765,44,5,4,english,f,3,0.25666667,-5.34058627,1.91522166
614fcba0d71b7a527a512011,88,1,2024-02-27T12:06:26.359Z,french_277.wav,0,poule,534,44,5,4,english,f,0,0.0,25.76771762,1.36859257
614fcba0d71b7a527a512011,88,1,2024-02-27T12:06:26.359Z,french_277.wav,0,poule,534,44,5,4,english,f,1,0.1,-70.25975294,1.02052852
614fcba0d71b7a527a512011,88,1,2024-02-27T12:06:26.359Z,french_277.wav,0,poule,534,44,5,4,english,f,2,0.2,-52.96477311,1.14771146
614fcba0d71b7a527a512011,88,1,2024-02-27T12:06:26.359Z,french_277.wav,0,poule,534,44,5,4,english,f,3,0.25666667,41.51950841,0.3441713
614fcba0d71b7a527a512011,89,1,2024-02-27T12:06:26.359Z,french_736.wav,0,pull,632,44,5,4,english,f,0,0.0,-58.2057669,1.39182764
614fcba0d71b7a527a512011,89,1,2024-02-27T12:06:26.359Z,french_736.wav,0,pull,632,44,5,4,english,f,1,0.1,67.4754916,0.85405242
614fcba0d71b7a527a512011,89,1,2024-02-27T12:06:26.359Z,french_736.wav,0,pull,632,44,5,4,english,f,2,0.2,92.18157431,1.06665121
614fcba0d71b7a527a512011,89,1,2024-02-27T12:06:26.359Z,french_736.wav,0,pull,632,44,5,4,english,f,3,0.25666667,88.23593553,0.29553719
614fcba0d71b7a527a512011,90,1,2024-02-27T12:06:26.359Z,french_816.wav,0,pull,1559,44,5,4,english,f,0,0.0,-39.39804621,1.26291691
614fcba0d71b7a527a512011,90,1,2024-02-27T12:06:26.359Z,french_816.wav,0,pull,1559,44,5,4,english,f,1,0.1,14.23792488,1.60181117
614fcba0d71b7a527a512011,90,1,2024-02-27T12:06:26.359Z,french_816.wav,0,pull,1559,44,5,4,english,f,2,0.2,-84.08825282,0.57012939
614fcba0d71b7a527a512011,90,1,2024-02-27T12:06:26.359Z,french_816.wav,0,pull,1559,44,5,4,english,f,3,0.25666667,-46.46940665,1.06315664
614fcba0d71b7a527a512011,91,1,2024-02-27T12:06:26.359Z,french_495.wav,0,pull,317,44,5,4,english,f,0,0.0,93.48002859,1.03648483
614fcba0d71b7a527a512011,91,1,2024-02-27T12:06:26.359Z,french_495.wav,0,pull,317,44,5,4,english,f,1,0.1,99.142871,1.23043948
614fcba0d71b7a527a512011,91,1,2024-02-27T12:06:26.359Z,french_495.wav,0,pull,317,44,5,4,english,f,2,0.2,-33.98102163,1.1332488
614fcba0d71b7a527a512011,91,1,2024-02-27T12:06:26.359Z,french_495.wav,0,pull,317,44,5,4,english,f,3,0.25666667,38.68354094,0.62015381
614fcba0d71b7a527a512011,92,1,2024-02-27T12:06:26.359Z,french_525.wav,0,pull,245,44,5,4,english,f,0,0.0,-55.71805546,1.48564319
614fcba0d71b7a527a512011,92,1,2024-02-27T12:06:26.359Z,french_525.wav,0,pull,245,44,5,4,english,f,1,0.1,69.57832018,0.7646222
614fcba0d71b7a527a512011,92,1,2024-02-27T12:06:26.359Z,french_525.wav,0,pull,245,44,5,4,english,f,2,0.2,-61.51619627,1.98360061
614fcba0d71b7a527a512011,92,1,2024-02-27T12:06:26.359Z,french_525.wav,0,pull,245,44,5,4,english,f,3,0.25666667,-40.26288332,1.91122687
614fcba0d71b7a527a512011,93,1,2024-02-27T12:06:26.359Z,french_44.wav,0,pull,777,44,5,4,english,f,0,0.0,89.66608323,1.27808882
614fcba0d71b7a527a512011,93,1,2024-02-27T12:06:26.359Z,french_44.wav,0,pull,777,44,5,4,english,f,1,0.1,-59.25624901,0.57075293
614fcba0d71b7a527a512011,93,1,2024-02-27T12:06:26.359Z,french_44.wav,0,pull,777,44,5,4,english,f,2,0.2,-68.11161816,0.14730706
614fcba0d71b7a527a512011,93,1,2024-02-27T12:06:26.359Z,french_44.wav,0,pull,777,44,5,4,english,f,3,0.25666667,57.66656697,1.61481461
614fcba0d71b7a527a512011,94,1,2024-02-27T12:06:26.359Z,french_158.wav,0,poule,503,44,5,4,english,f,0,0.0,72.88318106,1.5476705
614fcba0d71b7a527a512011,94,1,2024-02-27T12:06:26.359Z,french_158.wav,0,poule,503,44,5,4,english,f,1,0.1,51.2800476,1.92933226
614fcba0d71b7a527a512011,94,1,2024-02-27T12:06:26.359Z,french_158.wav,0,poule,503,44,5,4,english,f,2,0.2,-29.39007937,1.77733774
614fcba0d71b7a527a512011,94,1,2024-02-27T12:06:26.359Z,french_158.wav,0,poule,503,44,5,4,english,f,3,0.25666667,87.52810159,1.82253327
614fcba0d71b7a527a512011,95,1,2024-02-27T12:06:26.359Z,french_715.wav,0,poule,639,44,5,4,english,f,0,0.0,89.89167485,1.90551341
614fcba0d71b7a527a512011,95,1,2024-02-27T12:06:26.359Z,french_715.wav,0,poule,639,44,5,4,english,f,1,0.1,47.15597215,0.2376049
614fcba0d71b7a527a512011,95,1,2024-02-27T12:06:26.359Z,french_715.wav,0,poule,639,44,5,4,english,f,2,0.2,44.59513653,0.03260857
614fcba0d71b7a527a512011,95,1,2024-02-27T12:06:26.359Z,french_715.wav,0,poule,639,44,5,4,english,f,3,0.25666667,-32.08567965,1.14470607
614fcba0d71b7a527a512011,96,1,2024-02-27T12:06:26.359Z,french_717.wav,0,poule,557,44,5,4,english,f,0,0.0,-84.32189387,1.00877352
614fcba0d71b7a527a512011,96,1,2024-02-27T12:06:26.359Z,french_717.wav,0,poule,557,44,5,4,english,f,1,0.1,40.2374262,0.42603024
614fcba0d71b7a527a512011,96,1,2024-02-27T12:06:26.359Z,french_717.wav,0,poule,557,44,5,4,english,f,2,0.2,80.19404777,0.00517131
614fcba0d71b7a527a512011,96,1,2024-02-27T12:06:26.359Z,french_717.wav,0,poule,557,44,5,4,english,f,3,0.25666667,-31.07147466,1.19241547
614fcba0d71b7a527a512011,97,1,2024-02-27T12:06:26.359Z,french_9.wav,0,poule,558,44,5,4,english,f,0,0.0,19.3207086,1.35934995
614fcba0d71b7a527a512011,97,1,2024-02-27T12:06:26.359Z,french_9.wav,0,poule,558,44,5,4,english,f,1,0.1,55.1250277,1.31727385
614fcba0d71b7a527a512011,97,1,2024-02-27T12:06:26.359Z,french_9.wav,0,poule,558,44,5,4,english,f,2,0.2,31.60633129,0.52824511
614fcba0d71b7a527a512011,97,1,2024-02-27T12:06:26.359Z,french_9.wav,0,poule,558,44,5,4,english,f,3,0.25666667,31.4464946,1.75131645
614fcba0d71b7a527a512011,98,1,2024-02-27T12:06:26.359Z,french_543.wav,0,poule,300,44,5,4,english,f,0,0.0,99.95964938,0.10365101
614fcba0d71b7a527a512011,98,1,2024-02-27T12:06:26.359Z,french_543.wav,0,poule,300,44,5,4,english,f,1,0.1,62.1224346,1.02026934
614fcba0d71b7a527a512011,98,1,2024-02-27T12:06:26.359Z,french_543.wav,0,poule,300,44,5,4,english,f,2,0.2,-10.06540024,0.56488883
614fcba0d71b7a527a512011,98,1,2024-02-27T12:06:26.359Z,french_543.wav,0,poule,300,44,5,4,english,f,3,0.25666667,-5.35888672,0.3884986
614fcba0d71b7a527a512011,99,1,2024-02-27T12:06:26.359Z,french_784.wav,0,poule,117,44,5,4,english,f,0,0.0,-39.52347826,1.29179639
614fcba0d71b7a527a512011,99,1,2024-02-27T12:06:26.359Z,french_784.wav,0,poule,117,44,5,4,english,f,1,0.1,-77.42465605,1.30882922
614fcba0d71b7a527a512011,99,1,2024-02-27T12:06:26.359Z,french_784.wav,0,poule,117,44,5,4,english,f,2,0.2,4.05747108,1.87909974
614fcba0d71b7a527a512011,99,1,2024-02-27T12:06:26.359Z,french_784.wav,0,poule,117,44,5,4,english,f,3,0.25666667,56.71695408,1.07202912
614fcba0d71b7a527a512011,100,2,2024-02-27T12:06:26.359Z,french_872.wav,0,poule,467,44,5,4,english,f,0,0.0,85.31192626,1.27180188
614fcba0d71b7a527a512011,100,2,2024-02-27T12:06:26.359Z,french_872.wav,0,poule,467,44,5,4,english,f,1,0.1,-62.96284321,0.82867252
614fcba0d71b7a527a512011,100,2,2024-02-27T12:06:26.359Z,french_872.wav,0,poule,467,44,5,4,english,f,2,0.2,93.26127986,1.69740624
614fcba0d71b7a527a512011,100,2,2024-02-27T12:06:26.359Z,french_872.wav,0,poule,467,44,5,4,english,f,3,0.25666667,48.13314647,0.31258738
614fcba0d71b7a527a512011,101,2,2024-02-27T12:06:26.359Z,french_410.wav,0,poule,241,44,5,4,english,f,0,0.0,-57.70995681,0.42078672
614fcba0d71b7a527a512011,101,2,2024-02-27T12:06:26.359Z,french_410.wav,0,poule,241,44,5,4,english,f,1,0.1,48.77026686,1.91428116
614fcba0d71b7a527a512011,101,2,2024-02-27T12:06:26.359Z,french_410.wav,0,poule,241,44,5,4,english,f,2,0.2,-48.38648813,0.69257086
614fcba0d71b7a527a512011,101,2,2024-02-27T12:06:26.359Z,french_410.wav,0,poule,241,44,5,4,english,f,3,0.25666667,53.40375253,1.23009328
614fcba0d71b7a527a512011,102,2,2024-02-27T12:06:26.359Z,french_677.wav,0,poule,482,44,5,4,english,f,0,0.0,-14.76179085,0.10277679
614fcba0d71b7a527a512011,102,2,2024-02-27T12:06:26.359Z,french_677.wav,0,poule,482,44,5,4,english,f,1,0.1,-96.15101895,0.35083798
614fcba0d71b7a527a512011,102,2,2024-02-27T12:06:26.359Z,french_677.wav,0,poule,482,44,5,4,english,f,2,0.2,48.20621423,0.65953763
614fcba0d71b7a527a512011,102,2,2024-02-27T12:06:26.359Z,french_677.wav,0,poule,482,44,5,4,english,f,3,0.25666667,23.33985038,0.76581679
614fcba0d71b7a527a512011,103,2,2024-02-27T12:06:26.359Z,french_130.wav,0,poule,313,44,5,4,english,f,0,0.0,-60.11706856,0.96947481
614fcba0d71b7a527a512011,103,2,2024-02-27T12:06:26.359Z,french_130.wav,0,poule,313,44,5,4,english,f,1,0.1,-55.59065296,0.3967065
614fcba0d71b7a527a512011,103,2,2024-02-27T12:06:26.359Z,french_130.wav,0,poule,313,44,5,4,english,f,2,0.2,42.64329023,1.87184893
614fcba0d71b7a527a512011,103,2,2024-02-27T12:06:26.359Z,french_130.wav,0,poule,313,44,5,4,english,f,3,0.25666667,-50.60909081,1.6881176
614fcba0d71b7a527a512011,104,2,2024-02-27T12:06:26.359Z,french_682.wav,0,poule,270,44,5,4,english,f,0,0.0,-16.33102186,0.79850708
614fcba0d71b7a527a512011,104,2,2024-02-27T12:06:26.359Z,french_682.wav,0,poule,270,44,5,4,english,f,1,0.1,-49.72009429,1.31273679
614fcba0d71b7a527a512011,104,2,2024-02-27T12:06:26.359Z,french_682.wav,0,poule,270,44,5,4,english,f,2,0.2,-23.39596266,1.51298147
614fcba0d71b7a527a512011,104,2,2024-02-27T12:06:26.359Z,french_682.wav,0,poule,270,44,5,4,english,f,3,0.25666667,-34.72439006,0.92861139
614fcba0d71b7a527a512011,105,2,2024-02-27T12:06:26.359Z,french_855.wav,0,poule,366,44,5,4,english,f,0,0.0,2.71159552,1.64624975
614fcba0d71b7a527a512011,105,2,2024-02-27T12:06:26.359Z,french_855.wav,0,poule,366,44,5,4,english,f,1,0.1,66.05842931,0.54809415
614fcba0d71b7a527a512011,105,2,2024-02-27T12:06:26.359Z,french_855.wav,0,poule,366,44,5,4,english,f,2,0.2,41.00995311,1.64541289
614fcba0d71b7a527a512011,105,2,2024-02-27T12:06:26.359Z,french_855.wav,0,poule,366,44,5,4,english,f,3,0.25666667,98.2962498,1.22205238
614fcba0d71b7a527a512011,106,2,2024-02-27T12:06:26.359Z,french_926.wav,0,poule,729,44,5,4,english,f,0,0.0,-38.30420493,1.0266732
614fcba0d71b7a527a512011,106,2,2024-02-27T12:06:26.359Z,french_926.wav,0,poule,729,44,5,4,english,f,1,0.1,-97.26803886,0.03873156
614fcba0d71b7a527a512011,106,2,2024-02-27T12:06:26.359Z,french_926.wav,0,poule,729,44,5,4,english,f,2,0.2,55.3544282,0.32593073
614fcba0d71b7a527a512011,106,2,2024-02-27T12:06:26.359Z,french_926.wav,0,poule,729,44,5,4,english,f,3,0.25666667,8.78644418,0.80695306
614fcba0d71b7a527a512011,107,2,2024-02-27T12:06:26.359Z,french_164.wav,0,poule,277,44,5,4,english,f,0,0.0,-18.17175111,1.54231832
614fcba0d71b7a527a512011,107,2,2024-02-27T12:06:26.359Z,french_164.wav,0,poule,277,44,5,4,english,f,1,0.1,76.91542059,0.85273823
614fcba0d71b7a527a512011,107,2,2024-02-27T12:06:26.359Z,french_164.wav,0,poule,277,44,5,4,english,f,2,0.2,-44.02896165,1.08595521
614fcba0d71b7a527a512011,107,2,2024-02-27T12:06:26.359Z,french_164.wav,0,poule,277,44,5,4,english,f,3,0.25666667,-52.20678857,1.30612675
614fcba0d71b7a527a512011,108,2,2024-02-27T12:06:26.359Z,french_689.wav,0,poule,731,44,5,4,english,f,0,0.0,-76.83712438,1.91162084
614fcba0d71b7a527a512011,108,2,2024-02-27T12:06:26.359Z,french_689.wav,0,poule,731,44,5,4,english,f,1,0.1,64.54047654,0.68488006
614fcba0d71b7a527a512011,108,2,2024-02-27T12:06:26.359Z,french_689.wav,0,poule,731,44,5,4,english,f,2,0.2,42.91011154,0.17067082
614fcba0d71b7a527a512011,108,2,2024-02-27T12:06:26.359Z,french_689.wav,0,poule,731,44,5,4,english,f,3,0.25666667,-94.73892594,1.05586556
614fcba0d71b7a527a512011,109,2,2024-02-27T12:06:26.359Z,french_973.wav,0,poule,792,44,5,4,english,f,0,0.0,-99.0384004,1.64247416
614fcba0d71b7a527a512011,109,2,2024-02-27T12:06:26.359Z,french_973.wav,0,poule,792,44,5,4,english,f,1,0.1,40.13117567,0.98090528
614fcba0d71b7a527a512011,109,2,2024-02-27T12:06:26.359Z,french_973.wav,0,poule,792,44,5,4,english,f,2,0.2,49.54188212,1.75566355
614fcba0d71b7a527a512011,109,2,2024-02-27T12:06:26.359Z,french_973.wav,0,poule,792,44,5,4,english,f,3,0.25666667,89.60941169,0.64442147
614fcba0d71b7a527a512011,110,2,2024-02-27T12:06:26.359Z,french_802.wav,0,poule,443,44,5,4,english,f,0,0.0,-73.24347689,0.39190156
614fcba0d71b7a527a512011,110,2,2024-02-27T12:06:26.359Z,french_802.wav,0,poule,443,44,5,4,english,f,1,0.1,14.85977478,1.18064228
614fcba0d71b7a527a512011,110,2,2024-02-27T12:06:26.359Z,french_802.wav,0,poule,443,44,5,4,english,f,2,0.2,-45.72901481,1.4654249
614fcba0d71b7a527a512011,110,2,2024-02-27T12:06:26.359Z,french_802.wav,0,poule,443,44,5,4,english,f,3,0.25666667,-78.69015161,0.6030906
614fcba0d71b7a527a512011,111,2,2024-02-27T12:06:26.359Z,french_941.wav,0,poule,4187,44,5,4,english,f,0,0.0,-66.32571195,0.9896497
614fcba0d71b7a527a512011,111,2,2024-02-27T12:06:26.359Z,french_941.wav,0,poule,4187,44,5,4,english,f,1,0.1,85.09907795,0.67654191
614fcba0d71b7a527a512011,111,2,2024-02-27T12:06:26.359Z,french_941.wav,0,poule,4187,44,5,4,english,f,2,0.2,87.37862016,1.4708398
614fcba0d71b7a527a512011,111,2,2024-02-27T12:06:26.359Z,french_941.wav,0,poule,4187,44,5,4,english,f,3,0.25666667,-18.39108149,0.82969394
614fcba0d71b7a527a512011,112,2,2024-02-27T12:06:26.359Z,french_642.wav,0,poule,609,44,5,4,english,f,0,0.0,94.74505174,1.94145252
614fcba0d71b7a527a512011,112,2,2024-02-27T12:06:26.359Z,french_642.wav,0,poule,609,44,5,4,english,f,1,0.1,-41.90916732,1.43327494
614fcba0d71b7a527a512011,112,2,2024-02-27T12:06:26.359Z,french_642.wav,0,poule,609,44,5,4,english,f,2,0.2,-70.07976965,0.59817774
614fcba0d71b7a527a512011,112,2,2024-02-27T12:06:26.359Z,french_642.wav,0,poule,609,44,5,4,english,f,3,0.25666667,42.72168091,1.11755549
614fcba0d71b7a527a512011,113,2,2024-02-27T12:06:26.359Z,french_744.wav,0,poule,343,44,5,4,english,f,0,0.0,20.71284991,1.22360564
614fcba0d71b7a527a512011,113,2,2024-02-27T12:06:26.359Z,french_744.wav,0,poule,343,44,5,4,english,f,1,0.1,43.41893938,1.58460028
614fcba0d71b7a527a512011,113,2,2024-02-27T12:06:26.359Z,french_744.wav,0,poule,343,44,5,4,english,f,2,0.2,65.94530402,0.38406236
614fcba0d71b7a527a512011,113,2,2024-02-27T12:06:26.359Z,french_744.wav,0,poule,343,44,5,4,english,f,3,0.25666667,-59.234779,0.69273959
614fcba0d71b7a527a512011,114,2,2024-02-27T12:06:26.359Z,french_406.wav,0,poule,293,44,5,4,english,f,0,0.0,58.13533855,1.29537269
614fcba0d71b7a527a512011,114,2,2024-02-27T12:06:26.359Z,french_406.wav,0,poule,293,44,5,4,english,f,1,0.1,16.77938971,1.03128378
614fcba0d71b7a527a512011,114,2,2024-02-27T12:06:26.359Z,french_406.wav,0,poule,293,44,5,4,english,f,2,0.2,-34.29610563,1.90878176
614fcba0d71b7a527a512011,114,2,2024-02-27T12:06:26.359Z,french_406.wav,0,poule,293,44,5,4,english,f,3,0.25666667,5.14727068,1.43946259
614fcba0d71b7a527a512011,115,2,2024-02-27T12:06:26.359Z,french_315.wav,0,poule,391,44,5,4,english,f,0,0.0,84.5751695,1.39276289
614fcba0d71b7a527a512011,115,2,2024-02-27T12:06:26.359Z,french_315.wav,0,poule,391,44,5,4,english,f,1,0.1,-54.9339599,0.42909402
614fcba0d71b7a527a512011,115,2,2024-02-27T12:06:26.359Z,french_315.wav,0,poule,391,44,5,4,english,f,2,0.2,-20.4659381,1.80166787
614fcba0d71b7a527a512011,115,2,2024-02-27T12:06:26.359Z,french_315.wav,0,poule,391,44,5,4,english,f,3,0.256666667,0.0497627412,1.01422067
614fcba0d71b7a527a512011,116,2,2024-02-27T12:06:26.359Z,french_345.wav,0,poule,566,44,5,4,english,f,0,0.0,-15.34440167,0.71900559
614fcba0d71b7a527a512011,116,2,2024-02-27T12:06:26.359Z,french_345.wav,0,poule,566,44,5,4,english,f,1,0.1,10.78758757,1.22956467
614fcba0d71b7a527a512011,116,2,2024-02-27T12:06:26.359Z,french_345.wav,0,poule,566,44,5,4,english,f,2,0.2,-99.05600522,1.71608101
614fcba0d71b7a527a512011,116,2,2024-02-27T12:06:26.359Z,french_345.wav,0,poule,566,44,5,4,english,f,3,0.25666667,-6.99010662,1.92257683
614fcba0d71b7a527a512011,117,2,2024-02-27T12:06:26.359Z,french_45.wav,0,poule,612,44,5,4,english,f,0,0.0,6.51510613,0.83763225
614fcba0d71b7a527a512011,117,2,2024-02-27T12:06:26.359Z,french_45.wav,0,poule,612,44,5,4,english,f,1,0.1,-86.25018513,1.19709151
614fcba0d71b7a527a512011,117,2,2024-02-27T12:06:26.359Z,french_45.wav,0,poule,612,44,5,4,english,f,2,0.2,-60.46903131,0.87484565
614fcba0d71b7a527a512011,117,2,2024-02-27T12:06:26.359Z,french_45.wav,0,poule,612,44,5,4,english,f,3,0.25666667,-48.31089161,0.45414185
614fcba0d71b7a527a512011,118,2,2024-02-27T12:06:26.359Z,french_102.wav,0,poule,469,44,5,4,english,f,0,0.0,-35.05732124,0.80503012
614fcba0d71b7a527a512011,118,2,2024-02-27T12:06:26.359Z,french_102.wav,0,poule,469,44,5,4,english,f,1,0.1,-31.3998515,0.92419399
614fcba0d71b7a527a512011,118,2,2024-02-27T12:06:26.359Z,french_102.wav,0,poule,469,44,5,4,english,f,2,0.2,50.13452687,0.90539345
614fcba0d71b7a527a512011,118,2,2024-02-27T12:06:26.359Z,french_102.wav,0,poule,469,44,5,4,english,f,3,0.25666667,-7.4892707,1.70363197
614fcba0d71b7a527a512011,119,2,2024-02-27T12:06:26.359Z,french_753.wav,0,poule,340,44,5,4,english,f,0,0.0,-59.12708259,1.15236918
614fcba0d71b7a527a512011,119,2,2024-02-27T12:06:26.359Z,french_753.wav,0,poule,340,44,5,4,english,f,1,0.1,-84.15149344,1.24278656
614fcba0d71b7a527a512011,119,2,2024-02-27T12:06:26.359Z,french_753.wav,0,poule,340,44,5,4,english,f,2,0.2,-30.31197396,0.56738218
614fcba0d71b7a527a512011,119,2,2024-02-27T12:06:26.359Z,french_753.wav,0,poule,340,44,5,4,english,f,3,0.25666667,-23.11550189,0.65045955
614fcba0d71b7a527a512011,120,2,2024-02-27T12:06:26.359Z,french_695.wav,0,poule,997,44,5,4,english,f,0,0.0,-57.6665866,1.09792482
614fcba0d71b7a527a512011,120,2,2024-02-27T12:06:26.359Z,french_695.wav,0,poule,997,44,5,4,english,f,1,0.1,6.09893846,1.46549104
614fcba0d71b7a527a512011,120,2,2024-02-27T12:06:26.359Z,french_695.wav,0,poule,997,44,5,4,english,f,2,0.2,-80.8229011,1.66085764
614fcba0d71b7a527a512011,120,2,2024-02-27T12:06:26.359Z,french_695.wav,0,poule,997,44,5,4,english,f,3,0.256666667,0.00737669519,1.19228029
614fcba0d71b7a527a512011,121,2,2024-02-27T12:06:26.359Z,french_221.wav,0,poule,470,44,5,4,english,f,0,0.0,-51.4093514,1.39236456
614fcba0d71b7a527a512011,121,2,2024-02-27T12:06:26.359Z,french_221.wav,0,poule,470,44,5,4,english,f,1,0.1,-69.26159538,1.1318895
614fcba0d71b7a527a512011,121,2,2024-02-27T12:06:26.359Z,french_221.wav,0,poule,470,44,5,4,english,f,2,0.2,-72.79183118,0.94601275
614fcba0d71b7a527a512011,121,2,2024-02-27T12:06:26.359Z,french_221.wav,0,poule,470,44,5,4,english,f,3,0.25666667,34.31828887,1.80964418
614fcba0d71b7a527a512011,122,2,2024-02-27T12:06:26.359Z,french_110.wav,0,poule,312,44,5,4,english,f,0,0.0,14.8960744,1.68730737
614fcba0d71b7a527a512011,122,2,2024-02-27T12:06:26.359Z,french_110.wav,0,poule,312,44,5,4,english,f,1,0.1,-82.02762151,1.03733778
614fcba0d71b7a527a512011,122,2,2024-02-27T12:06:26.359Z,french_110.wav,0,poule,312,44,5,4,english,f,2,0.2,66.91383722,1.59061665
614fcba0d71b7a527a512011,122,2,2024-02-27T12:06:26.359Z,french_110.wav,0,poule,312,44,5,4,english,f,3,0.25666667,-78.07836064,0.49489255
614fcba0d71b7a527a512011,123,2,2024-02-27T12:06:26.359Z,french_540.wav,0,poule,299,44,5,4,english,f,0,0.0,64.41538276,0.51709462
614fcba0d71b7a527a512011,123,2,2024-02-27T12:06:26.359Z,french_540.wav,0,poule,299,44,5,4,english,f,1,0.1,17.02048616,1.30376576
614fcba0d71b7a527a512011,123,2,2024-02-27T12:06:26.359Z,french_540.wav,0,poule,299,44,5,4,english,f,2,0.2,-33.22379056,0.40148031
614fcba0d71b7a527a512011,123,2,2024-02-27T12:06:26.359Z,french_540.wav,0,poule,299,44,5,4,english,f,3,0.25666667,6.66749413,1.14865781
614fcba0d71b7a527a512011,124,2,2024-02-27T12:06:26.359Z,french_940.wav,0,poule,199,44,5,4,english,f,0,0.0,60.64207397,1.38818271
614fcba0d71b7a527a512011,124,2,2024-02-27T12:06:26.359Z,french_940.wav,0,poule,199,44,5,4,english,f,1,0.1,-16.07257124,1.64047706
614fcba0d71b7a527a512011,124,2,2024-02-27T12:06:26.359Z,french_940.wav,0,poule,199,44,5,4,english,f,2,0.2,-38.93693506,1.31963125
614fcba0d71b7a527a512011,124,2,2024-02-27T12:06:26.359Z,french_940.wav,0,poule,199,44,5,4,english,f,3,0.25666667,-22.19838027,1.73227719
614fcba0d71b7a527a512011,125,2,2024-02-27T12:06:26.359Z,french_516.wav,0,poule,379,44,5,4,english,f,0,0.0,-18.05376101,1.88602221
614fcba0d71b7a527a512011,125,2,2024-02-27T12:06:26.359Z,french_516.wav,0,poule,379,44,5,4,english,f,1,0.1,46.96361083,1.82153179
614fcba0d71b7a527a512011,125,2,2024-02-27T12:06:26.359Z,french_516.wav,0,poule,379,44,5,4,english,f,2,0.2,63.85228851,1.94475993
614fcba0d71b7a527a512011,125,2,2024-02-27T12:06:26.359Z,french_516.wav,0,poule,379,44,5,4,english,f,3,0.25666667,-69.83202403,1.41132457
614fcba0d71b7a527a512011,126,2,2024-02-27T12:06:26.359Z,french_340.wav,0,poule,236,44,5,4,english,f,0,0.0,-77.74428769,1.5012345
614fcba0d71b7a527a512011,126,2,2024-02-27T12:06:26.359Z,french_340.wav,0,poule,236,44,5,4,english,f,1,0.1,-23.36816436,1.72338521
614fcba0d71b7a527a512011,126,2,2024-02-27T12:06:26.359Z,french_340.wav,0,poule,236,44,5,4,english,f,2,0.2,-44.47255335,0.55046319
614fcba0d71b7a527a512011,126,2,2024-02-27T12:06:26.359Z,french_340.wav,0,poule,236,44,5,4,english,f,3,0.25666667,-51.35474548,0.98182936
614fcba0d71b7a527a512011,127,2,2024-02-27T12:06:26.359Z,french_692.wav,0,poule,539,44,5,4,english,f,0,0.0,-30.56073905,0.00354931
614fcba0d71b7a527a512011,127,2,2024-02-27T12:06:26.359Z,french_692.wav,0,poule,539,44,5,4,english,f,1,0.1,67.72997498,1.79271885
614fcba0d71b7a527a512011,127,2,2024-02-27T12:06:26.359Z,french_692.wav,0,poule,539,44,5,4,english,f,2,0.2,55.48980932,1.35474436
614fcba0d71b7a527a512011,127,2,2024-02-27T12:06:26.359Z,french_692.wav,0,poule,539,44,5,4,english,f,3,0.25666667,99.47423215,1.33636308
614fcba0d71b7a527a512011,128,2,2024-02-27T12:06:26.359Z,french_87.wav,0,poule,227,44,5,4,english,f,0,0.0,57.46562038,1.84924107
614fcba0d71b7a527a512011,128,2,2024-02-27T12:06:26.359Z,french_87.wav,0,poule,227,44,5,4,english,f,1,0.1,64.37451918,1.35752119
614fcba0d71b7a527a512011,128,2,2024-02-27T12:06:26.359Z,french_87.wav,0,poule,227,44,5,4,english,f,2,0.2,34.82822911,1.55092153
614fcba0d71b7a527a512011,128,2,2024-02-27T12:06:26.359Z,french_87.wav,0,poule,227,44,5,4,english,f,3,0.25666667,-44.22171713,0.2478561
614fcba0d71b7a527a512011,129,2,2024-02-27T12:06:26.359Z,french_880.wav,0,poule,268,44,5,4,english,f,0,0.0,34.54343789,1.97652899
614fcba0d71b7a527a512011,129,2,2024-02-27T12:06:26.359Z,french_880.wav,0,poule,268,44,5,4,english,f,1,0.1,76.62551814,0.35866047
614fcba0d71b7a527a512011,129,2,2024-02-27T12:06:26.359Z,french_880.wav,0,poule,268,44,5,4,english,f,2,0.2,69.99614697,1.49815227
614fcba0d71b7a527a512011,129,2,2024-02-27T12:06:26.359Z,french_880.wav,0,poule,268,44,5,4,english,f,3,0.25666667,-97.30266151,1.92878763
614fcba0d71b7a527a512011,130,2,2024-02-27T12:06:26.359Z,french_337.wav,0,poule,586,44,5,4,english,f,0,0.0,-97.64468947,0.15620351
614fcba0d71b7a527a512011,130,2,2024-02-27T12:06:26.359Z,french_337.wav,0,poule,586,44,5,4,english,f,1,0.1,-70.83087303,1.65716961
614fcba0d71b7a527a512011,130,2,2024-02-27T12:06:26.359Z,french_337.wav,0,poule,586,44,5,4,english,f,2,0.2,-48.67995381,0.82507575
614fcba0d71b7a527a512011,130,2,2024-02-27T12:06:26.359Z,french_337.wav,0,poule,586,44,5,4,english,f,3,0.25666667,-82.84031791,0.89595203
614fcba0d71b7a527a512011,131,2,2024-02-27T12:06:26.359Z,french_956.wav,0,poule,418,44,5,4,english,f,0,0.0,-17.2568339,1.05718214
614fcba0d71b7a527a512011,131,2,2024-02-27T12:06:26.359Z,french_956.wav,0,poule,418,44,5,4,english,f,1,0.1,60.67626876,1.43914937
614fcba0d71b7a527a512011,131,2,2024-02-27T12:06:26.359Z,french_956.wav,0,poule,418,44,5,4,english,f,2,0.2,40.71216363,0.83140318
614fcba0d71b7a527a512011,131,2,2024-02-27T12:06:26.359Z,french_956.wav,0,poule,418,44,5,4,english,f,3,0.25666667,16.50619481,0.14426626
614fcba0d71b7a527a512011,132,2,2024-02-27T12:06:26.359Z,french_803.wav,0,poule,171,44,5,4,english,f,0,0.0,52.60083548,1.16065927
614fcba0d71b7a527a512011,132,2,2024-02-27T12:06:26.359Z,french_803.wav,0,poule,171,44,5,4,english,f,1,0.1,69.87806401,1.31848068
614fcba0d71b7a527a512011,132,2,2024-02-27T12:06:26.359Z,french_803.wav,0,poule,171,44,5,4,english,f,2,0.2,-5.78457695,1.09352717
614fcba0d71b7a527a512011,132,2,2024-02-27T12:06:26.359Z,french_803.wav,0,poule,171,44,5,4,english,f,3,0.25666667,80.81591727,0.48205773
614fcba0d71b7a527a512011,133,2,2024-02-27T12:06:26.359Z,french_487.wav,0,poule,271,44,5,4,english,f,0,0.0,26.50580686,1.63350644
614fcba0d71b7a527a512011,133,2,2024-02-27T12:06:26.359Z,french_487.wav,0,poule,271,44,5,4,english,f,1,0.1,-34.14449754,1.29368608
614fcba0d71b7a527a512011,133,2,2024-02-27T12:06:26.359Z,french_487.wav,0,poule,271,44,5,4,english,f,2,0.2,66.18137857,0.20656395
614fcba0d71b7a527a512011,133,2,2024-02-27T12:06:26.359Z,french_487.wav,0,poule,271,44,5,4,english,f,3,0.25666667,-7.03677771,1.93991824
614fcba0d71b7a527a512011,134,2,2024-02-27T12:06:26.359Z,french_809.wav,0,pull,617,44,5,4,english,f,0,0.0,-35.34138518,0.91250327
614fcba0d71b7a527a512011,134,2,2024-02-27T12:06:26.359Z,french_809.wav,0,pull,617,44,5,4,english,f,1,0.1,-27.53268432,1.55486221
614fcba0d71b7a527a512011,134,2,2024-02-27T12:06:26.359Z,french_809.wav,0,pull,617,44,5,4,english,f,2,0.2,-4.59062168,0.05513513
614fcba0d71b7a527a512011,134,2,2024-02-27T12:06:26.359Z,french_809.wav,0,pull,617,44,5,4,english,f,3,0.25666667,54.17413939,0.74937359
614fcba0d71b7a527a512011,135,2,2024-02-27T12:06:26.359Z,french_615.wav,0,poule,813,44,5,4,english,f,0,0.0,-99.04240885,1.08448469
614fcba0d71b7a527a512011,135,2,2024-02-27T12:06:26.359Z,french_615.wav,0,poule,813,44,5,4,english,f,1,0.1,-49.15643876,1.88363881
614fcba0d71b7a527a512011,135,2,2024-02-27T12:06:26.359Z,french_615.wav,0,poule,813,44,5,4,english,f,2,0.2,-66.91195639,1.28593097
614fcba0d71b7a527a512011,135,2,2024-02-27T12:06:26.359Z,french_615.wav,0,poule,813,44,5,4,english,f,3,0.25666667,-56.29346357,1.82136606
614fcba0d71b7a527a512011,136,2,2024-02-27T12:06:26.359Z,french_981.wav,0,poule,293,44,5,4,english,f,0,0.0,-1.54223553,0.66538198
614fcba0d71b7a527a512011,136,2,2024-02-27T12:06:26.359Z,french_981.wav,0,poule,293,44,5,4,english,f,1,0.1,-78.86121057,1.42802268
614fcba0d71b7a527a512011,136,2,2024-02-27T12:06:26.359Z,french_981.wav,0,poule,293,44,5,4,english,f,2,0.2,-33.48141771,0.92303184
614fcba0d71b7a527a512011,136,2,2024-02-27T12:06:26.359Z,french_981.wav,0,poule,293,44,5,4,english,f,3,0.25666667,-47.78773965,0.82545089
614fcba0d71b7a527a512011,137,2,2024-02-27T12:06:26.359Z,french_24.wav,0,poule,305,44,5,4,english,f,0,0.0,-90.56488298,1.23408284
614fcba0d71b7a527a512011,137,2,2024-02-27T12:06:26.359Z,french_24.wav,0,poule,305,44,5,4,english,f,1,0.1,-50.97686263,0.21485458
614fcba0d71b7a527a512011,137,2,2024-02-27T12:06:26.359Z,french_24.wav,0,poule,305,44,5,4,english,f,2,0.2,15.79918005,0.7737077
614fcba0d71b7a527a512011,137,2,2024-02-27T12:06:26.359Z,french_24.wav,0,poule,305,44,5,4,english,f,3,0.25666667,3.83977191,0.99994749
614fcba0d71b7a527a512011,138,2,2024-02-27T12:06:26.359Z,french_327.wav,0,poule,150,44,5,4,english,f,0,0.0,75.01862194,1.26930687
614fcba0d71b7a527a512011,138,2,2024-02-27T12:06:26.359Z,french_327.wav,0,poule,150,44,5,4,english,f,1,0.1,-83.8502905,1.47688931
614fcba0d71b7a527a512011,138,2,2024-02-27T12:06:26.359Z,french_327.wav,0,poule,150,44,5,4,english,f,2,0.2,63.63621512,1.339502
614fcba0d71b7a527a512011,138,2,2024-02-27T12:06:26.359Z,french_327.wav,0,poule,150,44,5,4,english,f,3,0.25666667,-22.5018405,0.76786237
614fcba0d71b7a527a512011,139,2,2024-02-27T12:06:26.359Z,french_301.wav,0,poule,234,44,5,4,english,f,0,0.0,69.85248337,0.52307933
614fcba0d71b7a527a512011,139,2,2024-02-27T12:06:26.359Z,french_301.wav,0,poule,234,44,5,4,english,f,1,0.1,-5.79297453,1.24080119
614fcba0d71b7a527a512011,139,2,2024-02-27T12:06:26.359Z,french_301.wav,0,poule,234,44,5,4,english,f,2,0.2,45.5401504,0.43993349
614fcba0d71b7a527a512011,139,2,2024-02-27T12:06:26.359Z,french_301.wav,0,poule,234,44,5,4,english,f,3,0.25666667,54.55962649,1.3035803
614fcba0d71b7a527a512011,140,2,2024-02-27T12:06:26.359Z,french_770.wav,0,poule,75,44,5,4,english,f,0,0.0,28.65055954,1.27945621
614fcba0d71b7a527a512011,140,2,2024-02-27T12:06:26.359Z,french_770.wav,0,poule,75,44,5,4,english,f,1,0.1,-72.95217839,1.48453538
614fcba0d71b7a527a512011,140,2,2024-02-27T12:06:26.359Z,french_770.wav,0,poule,75,44,5,4,english,f,2,0.2,-37.01197006,1.47789059
614fcba0d71b7a527a512011,140,2,2024-02-27T12:06:26.359Z,french_770.wav,0,poule,75,44,5,4,english,f,3,0.25666667,17.9887053,1.81501711
614fcba0d71b7a527a512011,141,2,2024-02-27T12:06:26.359Z,french_655.wav,0,poule,177,44,5,4,english,f,0,0.0,4.60078694,1.00375004
614fcba0d71b7a527a512011,141,2,2024-02-27T12:06:26.359Z,french_655.wav,0,poule,177,44,5,4,english,f,1,0.1,90.51966262,1.23726083
614fcba0d71b7a527a512011,141,2,2024-02-27T12:06:26.359Z,french_655.wav,0,poule,177,44,5,4,english,f,2,0.2,-72.80105835,1.08672065
614fcba0d71b7a527a512011,141,2,2024-02-27T12:06:26.359Z,french_655.wav,0,poule,177,44,5,4,english,f,3,0.25666667,32.46228297,0.32613357
614fcba0d71b7a527a512011,142,2,2024-02-27T12:06:26.359Z,french_124.wav,0,poule,646,44,5,4,english,f,0,0.0,-40.67960973,1.69845324
614fcba0d71b7a527a512011,142,2,2024-02-27T12:06:26.359Z,french_124.wav,0,poule,646,44,5,4,english,f,1,0.1,1.84202377,0.10570995
614fcba0d71b7a527a512011,142,2,2024-02-27T12:06:26.359Z,french_124.wav,0,poule,646,44,5,4,english,f,2,0.2,31.56915939,0.86198312
614fcba0d71b7a527a512011,142,2,2024-02-27T12:06:26.359Z,french_124.wav,0,poule,646,44,5,4,english,f,3,0.25666667,9.71654757,1.20479065
614fcba0d71b7a527a512011,143,2,2024-02-27T12:06:26.359Z,french_651.wav,0,poule,345,44,5,4,english,f,0,0.0,-39.76270633,0.57054307
614fcba0d71b7a527a512011,143,2,2024-02-27T12:06:26.359Z,french_651.wav,0,poule,345,44,5,4,english,f,1,0.1,98.43983978,0.47887101
614fcba0d71b7a527a512011,143,2,2024-02-27T12:06:26.359Z,french_651.wav,0,poule,345,44,5,4,english,f,2,0.2,-35.93188367,1.36476361
614fcba0d71b7a527a512011,143,2,2024-02-27T12:06:26.359Z,french_651.wav,0,poule,345,44,5,4,english,f,3,0.25666667,-13.56550518,1.70592369
614fcba0d71b7a527a512011,144,2,2024-02-27T12:06:26.359Z,french_889.wav,0,poule,340,44,5,4,english,f,0,0.0,-11.44618348,1.60032155
614fcba0d71b7a527a512011,144,2,2024-02-27T12:06:26.359Z,french_889.wav,0,poule,340,44,5,4,english,f,1,0.1,14.52697714,0.84860504
614fcba0d71b7a527a512011,144,2,2024-02-27T12:06:26.359Z,french_889.wav,0,poule,340,44,5,4,english,f,2,0.2,-51.60315894,1.67734449
614fcba0d71b7a527a512011,144,2,2024-02-27T12:06:26.359Z,french_889.wav,0,poule,340,44,5,4,english,f,3,0.25666667,40.16126686,0.04411269
614fcba0d71b7a527a512011,145,2,2024-02-27T12:06:26.359Z,french_609.wav,0,poule,347,44,5,4,english,f,0,0.0,11.6890167,1.75568789
614fcba0d71b7a527a512011,145,2,2024-02-27T12:06:26.359Z,french_609.wav,0,poule,347,44,5,4,english,f,1,0.1,-35.50971605,1.50542158
614fcba0d71b7a527a512011,145,2,2024-02-27T12:06:26.359Z,french_609.wav,0,poule,347,44,5,4,english,f,2,0.2,-98.47760025,0.96032408
614fcba0d71b7a527a512011,145,2,2024-02-27T12:06:26.359Z,french_609.wav,0,poule,347,44,5,4,english,f,3,0.25666667,-64.00925784,1.1186533
614fcba0d71b7a527a512011,146,2,2024-02-27T12:06:26.359Z,french_378.wav,0,poule,449,44,5,4,english,f,0,0.0,74.25757507,1.44636003
614fcba0d71b7a527a512011,146,2,2024-02-27T12:06:26.359Z,french_378.wav,0,poule,449,44,5,4,english,f,1,0.1,69.54270197,0.18429149
614fcba0d71b7a527a512011,146,2,2024-02-27T12:06:26.359Z,french_378.wav,0,poule,449,44,5,4,english,f,2,0.2,91.83328043,0.75177649
614fcba0d71b7a527a512011,146,2,2024-02-27T12:06:26.359Z,french_378.wav,0,poule,449,44,5,4,english,f,3,0.25666667,65.12199987,0.49263706
614fcba0d71b7a527a512011,147,2,2024-02-27T12:06:26.359Z,french_8.wav,0,poule,358,44,5,4,english,f,0,0.0,75.36204911,1.20802323
614fcba0d71b7a527a512011,147,2,2024-02-27T12:06:26.359Z,french_8.wav,0,poule,358,44,5,4,english,f,1,0.1,99.77980072,1.04694521
614fcba0d71b7a527a512011,147,2,2024-02-27T12:06:26.359Z,french_8.wav,0,poule,358,44,5,4,english,f,2,0.2,31.87407215,1.95307637
614fcba0d71b7a527a512011,147,2,2024-02-27T12:06:26.359Z,french_8.wav,0,poule,358,44,5,4,english,f,3,0.25666667,-3.14162979,0.34441347
614fcba0d71b7a527a512011,148,2,2024-02-27T12:06:26.359Z,french_885.wav,0,poule,326,44,5,4,english,f,0,0.0,33.82264354,0.94046277
614fcba0d71b7a527a512011,148,2,2024-02-27T12:06:26.359Z,french_885.wav,0,poule,326,44,5,4,english,f,1,0.1,-17.07734064,0.79714646
614fcba0d71b7a527a512011,148,2,2024-02-27T12:06:26.359Z,french_885.wav,0,poule,326,44,5,4,english,f,2,0.2,-15.93967404,1.26873891
614fcba0d71b7a527a512011,148,2,2024-02-27T12:06:26.359Z,french_885.wav,0,poule,326,44,5,4,english,f,3,0.25666667,58.67746901,1.69592015
614fcba0d71b7a527a512011,149,2,2024-02-27T12:06:26.359Z,french_12.wav,0,poule,626,44,5,4,english,f,0,0.0,-57.76127346,1.31680682
614fcba0d71b7a527a512011,149,2,2024-02-27T12:06:26.359Z,french_12.wav,0,poule,626,44,5,4,english,f,1,0.1,13.80138245,1.40135686
614fcba0d71b7a527a512011,149,2,2024-02-27T12:06:26.359Z,french_12.wav,0,poule,626,44,5,4,english,f,2,0.2,70.02389064,0.63152994
614fcba0d71b7a527a512011,149,2,2024-02-27T12:06:26.359Z,french_12.wav,0,poule,626,44,5,4,english,f,3,0.25666667,-46.37027392,0.33836826
614fcba0d71b7a527a512011,150,3,2024-02-27T12:06:26.359Z,french_771.wav,0,poule,589,44,5,4,english,f,0,0.0,-31.32443984,0.10443369
614fcba0d71b7a527a512011,150,3,2024-02-27T12:06:26.359Z,french_771.wav,0,poule,589,44,5,4,english,f,1,0.1,2.91896775,0.0162425
614fcba0d71b7a527a512011,150,3,2024-02-27T12:06:26.359Z,french_771.wav,0,poule,589,44,5,4,english,f,2,0.2,73.75563113,0.96029425
614fcba0d71b7a527a512011,150,3,2024-02-27T12:06:26.359Z,french_771.wav,0,poule,589,44,5,4,english,f,3,0.25666667,61.27629387,1.26482275
614fcba0d71b7a527a512011,151,3,2024-02-27T12:06:26.359Z,french_575.wav,0,poule,1288,44,5,4,english,f,0,0.0,32.80241223,0.38229386
614fcba0d71b7a527a512011,151,3,2024-02-27T12:06:26.359Z,french_575.wav,0,poule,1288,44,5,4,english,f,1,0.1,11.70984026,0.34252019
614fcba0d71b7a527a512011,151,3,2024-02-27T12:06:26.359Z,french_575.wav,0,poule,1288,44,5,4,english,f,2,0.2,-24.23897751,1.12781483
614fcba0d71b7a527a512011,151,3,2024-02-27T12:06:26.359Z,french_575.wav,0,poule,1288,44,5,4,english,f,3,0.25666667,5.92669397,1.51292739
614fcba0d71b7a527a512011,152,3,2024-02-27T12:06:26.359Z,french_198.wav,0,poule,479,44,5,4,english,f,0,0.0,72.51067349,0.65547069
614fcba0d71b7a527a512011,152,3,2024-02-27T12:06:26.359Z,french_198.wav,0,poule,479,44,5,4,english,f,1,0.1,26.15359829,0.30610144
614fcba0d71b7a527a512011,152,3,2024-02-27T12:06:26.359Z,french_198.wav,0,poule,479,44,5,4,english,f,2,0.2,-38.06500424,0.27462822
614fcba0d71b7a527a512011,152,3,2024-02-27T12:06:26.359Z,french_198.wav,0,poule,479,44,5,4,english,f,3,0.25666667,-63.59150526,1.37790723
614fcba0d71b7a527a512011,153,3,2024-02-27T12:06:26.359Z,french_172.wav,0,poule,405,44,5,4,english,f,0,0.0,48.7065843,1.72774852
614fcba0d71b7a527a512011,153,3,2024-02-27T12:06:26.359Z,french_172.wav,0,poule,405,44,5,4,english,f,1,0.1,36.17213003,0.94223675
614fcba0d71b7a527a512011,153,3,2024-02-27T12:06:26.359Z,french_172.wav,0,poule,405,44,5,4,english,f,2,0.2,22.16215467,1.06724209
614fcba0d71b7a527a512011,153,3,2024-02-27T12:06:26.359Z,french_172.wav,0,poule,405,44,5,4,english,f,3,0.25666667,3.80373218,1.19623342
614fcba0d71b7a527a512011,154,3,2024-02-27T12:06:26.359Z,french_987.wav,0,poule,884,44,5,4,english,f,0,0.0,29.59235099,0.62183529
614fcba0d71b7a527a512011,154,3,2024-02-27T12:06:26.359Z,french_987.wav,0,poule,884,44,5,4,english,f,1,0.1,34.94187385,0.21370909
614fcba0d71b7a527a512011,154,3,2024-02-27T12:06:26.359Z,french_987.wav,0,poule,884,44,5,4,english,f,2,0.2,50.69614072,0.33639435
614fcba0d71b7a527a512011,154,3,2024-02-27T12:06:26.359Z,french_987.wav,0,poule,884,44,5,4,english,f,3,0.25666667,30.08512425,1.23768731
614fcba0d71b7a527a512011,155,3,2024-02-27T12:06:26.359Z,french_383.wav,0,poule,743,44,5,4,english,f,0,0.0,-42.4544387,1.97405967
614fcba0d71b7a527a512011,155,3,2024-02-27T12:06:26.359Z,french_383.wav,0,poule,743,44,5,4,english,f,1,0.1,-90.68336638,0.7318817
614fcba0d71b7a527a512011,155,3,2024-02-27T12:06:26.359Z,french_383.wav,0,poule,743,44,5,4,english,f,2,0.2,-23.68224062,1.2439139
614fcba0d71b7a527a512011,155,3,2024-02-27T12:06:26.359Z,french_383.wav,0,poule,743,44,5,4,english,f,3,0.25666667,-19.21071009,0.24057374
614fcba0d71b7a527a512011,156,3,2024-02-27T12:06:26.359Z,french_709.wav,0,poule,486,44,5,4,english,f,0,0.0,-79.1228884,1.66046785
614fcba0d71b7a527a512011,156,3,2024-02-27T12:06:26.359Z,french_709.wav,0,poule,486,44,5,4,english,f,1,0.1,-27.45222572,0.50815509
614fcba0d71b7a527a512011,156,3,2024-02-27T12:06:26.359Z,french_709.wav,0,poule,486,44,5,4,english,f,2,0.2,-11.54770291,1.01994244
614fcba0d71b7a527a512011,156,3,2024-02-27T12:06:26.359Z,french_709.wav,0,poule,486,44,5,4,english,f,3,0.25666667,-99.06734201,1.8368488
614fcba0d71b7a527a512011,157,3,2024-02-27T12:06:26.359Z,french_731.wav,0,poule,395,44,5,4,english,f,0,0.0,52.82888701,1.42077684
614fcba0d71b7a527a512011,157,3,2024-02-27T12:06:26.359Z,french_731.wav,0,poule,395,44,5,4,english,f,1,0.1,44.66747194,0.2996776
614fcba0d71b7a527a512011,157,3,2024-02-27T12:06:26.359Z,french_731.wav,0,poule,395,44,5,4,english,f,2,0.2,83.54065351,1.21708869
614fcba0d71b7a527a512011,157,3,2024-02-27T12:06:26.359Z,french_731.wav,0,poule,395,44,5,4,english,f,3,0.25666667,-50.41579204,1.31490505
614fcba0d71b7a527a512011,158,3,2024-02-27T12:06:26.359Z,french_192.wav,0,poule,330,44,5,4,english,f,0,0.0,73.17690414,1.47156363
614fcba0d71b7a527a512011,158,3,2024-02-27T12:06:26.359Z,french_192.wav,0,poule,330,44,5,4,english,f,1,0.1,14.65884197,0.92412776
614fcba0d71b7a527a512011,158,3,2024-02-27T12:06:26.359Z,french_192.wav,0,poule,330,44,5,4,english,f,2,0.2,-6.29840632,0.27182316
614fcba0d71b7a527a512011,158,3,2024-02-27T12:06:26.359Z,french_192.wav,0,poule,330,44,5,4,english,f,3,0.25666667,-32.28340249,1.34820636
614fcba0d71b7a527a512011,159,3,2024-02-27T12:06:26.359Z,french_113.wav,0,poule,211,44,5,4,english,f,0,0.0,0.51528889,0.39555504
614fcba0d71b7a527a512011,159,3,2024-02-27T12:06:26.359Z,french_113.wav,0,poule,211,44,5,4,english,f,1,0.1,31.38938416,1.50115078
614fcba0d71b7a527a512011,159,3,2024-02-27T12:06:26.359Z,french_113.wav,0,poule,211,44,5,4,english,f,2,0.2,-56.71204584,1.00732686
614fcba0d71b7a527a512011,159,3,2024-02-27T12:06:26.359Z,french_113.wav,0,poule,211,44,5,4,english,f,3,0.25666667,95.05763822,0.59062761
614fcba0d71b7a527a512011,160,3,2024-02-27T12:06:26.359Z,french_617.wav,0,poule,349,44,5,4,english,f,0,0.0,-34.18466024,0.10021852
614fcba0d71b7a527a512011,160,3,2024-02-27T12:06:26.359Z,french_617.wav,0,poule,349,44,5,4,english,f,1,0.1,35.41565559,0.72859392
614fcba0d71b7a527a512011,160,3,2024-02-27T12:06:26.359Z,french_617.wav,0,poule,349,44,5,4,english,f,2,0.2,59.04414741,0.77782194
614fcba0d71b7a527a512011,160,3,2024-02-27T12:06:26.359Z,french_617.wav,0,poule,349,44,5,4,english,f,3,0.25666667,80.0519445,1.13599019
614fcba0d71b7a527a512011,161,3,2024-02-27T12:06:26.359Z,french_578.wav,0,poule,310,44,5,4,english,f,0,0.0,-7.38817871,1.21970749
614fcba0d71b7a527a512011,161,3,2024-02-27T12:06:26.359Z,french_578.wav,0,poule,310,44,5,4,english,f,1,0.1,-62.82402322,1.48191428
614fcba0d71b7a527a512011,161,3,2024-02-27T12:06:26.359Z,french_578.wav,0,poule,310,44,5,4,english,f,2,0.2,-74.03812343,0.32639168
614fcba0d71b7a527a512011,161,3,2024-02-27T12:06:26.359Z,french_578.wav,0,poule,310,44,5,4,english,f,3,0.25666667,-40.1929109,0.05147762
614fcba0d71b7a527a512011,162,3,2024-02-27T12:06:26.359Z,french_933.wav,0,poule,230,44,5,4,english,f,0,0.0,-24.27897726,0.66366025
614fcba0d71b7a527a512011,162,3,2024-02-27T12:06:26.359Z,french_933.wav,0,poule,230,44,5,4,english,f,1,0.1,45.4380102,1.16686233
614fcba0d71b7a527a512011,162,3,2024-02-27T12:06:26.359Z,french_933.wav,0,poule,230,44,5,4,english,f,2,0.2,44.52165476,0.86083852
614fcba0d71b7a527a512011,162,3,2024-02-27T12:06:26.359Z,french_933.wav,0,poule,230,44,5,4,english,f,3,0.25666667,11.96128215,1.88972919
614fcba0d71b7a527a512011,163,3,2024-02-27T12:06:26.359Z,french_972.wav,0,poule,203,44,5,4,english,f,0,0.0,10.38102426,0.90840989
614fcba0d71b7a527a512011,163,3,2024-02-27T12:06:26.359Z,french_972.wav,0,poule,203,44,5,4,english,f,1,0.1,-66.54271468,1.6485676
614fcba0d71b7a527a512011,163,3,2024-02-27T12:06:26.359Z,french_972.wav,0,poule,203,44,5,4,english,f,2,0.2,-2.89265523,0.79956718
614fcba0d71b7a527a512011,163,3,2024-02-27T12:06:26.359Z,french_972.wav,0,poule,203,44,5,4,english,f,3,0.25666667,-87.42126356,1.28352811
614fcba0d71b7a527a512011,164,3,2024-02-27T12:06:26.359Z,french_356.wav,0,poule,382,44,5,4,english,f,0,0.0,-28.24477507,0.35227097
614fcba0d71b7a527a512011,164,3,2024-02-27T12:06:26.359Z,french_356.wav,0,poule,382,44,5,4,english,f,1,0.1,-36.63699676,1.16218152
614fcba0d71b7a527a512011,164,3,2024-02-27T12:06:26.359Z,french_356.wav,0,poule,382,44,5,4,english,f,2,0.2,67.9524461,1.82395355
614fcba0d71b7a527a512011,164,3,2024-02-27T12:06:26.359Z,french_356.wav,0,poule,382,44,5,4,english,f,3,0.25666667,8.53170414,1.63669257
614fcba0d71b7a527a512011,165,3,2024-02-27T12:06:26.359Z,french_33.wav,0,poule,674,44,5,4,english,f,0,0.0,57.46883034,0.51774601
614fcba0d71b7a527a512011,165,3,2024-02-27T12:06:26.359Z,french_33.wav,0,poule,674,44,5,4,english,f,1,0.1,-37.75467747,0.34297047
614fcba0d71b7a527a512011,165,3,2024-02-27T12:06:26.359Z,french_33.wav,0,poule,674,44,5,4,english,f,2,0.2,37.26126111,0.88429292
614fcba0d71b7a527a512011,165,3,2024-02-27T12:06:26.359Z,french_33.wav,0,poule,674,44,5,4,english,f,3,0.25666667,30.73694303,0.45040489
614fcba0d71b7a527a512011,166,3,2024-02-27T12:06:26.359Z,french_254.wav,0,poule,1106,44,5,4,english,f,0,0.0,-80.26287383,0.610966
614fcba0d71b7a527a512011,166,3,2024-02-27T12:06:26.359Z,french_254.wav,0,poule,1106,44,5,4,english,f,1,0.1,-40.33934554,1.74213191
614fcba0d71b7a527a512011,166,3,2024-02-27T12:06:26.359Z,french_254.wav,0,poule,1106,44,5,4,english,f,2,0.2,63.1875163,0.92287848
614fcba0d71b7a527a512011,166,3,2024-02-27T12:06:26.359Z,french_254.wav,0,poule,1106,44,5,4,english,f,3,0.25666667,55.87543548,0.4746978
614fcba0d71b7a527a512011,167,3,2024-02-27T12:06:26.359Z,french_482.wav,0,poule,412,44,5,4,english,f,0,0.0,30.59556471,1.3609553
614fcba0d71b7a527a512011,167,3,2024-02-27T12:06:26.359Z,french_482.wav,0,poule,412,44,5,4,english,f,1,0.1,-28.15674373,1.03507415
614fcba0d71b7a527a512011,167,3,2024-02-27T12:06:26.359Z,french_482.wav,0,poule,412,44,5,4,english,f,2,0.2,-30.08163346,1.60461159
614fcba0d71b7a527a512011,167,3,2024-02-27T12:06:26.359Z,french_482.wav,0,poule,412,44,5,4,english,f,3,0.25666667,89.23902938,0.68082645
614fcba0d71b7a527a512011,168,3,2024-02-27T12:06:26.359Z,french_75.wav,0,poule,493,44,5,4,english,f,0,0.0,-2.54190785,0.75594209
614fcba0d71b7a527a512011,168,3,2024-02-27T12:06:26.359Z,french_75.wav,0,poule,493,44,5,4,english,f,1,0.1,-18.79561653,0.77713134
614fcba0d71b7a527a512011,168,3,2024-02-27T12:06:26.359Z,french_75.wav,0,poule,493,44,5,4,english,f,2,0.2,-63.16754008,0.0667883
614fcba0d71b7a527a512011,168,3,2024-02-27T12:06:26.359Z,french_75.wav,0,poule,493,44,5,4,english,f,3,0.25666667,-38.64547488,0.54855801
614fcba0d71b7a527a512011,169,3,2024-02-27T12:06:26.359Z,french_134.wav,0,poule,375,44,5,4,english,f,0,0.0,-65.58132827,0.68669704
614fcba0d71b7a527a512011,169,3,2024-02-27T12:06:26.359Z,french_134.wav,0,poule,375,44,5,4,english,f,1,0.1,-89.82992505,1.50131287
614fcba0d71b7a527a512011,169,3,2024-02-27T12:06:26.359Z,french_134.wav,0,poule,375,44,5,4,english,f,2,0.2,9.99695038,0.69598371
614fcba0d71b7a527a512011,169,3,2024-02-27T12:06:26.359Z,french_134.wav,0,poule,375,44,5,4,english,f,3,0.25666667,24.50908123,1.57047358
614fcba0d71b7a527a512011,170,3,2024-02-27T12:06:26.359Z,french_743.wav,0,poule,419,44,5,4,english,f,0,0.0,-33.29442342,0.17876133
614fcba0d71b7a527a512011,170,3,2024-02-27T12:06:26.359Z,french_743.wav,0,poule,419,44,5,4,english,f,1,0.1,66.78729562,1.55990879
614fcba0d71b7a527a512011,170,3,2024-02-27T12:06:26.359Z,french_743.wav,0,poule,419,44,5,4,english,f,2,0.2,-0.09457626,1.00824872
614fcba0d71b7a527a512011,170,3,2024-02-27T12:06:26.359Z,french_743.wav,0,poule,419,44,5,4,english,f,3,0.25666667,-6.43111547,1.50563658
614fcba0d71b7a527a512011,171,3,2024-02-27T12:06:26.359Z,french_469.wav,0,poule,437,44,5,4,english,f,0,0.0,66.71351684,0.70736983
614fcba0d71b7a527a512011,171,3,2024-02-27T12:06:26.359Z,french_469.wav,0,poule,437,44,5,4,english,f,1,0.1,-62.03219977,0.37939516
614fcba0d71b7a527a512011,171,3,2024-02-27T12:06:26.359Z,french_469.wav,0,poule,437,44,5,4,english,f,2,0.2,3.50074433,0.65236
614fcba0d71b7a527a512011,171,3,2024-02-27T12:06:26.359Z,french_469.wav,0,poule,437,44,5,4,english,f,3,0.25666667,58.03584826,0.94960182
614fcba0d71b7a527a512011,172,3,2024-02-27T12:06:26.359Z,french_226.wav,0,poule,410,44,5,4,english,f,0,0.0,85.32452385,1.68909252
614fcba0d71b7a527a512011,172,3,2024-02-27T12:06:26.359Z,french_226.wav,0,poule,410,44,5,4,english,f,1,0.1,-25.06918931,0.17046025
614fcba0d71b7a527a512011,172,3,2024-02-27T12:06:26.359Z,french_226.wav,0,poule,410,44,5,4,english,f,2,0.2,-17.89357971,0.61029189
614fcba0d71b7a527a512011,172,3,2024-02-27T12:06:26.359Z,french_226.wav,0,poule,410,44,5,4,english,f,3,0.25666667,45.31971501,0.53544367
614fcba0d71b7a527a512011,173,3,2024-02-27T12:06:26.359Z,french_249.wav,0,poule,388,44,5,4,english,f,0,0.0,-14.62389142,0.54824935
614fcba0d71b7a527a512011,173,3,2024-02-27T12:06:26.359Z,french_249.wav,0,poule,388,44,5,4,english,f,1,0.1,82.35169727,0.81625332
614fcba0d71b7a527a512011,173,3,2024-02-27T12:06:26.359Z,french_249.wav,0,poule,388,44,5,4,english,f,2,0.2,-37.79288698,0.28914805
614fcba0d71b7a527a512011,173,3,2024-02-27T12:06:26.359Z,french_249.wav,0,poule,388,44,5,4,english,f,3,0.25666667,-94.5306765,0.43241605
614fcba0d71b7a527a512011,174,3,2024-02-27T12:06:26.359Z,french_627.wav,0,poule,459,44,5,4,english,f,0,0.0,2.1799823,1.97167661
614fcba0d71b7a527a512011,174,3,2024-02-27T12:06:26.359Z,french_627.wav,0,poule,459,44,5,4,english,f,1,0.1,30.63833179,1.14790719
614fcba0d71b7a527a512011,174,3,2024-02-27T12:06:26.359Z,french_627.wav,0,poule,459,44,5,4,english,f,2,0.2,99.93583097,1.70510721
614fcba0d71b7a527a512011,174,3,2024-02-27T12:06:26.359Z,french_627.wav,0,poule,459,44,5,4,english,f,3,0.25666667,-23.95585557,1.67415678
614fcba0d71b7a527a512011,175,3,2024-02-27T12:06:26.359Z,french_901.wav,0,poule,373,44,5,4,english,f,0,0.0,-25.19173586,1.14646858
614fcba0d71b7a527a512011,175,3,2024-02-27T12:06:26.359Z,french_901.wav,0,poule,373,44,5,4,english,f,1,0.1,-52.79367362,1.72960478
614fcba0d71b7a527a512011,175,3,2024-02-27T12:06:26.359Z,french_901.wav,0,poule,373,44,5,4,english,f,2,0.2,31.61264675,1.50121635
614fcba0d71b7a527a512011,175,3,2024-02-27T12:06:26.359Z,french_901.wav,0,poule,373,44,5,4,english,f,3,0.25666667,-8.05782551,0.87544333
614fcba0d71b7a527a512011,176,3,2024-02-27T12:06:26.359Z,french_150.wav,0,poule,341,44,5,4,english,f,0,0.0,8.70975457,0.6151883
614fcba0d71b7a527a512011,176,3,2024-02-27T12:06:26.359Z,french_150.wav,0,poule,341,44,5,4,english,f,1,0.1,-27.10460474,1.35739255
614fcba0d71b7a527a512011,176,3,2024-02-27T12:06:26.359Z,french_150.wav,0,poule,341,44,5,4,english,f,2,0.2,-81.59186784,1.42530839
614fcba0d71b7a527a512011,176,3,2024-02-27T12:06:26.359Z,french_150.wav,0,poule,341,44,5,4,english,f,3,0.25666667,-72.54184128,0.64697028
614fcba0d71b7a527a512011,177,3,2024-02-27T12:06:26.359Z,french_264.wav,0,poule,298,44,5,4,english,f,0,0.0,-17.29134877,0.96448196
614fcba0d71b7a527a512011,177,3,2024-02-27T12:06:26.359Z,french_264.wav,0,poule,298,44,5,4,english,f,1,0.1,-10.91480705,1.52626855
614fcba0d71b7a527a512011,177,3,2024-02-27T12:06:26.359Z,french_264.wav,0,poule,298,44,5,4,english,f,2,0.2,-52.17023247,1.44831705
614fcba0d71b7a527a512011,177,3,2024-02-27T12:06:26.359Z,french_264.wav,0,poule,298,44,5,4,english,f,3,0.25666667,-37.31404804,1.66094276
614fcba0d71b7a527a512011,178,3,2024-02-27T12:06:26.359Z,french_929.wav,0,poule,437,44,5,4,english,f,0,0.0,-0.81023728,1.80594317
614fcba0d71b7a527a512011,178,3,2024-02-27T12:06:26.359Z,french_929.wav,0,poule,437,44,5,4,english,f,1,0.1,49.23140571,0.75886247
614fcba0d71b7a527a512011,178,3,2024-02-27T12:06:26.359Z,french_929.wav,0,poule,437,44,5,4,english,f,2,0.2,-9.18427249,0.13714517
614fcba0d71b7a527a512011,178,3,2024-02-27T12:06:26.359Z,french_929.wav,0,poule,437,44,5,4,english,f,3,0.25666667,2.49300226,0.57622003
614fcba0d71b7a527a512011,179,3,2024-02-27T12:06:26.359Z,french_577.wav,0,poule,446,44,5,4,english,f,0,0.0,-34.34323574,0.85646341
614fcba0d71b7a527a512011,179,3,2024-02-27T12:06:26.359Z,french_577.wav,0,poule,446,44,5,4,english,f,1,0.1,42.3591335,0.14355807
614fcba0d71b7a527a512011,179,3,2024-02-27T12:06:26.359Z,french_577.wav,0,poule,446,44,5,4,english,f,2,0.2,-17.66243752,0.33082023
614fcba0d71b7a527a512011,179,3,2024-02-27T12:06:26.359Z,french_577.wav,0,poule,446,44,5,4,english,f,3,0.25666667,-25.14969583,0.85136365
614fcba0d71b7a527a512011,180,3,2024-02-27T12:06:26.359Z,french_622.wav,0,poule,328,44,5,4,english,f,0,0.0,47.12624694,0.11708635
614fcba0d71b7a527a512011,180,3,2024-02-27T12:06:26.359Z,french_622.wav,0,poule,328,44,5,4,english,f,1,0.1,27.16283734,1.67756831
614fcba0d71b7a527a512011,180,3,2024-02-27T12:06:26.359Z,french_622.wav,0,poule,328,44,5,4,english,f,2,0.2,55.37707654,0.50575055
614fcba0d71b7a527a512011,180,3,2024-02-27T12:06:26.359Z,french_622.wav,0,poule,328,44,5,4,english,f,3,0.25666667,-3.25728377,0.46543416
614fcba0d71b7a527a512011,181,3,2024-02-27T12:06:26.359Z,french_367.wav,0,pull,636,44,5,4,english,f,0,0.0,-74.25610099,1.28932343
614fcba0d71b7a527a512011,181,3,2024-02-27T12:06:26.359Z,french_367.wav,0,pull,636,44,5,4,english,f,1,0.1,-44.66143863,1.13980767
614fcba0d71b7a527a512011,181,3,2024-02-27T12:06:26.359Z,french_367.wav,0,pull,636,44,5,4,english,f,2,0.2,-39.26529042,1.487469
614fcba0d71b7a527a512011,181,3,2024-02-27T12:06:26.359Z,french_367.wav,0,pull,636,44,5,4,english,f,3,0.25666667,-84.95145566,0.37349724
614fcba0d71b7a527a512011,182,3,2024-02-27T12:06:26.359Z,french_376.wav,0,poule,407,44,5,4,english,f,0,0.0,-29.78300729,1.32478843
614fcba0d71b7a527a512011,182,3,2024-02-27T12:06:26.359Z,french_376.wav,0,poule,407,44,5,4,english,f,1,0.1,-14.6608331,1.46487259
614fcba0d71b7a527a512011,182,3,2024-02-27T12:06:26.359Z,french_376.wav,0,poule,407,44,5,4,english,f,2,0.2,93.91149251,1.42207254
614fcba0d71b7a527a512011,182,3,2024-02-27T12:06:26.359Z,french_376.wav,0,poule,407,44,5,4,english,f,3,0.25666667,61.08695399,1.23206205
614fcba0d71b7a527a512011,183,3,2024-02-27T12:06:26.359Z,french_633.wav,0,poule,836,44,5,4,english,f,0,0.0,86.81441283,1.16860967
614fcba0d71b7a527a512011,183,3,2024-02-27T12:06:26.359Z,french_633.wav,0,poule,836,44,5,4,english,f,1,0.1,-4.21988764,0.88033016
614fcba0d71b7a527a512011,183,3,2024-02-27T12:06:26.359Z,french_633.wav,0,poule,836,44,5,4,english,f,2,0.2,27.13702415,0.79008737
614fcba0d71b7a527a512011,183,3,2024-02-27T12:06:26.359Z,french_633.wav,0,poule,836,44,5,4,english,f,3,0.25666667,25.74151368,1.16621919
614fcba0d71b7a527a512011,184,3,2024-02-27T12:06:26.359Z,french_985.wav,0,poule,316,44,5,4,english,f,0,0.0,29.21663761,0.89782151
614fcba0d71b7a527a512011,184,3,2024-02-27T12:06:26.359Z,french_985.wav,0,poule,316,44,5,4,english,f,1,0.1,-71.61154632,0.27969284
614fcba0d71b7a527a512011,184,3,2024-02-27T12:06:26.359Z,french_985.wav,0,poule,316,44,5,4,english,f,2,0.2,41.30472765,1.11185271
614fcba0d71b7a527a512011,184,3,2024-02-27T12:06:26.359Z,french_985.wav,0,poule,316,44,5,4,english,f,3,0.25666667,-19.1628823,1.39441914
614fcba0d71b7a527a512011,185,3,2024-02-27T12:06:26.359Z,french_738.wav,0,poule,395,44,5,4,english,f,0,0.0,9.63502306,1.8953007
614fcba0d71b7a527a512011,185,3,2024-02-27T12:06:26.359Z,french_738.wav,0,poule,395,44,5,4,english,f,1,0.1,23.45464863,0.66483685
614fcba0d71b7a527a512011,185,3,2024-02-27T12:06:26.359Z,french_738.wav,0,poule,395,44,5,4,english,f,2,0.2,-41.48525502,0.56687756
614fcba0d71b7a527a512011,185,3,2024-02-27T12:06:26.359Z,french_738.wav,0,poule,395,44,5,4,english,f,3,0.25666667,10.13311751,1.74946228
614fcba0d71b7a527a512011,186,3,2024-02-27T12:06:26.359Z,french_608.wav,0,poule,389,44,5,4,english,f,0,0.0,-21.93815625,0.80217517
614fcba0d71b7a527a512011,186,3,2024-02-27T12:06:26.359Z,french_608.wav,0,poule,389,44,5,4,english,f,1,0.1,68.35071967,1.13802751
614fcba0d71b7a527a512011,186,3,2024-02-27T12:06:26.359Z,french_608.wav,0,poule,389,44,5,4,english,f,2,0.2,-10.44332041,0.09203458
614fcba0d71b7a527a512011,186,3,2024-02-27T12:06:26.359Z,french_608.wav,0,poule,389,44,5,4,english,f,3,0.25666667,-49.43801065,0.18129022
614fcba0d71b7a527a512011,187,3,2024-02-27T12:06:26.359Z,french_763.wav,0,poule,595,44,5,4,english,f,0,0.0,-96.72958763,0.69845728
614fcba0d71b7a527a512011,187,3,2024-02-27T12:06:26.359Z,french_763.wav,0,poule,595,44,5,4,english,f,1,0.1,95.66434095,1.4089076
614fcba0d71b7a527a512011,187,3,2024-02-27T12:06:26.359Z,french_763.wav,0,poule,595,44,5,4,english,f,2,0.2,-84.28875962,1.74428554
614fcba0d71b7a527a512011,187,3,2024-02-27T12:06:26.359Z,french_763.wav,0,poule,595,44,5,4,english,f,3,0.25666667,-41.37848175,0.12054272
614fcba0d71b7a527a512011,188,3,2024-02-27T12:06:26.359Z,french_430.wav,0,poule,239,44,5,4,english,f,0,0.0,-57.26862172,0.12656802
614fcba0d71b7a527a512011,188,3,2024-02-27T12:06:26.359Z,french_430.wav,0,poule,239,44,5,4,english,f,1,0.1,63.88036448,1.52184386
614fcba0d71b7a527a512011,188,3,2024-02-27T12:06:26.359Z,french_430.wav,0,poule,239,44,5,4,english,f,2,0.2,-87.83585054,1.10266765
614fcba0d71b7a527a512011,188,3,2024-02-27T12:06:26.359Z,french_430.wav,0,poule,239,44,5,4,english,f,3,0.25666667,-58.79211397,1.86011067
614fcba0d71b7a527a512011,189,3,2024-02-27T12:06:26.359Z,french_536.wav,0,poule,252,44,5,4,english,f,0,0.0,68.67423581,1.72386473
614fcba0d71b7a527a512011,189,3,2024-02-27T12:06:26.359Z,french_536.wav,0,poule,252,44,5,4,english,f,1,0.1,-41.0053329,0.5365144
614fcba0d71b7a527a512011,189,3,2024-02-27T12:06:26.359Z,french_536.wav,0,poule,252,44,5,4,english,f,2,0.2,83.63020031,1.03248729
614fcba0d71b7a527a512011,189,3,2024-02-27T12:06:26.359Z,french_536.wav,0,poule,252,44,5,4,english,f,3,0.25666667,91.23175369,0.91736707
614fcba0d71b7a527a512011,190,3,2024-02-27T12:06:26.359Z,french_476.wav,0,poule,445,44,5,4,english,f,0,0.0,-83.79523633,0.72975737
614fcba0d71b7a527a512011,190,3,2024-02-27T12:06:26.359Z,french_476.wav,0,poule,445,44,5,4,english,f,1,0.1,62.15522278,1.65535888
614fcba0d71b7a527a512011,190,3,2024-02-27T12:06:26.359Z,french_476.wav,0,poule,445,44,5,4,english,f,2,0.2,-62.9629606,1.94146275
614fcba0d71b7a527a512011,190,3,2024-02-27T12:06:26.359Z,french_476.wav,0,poule,445,44,5,4,english,f,3,0.25666667,29.80880048,1.32492406
614fcba0d71b7a527a512011,191,3,2024-02-27T12:06:26.359Z,french_970.wav,0,poule,331,44,5,4,english,f,0,0.0,45.66425393,0.15526341
614fcba0d71b7a527a512011,191,3,2024-02-27T12:06:26.359Z,french_970.wav,0,poule,331,44,5,4,english,f,1,0.1,-82.79761983,0.70533305
