subj,trial,block,date,stim,stim_order,response,rt,age,english,french,language,sex,param_index,segment,pitch,stretch
5ce3e7ff90a751001a31a05c,0,0,2024-02-27T14:15:36.919Z,french_862.wav,0,pull,5642,40,5,3,english,f,0,0.0,99.41401176,0.02807195
5ce3e7ff90a751001a31a05c,0,0,2024-02-27T14:15:36.919Z,french_862.wav,0,pull,5642,40,5,3,english,f,1,0.1,35.25307956,0.7885189
5ce3e7ff90a751001a31a05c,0,0,2024-02-27T14:15:36.919Z,french_862.wav,0,pull,5642,40,5,3,english,f,2,0.2,-56.34938096,0.76649358
5ce3e7ff90a751001a31a05c,0,0,2024-02-27T14:15:36.919Z,french_862.wav,0,pull,5642,40,5,3,english,f,3,0.25666667,-51.21225279,1.75346492
5ce3e7ff90a751001a31a05c,1,0,2024-02-27T14:15:36.919Z,french_538.wav,0,poule,1674,40,5,3,english,f,0,0.0,-62.11881418,0.72316351
5ce3e7ff90a751001a31a05c,1,0,2024-02-27T14:15:36.919Z,french_538.wav,0,poule,1674,40,5,3,english,f,1,0.1,-49.1326041,0.52652182
5ce3e7ff90a751001a31a05c,1,0,2024-02-27T14:15:36.919Z,french_538.wav,0,poule,1674,40,5,3,english,f,2,0.2,11.48721962,0.30218135
5ce3e7ff90a751001a31a05c,1,0,2024-02-27T14:15:36.919Z,french_538.wav,0,poule,1674,40,5,3,english,f,3,0.25666667,-26.18142206,1.69243497
5ce3e7ff90a751001a31a05c,2,0,2024-02-27T14:15:36.919Z,french_670.wav,0,poule,2260,40,5,3,english,f,0,0.0,-38.80852857,0.18324618
5ce3e7ff90a751001a31a05c,2,0,2024-02-27T14:15:36.919Z,french_670.wav,0,poule,2260,40,5,3,english,f,1,0.1,-8.64332938,0.81857347
5ce3e7ff90a751001a31a05c,2,0,2024-02-27T14:15:36.919Z,french_670.wav,0,poule,2260,40,5,3,english,f,2,0.2,-55.35683075,1.27404838
5ce3e7ff90a751001a31a05c,2,0,2024-02-27T14:15:36.919Z,french_670.wav,0,poule,2260,40,5,3,english,f,3,0.25666667,17.57735741,1.12537981
5ce3e7ff90a751001a31a05c,3,0,2024-02-27T14:15:36.919Z,french_33.wav,0,poule,1094,40,5,3,english,f,0,0.0,57.46883034,0.51774601
5ce3e7ff90a751001a31a05c,3,0,2024-02-27T14:15:36.919Z,french_33.wav,0,poule,1094,40,5,3,english,f,1,0.1,-37.75467747,0.34297047
5ce3e7ff90a751001a31a05c,3,0,2024-02-27T14:15:36.919Z,french_33.wav,0,poule,1094,40,5,3,english,f,2,0.2,37.26126111,0.88429292
5ce3e7ff90a751001a31a05c,3,0,2024-02-27T14:15:36.919Z,french_33.wav,0,poule,1094,40,5,3,english,f,3,0.25666667,30.73694303,0.45040489
5ce3e7ff90a751001a31a05c,4,0,2024-02-27T14:15:36.919Z,french_219.wav,0,pull,1325,40,5,3,english,f,0,0.0,-98.78648146,1.35832625
5ce3e7ff90a751001a31a05c,4,0,2024-02-27T14:15:36.919Z,french_219.wav,0,pull,1325,40,5,3,english,f,1,0.1,-54.51672601,0.9105506
5ce3e7ff90a751001a31a05c,4,0,2024-02-27T14:15:36.919Z,french_219.wav,0,pull,1325,40,5,3,english,f,2,0.2,75.82451993,0.22027405
5ce3e7ff90a751001a31a05c,4,0,2024-02-27T14:15:36.919Z,french_219.wav,0,pull,1325,40,5,3,english,f,3,0.25666667,42.52821499,1.53742188
5ce3e7ff90a751001a31a05c,5,0,2024-02-27T14:15:36.919Z,french_530.wav,0,pull,1376,40,5,3,english,f,0,0.0,-48.266975,0.22885815
5ce3e7ff90a751001a31a05c,5,0,2024-02-27T14:15:36.919Z,french_530.wav,0,pull,1376,40,5,3,english,f,1,0.1,10.53522492,0.99708564
5ce3e7ff90a751001a31a05c,5,0,2024-02-27T14:15:36.919Z,french_530.wav,0,pull,1376,40,5,3,english,f,2,0.2,-70.81391458,0.43471164
5ce3e7ff90a751001a31a05c,5,0,2024-02-27T14:15:36.919Z,french_530.wav,0,pull,1376,40,5,3,english,f,3,0.25666667,-13.69241617,0.61022423
5ce3e7ff90a751001a31a05c,6,0,2024-02-27T14:15:36.919Z,french_342.wav,0,poule,1145,40,5,3,english,f,0,0.0,-84.22246184,0.80111929
5ce3e7ff90a751001a31a05c,6,0,2024-02-27T14:15:36.919Z,french_342.wav,0,poule,1145,40,5,3,english,f,1,0.1,-88.55202377,0.92289162
5ce3e7ff90a751001a31a05c,6,0,2024-02-27T14:15:36.919Z,french_342.wav,0,poule,1145,40,5,3,english,f,2,0.2,12.74462997,0.96187701
5ce3e7ff90a751001a31a05c,6,0,2024-02-27T14:15:36.919Z,french_342.wav,0,poule,1145,40,5,3,english,f,3,0.25666667,-73.67155113,0.57764427
5ce3e7ff90a751001a31a05c,7,0,2024-02-27T14:15:36.919Z,french_950.wav,0,poule,592,40,5,3,english,f,0,0.0,6.46729125,1.1492664
5ce3e7ff90a751001a31a05c,7,0,2024-02-27T14:15:36.919Z,french_950.wav,0,poule,592,40,5,3,english,f,1,0.1,89.94723115,1.37343317
5ce3e7ff90a751001a31a05c,7,0,2024-02-27T14:15:36.919Z,french_950.wav,0,poule,592,40,5,3,english,f,2,0.2,33.92654299,1.07181876
5ce3e7ff90a751001a31a05c,7,0,2024-02-27T14:15:36.919Z,french_950.wav,0,poule,592,40,5,3,english,f,3,0.25666667,4.68690548,0.13073982
5ce3e7ff90a751001a31a05c,8,0,2024-02-27T14:15:36.919Z,french_96.wav,0,poule,525,40,5,3,english,f,0,0.0,-35.67204937,1.29614461
5ce3e7ff90a751001a31a05c,8,0,2024-02-27T14:15:36.919Z,french_96.wav,0,poule,525,40,5,3,english,f,1,0.1,-14.5967046,0.74963508
5ce3e7ff90a751001a31a05c,8,0,2024-02-27T14:15:36.919Z,french_96.wav,0,poule,525,40,5,3,english,f,2,0.2,23.77171322,0.96397917
5ce3e7ff90a751001a31a05c,8,0,2024-02-27T14:15:36.919Z,french_96.wav,0,poule,525,40,5,3,english,f,3,0.25666667,-43.45086892,0.69619931
5ce3e7ff90a751001a31a05c,9,0,2024-02-27T14:15:36.919Z,french_415.wav,0,pull,1359,40,5,3,english,f,0,0.0,-78.44301617,1.61962555
5ce3e7ff90a751001a31a05c,9,0,2024-02-27T14:15:36.919Z,french_415.wav,0,pull,1359,40,5,3,english,f,1,0.1,84.17180311,0.78674907
5ce3e7ff90a751001a31a05c,9,0,2024-02-27T14:15:36.919Z,french_415.wav,0,pull,1359,40,5,3,english,f,2,0.2,32.05176365,0.83302444
5ce3e7ff90a751001a31a05c,9,0,2024-02-27T14:15:36.919Z,french_415.wav,0,pull,1359,40,5,3,english,f,3,0.25666667,1.79049447,0.85177262
5ce3e7ff90a751001a31a05c,10,0,2024-02-27T14:15:36.919Z,french_31.wav,0,pull,747,40,5,3,english,f,0,0.0,-16.52506352,1.57904125
5ce3e7ff90a751001a31a05c,10,0,2024-02-27T14:15:36.919Z,french_31.wav,0,pull,747,40,5,3,english,f,1,0.1,-80.19736258,0.88688051
5ce3e7ff90a751001a31a05c,10,0,2024-02-27T14:15:36.919Z,french_31.wav,0,pull,747,40,5,3,english,f,2,0.2,-47.04996605,0.44579633
5ce3e7ff90a751001a31a05c,10,0,2024-02-27T14:15:36.919Z,french_31.wav,0,pull,747,40,5,3,english,f,3,0.25666667,35.27279848,1.71139476
5ce3e7ff90a751001a31a05c,11,0,2024-02-27T14:15:36.919Z,french_237.wav,0,pull,2183,40,5,3,english,f,0,0.0,-1.09426196,0.40664609
5ce3e7ff90a751001a31a05c,11,0,2024-02-27T14:15:36.919Z,french_237.wav,0,pull,2183,40,5,3,english,f,1,0.1,-48.49856075,0.23529618
5ce3e7ff90a751001a31a05c,11,0,2024-02-27T14:15:36.919Z,french_237.wav,0,pull,2183,40,5,3,english,f,2,0.2,36.42993093,0.05363011
5ce3e7ff90a751001a31a05c,11,0,2024-02-27T14:15:36.919Z,french_237.wav,0,pull,2183,40,5,3,english,f,3,0.25666667,-47.65767162,1.34950367
5ce3e7ff90a751001a31a05c,12,0,2024-02-27T14:15:36.919Z,french_384.wav,0,poule,900,40,5,3,english,f,0,0.0,96.27107524,0.63462189
5ce3e7ff90a751001a31a05c,12,0,2024-02-27T14:15:36.919Z,french_384.wav,0,poule,900,40,5,3,english,f,1,0.1,31.19825585,1.63064356
5ce3e7ff90a751001a31a05c,12,0,2024-02-27T14:15:36.919Z,french_384.wav,0,poule,900,40,5,3,english,f,2,0.2,59.60884037,0.96291672
5ce3e7ff90a751001a31a05c,12,0,2024-02-27T14:15:36.919Z,french_384.wav,0,poule,900,40,5,3,english,f,3,0.25666667,90.96213602,1.24636593
5ce3e7ff90a751001a31a05c,13,0,2024-02-27T14:15:36.919Z,french_381.wav,0,pull,1092,40,5,3,english,f,0,0.0,-36.22739734,0.39069554
5ce3e7ff90a751001a31a05c,13,0,2024-02-27T14:15:36.919Z,french_381.wav,0,pull,1092,40,5,3,english,f,1,0.1,63.18659678,0.02424263
5ce3e7ff90a751001a31a05c,13,0,2024-02-27T14:15:36.919Z,french_381.wav,0,pull,1092,40,5,3,english,f,2,0.2,-88.25823098,0.59540025
5ce3e7ff90a751001a31a05c,13,0,2024-02-27T14:15:36.919Z,french_381.wav,0,pull,1092,40,5,3,english,f,3,0.25666667,39.00702017,0.84340327
5ce3e7ff90a751001a31a05c,14,0,2024-02-27T14:15:36.919Z,french_961.wav,0,poule,842,40,5,3,english,f,0,0.0,-20.33448842,1.15404666
5ce3e7ff90a751001a31a05c,14,0,2024-02-27T14:15:36.919Z,french_961.wav,0,poule,842,40,5,3,english,f,1,0.1,-4.78685128,0.60063951
5ce3e7ff90a751001a31a05c,14,0,2024-02-27T14:15:36.919Z,french_961.wav,0,poule,842,40,5,3,english,f,2,0.2,-11.93718074,0.7481002
5ce3e7ff90a751001a31a05c,14,0,2024-02-27T14:15:36.919Z,french_961.wav,0,poule,842,40,5,3,english,f,3,0.25666667,-89.16955282,0.88090291
5ce3e7ff90a751001a31a05c,15,0,2024-02-27T14:15:36.919Z,french_931.wav,0,poule,1256,40,5,3,english,f,0,0.0,64.75046939,1.51932084
5ce3e7ff90a751001a31a05c,15,0,2024-02-27T14:15:36.919Z,french_931.wav,0,poule,1256,40,5,3,english,f,1,0.1,-55.9473081,1.08335674
5ce3e7ff90a751001a31a05c,15,0,2024-02-27T14:15:36.919Z,french_931.wav,0,poule,1256,40,5,3,english,f,2,0.2,32.85596214,0.78781639
5ce3e7ff90a751001a31a05c,15,0,2024-02-27T14:15:36.919Z,french_931.wav,0,poule,1256,40,5,3,english,f,3,0.25666667,-89.33798771,0.66435238
5ce3e7ff90a751001a31a05c,16,0,2024-02-27T14:15:36.919Z,french_855.wav,0,poule,486,40,5,3,english,f,0,0.0,2.71159552,1.64624975
5ce3e7ff90a751001a31a05c,16,0,2024-02-27T14:15:36.919Z,french_855.wav,0,poule,486,40,5,3,english,f,1,0.1,66.05842931,0.54809415
5ce3e7ff90a751001a31a05c,16,0,2024-02-27T14:15:36.919Z,french_855.wav,0,poule,486,40,5,3,english,f,2,0.2,41.00995311,1.64541289
5ce3e7ff90a751001a31a05c,16,0,2024-02-27T14:15:36.919Z,french_855.wav,0,poule,486,40,5,3,english,f,3,0.25666667,98.2962498,1.22205238
5ce3e7ff90a751001a31a05c,17,0,2024-02-27T14:15:36.919Z,french_713.wav,0,pull,716,40,5,3,english,f,0,0.0,93.33204992,0.23689023
5ce3e7ff90a751001a31a05c,17,0,2024-02-27T14:15:36.919Z,french_713.wav,0,pull,716,40,5,3,english,f,1,0.1,-15.69856834,0.32059987
5ce3e7ff90a751001a31a05c,17,0,2024-02-27T14:15:36.919Z,french_713.wav,0,pull,716,40,5,3,english,f,2,0.2,18.82527382,0.78497323
5ce3e7ff90a751001a31a05c,17,0,2024-02-27T14:15:36.919Z,french_713.wav,0,pull,716,40,5,3,english,f,3,0.25666667,-49.17212055,0.28269646
5ce3e7ff90a751001a31a05c,18,0,2024-02-27T14:15:36.919Z,french_540.wav,0,pull,636,40,5,3,english,f,0,0.0,64.41538276,0.51709462
5ce3e7ff90a751001a31a05c,18,0,2024-02-27T14:15:36.919Z,french_540.wav,0,pull,636,40,5,3,english,f,1,0.1,17.02048616,1.30376576
5ce3e7ff90a751001a31a05c,18,0,2024-02-27T14:15:36.919Z,french_540.wav,0,pull,636,40,5,3,english,f,2,0.2,-33.22379056,0.40148031
5ce3e7ff90a751001a31a05c,18,0,2024-02-27T14:15:36.919Z,french_540.wav,0,pull,636,40,5,3,english,f,3,0.25666667,6.66749413,1.14865781
5ce3e7ff90a751001a31a05c,19,0,2024-02-27T14:15:36.919Z,french_531.wav,0,pull,492,40,5,3,english,f,0,0.0,76.38960861,1.48422918
5ce3e7ff90a751001a31a05c,19,0,2024-02-27T14:15:36.919Z,french_531.wav,0,pull,492,40,5,3,english,f,1,0.1,-14.4624089,0.31285067
5ce3e7ff90a751001a31a05c,19,0,2024-02-27T14:15:36.919Z,french_531.wav,0,pull,492,40,5,3,english,f,2,0.2,97.56303867,0.71358588
5ce3e7ff90a751001a31a05c,19,0,2024-02-27T14:15:36.919Z,french_531.wav,0,pull,492,40,5,3,english,f,3,0.25666667,-4.62103118,0.65318394
5ce3e7ff90a751001a31a05c,20,0,2024-02-27T14:15:36.919Z,french_98.wav,0,pull,1053,40,5,3,english,f,0,0.0,-5.34356544,0.47275823
5ce3e7ff90a751001a31a05c,20,0,2024-02-27T14:15:36.919Z,french_98.wav,0,pull,1053,40,5,3,english,f,1,0.1,-51.77157259,0.98771666
5ce3e7ff90a751001a31a05c,20,0,2024-02-27T14:15:36.919Z,french_98.wav,0,pull,1053,40,5,3,english,f,2,0.2,16.6615471,0.01400035
5ce3e7ff90a751001a31a05c,20,0,2024-02-27T14:15:36.919Z,french_98.wav,0,pull,1053,40,5,3,english,f,3,0.25666667,-37.68560636,0.42827786
5ce3e7ff90a751001a31a05c,21,0,2024-02-27T14:15:36.919Z,french_37.wav,0,poule,314,40,5,3,english,f,0,0.0,74.40318054,1.78030803
5ce3e7ff90a751001a31a05c,21,0,2024-02-27T14:15:36.919Z,french_37.wav,0,poule,314,40,5,3,english,f,1,0.1,1.61071593,1.06555703
5ce3e7ff90a751001a31a05c,21,0,2024-02-27T14:15:36.919Z,french_37.wav,0,poule,314,40,5,3,english,f,2,0.2,-60.86815184,0.67417333
5ce3e7ff90a751001a31a05c,21,0,2024-02-27T14:15:36.919Z,french_37.wav,0,poule,314,40,5,3,english,f,3,0.25666667,35.44737922,1.14925698
5ce3e7ff90a751001a31a05c,22,0,2024-02-27T14:15:36.919Z,french_198.wav,0,pull,501,40,5,3,english,f,0,0.0,72.51067349,0.65547069
5ce3e7ff90a751001a31a05c,22,0,2024-02-27T14:15:36.919Z,french_198.wav,0,pull,501,40,5,3,english,f,1,0.1,26.15359829,0.30610144
5ce3e7ff90a751001a31a05c,22,0,2024-02-27T14:15:36.919Z,french_198.wav,0,pull,501,40,5,3,english,f,2,0.2,-38.06500424,0.27462822
5ce3e7ff90a751001a31a05c,22,0,2024-02-27T14:15:36.919Z,french_198.wav,0,pull,501,40,5,3,english,f,3,0.25666667,-63.59150526,1.37790723
5ce3e7ff90a751001a31a05c,23,0,2024-02-27T14:15:36.919Z,french_115.wav,0,poule,370,40,5,3,english,f,0,0.0,79.30886426,0.55665137
5ce3e7ff90a751001a31a05c,23,0,2024-02-27T14:15:36.919Z,french_115.wav,0,poule,370,40,5,3,english,f,1,0.1,38.64809671,1.15526328
5ce3e7ff90a751001a31a05c,23,0,2024-02-27T14:15:36.919Z,french_115.wav,0,poule,370,40,5,3,english,f,2,0.2,24.58912206,1.92727625
5ce3e7ff90a751001a31a05c,23,0,2024-02-27T14:15:36.919Z,french_115.wav,0,poule,370,40,5,3,english,f,3,0.25666667,-50.07125558,0.36414304
5ce3e7ff90a751001a31a05c,24,0,2024-02-27T14:15:36.919Z,french_685.wav,0,pull,744,40,5,3,english,f,0,0.0,-62.74714371,1.57330944
5ce3e7ff90a751001a31a05c,24,0,2024-02-27T14:15:36.919Z,french_685.wav,0,pull,744,40,5,3,english,f,1,0.1,48.52467862,1.34151114
5ce3e7ff90a751001a31a05c,24,0,2024-02-27T14:15:36.919Z,french_685.wav,0,pull,744,40,5,3,english,f,2,0.2,4.749694,0.18097188
5ce3e7ff90a751001a31a05c,24,0,2024-02-27T14:15:36.919Z,french_685.wav,0,pull,744,40,5,3,english,f,3,0.25666667,88.03032973,0.30113467
5ce3e7ff90a751001a31a05c,25,0,2024-02-27T14:15:36.919Z,french_68.wav,0,poule,346,40,5,3,english,f,0,0.0,58.83829029,1.80244508
5ce3e7ff90a751001a31a05c,25,0,2024-02-27T14:15:36.919Z,french_68.wav,0,poule,346,40,5,3,english,f,1,0.1,77.59339865,1.3442738
5ce3e7ff90a751001a31a05c,25,0,2024-02-27T14:15:36.919Z,french_68.wav,0,poule,346,40,5,3,english,f,2,0.2,-73.88341881,1.16581557
5ce3e7ff90a751001a31a05c,25,0,2024-02-27T14:15:36.919Z,french_68.wav,0,poule,346,40,5,3,english,f,3,0.25666667,-24.56901296,0.71132336
5ce3e7ff90a751001a31a05c,26,0,2024-02-27T14:15:36.919Z,french_728.wav,0,poule,337,40,5,3,english,f,0,0.0,-93.70742078,1.13399743
5ce3e7ff90a751001a31a05c,26,0,2024-02-27T14:15:36.919Z,french_728.wav,0,poule,337,40,5,3,english,f,1,0.1,-62.00989335,0.93012586
5ce3e7ff90a751001a31a05c,26,0,2024-02-27T14:15:36.919Z,french_728.wav,0,poule,337,40,5,3,english,f,2,0.2,72.64416852,0.78518922
5ce3e7ff90a751001a31a05c,26,0,2024-02-27T14:15:36.919Z,french_728.wav,0,poule,337,40,5,3,english,f,3,0.25666667,6.15605077,0.75575783
5ce3e7ff90a751001a31a05c,27,0,2024-02-27T14:15:36.919Z,french_644.wav,0,poule,309,40,5,3,english,f,0,0.0,8.48376577,1.03282428
5ce3e7ff90a751001a31a05c,27,0,2024-02-27T14:15:36.919Z,french_644.wav,0,poule,309,40,5,3,english,f,1,0.1,5.7720639,1.52915319
5ce3e7ff90a751001a31a05c,27,0,2024-02-27T14:15:36.919Z,french_644.wav,0,poule,309,40,5,3,english,f,2,0.2,-22.58890758,0.21561806
5ce3e7ff90a751001a31a05c,27,0,2024-02-27T14:15:36.919Z,french_644.wav,0,poule,309,40,5,3,english,f,3,0.25666667,-77.55637272,0.23424831
5ce3e7ff90a751001a31a05c,28,0,2024-02-27T14:15:36.919Z,french_620.wav,0,poule,516,40,5,3,english,f,0,0.0,-75.53708421,1.75028991
5ce3e7ff90a751001a31a05c,28,0,2024-02-27T14:15:36.919Z,french_620.wav,0,poule,516,40,5,3,english,f,1,0.1,4.57362866,1.1712224
5ce3e7ff90a751001a31a05c,28,0,2024-02-27T14:15:36.919Z,french_620.wav,0,poule,516,40,5,3,english,f,2,0.2,-79.19764782,1.92554269
5ce3e7ff90a751001a31a05c,28,0,2024-02-27T14:15:36.919Z,french_620.wav,0,poule,516,40,5,3,english,f,3,0.25666667,-82.06470668,1.1477244
5ce3e7ff90a751001a31a05c,29,0,2024-02-27T14:15:36.919Z,french_902.wav,0,poule,642,40,5,3,english,f,0,0.0,27.03523978,0.1459181
5ce3e7ff90a751001a31a05c,29,0,2024-02-27T14:15:36.919Z,french_902.wav,0,poule,642,40,5,3,english,f,1,0.1,-67.54213764,1.3453624
5ce3e7ff90a751001a31a05c,29,0,2024-02-27T14:15:36.919Z,french_902.wav,0,poule,642,40,5,3,english,f,2,0.2,21.7683879,1.83277685
5ce3e7ff90a751001a31a05c,29,0,2024-02-27T14:15:36.919Z,french_902.wav,0,poule,642,40,5,3,english,f,3,0.25666667,-96.90742585,0.52631336
5ce3e7ff90a751001a31a05c,30,0,2024-02-27T14:15:36.919Z,french_907.wav,0,pull,716,40,5,3,english,f,0,0.0,9.20754992,1.79705326
5ce3e7ff90a751001a31a05c,30,0,2024-02-27T14:15:36.919Z,french_907.wav,0,pull,716,40,5,3,english,f,1,0.1,-39.82714958,0.37644661
5ce3e7ff90a751001a31a05c,30,0,2024-02-27T14:15:36.919Z,french_907.wav,0,pull,716,40,5,3,english,f,2,0.2,91.774681,1.35697235
5ce3e7ff90a751001a31a05c,30,0,2024-02-27T14:15:36.919Z,french_907.wav,0,pull,716,40,5,3,english,f,3,0.25666667,-60.10887287,0.87178456
5ce3e7ff90a751001a31a05c,31,0,2024-02-27T14:15:36.919Z,french_879.wav,0,pull,332,40,5,3,english,f,0,0.0,-48.96816685,1.19104759
5ce3e7ff90a751001a31a05c,31,0,2024-02-27T14:15:36.919Z,french_879.wav,0,pull,332,40,5,3,english,f,1,0.1,-79.01398257,0.98306132
5ce3e7ff90a751001a31a05c,31,0,2024-02-27T14:15:36.919Z,french_879.wav,0,pull,332,40,5,3,english,f,2,0.2,-55.9985187,0.68767433
5ce3e7ff90a751001a31a05c,31,0,2024-02-27T14:15:36.919Z,french_879.wav,0,pull,332,40,5,3,english,f,3,0.25666667,-98.06504365,1.4115175
5ce3e7ff90a751001a31a05c,32,0,2024-02-27T14:15:36.919Z,french_503.wav,0,poule,486,40,5,3,english,f,0,0.0,-70.57406247,0.43346158
5ce3e7ff90a751001a31a05c,32,0,2024-02-27T14:15:36.919Z,french_503.wav,0,poule,486,40,5,3,english,f,1,0.1,-50.28029143,1.6767429
5ce3e7ff90a751001a31a05c,32,0,2024-02-27T14:15:36.919Z,french_503.wav,0,poule,486,40,5,3,english,f,2,0.2,-1.92788211,0.59100625
5ce3e7ff90a751001a31a05c,32,0,2024-02-27T14:15:36.919Z,french_503.wav,0,poule,486,40,5,3,english,f,3,0.25666667,82.92590596,1.4727109
5ce3e7ff90a751001a31a05c,33,0,2024-02-27T14:15:36.919Z,french_479.wav,0,pull,369,40,5,3,english,f,0,0.0,-77.56228832,0.23971003
5ce3e7ff90a751001a31a05c,33,0,2024-02-27T14:15:36.919Z,french_479.wav,0,pull,369,40,5,3,english,f,1,0.1,-51.14246902,1.41057828
5ce3e7ff90a751001a31a05c,33,0,2024-02-27T14:15:36.919Z,french_479.wav,0,pull,369,40,5,3,english,f,2,0.2,54.51803315,0.5803481
5ce3e7ff90a751001a31a05c,33,0,2024-02-27T14:15:36.919Z,french_479.wav,0,pull,369,40,5,3,english,f,3,0.25666667,-8.31356421,0.39274068
5ce3e7ff90a751001a31a05c,34,0,2024-02-27T14:15:36.919Z,french_61.wav,0,poule,196,40,5,3,english,f,0,0.0,65.32887924,1.15653785
5ce3e7ff90a751001a31a05c,34,0,2024-02-27T14:15:36.919Z,french_61.wav,0,poule,196,40,5,3,english,f,1,0.1,45.09641809,1.72373813
5ce3e7ff90a751001a31a05c,34,0,2024-02-27T14:15:36.919Z,french_61.wav,0,poule,196,40,5,3,english,f,2,0.2,-37.75339878,1.38726196
5ce3e7ff90a751001a31a05c,34,0,2024-02-27T14:15:36.919Z,french_61.wav,0,poule,196,40,5,3,english,f,3,0.25666667,87.5089899,0.41594812
5ce3e7ff90a751001a31a05c,35,0,2024-02-27T14:15:36.919Z,french_269.wav,0,pull,760,40,5,3,english,f,0,0.0,34.85044548,0.000617924031
5ce3e7ff90a751001a31a05c,35,0,2024-02-27T14:15:36.919Z,french_269.wav,0,pull,760,40,5,3,english,f,1,0.1,47.51511781,1.05540646
5ce3e7ff90a751001a31a05c,35,0,2024-02-27T14:15:36.919Z,french_269.wav,0,pull,760,40,5,3,english,f,2,0.2,34.15302515,0.984234213
5ce3e7ff90a751001a31a05c,35,0,2024-02-27T14:15:36.919Z,french_269.wav,0,pull,760,40,5,3,english,f,3,0.25666667,-55.0259295,0.845106618
5ce3e7ff90a751001a31a05c,36,0,2024-02-27T14:15:36.919Z,french_918.wav,0,poule,349,40,5,3,english,f,0,0.0,73.93932449,1.12285198
5ce3e7ff90a751001a31a05c,36,0,2024-02-27T14:15:36.919Z,french_918.wav,0,poule,349,40,5,3,english,f,1,0.1,-96.38016005,0.52569443
5ce3e7ff90a751001a31a05c,36,0,2024-02-27T14:15:36.919Z,french_918.wav,0,poule,349,40,5,3,english,f,2,0.2,52.71903464,1.01384132
5ce3e7ff90a751001a31a05c,36,0,2024-02-27T14:15:36.919Z,french_918.wav,0,poule,349,40,5,3,english,f,3,0.25666667,71.89996729,0.74683012
5ce3e7ff90a751001a31a05c,37,0,2024-02-27T14:15:36.919Z,french_844.wav,0,pull,499,40,5,3,english,f,0,0.0,29.77319266,0.89130203
5ce3e7ff90a751001a31a05c,37,0,2024-02-27T14:15:36.919Z,french_844.wav,0,pull,499,40,5,3,english,f,1,0.1,-6.65775534,0.41170989
5ce3e7ff90a751001a31a05c,37,0,2024-02-27T14:15:36.919Z,french_844.wav,0,pull,499,40,5,3,english,f,2,0.2,88.70188171,0.96705276
5ce3e7ff90a751001a31a05c,37,0,2024-02-27T14:15:36.919Z,french_844.wav,0,pull,499,40,5,3,english,f,3,0.25666667,-96.32304745,0.58258054
5ce3e7ff90a751001a31a05c,38,0,2024-02-27T14:15:36.919Z,french_154.wav,0,pull,399,40,5,3,english,f,0,0.0,-35.77368222,0.10248514
5ce3e7ff90a751001a31a05c,38,0,2024-02-27T14:15:36.919Z,french_154.wav,0,pull,399,40,5,3,english,f,1,0.1,5.93918526,0.42084566
5ce3e7ff90a751001a31a05c,38,0,2024-02-27T14:15:36.919Z,french_154.wav,0,pull,399,40,5,3,english,f,2,0.2,36.13172948,1.29147589
5ce3e7ff90a751001a31a05c,38,0,2024-02-27T14:15:36.919Z,french_154.wav,0,pull,399,40,5,3,english,f,3,0.25666667,-52.77395679,0.60791213
5ce3e7ff90a751001a31a05c,39,0,2024-02-27T14:15:36.919Z,french_241.wav,0,pull,495,40,5,3,english,f,0,0.0,89.40240056,1.53101086
5ce3e7ff90a751001a31a05c,39,0,2024-02-27T14:15:36.919Z,french_241.wav,0,pull,495,40,5,3,english,f,1,0.1,40.19017079,0.22293869
5ce3e7ff90a751001a31a05c,39,0,2024-02-27T14:15:36.919Z,french_241.wav,0,pull,495,40,5,3,english,f,2,0.2,6.95264839,0.66477428
5ce3e7ff90a751001a31a05c,39,0,2024-02-27T14:15:36.919Z,french_241.wav,0,pull,495,40,5,3,english,f,3,0.25666667,60.0147698,1.1640228
5ce3e7ff90a751001a31a05c,40,0,2024-02-27T14:15:36.919Z,french_10.wav,0,poule,144,40,5,3,english,f,0,0.0,34.48773494,0.90390655
5ce3e7ff90a751001a31a05c,40,0,2024-02-27T14:15:36.919Z,french_10.wav,0,poule,144,40,5,3,english,f,1,0.1,82.41652137,1.13926368
5ce3e7ff90a751001a31a05c,40,0,2024-02-27T14:15:36.919Z,french_10.wav,0,poule,144,40,5,3,english,f,2,0.2,-51.47900312,1.63497012
5ce3e7ff90a751001a31a05c,40,0,2024-02-27T14:15:36.919Z,french_10.wav,0,poule,144,40,5,3,english,f,3,0.25666667,70.4490668,0.74730693
5ce3e7ff90a751001a31a05c,41,0,2024-02-27T14:15:36.919Z,french_957.wav,0,poule,459,40,5,3,english,f,0,0.0,-18.56504594,1.70357669
5ce3e7ff90a751001a31a05c,41,0,2024-02-27T14:15:36.919Z,french_957.wav,0,poule,459,40,5,3,english,f,1,0.1,17.87447177,1.95920141
5ce3e7ff90a751001a31a05c,41,0,2024-02-27T14:15:36.919Z,french_957.wav,0,poule,459,40,5,3,english,f,2,0.2,57.20134839,1.7386973
5ce3e7ff90a751001a31a05c,41,0,2024-02-27T14:15:36.919Z,french_957.wav,0,poule,459,40,5,3,english,f,3,0.25666667,64.73544538,0.56015389
5ce3e7ff90a751001a31a05c,42,0,2024-02-27T14:15:36.919Z,french_534.wav,0,pull,291,40,5,3,english,f,0,0.0,96.41776506,0.28463844
5ce3e7ff90a751001a31a05c,42,0,2024-02-27T14:15:36.919Z,french_534.wav,0,pull,291,40,5,3,english,f,1,0.1,-53.52749338,1.69872517
5ce3e7ff90a751001a31a05c,42,0,2024-02-27T14:15:36.919Z,french_534.wav,0,pull,291,40,5,3,english,f,2,0.2,51.10087415,0.80798533
5ce3e7ff90a751001a31a05c,42,0,2024-02-27T14:15:36.919Z,french_534.wav,0,pull,291,40,5,3,english,f,3,0.25666667,27.39654188,1.79838566
5ce3e7ff90a751001a31a05c,43,0,2024-02-27T14:15:36.919Z,french_126.wav,0,poule,308,40,5,3,english,f,0,0.0,92.90369484,0.56379558
5ce3e7ff90a751001a31a05c,43,0,2024-02-27T14:15:36.919Z,french_126.wav,0,poule,308,40,5,3,english,f,1,0.1,25.09820179,1.73295328
5ce3e7ff90a751001a31a05c,43,0,2024-02-27T14:15:36.919Z,french_126.wav,0,poule,308,40,5,3,english,f,2,0.2,92.10026461,0.28067586
5ce3e7ff90a751001a31a05c,43,0,2024-02-27T14:15:36.919Z,french_126.wav,0,poule,308,40,5,3,english,f,3,0.25666667,-27.205087,0.82028398
5ce3e7ff90a751001a31a05c,44,0,2024-02-27T14:15:36.919Z,french_579.wav,0,pull,383,40,5,3,english,f,0,0.0,43.6749768,0.88309836
5ce3e7ff90a751001a31a05c,44,0,2024-02-27T14:15:36.919Z,french_579.wav,0,pull,383,40,5,3,english,f,1,0.1,44.80331973,0.15383342
5ce3e7ff90a751001a31a05c,44,0,2024-02-27T14:15:36.919Z,french_579.wav,0,pull,383,40,5,3,english,f,2,0.2,80.34685553,0.11279804
5ce3e7ff90a751001a31a05c,44,0,2024-02-27T14:15:36.919Z,french_579.wav,0,pull,383,40,5,3,english,f,3,0.25666667,-77.70594339,1.88524282
5ce3e7ff90a751001a31a05c,45,0,2024-02-27T14:15:36.919Z,french_742.wav,0,poule,248,40,5,3,english,f,0,0.0,70.50155873,0.93659897
5ce3e7ff90a751001a31a05c,45,0,2024-02-27T14:15:36.919Z,french_742.wav,0,poule,248,40,5,3,english,f,1,0.1,-40.99625843,1.14125333
5ce3e7ff90a751001a31a05c,45,0,2024-02-27T14:15:36.919Z,french_742.wav,0,poule,248,40,5,3,english,f,2,0.2,6.68379951,1.25957194
5ce3e7ff90a751001a31a05c,45,0,2024-02-27T14:15:36.919Z,french_742.wav,0,poule,248,40,5,3,english,f,3,0.25666667,-76.31698705,0.86761951
5ce3e7ff90a751001a31a05c,46,0,2024-02-27T14:15:36.919Z,french_760.wav,0,pull,308,40,5,3,english,f,0,0.0,-33.74521786,1.08104013
5ce3e7ff90a751001a31a05c,46,0,2024-02-27T14:15:36.919Z,french_760.wav,0,pull,308,40,5,3,english,f,1,0.1,38.89159258,0.90085836
5ce3e7ff90a751001a31a05c,46,0,2024-02-27T14:15:36.919Z,french_760.wav,0,pull,308,40,5,3,english,f,2,0.2,64.82772984,0.36080554
5ce3e7ff90a751001a31a05c,46,0,2024-02-27T14:15:36.919Z,french_760.wav,0,pull,308,40,5,3,english,f,3,0.25666667,15.52705732,0.08393315
5ce3e7ff90a751001a31a05c,47,0,2024-02-27T14:15:36.919Z,french_992.wav,0,poule,222,40,5,3,english,f,0,0.0,88.64163737,1.670281
5ce3e7ff90a751001a31a05c,47,0,2024-02-27T14:15:36.919Z,french_992.wav,0,poule,222,40,5,3,english,f,1,0.1,46.51622821,0.7447474
5ce3e7ff90a751001a31a05c,47,0,2024-02-27T14:15:36.919Z,french_992.wav,0,poule,222,40,5,3,english,f,2,0.2,89.40723484,0.87778012
5ce3e7ff90a751001a31a05c,47,0,2024-02-27T14:15:36.919Z,french_992.wav,0,poule,222,40,5,3,english,f,3,0.25666667,-7.16948766,1.06303204
5ce3e7ff90a751001a31a05c,48,0,2024-02-27T14:15:36.919Z,french_991.wav,0,pull,196,40,5,3,english,f,0,0.0,-95.18678644,1.24715664
5ce3e7ff90a751001a31a05c,48,0,2024-02-27T14:15:36.919Z,french_991.wav,0,pull,196,40,5,3,english,f,1,0.1,-65.70936013,0.64410058
5ce3e7ff90a751001a31a05c,48,0,2024-02-27T14:15:36.919Z,french_991.wav,0,pull,196,40,5,3,english,f,2,0.2,44.22545462,0.83152977
5ce3e7ff90a751001a31a05c,48,0,2024-02-27T14:15:36.919Z,french_991.wav,0,pull,196,40,5,3,english,f,3,0.25666667,31.01090832,1.93309413
5ce3e7ff90a751001a31a05c,49,0,2024-02-27T14:15:36.919Z,french_465.wav,0,poule,258,40,5,3,english,f,0,0.0,75.74191185,0.24775687
5ce3e7ff90a751001a31a05c,49,0,2024-02-27T14:15:36.919Z,french_465.wav,0,poule,258,40,5,3,english,f,1,0.1,-78.40057178,0.61634124
5ce3e7ff90a751001a31a05c,49,0,2024-02-27T14:15:36.919Z,french_465.wav,0,poule,258,40,5,3,english,f,2,0.2,-12.36406326,1.57309013
5ce3e7ff90a751001a31a05c,49,0,2024-02-27T14:15:36.919Z,french_465.wav,0,poule,258,40,5,3,english,f,3,0.25666667,-26.5706303,0.56284004
5ce3e7ff90a751001a31a05c,50,1,2024-02-27T14:15:36.919Z,french_481.wav,0,pull,1014,40,5,3,english,f,0,0.0,-44.05926666,1.24899263
5ce3e7ff90a751001a31a05c,50,1,2024-02-27T14:15:36.919Z,french_481.wav,0,pull,1014,40,5,3,english,f,1,0.1,85.82418432,1.22078865
5ce3e7ff90a751001a31a05c,50,1,2024-02-27T14:15:36.919Z,french_481.wav,0,pull,1014,40,5,3,english,f,2,0.2,87.54559417,0.10859618
5ce3e7ff90a751001a31a05c,50,1,2024-02-27T14:15:36.919Z,french_481.wav,0,pull,1014,40,5,3,english,f,3,0.25666667,50.04191005,0.19634609
5ce3e7ff90a751001a31a05c,51,1,2024-02-27T14:15:36.919Z,french_60.wav,0,pull,2101,40,5,3,english,f,0,0.0,-40.9463495,0.32779355
5ce3e7ff90a751001a31a05c,51,1,2024-02-27T14:15:36.919Z,french_60.wav,0,pull,2101,40,5,3,english,f,1,0.1,8.65325309,0.55656076
5ce3e7ff90a751001a31a05c,51,1,2024-02-27T14:15:36.919Z,french_60.wav,0,pull,2101,40,5,3,english,f,2,0.2,-18.23980249,0.81322525
5ce3e7ff90a751001a31a05c,51,1,2024-02-27T14:15:36.919Z,french_60.wav,0,pull,2101,40,5,3,english,f,3,0.25666667,-34.79014982,0.57120985
5ce3e7ff90a751001a31a05c,52,1,2024-02-27T14:15:36.919Z,french_755.wav,0,poule,237,40,5,3,english,f,0,0.0,-17.09048823,0.26038806
5ce3e7ff90a751001a31a05c,52,1,2024-02-27T14:15:36.919Z,french_755.wav,0,poule,237,40,5,3,english,f,1,0.1,56.35208106,0.92084882
5ce3e7ff90a751001a31a05c,52,1,2024-02-27T14:15:36.919Z,french_755.wav,0,poule,237,40,5,3,english,f,2,0.2,33.77031601,1.14499291
5ce3e7ff90a751001a31a05c,52,1,2024-02-27T14:15:36.919Z,french_755.wav,0,poule,237,40,5,3,english,f,3,0.25666667,73.0579331,1.40582081
5ce3e7ff90a751001a31a05c,53,1,2024-02-27T14:15:36.919Z,french_627.wav,0,poule,262,40,5,3,english,f,0,0.0,2.1799823,1.97167661
5ce3e7ff90a751001a31a05c,53,1,2024-02-27T14:15:36.919Z,french_627.wav,0,poule,262,40,5,3,english,f,1,0.1,30.63833179,1.14790719
5ce3e7ff90a751001a31a05c,53,1,2024-02-27T14:15:36.919Z,french_627.wav,0,poule,262,40,5,3,english,f,2,0.2,99.93583097,1.70510721
5ce3e7ff90a751001a31a05c,53,1,2024-02-27T14:15:36.919Z,french_627.wav,0,poule,262,40,5,3,english,f,3,0.25666667,-23.95585557,1.67415678
5ce3e7ff90a751001a31a05c,54,1,2024-02-27T14:15:36.919Z,french_69.wav,0,poule,531,40,5,3,english,f,0,0.0,-60.6968374,1.40310832
5ce3e7ff90a751001a31a05c,54,1,2024-02-27T14:15:36.919Z,french_69.wav,0,poule,531,40,5,3,english,f,1,0.1,-13.66133732,0.07324596
5ce3e7ff90a751001a31a05c,54,1,2024-02-27T14:15:36.919Z,french_69.wav,0,poule,531,40,5,3,english,f,2,0.2,-49.05218158,0.92091935
5ce3e7ff90a751001a31a05c,54,1,2024-02-27T14:15:36.919Z,french_69.wav,0,poule,531,40,5,3,english,f,3,0.25666667,-62.82393396,0.56730757
5ce3e7ff90a751001a31a05c,55,1,2024-02-27T14:15:36.919Z,french_676.wav,0,pull,347,40,5,3,english,f,0,0.0,77.51634327,0.52312795
5ce3e7ff90a751001a31a05c,55,1,2024-02-27T14:15:36.919Z,french_676.wav,0,pull,347,40,5,3,english,f,1,0.1,-98.7950763,0.58996043
5ce3e7ff90a751001a31a05c,55,1,2024-02-27T14:15:36.919Z,french_676.wav,0,pull,347,40,5,3,english,f,2,0.2,-10.44477989,1.89966038
5ce3e7ff90a751001a31a05c,55,1,2024-02-27T14:15:36.919Z,french_676.wav,0,pull,347,40,5,3,english,f,3,0.25666667,3.71960258,0.61903343
5ce3e7ff90a751001a31a05c,56,1,2024-02-27T14:15:36.919Z,french_167.wav,0,poule,228,40,5,3,english,f,0,0.0,35.64973643,1.28189169
5ce3e7ff90a751001a31a05c,56,1,2024-02-27T14:15:36.919Z,french_167.wav,0,poule,228,40,5,3,english,f,1,0.1,44.83065125,1.79221575
5ce3e7ff90a751001a31a05c,56,1,2024-02-27T14:15:36.919Z,french_167.wav,0,poule,228,40,5,3,english,f,2,0.2,-2.88275541,1.75452965
5ce3e7ff90a751001a31a05c,56,1,2024-02-27T14:15:36.919Z,french_167.wav,0,poule,228,40,5,3,english,f,3,0.25666667,-92.53521205,1.25057705
5ce3e7ff90a751001a31a05c,57,1,2024-02-27T14:15:36.919Z,french_419.wav,0,pull,203,40,5,3,english,f,0,0.0,-42.00575778,0.81351681
5ce3e7ff90a751001a31a05c,57,1,2024-02-27T14:15:36.919Z,french_419.wav,0,pull,203,40,5,3,english,f,1,0.1,-35.26826913,1.62056968
5ce3e7ff90a751001a31a05c,57,1,2024-02-27T14:15:36.919Z,french_419.wav,0,pull,203,40,5,3,english,f,2,0.2,-18.10946272,1.68465097
5ce3e7ff90a751001a31a05c,57,1,2024-02-27T14:15:36.919Z,french_419.wav,0,pull,203,40,5,3,english,f,3,0.25666667,-2.55322937,1.07803679
5ce3e7ff90a751001a31a05c,58,1,2024-02-27T14:15:36.919Z,french_212.wav,0,pull,378,40,5,3,english,f,0,0.0,-65.85125812,0.99084671
5ce3e7ff90a751001a31a05c,58,1,2024-02-27T14:15:36.919Z,french_212.wav,0,pull,378,40,5,3,english,f,1,0.1,4.72891676,1.71951251
5ce3e7ff90a751001a31a05c,58,1,2024-02-27T14:15:36.919Z,french_212.wav,0,pull,378,40,5,3,english,f,2,0.2,52.80654505,1.56745001
5ce3e7ff90a751001a31a05c,58,1,2024-02-27T14:15:36.919Z,french_212.wav,0,pull,378,40,5,3,english,f,3,0.25666667,75.91927134,1.70119676
5ce3e7ff90a751001a31a05c,59,1,2024-02-27T14:15:36.919Z,french_412.wav,0,poule,658,40,5,3,english,f,0,0.0,-59.33534007,1.02487397
5ce3e7ff90a751001a31a05c,59,1,2024-02-27T14:15:36.919Z,french_412.wav,0,poule,658,40,5,3,english,f,1,0.1,-79.1774496,0.54283138
5ce3e7ff90a751001a31a05c,59,1,2024-02-27T14:15:36.919Z,french_412.wav,0,poule,658,40,5,3,english,f,2,0.2,-38.59435565,0.86213444
5ce3e7ff90a751001a31a05c,59,1,2024-02-27T14:15:36.919Z,french_412.wav,0,poule,658,40,5,3,english,f,3,0.25666667,65.74010912,0.54314794
5ce3e7ff90a751001a31a05c,60,1,2024-02-27T14:15:36.919Z,french_125.wav,0,poule,320,40,5,3,english,f,0,0.0,-5.4163583,1.55997732
5ce3e7ff90a751001a31a05c,60,1,2024-02-27T14:15:36.919Z,french_125.wav,0,poule,320,40,5,3,english,f,1,0.1,-78.82020266,1.46538696
5ce3e7ff90a751001a31a05c,60,1,2024-02-27T14:15:36.919Z,french_125.wav,0,poule,320,40,5,3,english,f,2,0.2,7.21605105,1.19887704
5ce3e7ff90a751001a31a05c,60,1,2024-02-27T14:15:36.919Z,french_125.wav,0,poule,320,40,5,3,english,f,3,0.25666667,-41.55982592,1.01520467
5ce3e7ff90a751001a31a05c,61,1,2024-02-27T14:15:36.919Z,french_286.wav,0,pull,437,40,5,3,english,f,0,0.0,-12.75776796,0.7334837
5ce3e7ff90a751001a31a05c,61,1,2024-02-27T14:15:36.919Z,french_286.wav,0,pull,437,40,5,3,english,f,1,0.1,37.83162005,0.13945261
5ce3e7ff90a751001a31a05c,61,1,2024-02-27T14:15:36.919Z,french_286.wav,0,pull,437,40,5,3,english,f,2,0.2,-73.99987606,0.89700821
5ce3e7ff90a751001a31a05c,61,1,2024-02-27T14:15:36.919Z,french_286.wav,0,pull,437,40,5,3,english,f,3,0.25666667,-99.59641202,0.06192005
5ce3e7ff90a751001a31a05c,62,1,2024-02-27T14:15:36.919Z,french_793.wav,0,poule,367,40,5,3,english,f,0,0.0,24.81509803,0.12690374
5ce3e7ff90a751001a31a05c,62,1,2024-02-27T14:15:36.919Z,french_793.wav,0,poule,367,40,5,3,english,f,1,0.1,-63.66512484,0.60816637
5ce3e7ff90a751001a31a05c,62,1,2024-02-27T14:15:36.919Z,french_793.wav,0,poule,367,40,5,3,english,f,2,0.2,-35.07665133,0.42682998
5ce3e7ff90a751001a31a05c,62,1,2024-02-27T14:15:36.919Z,french_793.wav,0,poule,367,40,5,3,english,f,3,0.25666667,-2.30327069,0.74050477
5ce3e7ff90a751001a31a05c,63,1,2024-02-27T14:15:36.919Z,french_25.wav,0,poule,383,40,5,3,english,f,0,0.0,46.82844357,1.1493518
5ce3e7ff90a751001a31a05c,63,1,2024-02-27T14:15:36.919Z,french_25.wav,0,poule,383,40,5,3,english,f,1,0.1,5.52502331,1.41536953
5ce3e7ff90a751001a31a05c,63,1,2024-02-27T14:15:36.919Z,french_25.wav,0,poule,383,40,5,3,english,f,2,0.2,-34.25373026,0.41949869
5ce3e7ff90a751001a31a05c,63,1,2024-02-27T14:15:36.919Z,french_25.wav,0,poule,383,40,5,3,english,f,3,0.25666667,-52.44039001,0.5013656
5ce3e7ff90a751001a31a05c,64,1,2024-02-27T14:15:36.919Z,french_284.wav,0,pull,380,40,5,3,english,f,0,0.0,9.11616736,0.794635
5ce3e7ff90a751001a31a05c,64,1,2024-02-27T14:15:36.919Z,french_284.wav,0,pull,380,40,5,3,english,f,1,0.1,1.28278273,0.64071903
5ce3e7ff90a751001a31a05c,64,1,2024-02-27T14:15:36.919Z,french_284.wav,0,pull,380,40,5,3,english,f,2,0.2,64.48623036,0.85736223
5ce3e7ff90a751001a31a05c,64,1,2024-02-27T14:15:36.919Z,french_284.wav,0,pull,380,40,5,3,english,f,3,0.25666667,-18.83957989,1.30798049
5ce3e7ff90a751001a31a05c,65,1,2024-02-27T14:15:36.919Z,french_672.wav,0,poule,357,40,5,3,english,f,0,0.0,-6.36877595,1.19503778
5ce3e7ff90a751001a31a05c,65,1,2024-02-27T14:15:36.919Z,french_672.wav,0,poule,357,40,5,3,english,f,1,0.1,45.21137281,0.09977323
5ce3e7ff90a751001a31a05c,65,1,2024-02-27T14:15:36.919Z,french_672.wav,0,poule,357,40,5,3,english,f,2,0.2,80.52737907,0.72738581
5ce3e7ff90a751001a31a05c,65,1,2024-02-27T14:15:36.919Z,french_672.wav,0,poule,357,40,5,3,english,f,3,0.25666667,83.07440583,0.28099012
5ce3e7ff90a751001a31a05c,66,1,2024-02-27T14:15:36.919Z,french_774.wav,0,poule,291,40,5,3,english,f,0,0.0,-35.29041546,0.24909556
5ce3e7ff90a751001a31a05c,66,1,2024-02-27T14:15:36.919Z,french_774.wav,0,poule,291,40,5,3,english,f,1,0.1,-21.07774935,0.81236123
5ce3e7ff90a751001a31a05c,66,1,2024-02-27T14:15:36.919Z,french_774.wav,0,poule,291,40,5,3,english,f,2,0.2,-42.95062976,0.84475887
5ce3e7ff90a751001a31a05c,66,1,2024-02-27T14:15:36.919Z,french_774.wav,0,poule,291,40,5,3,english,f,3,0.25666667,-27.37747858,0.12641702
5ce3e7ff90a751001a31a05c,67,1,2024-02-27T14:15:36.919Z,french_735.wav,0,pull,632,40,5,3,english,f,0,0.0,16.11120967,0.14330821
5ce3e7ff90a751001a31a05c,67,1,2024-02-27T14:15:36.919Z,french_735.wav,0,pull,632,40,5,3,english,f,1,0.1,-19.98897555,0.00237292
5ce3e7ff90a751001a31a05c,67,1,2024-02-27T14:15:36.919Z,french_735.wav,0,pull,632,40,5,3,english,f,2,0.2,68.29513728,1.1733856
5ce3e7ff90a751001a31a05c,67,1,2024-02-27T14:15:36.919Z,french_735.wav,0,pull,632,40,5,3,english,f,3,0.25666667,31.40150104,0.51599842
5ce3e7ff90a751001a31a05c,68,1,2024-02-27T14:15:36.919Z,french_365.wav,0,poule,219,40,5,3,english,f,0,0.0,-98.04571794,1.18023288
5ce3e7ff90a751001a31a05c,68,1,2024-02-27T14:15:36.919Z,french_365.wav,0,poule,219,40,5,3,english,f,1,0.1,-73.67698607,1.95707288
5ce3e7ff90a751001a31a05c,68,1,2024-02-27T14:15:36.919Z,french_365.wav,0,poule,219,40,5,3,english,f,2,0.2,-96.43604562,0.58641449
5ce3e7ff90a751001a31a05c,68,1,2024-02-27T14:15:36.919Z,french_365.wav,0,poule,219,40,5,3,english,f,3,0.25666667,37.7893414,1.65360278
5ce3e7ff90a751001a31a05c,69,1,2024-02-27T14:15:36.919Z,french_839.wav,0,poule,359,40,5,3,english,f,0,0.0,11.03740457,0.76467652
5ce3e7ff90a751001a31a05c,69,1,2024-02-27T14:15:36.919Z,french_839.wav,0,poule,359,40,5,3,english,f,1,0.1,23.46119987,0.76268055
5ce3e7ff90a751001a31a05c,69,1,2024-02-27T14:15:36.919Z,french_839.wav,0,poule,359,40,5,3,english,f,2,0.2,-0.31614798,1.64444165
5ce3e7ff90a751001a31a05c,69,1,2024-02-27T14:15:36.919Z,french_839.wav,0,poule,359,40,5,3,english,f,3,0.25666667,62.63183259,0.69482811
5ce3e7ff90a751001a31a05c,70,1,2024-02-27T14:15:36.919Z,french_816.wav,0,pull,751,40,5,3,english,f,0,0.0,-39.39804621,1.26291691
5ce3e7ff90a751001a31a05c,70,1,2024-02-27T14:15:36.919Z,french_816.wav,0,pull,751,40,5,3,english,f,1,0.1,14.23792488,1.60181117
5ce3e7ff90a751001a31a05c,70,1,2024-02-27T14:15:36.919Z,french_816.wav,0,pull,751,40,5,3,english,f,2,0.2,-84.08825282,0.57012939
5ce3e7ff90a751001a31a05c,70,1,2024-02-27T14:15:36.919Z,french_816.wav,0,pull,751,40,5,3,english,f,3,0.25666667,-46.46940665,1.06315664
5ce3e7ff90a751001a31a05c,71,1,2024-02-27T14:15:36.919Z,french_372.wav,0,poule,400,40,5,3,english,f,0,0.0,2.47243072,0.40204166
5ce3e7ff90a751001a31a05c,71,1,2024-02-27T14:15:36.919Z,french_372.wav,0,poule,400,40,5,3,english,f,1,0.1,-60.42501292,1.5432551
5ce3e7ff90a751001a31a05c,71,1,2024-02-27T14:15:36.919Z,french_372.wav,0,poule,400,40,5,3,english,f,2,0.2,-16.68820648,1.17639585
5ce3e7ff90a751001a31a05c,71,1,2024-02-27T14:15:36.919Z,french_372.wav,0,poule,400,40,5,3,english,f,3,0.25666667,27.86473169,1.5977063
5ce3e7ff90a751001a31a05c,72,1,2024-02-27T14:15:36.919Z,french_64.wav,0,poule,571,40,5,3,english,f,0,0.0,-2.85479512,1.8205441
5ce3e7ff90a751001a31a05c,72,1,2024-02-27T14:15:36.919Z,french_64.wav,0,poule,571,40,5,3,english,f,1,0.1,-22.43053594,0.65122302
5ce3e7ff90a751001a31a05c,72,1,2024-02-27T14:15:36.919Z,french_64.wav,0,poule,571,40,5,3,english,f,2,0.2,99.07991634,0.54405082
5ce3e7ff90a751001a31a05c,72,1,2024-02-27T14:15:36.919Z,french_64.wav,0,poule,571,40,5,3,english,f,3,0.25666667,-6.95169827,0.02019369
5ce3e7ff90a751001a31a05c,73,1,2024-02-27T14:15:36.919Z,french_806.wav,0,poule,309,40,5,3,english,f,0,0.0,97.26957313,1.48673004
5ce3e7ff90a751001a31a05c,73,1,2024-02-27T14:15:36.919Z,french_806.wav,0,poule,309,40,5,3,english,f,1,0.1,79.44562669,1.9967546
5ce3e7ff90a751001a31a05c,73,1,2024-02-27T14:15:36.919Z,french_806.wav,0,poule,309,40,5,3,english,f,2,0.2,79.77586719,0.9238106
5ce3e7ff90a751001a31a05c,73,1,2024-02-27T14:15:36.919Z,french_806.wav,0,poule,309,40,5,3,english,f,3,0.25666667,-46.2684083,1.39755131
5ce3e7ff90a751001a31a05c,74,1,2024-02-27T14:15:36.919Z,french_867.wav,0,pull,435,40,5,3,english,f,0,0.0,-56.83459408,0.56298114
5ce3e7ff90a751001a31a05c,74,1,2024-02-27T14:15:36.919Z,french_867.wav,0,pull,435,40,5,3,english,f,1,0.1,-43.30462201,1.09173708
5ce3e7ff90a751001a31a05c,74,1,2024-02-27T14:15:36.919Z,french_867.wav,0,pull,435,40,5,3,english,f,2,0.2,-57.08778715,1.10722732
5ce3e7ff90a751001a31a05c,74,1,2024-02-27T14:15:36.919Z,french_867.wav,0,pull,435,40,5,3,english,f,3,0.25666667,26.25433727,0.48299304
5ce3e7ff90a751001a31a05c,75,1,2024-02-27T14:15:36.919Z,french_257.wav,0,pull,342,40,5,3,english,f,0,0.0,1.27289853,1.18383926
5ce3e7ff90a751001a31a05c,75,1,2024-02-27T14:15:36.919Z,french_257.wav,0,pull,342,40,5,3,english,f,1,0.1,62.04423448,0.46495515
5ce3e7ff90a751001a31a05c,75,1,2024-02-27T14:15:36.919Z,french_257.wav,0,pull,342,40,5,3,english,f,2,0.2,19.88889926,0.91766752
5ce3e7ff90a751001a31a05c,75,1,2024-02-27T14:15:36.919Z,french_257.wav,0,pull,342,40,5,3,english,f,3,0.25666667,-46.96649461,1.75135473
5ce3e7ff90a751001a31a05c,76,1,2024-02-27T14:15:36.919Z,french_766.wav,0,pull,423,40,5,3,english,f,0,0.0,91.85829661,0.12079341
5ce3e7ff90a751001a31a05c,76,1,2024-02-27T14:15:36.919Z,french_766.wav,0,pull,423,40,5,3,english,f,1,0.1,29.32583948,0.61287095
5ce3e7ff90a751001a31a05c,76,1,2024-02-27T14:15:36.919Z,french_766.wav,0,pull,423,40,5,3,english,f,2,0.2,71.77245069,1.071897
5ce3e7ff90a751001a31a05c,76,1,2024-02-27T14:15:36.919Z,french_766.wav,0,pull,423,40,5,3,english,f,3,0.25666667,28.53871253,0.29005596
5ce3e7ff90a751001a31a05c,77,1,2024-02-27T14:15:36.919Z,french_914.wav,0,pull,340,40,5,3,english,f,0,0.0,-34.97252921,0.97835832
5ce3e7ff90a751001a31a05c,77,1,2024-02-27T14:15:36.919Z,french_914.wav,0,pull,340,40,5,3,english,f,1,0.1,-72.63984802,0.99245682
5ce3e7ff90a751001a31a05c,77,1,2024-02-27T14:15:36.919Z,french_914.wav,0,pull,340,40,5,3,english,f,2,0.2,-17.99574982,1.64333977
5ce3e7ff90a751001a31a05c,77,1,2024-02-27T14:15:36.919Z,french_914.wav,0,pull,340,40,5,3,english,f,3,0.25666667,97.045673,1.63101446
5ce3e7ff90a751001a31a05c,78,1,2024-02-27T14:15:36.919Z,french_142.wav,0,poule,207,40,5,3,english,f,0,0.0,-47.01050856,0.88751265
5ce3e7ff90a751001a31a05c,78,1,2024-02-27T14:15:36.919Z,french_142.wav,0,poule,207,40,5,3,english,f,1,0.1,44.85636852,1.13664387
5ce3e7ff90a751001a31a05c,78,1,2024-02-27T14:15:36.919Z,french_142.wav,0,poule,207,40,5,3,english,f,2,0.2,82.74517116,0.91175928
5ce3e7ff90a751001a31a05c,78,1,2024-02-27T14:15:36.919Z,french_142.wav,0,poule,207,40,5,3,english,f,3,0.25666667,-74.59675421,0.66352734
5ce3e7ff90a751001a31a05c,79,1,2024-02-27T14:15:36.919Z,french_429.wav,0,poule,203,40,5,3,english,f,0,0.0,-86.61428582,0.48550144
5ce3e7ff90a751001a31a05c,79,1,2024-02-27T14:15:36.919Z,french_429.wav,0,poule,203,40,5,3,english,f,1,0.1,-42.15720505,1.43221201
5ce3e7ff90a751001a31a05c,79,1,2024-02-27T14:15:36.919Z,french_429.wav,0,poule,203,40,5,3,english,f,2,0.2,57.81850322,1.77393014
5ce3e7ff90a751001a31a05c,79,1,2024-02-27T14:15:36.919Z,french_429.wav,0,poule,203,40,5,3,english,f,3,0.25666667,56.8864302,0.85506946
5ce3e7ff90a751001a31a05c,80,1,2024-02-27T14:15:36.919Z,french_677.wav,0,poule,716,40,5,3,english,f,0,0.0,-14.76179085,0.10277679
5ce3e7ff90a751001a31a05c,80,1,2024-02-27T14:15:36.919Z,french_677.wav,0,poule,716,40,5,3,english,f,1,0.1,-96.15101895,0.35083798
5ce3e7ff90a751001a31a05c,80,1,2024-02-27T14:15:36.919Z,french_677.wav,0,poule,716,40,5,3,english,f,2,0.2,48.20621423,0.65953763
5ce3e7ff90a751001a31a05c,80,1,2024-02-27T14:15:36.919Z,french_677.wav,0,poule,716,40,5,3,english,f,3,0.25666667,23.33985038,0.76581679
5ce3e7ff90a751001a31a05c,81,1,2024-02-27T14:15:36.919Z,french_299.wav,0,pull,301,40,5,3,english,f,0,0.0,12.52470623,1.64482663
5ce3e7ff90a751001a31a05c,81,1,2024-02-27T14:15:36.919Z,french_299.wav,0,pull,301,40,5,3,english,f,1,0.1,-97.26544336,1.84069115
5ce3e7ff90a751001a31a05c,81,1,2024-02-27T14:15:36.919Z,french_299.wav,0,pull,301,40,5,3,english,f,2,0.2,-80.62903972,0.25110426
5ce3e7ff90a751001a31a05c,81,1,2024-02-27T14:15:36.919Z,french_299.wav,0,pull,301,40,5,3,english,f,3,0.25666667,73.47257664,1.45765737
5ce3e7ff90a751001a31a05c,82,1,2024-02-27T14:15:36.919Z,french_472.wav,0,poule,416,40,5,3,english,f,0,0.0,-9.46806957,0.85855516
5ce3e7ff90a751001a31a05c,82,1,2024-02-27T14:15:36.919Z,french_472.wav,0,poule,416,40,5,3,english,f,1,0.1,45.81973918,1.60383991
5ce3e7ff90a751001a31a05c,82,1,2024-02-27T14:15:36.919Z,french_472.wav,0,poule,416,40,5,3,english,f,2,0.2,-32.95266456,0.80244772
5ce3e7ff90a751001a31a05c,82,1,2024-02-27T14:15:36.919Z,french_472.wav,0,poule,416,40,5,3,english,f,3,0.25666667,-10.56557549,1.48234138
5ce3e7ff90a751001a31a05c,83,1,2024-02-27T14:15:36.919Z,french_857.wav,0,pull,254,40,5,3,english,f,0,0.0,40.93487779,1.95936394
5ce3e7ff90a751001a31a05c,83,1,2024-02-27T14:15:36.919Z,french_857.wav,0,pull,254,40,5,3,english,f,1,0.1,-17.75235864,1.43648621
5ce3e7ff90a751001a31a05c,83,1,2024-02-27T14:15:36.919Z,french_857.wav,0,pull,254,40,5,3,english,f,2,0.2,39.31370365,1.12127335
5ce3e7ff90a751001a31a05c,83,1,2024-02-27T14:15:36.919Z,french_857.wav,0,pull,254,40,5,3,english,f,3,0.25666667,-10.04228362,0.40363044
5ce3e7ff90a751001a31a05c,84,1,2024-02-27T14:15:36.919Z,french_451.wav,0,poule,627,40,5,3,english,f,0,0.0,4.63188994,1.82787098
5ce3e7ff90a751001a31a05c,84,1,2024-02-27T14:15:36.919Z,french_451.wav,0,poule,627,40,5,3,english,f,1,0.1,28.08955108,0.29502826
5ce3e7ff90a751001a31a05c,84,1,2024-02-27T14:15:36.919Z,french_451.wav,0,poule,627,40,5,3,english,f,2,0.2,71.15157801,0.14883578
5ce3e7ff90a751001a31a05c,84,1,2024-02-27T14:15:36.919Z,french_451.wav,0,poule,627,40,5,3,english,f,3,0.25666667,-28.31676071,0.64245631
5ce3e7ff90a751001a31a05c,85,1,2024-02-27T14:15:36.919Z,french_609.wav,0,poule,174,40,5,3,english,f,0,0.0,11.6890167,1.75568789
5ce3e7ff90a751001a31a05c,85,1,2024-02-27T14:15:36.919Z,french_609.wav,0,poule,174,40,5,3,english,f,1,0.1,-35.50971605,1.50542158
5ce3e7ff90a751001a31a05c,85,1,2024-02-27T14:15:36.919Z,french_609.wav,0,poule,174,40,5,3,english,f,2,0.2,-98.47760025,0.96032408
5ce3e7ff90a751001a31a05c,85,1,2024-02-27T14:15:36.919Z,french_609.wav,0,poule,174,40,5,3,english,f,3,0.25666667,-64.00925784,1.1186533
5ce3e7ff90a751001a31a05c,86,1,2024-02-27T14:15:36.919Z,french_400.wav,0,poule,469,40,5,3,english,f,0,0.0,-93.78872851,1.79390568
5ce3e7ff90a751001a31a05c,86,1,2024-02-27T14:15:36.919Z,french_400.wav,0,poule,469,40,5,3,english,f,1,0.1,52.09991665,0.45516445
5ce3e7ff90a751001a31a05c,86,1,2024-02-27T14:15:36.919Z,french_400.wav,0,poule,469,40,5,3,english,f,2,0.2,99.5217597,0.71943881
5ce3e7ff90a751001a31a05c,86,1,2024-02-27T14:15:36.919Z,french_400.wav,0,poule,469,40,5,3,english,f,3,0.25666667,34.2913143,0.66600511
5ce3e7ff90a751001a31a05c,87,1,2024-02-27T14:15:36.919Z,french_741.wav,0,poule,400,40,5,3,english,f,0,0.0,52.99239945,1.20115282
5ce3e7ff90a751001a31a05c,87,1,2024-02-27T14:15:36.919Z,french_741.wav,0,poule,400,40,5,3,english,f,1,0.1,-62.37721768,0.53106937
5ce3e7ff90a751001a31a05c,87,1,2024-02-27T14:15:36.919Z,french_741.wav,0,poule,400,40,5,3,english,f,2,0.2,54.26195155,1.91925029
5ce3e7ff90a751001a31a05c,87,1,2024-02-27T14:15:36.919Z,french_741.wav,0,poule,400,40,5,3,english,f,3,0.25666667,8.23350592,0.42380295
5ce3e7ff90a751001a31a05c,88,1,2024-02-27T14:15:36.919Z,french_987.wav,0,pull,386,40,5,3,english,f,0,0.0,29.59235099,0.62183529
5ce3e7ff90a751001a31a05c,88,1,2024-02-27T14:15:36.919Z,french_987.wav,0,pull,386,40,5,3,english,f,1,0.1,34.94187385,0.21370909
5ce3e7ff90a751001a31a05c,88,1,2024-02-27T14:15:36.919Z,french_987.wav,0,pull,386,40,5,3,english,f,2,0.2,50.69614072,0.33639435
5ce3e7ff90a751001a31a05c,88,1,2024-02-27T14:15:36.919Z,french_987.wav,0,pull,386,40,5,3,english,f,3,0.25666667,30.08512425,1.23768731
5ce3e7ff90a751001a31a05c,89,1,2024-02-27T14:15:36.919Z,french_734.wav,0,pull,712,40,5,3,english,f,0,0.0,24.54171911,0.95806039
5ce3e7ff90a751001a31a05c,89,1,2024-02-27T14:15:36.919Z,french_734.wav,0,pull,712,40,5,3,english,f,1,0.1,62.00217695,1.43009574
5ce3e7ff90a751001a31a05c,89,1,2024-02-27T14:15:36.919Z,french_734.wav,0,pull,712,40,5,3,english,f,2,0.2,-55.547606,0.47319646
5ce3e7ff90a751001a31a05c,89,1,2024-02-27T14:15:36.919Z,french_734.wav,0,pull,712,40,5,3,english,f,3,0.25666667,25.07561383,0.83118698
5ce3e7ff90a751001a31a05c,90,1,2024-02-27T14:15:36.919Z,french_488.wav,0,poule,466,40,5,3,english,f,0,0.0,83.09023231,0.61404301
5ce3e7ff90a751001a31a05c,90,1,2024-02-27T14:15:36.919Z,french_488.wav,0,poule,466,40,5,3,english,f,1,0.1,31.08155804,1.79467821
5ce3e7ff90a751001a31a05c,90,1,2024-02-27T14:15:36.919Z,french_488.wav,0,poule,466,40,5,3,english,f,2,0.2,23.00603586,0.24163263
5ce3e7ff90a751001a31a05c,90,1,2024-02-27T14:15:36.919Z,french_488.wav,0,poule,466,40,5,3,english,f,3,0.25666667,-14.42068905,1.80620701
5ce3e7ff90a751001a31a05c,91,1,2024-02-27T14:15:36.919Z,french_962.wav,0,poule,492,40,5,3,english,f,0,0.0,-23.88621243,0.58686494
5ce3e7ff90a751001a31a05c,91,1,2024-02-27T14:15:36.919Z,french_962.wav,0,poule,492,40,5,3,english,f,1,0.1,-2.32674089,1.96763724
5ce3e7ff90a751001a31a05c,91,1,2024-02-27T14:15:36.919Z,french_962.wav,0,poule,492,40,5,3,english,f,2,0.2,99.5739753,0.1339284
5ce3e7ff90a751001a31a05c,91,1,2024-02-27T14:15:36.919Z,french_962.wav,0,poule,492,40,5,3,english,f,3,0.25666667,-60.89946795,0.14371278
5ce3e7ff90a751001a31a05c,92,1,2024-02-27T14:15:36.919Z,french_653.wav,0,poule,352,40,5,3,english,f,0,0.0,77.9010548,1.15209157
5ce3e7ff90a751001a31a05c,92,1,2024-02-27T14:15:36.919Z,french_653.wav,0,poule,352,40,5,3,english,f,1,0.1,-51.77114594,0.29445829
5ce3e7ff90a751001a31a05c,92,1,2024-02-27T14:15:36.919Z,french_653.wav,0,poule,352,40,5,3,english,f,2,0.2,87.84855202,0.58679482
5ce3e7ff90a751001a31a05c,92,1,2024-02-27T14:15:36.919Z,french_653.wav,0,poule,352,40,5,3,english,f,3,0.25666667,84.03497815,1.23322571
5ce3e7ff90a751001a31a05c,93,1,2024-02-27T14:15:36.919Z,french_453.wav,0,pull,222,40,5,3,english,f,0,0.0,17.16336321,0.53243678
5ce3e7ff90a751001a31a05c,93,1,2024-02-27T14:15:36.919Z,french_453.wav,0,pull,222,40,5,3,english,f,1,0.1,-89.93005254,1.83492113
5ce3e7ff90a751001a31a05c,93,1,2024-02-27T14:15:36.919Z,french_453.wav,0,pull,222,40,5,3,english,f,2,0.2,91.22824445,1.32944014
5ce3e7ff90a751001a31a05c,93,1,2024-02-27T14:15:36.919Z,french_453.wav,0,pull,222,40,5,3,english,f,3,0.25666667,-84.37948707,0.35681228
5ce3e7ff90a751001a31a05c,94,1,2024-02-27T14:15:36.919Z,french_850.wav,0,pull,507,40,5,3,english,f,0,0.0,-88.87179188,0.91597825
5ce3e7ff90a751001a31a05c,94,1,2024-02-27T14:15:36.919Z,french_850.wav,0,pull,507,40,5,3,english,f,1,0.1,15.70736636,0.21425776
5ce3e7ff90a751001a31a05c,94,1,2024-02-27T14:15:36.919Z,french_850.wav,0,pull,507,40,5,3,english,f,2,0.2,67.7730952,1.52338939
5ce3e7ff90a751001a31a05c,94,1,2024-02-27T14:15:36.919Z,french_850.wav,0,pull,507,40,5,3,english,f,3,0.25666667,-20.3872908,0.55241946
5ce3e7ff90a751001a31a05c,95,1,2024-02-27T14:15:36.919Z,french_270.wav,0,pull,231,40,5,3,english,f,0,0.0,-78.86827529,1.67831185
5ce3e7ff90a751001a31a05c,95,1,2024-02-27T14:15:36.919Z,french_270.wav,0,pull,231,40,5,3,english,f,1,0.1,-82.37829284,0.76287252
5ce3e7ff90a751001a31a05c,95,1,2024-02-27T14:15:36.919Z,french_270.wav,0,pull,231,40,5,3,english,f,2,0.2,-56.83639547,1.7160191
5ce3e7ff90a751001a31a05c,95,1,2024-02-27T14:15:36.919Z,french_270.wav,0,pull,231,40,5,3,english,f,3,0.25666667,11.60888519,0.82403755
5ce3e7ff90a751001a31a05c,96,1,2024-02-27T14:15:36.919Z,french_12.wav,0,poule,261,40,5,3,english,f,0,0.0,-57.76127346,1.31680682
5ce3e7ff90a751001a31a05c,96,1,2024-02-27T14:15:36.919Z,french_12.wav,0,poule,261,40,5,3,english,f,1,0.1,13.80138245,1.40135686
5ce3e7ff90a751001a31a05c,96,1,2024-02-27T14:15:36.919Z,french_12.wav,0,poule,261,40,5,3,english,f,2,0.2,70.02389064,0.63152994
5ce3e7ff90a751001a31a05c,96,1,2024-02-27T14:15:36.919Z,french_12.wav,0,poule,261,40,5,3,english,f,3,0.25666667,-46.37027392,0.33836826
5ce3e7ff90a751001a31a05c,97,1,2024-02-27T14:15:36.919Z,french_499.wav,0,poule,458,40,5,3,english,f,0,0.0,24.28229917,0.76159538
5ce3e7ff90a751001a31a05c,97,1,2024-02-27T14:15:36.919Z,french_499.wav,0,poule,458,40,5,3,english,f,1,0.1,-90.85236303,0.50536641
5ce3e7ff90a751001a31a05c,97,1,2024-02-27T14:15:36.919Z,french_499.wav,0,poule,458,40,5,3,english,f,2,0.2,-60.29957953,0.99158085
5ce3e7ff90a751001a31a05c,97,1,2024-02-27T14:15:36.919Z,french_499.wav,0,poule,458,40,5,3,english,f,3,0.25666667,91.79807534,1.05465089
5ce3e7ff90a751001a31a05c,98,1,2024-02-27T14:15:36.919Z,french_204.wav,0,pull,2144,40,5,3,english,f,0,0.0,-28.36319627,0.07789368
5ce3e7ff90a751001a31a05c,98,1,2024-02-27T14:15:36.919Z,french_204.wav,0,pull,2144,40,5,3,english,f,1,0.1,-92.66891013,0.00203791
5ce3e7ff90a751001a31a05c,98,1,2024-02-27T14:15:36.919Z,french_204.wav,0,pull,2144,40,5,3,english,f,2,0.2,96.29592204,1.92374636
5ce3e7ff90a751001a31a05c,98,1,2024-02-27T14:15:36.919Z,french_204.wav,0,pull,2144,40,5,3,english,f,3,0.25666667,-46.81515004,0.97947469
5ce3e7ff90a751001a31a05c,99,1,2024-02-27T14:15:36.919Z,french_363.wav,0,poule,992,40,5,3,english,f,0,0.0,53.04818478,0.48026107
5ce3e7ff90a751001a31a05c,99,1,2024-02-27T14:15:36.919Z,french_363.wav,0,poule,992,40,5,3,english,f,1,0.1,68.67010762,1.94302888
5ce3e7ff90a751001a31a05c,99,1,2024-02-27T14:15:36.919Z,french_363.wav,0,poule,992,40,5,3,english,f,2,0.2,-91.11205335,0.36511891
5ce3e7ff90a751001a31a05c,99,1,2024-02-27T14:15:36.919Z,french_363.wav,0,poule,992,40,5,3,english,f,3,0.25666667,-38.9131055,1.6181542
5ce3e7ff90a751001a31a05c,100,2,2024-02-27T14:15:36.919Z,french_467.wav,0,poule,986,40,5,3,english,f,0,0.0,26.36588123,0.49078583
5ce3e7ff90a751001a31a05c,100,2,2024-02-27T14:15:36.919Z,french_467.wav,0,poule,986,40,5,3,english,f,1,0.1,-91.62831039,1.37574102
5ce3e7ff90a751001a31a05c,100,2,2024-02-27T14:15:36.919Z,french_467.wav,0,poule,986,40,5,3,english,f,2,0.2,14.27679522,0.10009029
5ce3e7ff90a751001a31a05c,100,2,2024-02-27T14:15:36.919Z,french_467.wav,0,poule,986,40,5,3,english,f,3,0.25666667,-77.75485007,1.32516535
5ce3e7ff90a751001a31a05c,101,2,2024-02-27T14:15:36.919Z,french_442.wav,0,pull,339,40,5,3,english,f,0,0.0,60.29330972,0.95088916
5ce3e7ff90a751001a31a05c,101,2,2024-02-27T14:15:36.919Z,french_442.wav,0,pull,339,40,5,3,english,f,1,0.1,96.30587546,0.89420653
5ce3e7ff90a751001a31a05c,101,2,2024-02-27T14:15:36.919Z,french_442.wav,0,pull,339,40,5,3,english,f,2,0.2,3.75375275,0.09745987
5ce3e7ff90a751001a31a05c,101,2,2024-02-27T14:15:36.919Z,french_442.wav,0,pull,339,40,5,3,english,f,3,0.25666667,65.23357012,0.42759775
5ce3e7ff90a751001a31a05c,102,2,2024-02-27T14:15:36.919Z,french_835.wav,0,pull,226,40,5,3,english,f,0,0.0,-1.43190356,0.4805844
5ce3e7ff90a751001a31a05c,102,2,2024-02-27T14:15:36.919Z,french_835.wav,0,pull,226,40,5,3,english,f,1,0.1,-99.33286499,1.12822193
5ce3e7ff90a751001a31a05c,102,2,2024-02-27T14:15:36.919Z,french_835.wav,0,pull,226,40,5,3,english,f,2,0.2,34.34373885,1.41477947
5ce3e7ff90a751001a31a05c,102,2,2024-02-27T14:15:36.919Z,french_835.wav,0,pull,226,40,5,3,english,f,3,0.25666667,39.86329231,0.63497531
5ce3e7ff90a751001a31a05c,103,2,2024-02-27T14:15:36.919Z,french_726.wav,0,pull,231,40,5,3,english,f,0,0.0,24.00791096,1.57962765
5ce3e7ff90a751001a31a05c,103,2,2024-02-27T14:15:36.919Z,french_726.wav,0,pull,231,40,5,3,english,f,1,0.1,-92.28715444,0.67026409
5ce3e7ff90a751001a31a05c,103,2,2024-02-27T14:15:36.919Z,french_726.wav,0,pull,231,40,5,3,english,f,2,0.2,-14.16316682,0.1799528
5ce3e7ff90a751001a31a05c,103,2,2024-02-27T14:15:36.919Z,french_726.wav,0,pull,231,40,5,3,english,f,3,0.25666667,30.70182153,1.72405897
5ce3e7ff90a751001a31a05c,104,2,2024-02-27T14:15:36.919Z,french_367.wav,0,pull,241,40,5,3,english,f,0,0.0,-74.25610099,1.28932343
5ce3e7ff90a751001a31a05c,104,2,2024-02-27T14:15:36.919Z,french_367.wav,0,pull,241,40,5,3,english,f,1,0.1,-44.66143863,1.13980767
5ce3e7ff90a751001a31a05c,104,2,2024-02-27T14:15:36.919Z,french_367.wav,0,pull,241,40,5,3,english,f,2,0.2,-39.26529042,1.487469
5ce3e7ff90a751001a31a05c,104,2,2024-02-27T14:15:36.919Z,french_367.wav,0,pull,241,40,5,3,english,f,3,0.25666667,-84.95145566,0.37349724
5ce3e7ff90a751001a31a05c,105,2,2024-02-27T14:15:36.919Z,french_208.wav,0,poule,311,40,5,3,english,f,0,0.0,8.68990421,0.76850137
5ce3e7ff90a751001a31a05c,105,2,2024-02-27T14:15:36.919Z,french_208.wav,0,poule,311,40,5,3,english,f,1,0.1,-43.18378372,1.33781212
5ce3e7ff90a751001a31a05c,105,2,2024-02-27T14:15:36.919Z,french_208.wav,0,poule,311,40,5,3,english,f,2,0.2,71.27860087,0.39946576
5ce3e7ff90a751001a31a05c,105,2,2024-02-27T14:15:36.919Z,french_208.wav,0,poule,311,40,5,3,english,f,3,0.25666667,-15.56799856,0.17788265
5ce3e7ff90a751001a31a05c,106,2,2024-02-27T14:15:36.919Z,french_673.wav,0,poule,974,40,5,3,english,f,0,0.0,97.1433432,1.2603
5ce3e7ff90a751001a31a05c,106,2,2024-02-27T14:15:36.919Z,french_673.wav,0,poule,974,40,5,3,english,f,1,0.1,1.59516127,0.42137615
5ce3e7ff90a751001a31a05c,106,2,2024-02-27T14:15:36.919Z,french_673.wav,0,poule,974,40,5,3,english,f,2,0.2,27.02161491,0.87652171
5ce3e7ff90a751001a31a05c,106,2,2024-02-27T14:15:36.919Z,french_673.wav,0,poule,974,40,5,3,english,f,3,0.25666667,62.92522021,1.1230089
5ce3e7ff90a751001a31a05c,107,2,2024-02-27T14:15:36.919Z,french_76.wav,0,poule,416,40,5,3,english,f,0,0.0,34.97070553,0.55167233
5ce3e7ff90a751001a31a05c,107,2,2024-02-27T14:15:36.919Z,french_76.wav,0,poule,416,40,5,3,english,f,1,0.1,46.59279974,0.47394225
5ce3e7ff90a751001a31a05c,107,2,2024-02-27T14:15:36.919Z,french_76.wav,0,poule,416,40,5,3,english,f,2,0.2,69.89439798,0.76682402
5ce3e7ff90a751001a31a05c,107,2,2024-02-27T14:15:36.919Z,french_76.wav,0,poule,416,40,5,3,english,f,3,0.25666667,4.40224836,1.69716011
5ce3e7ff90a751001a31a05c,108,2,2024-02-27T14:15:36.919Z,french_302.wav,0,pull,335,40,5,3,english,f,0,0.0,8.4067376,0.06791418
5ce3e7ff90a751001a31a05c,108,2,2024-02-27T14:15:36.919Z,french_302.wav,0,pull,335,40,5,3,english,f,1,0.1,-29.32780789,1.46578571
5ce3e7ff90a751001a31a05c,108,2,2024-02-27T14:15:36.919Z,french_302.wav,0,pull,335,40,5,3,english,f,2,0.2,-43.35590711,1.81098556
5ce3e7ff90a751001a31a05c,108,2,2024-02-27T14:15:36.919Z,french_302.wav,0,pull,335,40,5,3,english,f,3,0.25666667,-44.50549756,1.40235265
5ce3e7ff90a751001a31a05c,109,2,2024-02-27T14:15:36.919Z,french_272.wav,0,poule,429,40,5,3,english,f,0,0.0,50.55701535,1.0419248
5ce3e7ff90a751001a31a05c,109,2,2024-02-27T14:15:36.919Z,french_272.wav,0,poule,429,40,5,3,english,f,1,0.1,63.46835537,0.05024982
5ce3e7ff90a751001a31a05c,109,2,2024-02-27T14:15:36.919Z,french_272.wav,0,poule,429,40,5,3,english,f,2,0.2,-46.63250527,0.3554473
5ce3e7ff90a751001a31a05c,109,2,2024-02-27T14:15:36.919Z,french_272.wav,0,poule,429,40,5,3,english,f,3,0.25666667,74.93577843,1.3845464
5ce3e7ff90a751001a31a05c,110,2,2024-02-27T14:15:36.919Z,french_900.wav,0,poule,250,40,5,3,english,f,0,0.0,-40.26137712,1.52095516
5ce3e7ff90a751001a31a05c,110,2,2024-02-27T14:15:36.919Z,french_900.wav,0,poule,250,40,5,3,english,f,1,0.1,-58.52959628,0.45545329
5ce3e7ff90a751001a31a05c,110,2,2024-02-27T14:15:36.919Z,french_900.wav,0,poule,250,40,5,3,english,f,2,0.2,-9.02711279,1.45244251
5ce3e7ff90a751001a31a05c,110,2,2024-02-27T14:15:36.919Z,french_900.wav,0,poule,250,40,5,3,english,f,3,0.25666667,-16.09488558,1.49180456
5ce3e7ff90a751001a31a05c,111,2,2024-02-27T14:15:36.919Z,french_978.wav,0,poule,271,40,5,3,english,f,0,0.0,-36.32035497,0.76958877
5ce3e7ff90a751001a31a05c,111,2,2024-02-27T14:15:36.919Z,french_978.wav,0,poule,271,40,5,3,english,f,1,0.1,-92.00024605,0.1229223
5ce3e7ff90a751001a31a05c,111,2,2024-02-27T14:15:36.919Z,french_978.wav,0,poule,271,40,5,3,english,f,2,0.2,-85.64640387,1.83920091
5ce3e7ff90a751001a31a05c,111,2,2024-02-27T14:15:36.919Z,french_978.wav,0,poule,271,40,5,3,english,f,3,0.25666667,30.4024855,1.45747353
5ce3e7ff90a751001a31a05c,112,2,2024-02-27T14:15:36.919Z,french_109.wav,0,poule,257,40,5,3,english,f,0,0.0,-57.66612313,0.91141338
5ce3e7ff90a751001a31a05c,112,2,2024-02-27T14:15:36.919Z,french_109.wav,0,poule,257,40,5,3,english,f,1,0.1,-72.54090479,1.63809523
5ce3e7ff90a751001a31a05c,112,2,2024-02-27T14:15:36.919Z,french_109.wav,0,poule,257,40,5,3,english,f,2,0.2,-5.66573875,1.08686957
5ce3e7ff90a751001a31a05c,112,2,2024-02-27T14:15:36.919Z,french_109.wav,0,poule,257,40,5,3,english,f,3,0.25666667,-86.22212262,0.85420458
5ce3e7ff90a751001a31a05c,113,2,2024-02-27T14:15:36.919Z,french_220.wav,0,poule,286,40,5,3,english,f,0,0.0,99.39862809,1.95391084
5ce3e7ff90a751001a31a05c,113,2,2024-02-27T14:15:36.919Z,french_220.wav,0,poule,286,40,5,3,english,f,1,0.1,-16.44954754,1.60430152
5ce3e7ff90a751001a31a05c,113,2,2024-02-27T14:15:36.919Z,french_220.wav,0,poule,286,40,5,3,english,f,2,0.2,-73.93109837,1.1953066
5ce3e7ff90a751001a31a05c,113,2,2024-02-27T14:15:36.919Z,french_220.wav,0,poule,286,40,5,3,english,f,3,0.25666667,-37.75571533,0.34699919
5ce3e7ff90a751001a31a05c,114,2,2024-02-27T14:15:36.919Z,french_181.wav,0,pull,590,40,5,3,english,f,0,0.0,52.63626805,0.9763228
5ce3e7ff90a751001a31a05c,114,2,2024-02-27T14:15:36.919Z,french_181.wav,0,pull,590,40,5,3,english,f,1,0.1,57.50479679,1.59974154
5ce3e7ff90a751001a31a05c,114,2,2024-02-27T14:15:36.919Z,french_181.wav,0,pull,590,40,5,3,english,f,2,0.2,-83.63706112,1.01502959
5ce3e7ff90a751001a31a05c,114,2,2024-02-27T14:15:36.919Z,french_181.wav,0,pull,590,40,5,3,english,f,3,0.25666667,-1.92902825,0.93700507
5ce3e7ff90a751001a31a05c,115,2,2024-02-27T14:15:36.919Z,french_829.wav,0,pull,241,40,5,3,english,f,0,0.0,46.725297,0.52675555
5ce3e7ff90a751001a31a05c,115,2,2024-02-27T14:15:36.919Z,french_829.wav,0,pull,241,40,5,3,english,f,1,0.1,-84.28207626,1.43556726
5ce3e7ff90a751001a31a05c,115,2,2024-02-27T14:15:36.919Z,french_829.wav,0,pull,241,40,5,3,english,f,2,0.2,93.60285392,0.6815656
5ce3e7ff90a751001a31a05c,115,2,2024-02-27T14:15:36.919Z,french_829.wav,0,pull,241,40,5,3,english,f,3,0.25666667,-19.92335823,1.46711526
5ce3e7ff90a751001a31a05c,116,2,2024-02-27T14:15:36.919Z,french_651.wav,0,pull,226,40,5,3,english,f,0,0.0,-39.76270633,0.57054307
5ce3e7ff90a751001a31a05c,116,2,2024-02-27T14:15:36.919Z,french_651.wav,0,pull,226,40,5,3,english,f,1,0.1,98.43983978,0.47887101
5ce3e7ff90a751001a31a05c,116,2,2024-02-27T14:15:36.919Z,french_651.wav,0,pull,226,40,5,3,english,f,2,0.2,-35.93188367,1.36476361
5ce3e7ff90a751001a31a05c,116,2,2024-02-27T14:15:36.919Z,french_651.wav,0,pull,226,40,5,3,english,f,3,0.25666667,-13.56550518,1.70592369
5ce3e7ff90a751001a31a05c,117,2,2024-02-27T14:15:36.919Z,french_195.wav,0,poule,150,40,5,3,english,f,0,0.0,-1.90342588,0.62941576
5ce3e7ff90a751001a31a05c,117,2,2024-02-27T14:15:36.919Z,french_195.wav,0,poule,150,40,5,3,english,f,1,0.1,-8.12665825,1.90753939
5ce3e7ff90a751001a31a05c,117,2,2024-02-27T14:15:36.919Z,french_195.wav,0,poule,150,40,5,3,english,f,2,0.2,-5.61431002,1.47732259
5ce3e7ff90a751001a31a05c,117,2,2024-02-27T14:15:36.919Z,french_195.wav,0,poule,150,40,5,3,english,f,3,0.25666667,-66.29175925,0.68212586
5ce3e7ff90a751001a31a05c,118,2,2024-02-27T14:15:36.919Z,french_187.wav,0,poule,222,40,5,3,english,f,0,0.0,-18.61743148,0.79177474
5ce3e7ff90a751001a31a05c,118,2,2024-02-27T14:15:36.919Z,french_187.wav,0,poule,222,40,5,3,english,f,1,0.1,27.93687652,0.90472294
5ce3e7ff90a751001a31a05c,118,2,2024-02-27T14:15:36.919Z,french_187.wav,0,poule,222,40,5,3,english,f,2,0.2,6.26647606,1.3885115
5ce3e7ff90a751001a31a05c,118,2,2024-02-27T14:15:36.919Z,french_187.wav,0,poule,222,40,5,3,english,f,3,0.25666667,58.88972832,1.88547829
5ce3e7ff90a751001a31a05c,119,2,2024-02-27T14:15:36.919Z,french_254.wav,0,poule,282,40,5,3,english,f,0,0.0,-80.26287383,0.610966
5ce3e7ff90a751001a31a05c,119,2,2024-02-27T14:15:36.919Z,french_254.wav,0,poule,282,40,5,3,english,f,1,0.1,-40.33934554,1.74213191
5ce3e7ff90a751001a31a05c,119,2,2024-02-27T14:15:36.919Z,french_254.wav,0,poule,282,40,5,3,english,f,2,0.2,63.1875163,0.92287848
5ce3e7ff90a751001a31a05c,119,2,2024-02-27T14:15:36.919Z,french_254.wav,0,poule,282,40,5,3,english,f,3,0.25666667,55.87543548,0.4746978
5ce3e7ff90a751001a31a05c,120,2,2024-02-27T14:15:36.919Z,french_514.wav,0,pull,692,40,5,3,english,f,0,0.0,-99.76210077,0.60226465
5ce3e7ff90a751001a31a05c,120,2,2024-02-27T14:15:36.919Z,french_514.wav,0,pull,692,40,5,3,english,f,1,0.1,-57.79872095,0.08785461
5ce3e7ff90a751001a31a05c,120,2,2024-02-27T14:15:36.919Z,french_514.wav,0,pull,692,40,5,3,english,f,2,0.2,-51.12304885,1.82353854
5ce3e7ff90a751001a31a05c,120,2,2024-02-27T14:15:36.919Z,french_514.wav,0,pull,692,40,5,3,english,f,3,0.25666667,51.53874679,1.77009288
5ce3e7ff90a751001a31a05c,121,2,2024-02-27T14:15:36.919Z,french_251.wav,0,poule,356,40,5,3,english,f,0,0.0,24.13853868,0.84222584
5ce3e7ff90a751001a31a05c,121,2,2024-02-27T14:15:36.919Z,french_251.wav,0,poule,356,40,5,3,english,f,1,0.1,69.59392202,0.35569373
5ce3e7ff90a751001a31a05c,121,2,2024-02-27T14:15:36.919Z,french_251.wav,0,poule,356,40,5,3,english,f,2,0.2,5.2598313,1.18426262
5ce3e7ff90a751001a31a05c,121,2,2024-02-27T14:15:36.919Z,french_251.wav,0,poule,356,40,5,3,english,f,3,0.25666667,49.58604743,1.47594706
5ce3e7ff90a751001a31a05c,122,2,2024-02-27T14:15:36.919Z,french_44.wav,0,pull,1511,40,5,3,english,f,0,0.0,89.66608323,1.27808882
5ce3e7ff90a751001a31a05c,122,2,2024-02-27T14:15:36.919Z,french_44.wav,0,pull,1511,40,5,3,english,f,1,0.1,-59.25624901,0.57075293
5ce3e7ff90a751001a31a05c,122,2,2024-02-27T14:15:36.919Z,french_44.wav,0,pull,1511,40,5,3,english,f,2,0.2,-68.11161816,0.14730706
5ce3e7ff90a751001a31a05c,122,2,2024-02-27T14:15:36.919Z,french_44.wav,0,pull,1511,40,5,3,english,f,3,0.25666667,57.66656697,1.61481461
5ce3e7ff90a751001a31a05c,123,2,2024-02-27T14:15:36.919Z,french_294.wav,0,poule,694,40,5,3,english,f,0,0.0,18.73906337,1.13845915
5ce3e7ff90a751001a31a05c,123,2,2024-02-27T14:15:36.919Z,french_294.wav,0,poule,694,40,5,3,english,f,1,0.1,4.75064209,1.03898668
5ce3e7ff90a751001a31a05c,123,2,2024-02-27T14:15:36.919Z,french_294.wav,0,poule,694,40,5,3,english,f,2,0.2,-81.40088776,1.62818909
5ce3e7ff90a751001a31a05c,123,2,2024-02-27T14:15:36.919Z,french_294.wav,0,poule,694,40,5,3,english,f,3,0.25666667,-89.40929498,0.49616963
5ce3e7ff90a751001a31a05c,124,2,2024-02-27T14:15:36.919Z,french_948.wav,0,poule,1195,40,5,3,english,f,0,0.0,54.2755123,0.60698289
5ce3e7ff90a751001a31a05c,124,2,2024-02-27T14:15:36.919Z,french_948.wav,0,poule,1195,40,5,3,english,f,1,0.1,-26.53776759,1.07019337
5ce3e7ff90a751001a31a05c,124,2,2024-02-27T14:15:36.919Z,french_948.wav,0,poule,1195,40,5,3,english,f,2,0.2,-51.24045856,1.47276383
5ce3e7ff90a751001a31a05c,124,2,2024-02-27T14:15:36.919Z,french_948.wav,0,poule,1195,40,5,3,english,f,3,0.25666667,84.11086463,1.01044713
5ce3e7ff90a751001a31a05c,125,2,2024-02-27T14:15:36.919Z,french_812.wav,0,poule,920,40,5,3,english,f,0,0.0,78.53201718,1.73310634
5ce3e7ff90a751001a31a05c,125,2,2024-02-27T14:15:36.919Z,french_812.wav,0,poule,920,40,5,3,english,f,1,0.1,87.32508034,1.73147281
5ce3e7ff90a751001a31a05c,125,2,2024-02-27T14:15:36.919Z,french_812.wav,0,poule,920,40,5,3,english,f,2,0.2,77.15455549,1.58178344
5ce3e7ff90a751001a31a05c,125,2,2024-02-27T14:15:36.919Z,french_812.wav,0,poule,920,40,5,3,english,f,3,0.25666667,-51.33102937,0.27993183
5ce3e7ff90a751001a31a05c,126,2,2024-02-27T14:15:36.919Z,french_558.wav,0,poule,401,40,5,3,english,f,0,0.0,-24.56305845,0.85912435
5ce3e7ff90a751001a31a05c,126,2,2024-02-27T14:15:36.919Z,french_558.wav,0,poule,401,40,5,3,english,f,1,0.1,18.75830467,1.74056956
5ce3e7ff90a751001a31a05c,126,2,2024-02-27T14:15:36.919Z,french_558.wav,0,poule,401,40,5,3,english,f,2,0.2,-0.86444976,0.35762899
5ce3e7ff90a751001a31a05c,126,2,2024-02-27T14:15:36.919Z,french_558.wav,0,poule,401,40,5,3,english,f,3,0.25666667,-67.61408917,1.29508782
5ce3e7ff90a751001a31a05c,127,2,2024-02-27T14:15:36.919Z,french_602.wav,0,poule,316,40,5,3,english,f,0,0.0,88.5156033,1.15034926
5ce3e7ff90a751001a31a05c,127,2,2024-02-27T14:15:36.919Z,french_602.wav,0,poule,316,40,5,3,english,f,1,0.1,50.37840389,0.70361943
5ce3e7ff90a751001a31a05c,127,2,2024-02-27T14:15:36.919Z,french_602.wav,0,poule,316,40,5,3,english,f,2,0.2,41.99983627,1.85629911
5ce3e7ff90a751001a31a05c,127,2,2024-02-27T14:15:36.919Z,french_602.wav,0,poule,316,40,5,3,english,f,3,0.25666667,11.33520808,0.32194213
5ce3e7ff90a751001a31a05c,128,2,2024-02-27T14:15:36.919Z,french_561.wav,0,pull,792,40,5,3,english,f,0,0.0,43.72245453,1.14403907
5ce3e7ff90a751001a31a05c,128,2,2024-02-27T14:15:36.919Z,french_561.wav,0,pull,792,40,5,3,english,f,1,0.1,-99.96065046,0.22103922
5ce3e7ff90a751001a31a05c,128,2,2024-02-27T14:15:36.919Z,french_561.wav,0,pull,792,40,5,3,english,f,2,0.2,-79.74506532,0.12690813
5ce3e7ff90a751001a31a05c,128,2,2024-02-27T14:15:36.919Z,french_561.wav,0,pull,792,40,5,3,english,f,3,0.25666667,3.19515671,1.47601923
5ce3e7ff90a751001a31a05c,129,2,2024-02-27T14:15:36.919Z,french_771.wav,0,poule,369,40,5,3,english,f,0,0.0,-31.32443984,0.10443369
5ce3e7ff90a751001a31a05c,129,2,2024-02-27T14:15:36.919Z,french_771.wav,0,poule,369,40,5,3,english,f,1,0.1,2.91896775,0.0162425
5ce3e7ff90a751001a31a05c,129,2,2024-02-27T14:15:36.919Z,french_771.wav,0,poule,369,40,5,3,english,f,2,0.2,73.75563113,0.96029425
5ce3e7ff90a751001a31a05c,129,2,2024-02-27T14:15:36.919Z,french_771.wav,0,poule,369,40,5,3,english,f,3,0.25666667,61.27629387,1.26482275
5ce3e7ff90a751001a31a05c,130,2,2024-02-27T14:15:36.919Z,french_266.wav,0,poule,265,40,5,3,english,f,0,0.0,58.27883453,0.79886668
5ce3e7ff90a751001a31a05c,130,2,2024-02-27T14:15:36.919Z,french_266.wav,0,poule,265,40,5,3,english,f,1,0.1,-28.04411439,1.49488383
5ce3e7ff90a751001a31a05c,130,2,2024-02-27T14:15:36.919Z,french_266.wav,0,poule,265,40,5,3,english,f,2,0.2,-38.46127027,0.15170522
5ce3e7ff90a751001a31a05c,130,2,2024-02-27T14:15:36.919Z,french_266.wav,0,poule,265,40,5,3,english,f,3,0.25666667,-84.67234247,1.57053192
5ce3e7ff90a751001a31a05c,131,2,2024-02-27T14:15:36.919Z,french_216.wav,0,poule,268,40,5,3,english,f,0,0.0,94.47877999,1.14166801
5ce3e7ff90a751001a31a05c,131,2,2024-02-27T14:15:36.919Z,french_216.wav,0,poule,268,40,5,3,english,f,1,0.1,-35.64680956,0.96477388
5ce3e7ff90a751001a31a05c,131,2,2024-02-27T14:15:36.919Z,french_216.wav,0,poule,268,40,5,3,english,f,2,0.2,-6.49582042,1.30348701
5ce3e7ff90a751001a31a05c,131,2,2024-02-27T14:15:36.919Z,french_216.wav,0,poule,268,40,5,3,english,f,3,0.25666667,88.58272088,1.4092971
5ce3e7ff90a751001a31a05c,132,2,2024-02-27T14:15:36.919Z,french_184.wav,0,poule,236,40,5,3,english,f,0,0.0,48.36861498,1.86119552
5ce3e7ff90a751001a31a05c,132,2,2024-02-27T14:15:36.919Z,french_184.wav,0,poule,236,40,5,3,english,f,1,0.1,-2.94347193,0.96576449
5ce3e7ff90a751001a31a05c,132,2,2024-02-27T14:15:36.919Z,french_184.wav,0,poule,236,40,5,3,english,f,2,0.2,-52.00472355,1.69315982
5ce3e7ff90a751001a31a05c,132,2,2024-02-27T14:15:36.919Z,french_184.wav,0,poule,236,40,5,3,english,f,3,0.25666667,-36.80137507,0.52689434
5ce3e7ff90a751001a31a05c,133,2,2024-02-27T14:15:36.919Z,french_912.wav,0,pull,740,40,5,3,english,f,0,0.0,-0.0923206,1.34654061
5ce3e7ff90a751001a31a05c,133,2,2024-02-27T14:15:36.919Z,french_912.wav,0,pull,740,40,5,3,english,f,1,0.1,-62.03539144,1.69101872
5ce3e7ff90a751001a31a05c,133,2,2024-02-27T14:15:36.919Z,french_912.wav,0,pull,740,40,5,3,english,f,2,0.2,9.48123132,1.27014765
5ce3e7ff90a751001a31a05c,133,2,2024-02-27T14:15:36.919Z,french_912.wav,0,pull,740,40,5,3,english,f,3,0.25666667,-88.73464781,0.10640649
5ce3e7ff90a751001a31a05c,134,2,2024-02-27T14:15:36.919Z,french_143.wav,0,pull,1391,40,5,3,english,f,0,0.0,-46.09253598,1.27633083
5ce3e7ff90a751001a31a05c,134,2,2024-02-27T14:15:36.919Z,french_143.wav,0,pull,1391,40,5,3,english,f,1,0.1,41.21858491,0.28919458
5ce3e7ff90a751001a31a05c,134,2,2024-02-27T14:15:36.919Z,french_143.wav,0,pull,1391,40,5,3,english,f,2,0.2,10.38405582,0.61917155
5ce3e7ff90a751001a31a05c,134,2,2024-02-27T14:15:36.919Z,french_143.wav,0,pull,1391,40,5,3,english,f,3,0.25666667,-99.98168054,0.37925836
5ce3e7ff90a751001a31a05c,135,2,2024-02-27T14:15:36.919Z,french_49.wav,0,pull,555,40,5,3,english,f,0,0.0,-34.40531311,0.38592943
5ce3e7ff90a751001a31a05c,135,2,2024-02-27T14:15:36.919Z,french_49.wav,0,pull,555,40,5,3,english,f,1,0.1,-47.89713654,0.82636765
5ce3e7ff90a751001a31a05c,135,2,2024-02-27T14:15:36.919Z,french_49.wav,0,pull,555,40,5,3,english,f,2,0.2,1.74747298,1.60738751
5ce3e7ff90a751001a31a05c,135,2,2024-02-27T14:15:36.919Z,french_49.wav,0,pull,555,40,5,3,english,f,3,0.25666667,24.1153847,0.61367061
5ce3e7ff90a751001a31a05c,136,2,2024-02-27T14:15:36.919Z,french_352.wav,0,pull,1777,40,5,3,english,f,0,0.0,74.68489003,0.29948735
5ce3e7ff90a751001a31a05c,136,2,2024-02-27T14:15:36.919Z,french_352.wav,0,pull,1777,40,5,3,english,f,1,0.1,96.39949195,0.51724136
5ce3e7ff90a751001a31a05c,136,2,2024-02-27T14:15:36.919Z,french_352.wav,0,pull,1777,40,5,3,english,f,2,0.2,90.64764472,1.48158799
5ce3e7ff90a751001a31a05c,136,2,2024-02-27T14:15:36.919Z,french_352.wav,0,pull,1777,40,5,3,english,f,3,0.25666667,65.55341103,0.97952247
5ce3e7ff90a751001a31a05c,137,2,2024-02-27T14:15:36.919Z,french_805.wav,0,pull,363,40,5,3,english,f,0,0.0,21.15897581,1.3244225
5ce3e7ff90a751001a31a05c,137,2,2024-02-27T14:15:36.919Z,french_805.wav,0,pull,363,40,5,3,english,f,1,0.1,-84.51795283,0.68750265
5ce3e7ff90a751001a31a05c,137,2,2024-02-27T14:15:36.919Z,french_805.wav,0,pull,363,40,5,3,english,f,2,0.2,72.20878309,0.56084624
5ce3e7ff90a751001a31a05c,137,2,2024-02-27T14:15:36.919Z,french_805.wav,0,pull,363,40,5,3,english,f,3,0.25666667,-28.14016055,0.45412894
5ce3e7ff90a751001a31a05c,138,2,2024-02-27T14:15:36.919Z,french_909.wav,0,pull,255,40,5,3,english,f,0,0.0,-17.91805132,1.11522258
5ce3e7ff90a751001a31a05c,138,2,2024-02-27T14:15:36.919Z,french_909.wav,0,pull,255,40,5,3,english,f,1,0.1,-79.7145309,0.65372787
5ce3e7ff90a751001a31a05c,138,2,2024-02-27T14:15:36.919Z,french_909.wav,0,pull,255,40,5,3,english,f,2,0.2,-13.28374128,0.18130759
5ce3e7ff90a751001a31a05c,138,2,2024-02-27T14:15:36.919Z,french_909.wav,0,pull,255,40,5,3,english,f,3,0.25666667,80.91359626,1.7666171
5ce3e7ff90a751001a31a05c,139,2,2024-02-27T14:15:36.919Z,french_245.wav,0,pull,162,40,5,3,english,f,0,0.0,-61.74573417,0.99313774
5ce3e7ff90a751001a31a05c,139,2,2024-02-27T14:15:36.919Z,french_245.wav,0,pull,162,40,5,3,english,f,1,0.1,71.88692077,1.19752892
5ce3e7ff90a751001a31a05c,139,2,2024-02-27T14:15:36.919Z,french_245.wav,0,pull,162,40,5,3,english,f,2,0.2,-28.60272728,1.585112
5ce3e7ff90a751001a31a05c,139,2,2024-02-27T14:15:36.919Z,french_245.wav,0,pull,162,40,5,3,english,f,3,0.25666667,-6.96353839,1.16753586
5ce3e7ff90a751001a31a05c,140,2,2024-02-27T14:15:36.919Z,french_233.wav,0,pull,246,40,5,3,english,f,0,0.0,-74.05194232,1.46941626
5ce3e7ff90a751001a31a05c,140,2,2024-02-27T14:15:36.919Z,french_233.wav,0,pull,246,40,5,3,english,f,1,0.1,45.77276391,0.63238632
5ce3e7ff90a751001a31a05c,140,2,2024-02-27T14:15:36.919Z,french_233.wav,0,pull,246,40,5,3,english,f,2,0.2,-37.66213209,1.46686039
5ce3e7ff90a751001a31a05c,140,2,2024-02-27T14:15:36.919Z,french_233.wav,0,pull,246,40,5,3,english,f,3,0.25666667,-32.85858595,1.82755258
5ce3e7ff90a751001a31a05c,141,2,2024-02-27T14:15:36.919Z,french_348.wav,0,poule,459,40,5,3,english,f,0,0.0,68.47734878,1.61227716
5ce3e7ff90a751001a31a05c,141,2,2024-02-27T14:15:36.919Z,french_348.wav,0,poule,459,40,5,3,english,f,1,0.1,54.05190865,0.93770463
5ce3e7ff90a751001a31a05c,141,2,2024-02-27T14:15:36.919Z,french_348.wav,0,poule,459,40,5,3,english,f,2,0.2,0.19125453,1.53689085
5ce3e7ff90a751001a31a05c,141,2,2024-02-27T14:15:36.919Z,french_348.wav,0,poule,459,40,5,3,english,f,3,0.25666667,-34.65909089,1.17337711
5ce3e7ff90a751001a31a05c,142,2,2024-02-27T14:15:36.919Z,french_642.wav,0,poule,201,40,5,3,english,f,0,0.0,94.74505174,1.94145252
5ce3e7ff90a751001a31a05c,142,2,2024-02-27T14:15:36.919Z,french_642.wav,0,poule,201,40,5,3,english,f,1,0.1,-41.90916732,1.43327494
5ce3e7ff90a751001a31a05c,142,2,2024-02-27T14:15:36.919Z,french_642.wav,0,poule,201,40,5,3,english,f,2,0.2,-70.07976965,0.59817774
5ce3e7ff90a751001a31a05c,142,2,2024-02-27T14:15:36.919Z,french_642.wav,0,poule,201,40,5,3,english,f,3,0.25666667,42.72168091,1.11755549
5ce3e7ff90a751001a31a05c,143,2,2024-02-27T14:15:36.919Z,french_103.wav,0,poule,423,40,5,3,english,f,0,0.0,-37.64273041,0.8608001
5ce3e7ff90a751001a31a05c,143,2,2024-02-27T14:15:36.919Z,french_103.wav,0,poule,423,40,5,3,english,f,1,0.1,41.40974178,0.05604445
5ce3e7ff90a751001a31a05c,143,2,2024-02-27T14:15:36.919Z,french_103.wav,0,poule,423,40,5,3,english,f,2,0.2,-53.90098235,0.48473984
5ce3e7ff90a751001a31a05c,143,2,2024-02-27T14:15:36.919Z,french_103.wav,0,poule,423,40,5,3,english,f,3,0.25666667,-57.22614073,0.01055005
5ce3e7ff90a751001a31a05c,144,2,2024-02-27T14:15:36.919Z,french_43.wav,0,poule,146,40,5,3,english,f,0,0.0,-6.86336629,1.4879687
5ce3e7ff90a751001a31a05c,144,2,2024-02-27T14:15:36.919Z,french_43.wav,0,poule,146,40,5,3,english,f,1,0.1,1.3862511,1.50259819
5ce3e7ff90a751001a31a05c,144,2,2024-02-27T14:15:36.919Z,french_43.wav,0,poule,146,40,5,3,english,f,2,0.2,-46.66652787,1.37505073
5ce3e7ff90a751001a31a05c,144,2,2024-02-27T14:15:36.919Z,french_43.wav,0,poule,146,40,5,3,english,f,3,0.25666667,99.62545591,0.7561706
5ce3e7ff90a751001a31a05c,145,2,2024-02-27T14:15:36.919Z,french_392.wav,0,poule,215,40,5,3,english,f,0,0.0,-11.14407327,1.55151156
5ce3e7ff90a751001a31a05c,145,2,2024-02-27T14:15:36.919Z,french_392.wav,0,poule,215,40,5,3,english,f,1,0.1,-20.38505303,0.49285085
5ce3e7ff90a751001a31a05c,145,2,2024-02-27T14:15:36.919Z,french_392.wav,0,poule,215,40,5,3,english,f,2,0.2,21.27154916,0.56092788
5ce3e7ff90a751001a31a05c,145,2,2024-02-27T14:15:36.919Z,french_392.wav,0,poule,215,40,5,3,english,f,3,0.25666667,-29.54267832,1.54424804
5ce3e7ff90a751001a31a05c,146,2,2024-02-27T14:15:36.919Z,french_97.wav,0,pull,357,40,5,3,english,f,0,0.0,-26.25195718,1.78322942
5ce3e7ff90a751001a31a05c,146,2,2024-02-27T14:15:36.919Z,french_97.wav,0,pull,357,40,5,3,english,f,1,0.1,46.36733761,0.61428926
5ce3e7ff90a751001a31a05c,146,2,2024-02-27T14:15:36.919Z,french_97.wav,0,pull,357,40,5,3,english,f,2,0.2,-70.05850246,0.23760427
5ce3e7ff90a751001a31a05c,146,2,2024-02-27T14:15:36.919Z,french_97.wav,0,pull,357,40,5,3,english,f,3,0.25666667,-12.16166803,0.84541126
5ce3e7ff90a751001a31a05c,147,2,2024-02-27T14:15:36.919Z,french_904.wav,0,pull,342,40,5,3,english,f,0,0.0,-3.33486868,1.84649441
5ce3e7ff90a751001a31a05c,147,2,2024-02-27T14:15:36.919Z,french_904.wav,0,pull,342,40,5,3,english,f,1,0.1,-72.00110742,1.91186975
5ce3e7ff90a751001a31a05c,147,2,2024-02-27T14:15:36.919Z,french_904.wav,0,pull,342,40,5,3,english,f,2,0.2,32.54458222,0.71589927
5ce3e7ff90a751001a31a05c,147,2,2024-02-27T14:15:36.919Z,french_904.wav,0,pull,342,40,5,3,english,f,3,0.25666667,13.13318907,0.21658524
5ce3e7ff90a751001a31a05c,148,2,2024-02-27T14:15:36.919Z,french_888.wav,0,pull,813,40,5,3,english,f,0,0.0,-7.09076065,0.01679895
5ce3e7ff90a751001a31a05c,148,2,2024-02-27T14:15:36.919Z,french_888.wav,0,pull,813,40,5,3,english,f,1,0.1,62.1549683,1.75942782
5ce3e7ff90a751001a31a05c,148,2,2024-02-27T14:15:36.919Z,french_888.wav,0,pull,813,40,5,3,english,f,2,0.2,-14.42714579,0.28698877
5ce3e7ff90a751001a31a05c,148,2,2024-02-27T14:15:36.919Z,french_888.wav,0,pull,813,40,5,3,english,f,3,0.25666667,-85.6987995,1.72009857
5ce3e7ff90a751001a31a05c,149,2,2024-02-27T14:15:36.919Z,french_679.wav,0,pull,397,40,5,3,english,f,0,0.0,-12.30272173,0.22564891
5ce3e7ff90a751001a31a05c,149,2,2024-02-27T14:15:36.919Z,french_679.wav,0,pull,397,40,5,3,english,f,1,0.1,-25.8054218,0.32954228
5ce3e7ff90a751001a31a05c,149,2,2024-02-27T14:15:36.919Z,french_679.wav,0,pull,397,40,5,3,english,f,2,0.2,-49.36641871,0.69268874
5ce3e7ff90a751001a31a05c,149,2,2024-02-27T14:15:36.919Z,french_679.wav,0,pull,397,40,5,3,english,f,3,0.25666667,3.29240265,1.86334945
5ce3e7ff90a751001a31a05c,150,3,2024-02-27T14:15:36.919Z,french_231.wav,0,poule,1500,40,5,3,english,f,0,0.0,15.23586761,1.95048297
5ce3e7ff90a751001a31a05c,150,3,2024-02-27T14:15:36.919Z,french_231.wav,0,poule,1500,40,5,3,english,f,1,0.1,15.03275874,1.45451509
5ce3e7ff90a751001a31a05c,150,3,2024-02-27T14:15:36.919Z,french_231.wav,0,poule,1500,40,5,3,english,f,2,0.2,-80.75641997,1.67801628
5ce3e7ff90a751001a31a05c,150,3,2024-02-27T14:15:36.919Z,french_231.wav,0,poule,1500,40,5,3,english,f,3,0.25666667,-36.14562296,1.39710855
5ce3e7ff90a751001a31a05c,151,3,2024-02-27T14:15:36.919Z,french_114.wav,0,poule,260,40,5,3,english,f,0,0.0,36.61172137,1.1665973
5ce3e7ff90a751001a31a05c,151,3,2024-02-27T14:15:36.919Z,french_114.wav,0,poule,260,40,5,3,english,f,1,0.1,1.16528437,0.29978092
5ce3e7ff90a751001a31a05c,151,3,2024-02-27T14:15:36.919Z,french_114.wav,0,poule,260,40,5,3,english,f,2,0.2,91.5106094,1.30847922
5ce3e7ff90a751001a31a05c,151,3,2024-02-27T14:15:36.919Z,french_114.wav,0,poule,260,40,5,3,english,f,3,0.25666667,23.38458366,1.1533172
5ce3e7ff90a751001a31a05c,152,3,2024-02-27T14:15:36.919Z,french_213.wav,0,pull,158,40,5,3,english,f,0,0.0,18.19792563,0.91602818
5ce3e7ff90a751001a31a05c,152,3,2024-02-27T14:15:36.919Z,french_213.wav,0,pull,158,40,5,3,english,f,1,0.1,59.29536603,0.93215034
5ce3e7ff90a751001a31a05c,152,3,2024-02-27T14:15:36.919Z,french_213.wav,0,pull,158,40,5,3,english,f,2,0.2,83.4693574,1.11468909
5ce3e7ff90a751001a31a05c,152,3,2024-02-27T14:15:36.919Z,french_213.wav,0,pull,158,40,5,3,english,f,3,0.25666667,-3.87812814,1.61202928
5ce3e7ff90a751001a31a05c,153,3,2024-02-27T14:15:36.919Z,french_314.wav,0,pull,283,40,5,3,english,f,0,0.0,-41.28420355,0.77087466
5ce3e7ff90a751001a31a05c,153,3,2024-02-27T14:15:36.919Z,french_314.wav,0,pull,283,40,5,3,english,f,1,0.1,38.91630458,0.23409115
5ce3e7ff90a751001a31a05c,153,3,2024-02-27T14:15:36.919Z,french_314.wav,0,pull,283,40,5,3,english,f,2,0.2,24.93775916,0.53304912
5ce3e7ff90a751001a31a05c,153,3,2024-02-27T14:15:36.919Z,french_314.wav,0,pull,283,40,5,3,english,f,3,0.25666667,33.33111791,0.84036245
5ce3e7ff90a751001a31a05c,154,3,2024-02-27T14:15:36.919Z,french_186.wav,0,pull,81,40,5,3,english,f,0,0.0,-80.05391137,1.48946386
5ce3e7ff90a751001a31a05c,154,3,2024-02-27T14:15:36.919Z,french_186.wav,0,pull,81,40,5,3,english,f,1,0.1,-76.4275614,1.35064599
5ce3e7ff90a751001a31a05c,154,3,2024-02-27T14:15:36.919Z,french_186.wav,0,pull,81,40,5,3,english,f,2,0.2,7.24631247,0.88239158
5ce3e7ff90a751001a31a05c,154,3,2024-02-27T14:15:36.919Z,french_186.wav,0,pull,81,40,5,3,english,f,3,0.25666667,-47.449751,1.60975952
5ce3e7ff90a751001a31a05c,155,3,2024-02-27T14:15:36.919Z,french_454.wav,0,pull,120,40,5,3,english,f,0,0.0,-2.34959028,0.74247593
5ce3e7ff90a751001a31a05c,155,3,2024-02-27T14:15:36.919Z,french_454.wav,0,pull,120,40,5,3,english,f,1,0.1,-12.00596157,1.74271244
5ce3e7ff90a751001a31a05c,155,3,2024-02-27T14:15:36.919Z,french_454.wav,0,pull,120,40,5,3,english,f,2,0.2,53.09832594,0.67609159
5ce3e7ff90a751001a31a05c,155,3,2024-02-27T14:15:36.919Z,french_454.wav,0,pull,120,40,5,3,english,f,3,0.25666667,2.06709411,1.84499539
5ce3e7ff90a751001a31a05c,156,3,2024-02-27T14:15:36.919Z,french_777.wav,0,pull,319,40,5,3,english,f,0,0.0,8.03786355,1.59828936
5ce3e7ff90a751001a31a05c,156,3,2024-02-27T14:15:36.919Z,french_777.wav,0,pull,319,40,5,3,english,f,1,0.1,-25.18391206,0.4858639
5ce3e7ff90a751001a31a05c,156,3,2024-02-27T14:15:36.919Z,french_777.wav,0,pull,319,40,5,3,english,f,2,0.2,-83.38753258,1.25666852
5ce3e7ff90a751001a31a05c,156,3,2024-02-27T14:15:36.919Z,french_777.wav,0,pull,319,40,5,3,english,f,3,0.25666667,40.68339476,1.11090511
5ce3e7ff90a751001a31a05c,157,3,2024-02-27T14:15:36.919Z,french_999.wav,0,pull,301,40,5,3,english,f,0,0.0,47.65145935,0.42993564
5ce3e7ff90a751001a31a05c,157,3,2024-02-27T14:15:36.919Z,french_999.wav,0,pull,301,40,5,3,english,f,1,0.1,64.90222313,1.41824969
5ce3e7ff90a751001a31a05c,157,3,2024-02-27T14:15:36.919Z,french_999.wav,0,pull,301,40,5,3,english,f,2,0.2,79.66636989,1.25132817
5ce3e7ff90a751001a31a05c,157,3,2024-02-27T14:15:36.919Z,french_999.wav,0,pull,301,40,5,3,english,f,3,0.25666667,-10.95327426,1.10016678
5ce3e7ff90a751001a31a05c,158,3,2024-02-27T14:15:36.919Z,french_137.wav,0,pull,242,40,5,3,english,f,0,0.0,20.21202866,1.22191513
5ce3e7ff90a751001a31a05c,158,3,2024-02-27T14:15:36.919Z,french_137.wav,0,pull,242,40,5,3,english,f,1,0.1,-42.96009099,0.44902196
5ce3e7ff90a751001a31a05c,158,3,2024-02-27T14:15:36.919Z,french_137.wav,0,pull,242,40,5,3,english,f,2,0.2,15.21981059,0.94630282
5ce3e7ff90a751001a31a05c,158,3,2024-02-27T14:15:36.919Z,french_137.wav,0,pull,242,40,5,3,english,f,3,0.25666667,-16.40384708,1.1991754
5ce3e7ff90a751001a31a05c,159,3,2024-02-27T14:15:36.919Z,french_82.wav,0,pull,284,40,5,3,english,f,0,0.0,82.26293442,0.95636636
5ce3e7ff90a751001a31a05c,159,3,2024-02-27T14:15:36.919Z,french_82.wav,0,pull,284,40,5,3,english,f,1,0.1,-13.98955844,0.8765529
5ce3e7ff90a751001a31a05c,159,3,2024-02-27T14:15:36.919Z,french_82.wav,0,pull,284,40,5,3,english,f,2,0.2,44.8739745,0.75785774
5ce3e7ff90a751001a31a05c,159,3,2024-02-27T14:15:36.919Z,french_82.wav,0,pull,284,40,5,3,english,f,3,0.25666667,23.31967993,0.26363467
5ce3e7ff90a751001a31a05c,160,3,2024-02-27T14:15:36.919Z,french_437.wav,0,pull,181,40,5,3,english,f,0,0.0,59.70067771,0.22659206
5ce3e7ff90a751001a31a05c,160,3,2024-02-27T14:15:36.919Z,french_437.wav,0,pull,181,40,5,3,english,f,1,0.1,78.61233767,0.85429053
5ce3e7ff90a751001a31a05c,160,3,2024-02-27T14:15:36.919Z,french_437.wav,0,pull,181,40,5,3,english,f,2,0.2,76.18154157,1.36297282
5ce3e7ff90a751001a31a05c,160,3,2024-02-27T14:15:36.919Z,french_437.wav,0,pull,181,40,5,3,english,f,3,0.25666667,-54.28538078,1.46039745
5ce3e7ff90a751001a31a05c,161,3,2024-02-27T14:15:36.919Z,french_611.wav,0,pull,4308,40,5,3,english,f,0,0.0,-21.77805362,0.549449
5ce3e7ff90a751001a31a05c,161,3,2024-02-27T14:15:36.919Z,french_611.wav,0,pull,4308,40,5,3,english,f,1,0.1,-45.2722057,0.20224538
5ce3e7ff90a751001a31a05c,161,3,2024-02-27T14:15:36.919Z,french_611.wav,0,pull,4308,40,5,3,english,f,2,0.2,67.02777506,1.0051208
5ce3e7ff90a751001a31a05c,161,3,2024-02-27T14:15:36.919Z,french_611.wav,0,pull,4308,40,5,3,english,f,3,0.25666667,-75.35716628,1.31223223
5ce3e7ff90a751001a31a05c,162,3,2024-02-27T14:15:36.919Z,french_556.wav,0,pull,1022,40,5,3,english,f,0,0.0,57.69742807,1.23910924
5ce3e7ff90a751001a31a05c,162,3,2024-02-27T14:15:36.919Z,french_556.wav,0,pull,1022,40,5,3,english,f,1,0.1,74.69192241,0.49477788
5ce3e7ff90a751001a31a05c,162,3,2024-02-27T14:15:36.919Z,french_556.wav,0,pull,1022,40,5,3,english,f,2,0.2,-92.88512431,1.56323012
5ce3e7ff90a751001a31a05c,162,3,2024-02-27T14:15:36.919Z,french_556.wav,0,pull,1022,40,5,3,english,f,3,0.25666667,27.11476112,1.7455964
5ce3e7ff90a751001a31a05c,163,3,2024-02-27T14:15:36.919Z,french_668.wav,0,pull,626,40,5,3,english,f,0,0.0,44.4696917,0.61167569
5ce3e7ff90a751001a31a05c,163,3,2024-02-27T14:15:36.919Z,french_668.wav,0,pull,626,40,5,3,english,f,1,0.1,63.48880943,0.96933631
5ce3e7ff90a751001a31a05c,163,3,2024-02-27T14:15:36.919Z,french_668.wav,0,pull,626,40,5,3,english,f,2,0.2,96.50351719,1.39779359
5ce3e7ff90a751001a31a05c,163,3,2024-02-27T14:15:36.919Z,french_668.wav,0,pull,626,40,5,3,english,f,3,0.25666667,-38.26923088,1.779663
5ce3e7ff90a751001a31a05c,164,3,2024-02-27T14:15:36.919Z,french_67.wav,0,pull,1012,40,5,3,english,f,0,0.0,-85.58948589,0.63200809
5ce3e7ff90a751001a31a05c,164,3,2024-02-27T14:15:36.919Z,french_67.wav,0,pull,1012,40,5,3,english,f,1,0.1,13.09838054,1.95867716
5ce3e7ff90a751001a31a05c,164,3,2024-02-27T14:15:36.919Z,french_67.wav,0,pull,1012,40,5,3,english,f,2,0.2,-56.56906679,0.48937635
5ce3e7ff90a751001a31a05c,164,3,2024-02-27T14:15:36.919Z,french_67.wav,0,pull,1012,40,5,3,english,f,3,0.25666667,57.4599261,1.24156625
5ce3e7ff90a751001a31a05c,165,3,2024-02-27T14:15:36.919Z,french_628.wav,0,pull,287,40,5,3,english,f,0,0.0,68.49177404,1.08718887
5ce3e7ff90a751001a31a05c,165,3,2024-02-27T14:15:36.919Z,french_628.wav,0,pull,287,40,5,3,english,f,1,0.1,-37.23139728,1.92014291
5ce3e7ff90a751001a31a05c,165,3,2024-02-27T14:15:36.919Z,french_628.wav,0,pull,287,40,5,3,english,f,2,0.2,-66.57894256,1.74485312
5ce3e7ff90a751001a31a05c,165,3,2024-02-27T14:15:36.919Z,french_628.wav,0,pull,287,40,5,3,english,f,3,0.25666667,94.63403104,1.25946788
5ce3e7ff90a751001a31a05c,166,3,2024-02-27T14:15:36.919Z,french_942.wav,0,poule,627,40,5,3,english,f,0,0.0,-53.20970077,1.55725844
5ce3e7ff90a751001a31a05c,166,3,2024-02-27T14:15:36.919Z,french_942.wav,0,poule,627,40,5,3,english,f,1,0.1,-81.68739914,1.2093944
5ce3e7ff90a751001a31a05c,166,3,2024-02-27T14:15:36.919Z,french_942.wav,0,poule,627,40,5,3,english,f,2,0.2,39.47129185,0.05517711
5ce3e7ff90a751001a31a05c,166,3,2024-02-27T14:15:36.919Z,french_942.wav,0,poule,627,40,5,3,english,f,3,0.25666667,-77.13084916,1.56672295
5ce3e7ff90a751001a31a05c,167,3,2024-02-27T14:15:36.919Z,french_799.wav,0,poule,484,40,5,3,english,f,0,0.0,-36.40535669,1.51597666
5ce3e7ff90a751001a31a05c,167,3,2024-02-27T14:15:36.919Z,french_799.wav,0,poule,484,40,5,3,english,f,1,0.1,61.69828746,0.87708619
5ce3e7ff90a751001a31a05c,167,3,2024-02-27T14:15:36.919Z,french_799.wav,0,poule,484,40,5,3,english,f,2,0.2,66.97541187,1.35480731
5ce3e7ff90a751001a31a05c,167,3,2024-02-27T14:15:36.919Z,french_799.wav,0,poule,484,40,5,3,english,f,3,0.25666667,-86.21475416,0.58642825
5ce3e7ff90a751001a31a05c,168,3,2024-02-27T14:15:36.919Z,french_956.wav,0,poule,334,40,5,3,english,f,0,0.0,-17.2568339,1.05718214
5ce3e7ff90a751001a31a05c,168,3,2024-02-27T14:15:36.919Z,french_956.wav,0,poule,334,40,5,3,english,f,1,0.1,60.67626876,1.43914937
5ce3e7ff90a751001a31a05c,168,3,2024-02-27T14:15:36.919Z,french_956.wav,0,poule,334,40,5,3,english,f,2,0.2,40.71216363,0.83140318
5ce3e7ff90a751001a31a05c,168,3,2024-02-27T14:15:36.919Z,french_956.wav,0,poule,334,40,5,3,english,f,3,0.25666667,16.50619481,0.14426626
5ce3e7ff90a751001a31a05c,169,3,2024-02-27T14:15:36.919Z,french_22.wav,0,poule,364,40,5,3,english,f,0,0.0,71.14052921,0.14678418
5ce3e7ff90a751001a31a05c,169,3,2024-02-27T14:15:36.919Z,french_22.wav,0,poule,364,40,5,3,english,f,1,0.1,32.6622244,0.81024714
5ce3e7ff90a751001a31a05c,169,3,2024-02-27T14:15:36.919Z,french_22.wav,0,poule,364,40,5,3,english,f,2,0.2,96.1292121,1.14392668
5ce3e7ff90a751001a31a05c,169,3,2024-02-27T14:15:36.919Z,french_22.wav,0,poule,364,40,5,3,english,f,3,0.25666667,65.79523532,1.62437335
5ce3e7ff90a751001a31a05c,170,3,2024-02-27T14:15:36.919Z,french_714.wav,0,poule,327,40,5,3,english,f,0,0.0,77.35355583,0.35690042
5ce3e7ff90a751001a31a05c,170,3,2024-02-27T14:15:36.919Z,french_714.wav,0,poule,327,40,5,3,english,f,1,0.1,-16.5812175,0.7400083
5ce3e7ff90a751001a31a05c,170,3,2024-02-27T14:15:36.919Z,french_714.wav,0,poule,327,40,5,3,english,f,2,0.2,-79.42314022,1.17849399
5ce3e7ff90a751001a31a05c,170,3,2024-02-27T14:15:36.919Z,french_714.wav,0,poule,327,40,5,3,english,f,3,0.25666667,64.71981705,1.38365213
5ce3e7ff90a751001a31a05c,171,3,2024-02-27T14:15:36.919Z,french_696.wav,0,poule,276,40,5,3,english,f,0,0.0,39.34258856,1.15492287
5ce3e7ff90a751001a31a05c,171,3,2024-02-27T14:15:36.919Z,french_696.wav,0,poule,276,40,5,3,english,f,1,0.1,16.85699936,0.81118798
5ce3e7ff90a751001a31a05c,171,3,2024-02-27T14:15:36.919Z,french_696.wav,0,poule,276,40,5,3,english,f,2,0.2,-58.01570434,0.43841119
5ce3e7ff90a751001a31a05c,171,3,2024-02-27T14:15:36.919Z,french_696.wav,0,poule,276,40,5,3,english,f,3,0.25666667,-91.70212518,1.32812972
5ce3e7ff90a751001a31a05c,172,3,2024-02-27T14:15:36.919Z,french_800.wav,0,pull,852,40,5,3,english,f,0,0.0,43.61588251,1.33995655
5ce3e7ff90a751001a31a05c,172,3,2024-02-27T14:15:36.919Z,french_800.wav,0,pull,852,40,5,3,english,f,1,0.1,-17.8471941,0.26774995
5ce3e7ff90a751001a31a05c,172,3,2024-02-27T14:15:36.919Z,french_800.wav,0,pull,852,40,5,3,english,f,2,0.2,-10.2363333,0.87274599
5ce3e7ff90a751001a31a05c,172,3,2024-02-27T14:15:36.919Z,french_800.wav,0,pull,852,40,5,3,english,f,3,0.25666667,-85.1878963,0.37568781
5ce3e7ff90a751001a31a05c,173,3,2024-02-27T14:15:36.919Z,french_459.wav,0,pull,687,40,5,3,english,f,0,0.0,4.79398058,1.10654006
5ce3e7ff90a751001a31a05c,173,3,2024-02-27T14:15:36.919Z,french_459.wav,0,pull,687,40,5,3,english,f,1,0.1,85.90612859,1.2996969
5ce3e7ff90a751001a31a05c,173,3,2024-02-27T14:15:36.919Z,french_459.wav,0,pull,687,40,5,3,english,f,2,0.2,-69.41023595,0.20520219
5ce3e7ff90a751001a31a05c,173,3,2024-02-27T14:15:36.919Z,french_459.wav,0,pull,687,40,5,3,english,f,3,0.25666667,-22.07588814,1.17361701
5ce3e7ff90a751001a31a05c,174,3,2024-02-27T14:15:36.919Z,french_876.wav,0,poule,294,40,5,3,english,f,0,0.0,-63.60663495,1.31328738
5ce3e7ff90a751001a31a05c,174,3,2024-02-27T14:15:36.919Z,french_876.wav,0,poule,294,40,5,3,english,f,1,0.1,-33.069551,1.53761103
5ce3e7ff90a751001a31a05c,174,3,2024-02-27T14:15:36.919Z,french_876.wav,0,poule,294,40,5,3,english,f,2,0.2,44.38072254,1.15738415
5ce3e7ff90a751001a31a05c,174,3,2024-02-27T14:15:36.919Z,french_876.wav,0,poule,294,40,5,3,english,f,3,0.25666667,3.25210733,1.33428182
5ce3e7ff90a751001a31a05c,175,3,2024-02-27T14:15:36.919Z,french_102.wav,0,pull,402,40,5,3,english,f,0,0.0,-35.05732124,0.80503012
5ce3e7ff90a751001a31a05c,175,3,2024-02-27T14:15:36.919Z,french_102.wav,0,pull,402,40,5,3,english,f,1,0.1,-31.3998515,0.92419399
5ce3e7ff90a751001a31a05c,175,3,2024-02-27T14:15:36.919Z,french_102.wav,0,pull,402,40,5,3,english,f,2,0.2,50.13452687,0.90539345
5ce3e7ff90a751001a31a05c,175,3,2024-02-27T14:15:36.919Z,french_102.wav,0,pull,402,40,5,3,english,f,3,0.25666667,-7.4892707,1.70363197
5ce3e7ff90a751001a31a05c,176,3,2024-02-27T14:15:36.919Z,french_428.wav,0,pull,454,40,5,3,english,f,0,0.0,32.54087273,1.95600578
5ce3e7ff90a751001a31a05c,176,3,2024-02-27T14:15:36.919Z,french_428.wav,0,pull,454,40,5,3,english,f,1,0.1,-45.07567034,1.3753822
5ce3e7ff90a751001a31a05c,176,3,2024-02-27T14:15:36.919Z,french_428.wav,0,pull,454,40,5,3,english,f,2,0.2,23.18683175,0.5862849
5ce3e7ff90a751001a31a05c,176,3,2024-02-27T14:15:36.919Z,french_428.wav,0,pull,454,40,5,3,english,f,3,0.25666667,-58.08389968,0.11110367
5ce3e7ff90a751001a31a05c,177,3,2024-02-27T14:15:36.919Z,french_438.wav,0,poule,690,40,5,3,english,f,0,0.0,38.28600595,0.24947118
5ce3e7ff90a751001a31a05c,177,3,2024-02-27T14:15:36.919Z,french_438.wav,0,poule,690,40,5,3,english,f,1,0.1,-2.73615403,0.88566368
5ce3e7ff90a751001a31a05c,177,3,2024-02-27T14:15:36.919Z,french_438.wav,0,poule,690,40,5,3,english,f,2,0.2,-43.32822043,0.23078024
5ce3e7ff90a751001a31a05c,177,3,2024-02-27T14:15:36.919Z,french_438.wav,0,poule,690,40,5,3,english,f,3,0.25666667,-21.43836029,1.64360752
5ce3e7ff90a751001a31a05c,178,3,2024-02-27T14:15:36.919Z,french_112.wav,0,pull,405,40,5,3,english,f,0,0.0,-70.30580716,0.18088618
5ce3e7ff90a751001a31a05c,178,3,2024-02-27T14:15:36.919Z,french_112.wav,0,pull,405,40,5,3,english,f,1,0.1,33.64373442,1.43869791
5ce3e7ff90a751001a31a05c,178,3,2024-02-27T14:15:36.919Z,french_112.wav,0,pull,405,40,5,3,english,f,2,0.2,26.55830463,0.89230346
5ce3e7ff90a751001a31a05c,178,3,2024-02-27T14:15:36.919Z,french_112.wav,0,pull,405,40,5,3,english,f,3,0.25666667,46.16769785,0.14009493
5ce3e7ff90a751001a31a05c,179,3,2024-02-27T14:15:36.919Z,french_378.wav,0,pull,420,40,5,3,english,f,0,0.0,74.25757507,1.44636003
5ce3e7ff90a751001a31a05c,179,3,2024-02-27T14:15:36.919Z,french_378.wav,0,pull,420,40,5,3,english,f,1,0.1,69.54270197,0.18429149
5ce3e7ff90a751001a31a05c,179,3,2024-02-27T14:15:36.919Z,french_378.wav,0,pull,420,40,5,3,english,f,2,0.2,91.83328043,0.75177649
5ce3e7ff90a751001a31a05c,179,3,2024-02-27T14:15:36.919Z,french_378.wav,0,pull,420,40,5,3,english,f,3,0.25666667,65.12199987,0.49263706
5ce3e7ff90a751001a31a05c,180,3,2024-02-27T14:15:36.919Z,french_837.wav,0,poule,579,40,5,3,english,f,0,0.0,12.86528577,1.70928146
5ce3e7ff90a751001a31a05c,180,3,2024-02-27T14:15:36.919Z,french_837.wav,0,poule,579,40,5,3,english,f,1,0.1,80.83337189,0.14925978
5ce3e7ff90a751001a31a05c,180,3,2024-02-27T14:15:36.919Z,french_837.wav,0,poule,579,40,5,3,english,f,2,0.2,-88.94110826,0.83215091
5ce3e7ff90a751001a31a05c,180,3,2024-02-27T14:15:36.919Z,french_837.wav,0,poule,579,40,5,3,english,f,3,0.25666667,32.10555955,1.23671449
5ce3e7ff90a751001a31a05c,181,3,2024-02-27T14:15:36.919Z,french_832.wav,0,poule,225,40,5,3,english,f,0,0.0,72.4957568,1.55241154
5ce3e7ff90a751001a31a05c,181,3,2024-02-27T14:15:36.919Z,french_832.wav,0,poule,225,40,5,3,english,f,1,0.1,-42.52759542,0.51342339
5ce3e7ff90a751001a31a05c,181,3,2024-02-27T14:15:36.919Z,french_832.wav,0,poule,225,40,5,3,english,f,2,0.2,-19.34515336,1.23436829
5ce3e7ff90a751001a31a05c,181,3,2024-02-27T14:15:36.919Z,french_832.wav,0,poule,225,40,5,3,english,f,3,0.25666667,29.69631954,0.63501701
5ce3e7ff90a751001a31a05c,182,3,2024-02-27T14:15:36.919Z,french_426.wav,0,poule,352,40,5,3,english,f,0,0.0,94.83015244,1.95768421
5ce3e7ff90a751001a31a05c,182,3,2024-02-27T14:15:36.919Z,french_426.wav,0,poule,352,40,5,3,english,f,1,0.1,80.74954266,0.5170286
5ce3e7ff90a751001a31a05c,182,3,2024-02-27T14:15:36.919Z,french_426.wav,0,poule,352,40,5,3,english,f,2,0.2,14.22402444,0.27456075
5ce3e7ff90a751001a31a05c,182,3,2024-02-27T14:15:36.919Z,french_426.wav,0,poule,352,40,5,3,english,f,3,0.25666667,92.85203769,1.53042381
5ce3e7ff90a751001a31a05c,183,3,2024-02-27T14:15:36.919Z,french_117.wav,0,poule,161,40,5,3,english,f,0,0.0,6.74214439,0.42718416
5ce3e7ff90a751001a31a05c,183,3,2024-02-27T14:15:36.919Z,french_117.wav,0,poule,161,40,5,3,english,f,1,0.1,3.15736066,1.82203077
5ce3e7ff90a751001a31a05c,183,3,2024-02-27T14:15:36.919Z,french_117.wav,0,poule,161,40,5,3,english,f,2,0.2,10.42128043,0.49696174
5ce3e7ff90a751001a31a05c,183,3,2024-02-27T14:15:36.919Z,french_117.wav,0,poule,161,40,5,3,english,f,3,0.25666667,89.20041031,0.34350523
5ce3e7ff90a751001a31a05c,184,3,2024-02-27T14:15:36.919Z,french_310.wav,0,poule,214,40,5,3,english,f,0,0.0,-83.78338178,0.11877442
5ce3e7ff90a751001a31a05c,184,3,2024-02-27T14:15:36.919Z,french_310.wav,0,poule,214,40,5,3,english,f,1,0.1,-13.73891655,1.32851017
5ce3e7ff90a751001a31a05c,184,3,2024-02-27T14:15:36.919Z,french_310.wav,0,poule,214,40,5,3,english,f,2,0.2,58.07821313,0.76082745
5ce3e7ff90a751001a31a05c,184,3,2024-02-27T14:15:36.919Z,french_310.wav,0,poule,214,40,5,3,english,f,3,0.25666667,26.26954934,1.37378881
5ce3e7ff90a751001a31a05c,185,3,2024-02-27T14:15:36.919Z,french_136.wav,0,poule,151,40,5,3,english,f,0,0.0,-19.24670356,0.58320819
5ce3e7ff90a751001a31a05c,185,3,2024-02-27T14:15:36.919Z,french_136.wav,0,poule,151,40,5,3,english,f,1,0.1,-19.07264886,1.75711633
5ce3e7ff90a751001a31a05c,185,3,2024-02-27T14:15:36.919Z,french_136.wav,0,poule,151,40,5,3,english,f,2,0.2,-15.66011034,0.20485265
5ce3e7ff90a751001a31a05c,185,3,2024-02-27T14:15:36.919Z,french_136.wav,0,poule,151,40,5,3,english,f,3,0.25666667,-21.38655245,0.63500763
5ce3e7ff90a751001a31a05c,186,3,2024-02-27T14:15:36.919Z,french_960.wav,0,pull,1040,40,5,3,english,f,0,0.0,-21.44081237,0.51475761
5ce3e7ff90a751001a31a05c,186,3,2024-02-27T14:15:36.919Z,french_960.wav,0,pull,1040,40,5,3,english,f,1,0.1,-88.4923718,1.11613408
5ce3e7ff90a751001a31a05c,186,3,2024-02-27T14:15:36.919Z,french_960.wav,0,pull,1040,40,5,3,english,f,2,0.2,38.79957112,0.09358172
5ce3e7ff90a751001a31a05c,186,3,2024-02-27T14:15:36.919Z,french_960.wav,0,pull,1040,40,5,3,english,f,3,0.25666667,-94.67313386,1.96196729
5ce3e7ff90a751001a31a05c,187,3,2024-02-27T14:15:36.919Z,french_309.wav,0,pull,970,40,5,3,english,f,0,0.0,-43.78964232,0.29425556
5ce3e7ff90a751001a31a05c,187,3,2024-02-27T14:15:36.919Z,french_309.wav,0,pull,970,40,5,3,english,f,1,0.1,78.2069368,1.94220297
5ce3e7ff90a751001a31a05c,187,3,2024-02-27T14:15:36.919Z,french_309.wav,0,pull,970,40,5,3,english,f,2,0.2,-31.15110399,1.27018493
5ce3e7ff90a751001a31a05c,187,3,2024-02-27T14:15:36.919Z,french_309.wav,0,pull,970,40,5,3,english,f,3,0.25666667,-73.94684578,1.0788176
5ce3e7ff90a751001a31a05c,188,3,2024-02-27T14:15:36.919Z,french_306.wav,0,poule,739,40,5,3,english,f,0,0.0,22.4772117,0.91979461
5ce3e7ff90a751001a31a05c,188,3,2024-02-27T14:15:36.919Z,french_306.wav,0,poule,739,40,5,3,english,f,1,0.1,-23.30683659,1.83006101
5ce3e7ff90a751001a31a05c,188,3,2024-02-27T14:15:36.919Z,french_306.wav,0,poule,739,40,5,3,english,f,2,0.2,-85.44667034,1.25602607
5ce3e7ff90a751001a31a05c,188,3,2024-02-27T14:15:36.919Z,french_306.wav,0,poule,739,40,5,3,english,f,3,0.25666667,-79.47374411,0.84497865
5ce3e7ff90a751001a31a05c,189,3,2024-02-27T14:15:36.919Z,french_790.wav,0,pull,837,40,5,3,english,f,0,0.0,-78.0899986,0.03777082
5ce3e7ff90a751001a31a05c,189,3,2024-02-27T14:15:36.919Z,french_790.wav,0,pull,837,40,5,3,english,f,1,0.1,-13.38999599,1.54425687
5ce3e7ff90a751001a31a05c,189,3,2024-02-27T14:15:36.919Z,french_790.wav,0,pull,837,40,5,3,english,f,2,0.2,-59.88967217,0.07634696
5ce3e7ff90a751001a31a05c,189,3,2024-02-27T14:15:36.919Z,french_790.wav,0,pull,837,40,5,3,english,f,3,0.25666667,34.06701256,1.62279479
5ce3e7ff90a751001a31a05c,190,3,2024-02-27T14:15:36.919Z,french_502.wav,0,pull,585,40,5,3,english,f,0,0.0,-20.79410197,1.55473715
5ce3e7ff90a751001a31a05c,190,3,2024-02-27T14:15:36.919Z,french_502.wav,0,pull,585,40,5,3,english,f,1,0.1,-29.31354171,0.75660833
5ce3e7ff90a751001a31a05c,190,3,2024-02-27T14:15:36.919Z,french_502.wav,0,pull,585,40,5,3,english,f,2,0.2,66.76157716,1.40053341
5ce3e7ff90a751001a31a05c,190,3,2024-02-27T14:15:36.919Z,french_502.wav,0,pull,585,40,5,3,english,f,3,0.25666667,63.6653431,1.0602207
5ce3e7ff90a751001a31a05c,191,3,2024-02-27T14:15:36.919Z,french_591.wav,0,pull,352,40,5,3,english,f,0,0.0,2.66615607,1.05020949
5ce3e7ff90a751001a31a05c,191,3,2024-02-27T14:15:36.919Z,french_591.wav,0,pull,352,40,5,3,english,f,1,0.1,-24.26502045,0.55521736
5ce3e7ff90a751001a31a05c,191,3,2024-02-27T14:15:36.919Z,french_591.wav,0,pull,352,40,5,3,english,f,2,0.2,-31.81388833,0.20807215
5ce3e7ff90a751001a31a05c,191,3,2024-02-27T14:15:36.919Z,french_591.wav,0,pull,352,40,5,3,english,f,3,0.25666667,34.70768216,1.08119284
5ce3e7ff90a751001a31a05c,192,3,2024-02-27T14:15:36.919Z,french_420.wav,0,pull,150,40,5,3,english,f,0,0.0,-21.03631645,1.00707818
