subj,trial,block,date,stim,stim_order,response,rt,age,english,french,language,sex,param_index,segment,pitch,stretch
5c71ec3f2d666100018c6fee,0,0,2024-02-27T14:10:41.670Z,french_428.wav,0,poule,1595,23,5,2,english,m,0,0.0,32.54087273,1.95600578
5c71ec3f2d666100018c6fee,0,0,2024-02-27T14:10:41.670Z,french_428.wav,0,poule,1595,23,5,2,english,m,1,0.1,-45.07567034,1.3753822
5c71ec3f2d666100018c6fee,0,0,2024-02-27T14:10:41.670Z,french_428.wav,0,poule,1595,23,5,2,english,m,2,0.2,23.18683175,0.5862849
5c71ec3f2d666100018c6fee,0,0,2024-02-27T14:10:41.670Z,french_428.wav,0,poule,1595,23,5,2,english,m,3,0.25666667,-58.08389968,0.11110367
5c71ec3f2d666100018c6fee,1,0,2024-02-27T14:10:41.670Z,french_569.wav,0,poule,2998,23,5,2,english,m,0,0.0,14.0156596,1.29627558
5c71ec3f2d666100018c6fee,1,0,2024-02-27T14:10:41.670Z,french_569.wav,0,poule,2998,23,5,2,english,m,1,0.1,85.00283799,1.08637511
5c71ec3f2d666100018c6fee,1,0,2024-02-27T14:10:41.670Z,french_569.wav,0,poule,2998,23,5,2,english,m,2,0.2,-53.61423207,1.60007367
5c71ec3f2d666100018c6fee,1,0,2024-02-27T14:10:41.670Z,french_569.wav,0,poule,2998,23,5,2,english,m,3,0.25666667,-38.88478833,0.57872623
5c71ec3f2d666100018c6fee,2,0,2024-02-27T14:10:41.670Z,french_263.wav,0,pull,514,23,5,2,english,m,0,0.0,25.02930943,0.29249845
5c71ec3f2d666100018c6fee,2,0,2024-02-27T14:10:41.670Z,french_263.wav,0,pull,514,23,5,2,english,m,1,0.1,77.59070044,1.82268286
5c71ec3f2d666100018c6fee,2,0,2024-02-27T14:10:41.670Z,french_263.wav,0,pull,514,23,5,2,english,m,2,0.2,61.13366196,0.69638669
5c71ec3f2d666100018c6fee,2,0,2024-02-27T14:10:41.670Z,french_263.wav,0,pull,514,23,5,2,english,m,3,0.25666667,-46.58539851,0.57279137
5c71ec3f2d666100018c6fee,3,0,2024-02-27T14:10:41.670Z,french_137.wav,0,poule,2600,23,5,2,english,m,0,0.0,20.21202866,1.22191513
5c71ec3f2d666100018c6fee,3,0,2024-02-27T14:10:41.670Z,french_137.wav,0,poule,2600,23,5,2,english,m,1,0.1,-42.96009099,0.44902196
5c71ec3f2d666100018c6fee,3,0,2024-02-27T14:10:41.670Z,french_137.wav,0,poule,2600,23,5,2,english,m,2,0.2,15.21981059,0.94630282
5c71ec3f2d666100018c6fee,3,0,2024-02-27T14:10:41.670Z,french_137.wav,0,poule,2600,23,5,2,english,m,3,0.25666667,-16.40384708,1.1991754
5c71ec3f2d666100018c6fee,4,0,2024-02-27T14:10:41.670Z,french_13.wav,0,poule,971,23,5,2,english,m,0,0.0,-32.13252367,0.96861247
5c71ec3f2d666100018c6fee,4,0,2024-02-27T14:10:41.670Z,french_13.wav,0,poule,971,23,5,2,english,m,1,0.1,70.64746455,0.7552715
5c71ec3f2d666100018c6fee,4,0,2024-02-27T14:10:41.670Z,french_13.wav,0,poule,971,23,5,2,english,m,2,0.2,-67.50971173,1.7097775
5c71ec3f2d666100018c6fee,4,0,2024-02-27T14:10:41.670Z,french_13.wav,0,poule,971,23,5,2,english,m,3,0.25666667,94.74832862,1.62121013
5c71ec3f2d666100018c6fee,5,0,2024-02-27T14:10:41.670Z,french_384.wav,0,poule,801,23,5,2,english,m,0,0.0,96.27107524,0.63462189
5c71ec3f2d666100018c6fee,5,0,2024-02-27T14:10:41.670Z,french_384.wav,0,poule,801,23,5,2,english,m,1,0.1,31.19825585,1.63064356
5c71ec3f2d666100018c6fee,5,0,2024-02-27T14:10:41.670Z,french_384.wav,0,poule,801,23,5,2,english,m,2,0.2,59.60884037,0.96291672
5c71ec3f2d666100018c6fee,5,0,2024-02-27T14:10:41.670Z,french_384.wav,0,poule,801,23,5,2,english,m,3,0.25666667,90.96213602,1.24636593
5c71ec3f2d666100018c6fee,6,0,2024-02-27T14:10:41.670Z,french_361.wav,0,pull,2024,23,5,2,english,m,0,0.0,-18.04801315,1.02641127
5c71ec3f2d666100018c6fee,6,0,2024-02-27T14:10:41.670Z,french_361.wav,0,pull,2024,23,5,2,english,m,1,0.1,93.73679052,0.21625505
5c71ec3f2d666100018c6fee,6,0,2024-02-27T14:10:41.670Z,french_361.wav,0,pull,2024,23,5,2,english,m,2,0.2,42.88870655,1.63254817
5c71ec3f2d666100018c6fee,6,0,2024-02-27T14:10:41.670Z,french_361.wav,0,pull,2024,23,5,2,english,m,3,0.25666667,45.1087167,0.1659632
5c71ec3f2d666100018c6fee,7,0,2024-02-27T14:10:41.670Z,french_669.wav,0,poule,704,23,5,2,english,m,0,0.0,0.0785638242,1.32851713
5c71ec3f2d666100018c6fee,7,0,2024-02-27T14:10:41.670Z,french_669.wav,0,poule,704,23,5,2,english,m,1,0.1,6.42084207,1.65603836
5c71ec3f2d666100018c6fee,7,0,2024-02-27T14:10:41.670Z,french_669.wav,0,poule,704,23,5,2,english,m,2,0.2,84.3922519,1.32676382
5c71ec3f2d666100018c6fee,7,0,2024-02-27T14:10:41.670Z,french_669.wav,0,poule,704,23,5,2,english,m,3,0.256666667,1.87399725,0.80161972
5c71ec3f2d666100018c6fee,8,0,2024-02-27T14:10:41.670Z,french_958.wav,0,pull,786,23,5,2,english,m,0,0.0,70.65905064,0.553928
5c71ec3f2d666100018c6fee,8,0,2024-02-27T14:10:41.670Z,french_958.wav,0,pull,786,23,5,2,english,m,1,0.1,35.26497317,0.45560148
5c71ec3f2d666100018c6fee,8,0,2024-02-27T14:10:41.670Z,french_958.wav,0,pull,786,23,5,2,english,m,2,0.2,64.29920798,1.65592314
5c71ec3f2d666100018c6fee,8,0,2024-02-27T14:10:41.670Z,french_958.wav,0,pull,786,23,5,2,english,m,3,0.25666667,78.52381542,1.53733
5c71ec3f2d666100018c6fee,9,0,2024-02-27T14:10:41.670Z,french_165.wav,0,pull,1991,23,5,2,english,m,0,0.0,34.81781775,0.27086967
5c71ec3f2d666100018c6fee,9,0,2024-02-27T14:10:41.670Z,french_165.wav,0,pull,1991,23,5,2,english,m,1,0.1,-0.63630456,1.42196963
5c71ec3f2d666100018c6fee,9,0,2024-02-27T14:10:41.670Z,french_165.wav,0,pull,1991,23,5,2,english,m,2,0.2,85.92593744,1.99513726
5c71ec3f2d666100018c6fee,9,0,2024-02-27T14:10:41.670Z,french_165.wav,0,pull,1991,23,5,2,english,m,3,0.25666667,7.56589877,0.37439059
5c71ec3f2d666100018c6fee,10,0,2024-02-27T14:10:41.670Z,french_282.wav,0,pull,643,23,5,2,english,m,0,0.0,-97.43488085,0.55303377
5c71ec3f2d666100018c6fee,10,0,2024-02-27T14:10:41.670Z,french_282.wav,0,pull,643,23,5,2,english,m,1,0.1,96.20897113,1.41145651
5c71ec3f2d666100018c6fee,10,0,2024-02-27T14:10:41.670Z,french_282.wav,0,pull,643,23,5,2,english,m,2,0.2,27.16020646,1.83661618
5c71ec3f2d666100018c6fee,10,0,2024-02-27T14:10:41.670Z,french_282.wav,0,pull,643,23,5,2,english,m,3,0.25666667,-13.14092169,0.36912502
5c71ec3f2d666100018c6fee,11,0,2024-02-27T14:10:41.670Z,french_356.wav,0,pull,472,23,5,2,english,m,0,0.0,-28.24477507,0.35227097
5c71ec3f2d666100018c6fee,11,0,2024-02-27T14:10:41.670Z,french_356.wav,0,pull,472,23,5,2,english,m,1,0.1,-36.63699676,1.16218152
5c71ec3f2d666100018c6fee,11,0,2024-02-27T14:10:41.670Z,french_356.wav,0,pull,472,23,5,2,english,m,2,0.2,67.9524461,1.82395355
5c71ec3f2d666100018c6fee,11,0,2024-02-27T14:10:41.670Z,french_356.wav,0,pull,472,23,5,2,english,m,3,0.25666667,8.53170414,1.63669257
5c71ec3f2d666100018c6fee,12,0,2024-02-27T14:10:41.670Z,french_61.wav,0,poule,471,23,5,2,english,m,0,0.0,65.32887924,1.15653785
5c71ec3f2d666100018c6fee,12,0,2024-02-27T14:10:41.670Z,french_61.wav,0,poule,471,23,5,2,english,m,1,0.1,45.09641809,1.72373813
5c71ec3f2d666100018c6fee,12,0,2024-02-27T14:10:41.670Z,french_61.wav,0,poule,471,23,5,2,english,m,2,0.2,-37.75339878,1.38726196
5c71ec3f2d666100018c6fee,12,0,2024-02-27T14:10:41.670Z,french_61.wav,0,poule,471,23,5,2,english,m,3,0.25666667,87.5089899,0.41594812
5c71ec3f2d666100018c6fee,13,0,2024-02-27T14:10:41.670Z,french_374.wav,0,pull,719,23,5,2,english,m,0,0.0,23.12233407,0.63582229
5c71ec3f2d666100018c6fee,13,0,2024-02-27T14:10:41.670Z,french_374.wav,0,pull,719,23,5,2,english,m,1,0.1,4.88786521,0.48218095
5c71ec3f2d666100018c6fee,13,0,2024-02-27T14:10:41.670Z,french_374.wav,0,pull,719,23,5,2,english,m,2,0.2,75.40336837,0.81003499
5c71ec3f2d666100018c6fee,13,0,2024-02-27T14:10:41.670Z,french_374.wav,0,pull,719,23,5,2,english,m,3,0.25666667,-52.23092949,1.31471089
5c71ec3f2d666100018c6fee,14,0,2024-02-27T14:10:41.670Z,french_591.wav,0,pull,1717,23,5,2,english,m,0,0.0,2.66615607,1.05020949
5c71ec3f2d666100018c6fee,14,0,2024-02-27T14:10:41.670Z,french_591.wav,0,pull,1717,23,5,2,english,m,1,0.1,-24.26502045,0.55521736
5c71ec3f2d666100018c6fee,14,0,2024-02-27T14:10:41.670Z,french_591.wav,0,pull,1717,23,5,2,english,m,2,0.2,-31.81388833,0.20807215
5c71ec3f2d666100018c6fee,14,0,2024-02-27T14:10:41.670Z,french_591.wav,0,pull,1717,23,5,2,english,m,3,0.25666667,34.70768216,1.08119284
5c71ec3f2d666100018c6fee,15,0,2024-02-27T14:10:41.670Z,french_441.wav,0,poule,491,23,5,2,english,m,0,0.0,-52.65918707,0.98643262
5c71ec3f2d666100018c6fee,15,0,2024-02-27T14:10:41.670Z,french_441.wav,0,poule,491,23,5,2,english,m,1,0.1,-61.65013116,1.35237654
5c71ec3f2d666100018c6fee,15,0,2024-02-27T14:10:41.670Z,french_441.wav,0,poule,491,23,5,2,english,m,2,0.2,34.26317373,1.5364694
5c71ec3f2d666100018c6fee,15,0,2024-02-27T14:10:41.670Z,french_441.wav,0,poule,491,23,5,2,english,m,3,0.25666667,30.98760828,1.29655121
5c71ec3f2d666100018c6fee,16,0,2024-02-27T14:10:41.670Z,french_622.wav,0,poule,343,23,5,2,english,m,0,0.0,47.12624694,0.11708635
5c71ec3f2d666100018c6fee,16,0,2024-02-27T14:10:41.670Z,french_622.wav,0,poule,343,23,5,2,english,m,1,0.1,27.16283734,1.67756831
5c71ec3f2d666100018c6fee,16,0,2024-02-27T14:10:41.670Z,french_622.wav,0,poule,343,23,5,2,english,m,2,0.2,55.37707654,0.50575055
5c71ec3f2d666100018c6fee,16,0,2024-02-27T14:10:41.670Z,french_622.wav,0,poule,343,23,5,2,english,m,3,0.25666667,-3.25728377,0.46543416
5c71ec3f2d666100018c6fee,17,0,2024-02-27T14:10:41.670Z,french_895.wav,0,poule,309,23,5,2,english,m,0,0.0,52.32100115,0.06001912
5c71ec3f2d666100018c6fee,17,0,2024-02-27T14:10:41.670Z,french_895.wav,0,poule,309,23,5,2,english,m,1,0.1,-68.39097894,0.92594104
5c71ec3f2d666100018c6fee,17,0,2024-02-27T14:10:41.670Z,french_895.wav,0,poule,309,23,5,2,english,m,2,0.2,86.56169168,1.18275101
5c71ec3f2d666100018c6fee,17,0,2024-02-27T14:10:41.670Z,french_895.wav,0,poule,309,23,5,2,english,m,3,0.25666667,-55.69575084,0.90868208
5c71ec3f2d666100018c6fee,18,0,2024-02-27T14:10:41.670Z,french_301.wav,0,pull,466,23,5,2,english,m,0,0.0,69.85248337,0.52307933
5c71ec3f2d666100018c6fee,18,0,2024-02-27T14:10:41.670Z,french_301.wav,0,pull,466,23,5,2,english,m,1,0.1,-5.79297453,1.24080119
5c71ec3f2d666100018c6fee,18,0,2024-02-27T14:10:41.670Z,french_301.wav,0,pull,466,23,5,2,english,m,2,0.2,45.5401504,0.43993349
5c71ec3f2d666100018c6fee,18,0,2024-02-27T14:10:41.670Z,french_301.wav,0,pull,466,23,5,2,english,m,3,0.25666667,54.55962649,1.3035803
5c71ec3f2d666100018c6fee,19,0,2024-02-27T14:10:41.670Z,french_258.wav,0,poule,485,23,5,2,english,m,0,0.0,49.87761594,0.27922365
5c71ec3f2d666100018c6fee,19,0,2024-02-27T14:10:41.670Z,french_258.wav,0,poule,485,23,5,2,english,m,1,0.1,-83.77774399,1.89432374
5c71ec3f2d666100018c6fee,19,0,2024-02-27T14:10:41.670Z,french_258.wav,0,poule,485,23,5,2,english,m,2,0.2,58.69904626,0.22934206
5c71ec3f2d666100018c6fee,19,0,2024-02-27T14:10:41.670Z,french_258.wav,0,poule,485,23,5,2,english,m,3,0.25666667,-57.68721695,0.35615934
5c71ec3f2d666100018c6fee,20,0,2024-02-27T14:10:41.670Z,french_93.wav,0,pull,676,23,5,2,english,m,0,0.0,23.57211404,0.62732128
5c71ec3f2d666100018c6fee,20,0,2024-02-27T14:10:41.670Z,french_93.wav,0,pull,676,23,5,2,english,m,1,0.1,-16.15934767,0.10811818
5c71ec3f2d666100018c6fee,20,0,2024-02-27T14:10:41.670Z,french_93.wav,0,pull,676,23,5,2,english,m,2,0.2,25.54711871,0.30787392
5c71ec3f2d666100018c6fee,20,0,2024-02-27T14:10:41.670Z,french_93.wav,0,pull,676,23,5,2,english,m,3,0.25666667,65.09284613,1.57978374
5c71ec3f2d666100018c6fee,21,0,2024-02-27T14:10:41.670Z,french_727.wav,0,poule,474,23,5,2,english,m,0,0.0,-15.29396541,0.40840987
5c71ec3f2d666100018c6fee,21,0,2024-02-27T14:10:41.670Z,french_727.wav,0,poule,474,23,5,2,english,m,1,0.1,-26.29552155,0.3000398
5c71ec3f2d666100018c6fee,21,0,2024-02-27T14:10:41.670Z,french_727.wav,0,poule,474,23,5,2,english,m,2,0.2,79.97121571,1.00640838
5c71ec3f2d666100018c6fee,21,0,2024-02-27T14:10:41.670Z,french_727.wav,0,poule,474,23,5,2,english,m,3,0.25666667,55.89998316,1.06507384
5c71ec3f2d666100018c6fee,22,0,2024-02-27T14:10:41.670Z,french_199.wav,0,poule,443,23,5,2,english,m,0,0.0,-60.03977098,1.87963745
5c71ec3f2d666100018c6fee,22,0,2024-02-27T14:10:41.670Z,french_199.wav,0,poule,443,23,5,2,english,m,1,0.1,7.3213083,1.19076365
5c71ec3f2d666100018c6fee,22,0,2024-02-27T14:10:41.670Z,french_199.wav,0,poule,443,23,5,2,english,m,2,0.2,-32.97621994,1.00205813
5c71ec3f2d666100018c6fee,22,0,2024-02-27T14:10:41.670Z,french_199.wav,0,poule,443,23,5,2,english,m,3,0.25666667,90.87482197,1.05600478
5c71ec3f2d666100018c6fee,23,0,2024-02-27T14:10:41.670Z,french_629.wav,0,poule,417,23,5,2,english,m,0,0.0,81.54997922,0.65130664
5c71ec3f2d666100018c6fee,23,0,2024-02-27T14:10:41.670Z,french_629.wav,0,poule,417,23,5,2,english,m,1,0.1,-25.83506989,0.18523019
5c71ec3f2d666100018c6fee,23,0,2024-02-27T14:10:41.670Z,french_629.wav,0,poule,417,23,5,2,english,m,2,0.2,-50.62902687,1.20696076
5c71ec3f2d666100018c6fee,23,0,2024-02-27T14:10:41.670Z,french_629.wav,0,poule,417,23,5,2,english,m,3,0.25666667,-69.1271608,0.57946161
5c71ec3f2d666100018c6fee,24,0,2024-02-27T14:10:41.670Z,french_139.wav,0,poule,331,23,5,2,english,m,0,0.0,55.8945715,0.94357116
5c71ec3f2d666100018c6fee,24,0,2024-02-27T14:10:41.670Z,french_139.wav,0,poule,331,23,5,2,english,m,1,0.1,-37.58065727,0.51247941
5c71ec3f2d666100018c6fee,24,0,2024-02-27T14:10:41.670Z,french_139.wav,0,poule,331,23,5,2,english,m,2,0.2,-36.76334563,1.17002066
5c71ec3f2d666100018c6fee,24,0,2024-02-27T14:10:41.670Z,french_139.wav,0,poule,331,23,5,2,english,m,3,0.25666667,4.9296063,0.00285273
5c71ec3f2d666100018c6fee,25,0,2024-02-27T14:10:41.670Z,french_616.wav,0,poule,205,23,5,2,english,m,0,0.0,-51.21021188,1.78160172
5c71ec3f2d666100018c6fee,25,0,2024-02-27T14:10:41.670Z,french_616.wav,0,poule,205,23,5,2,english,m,1,0.1,59.33159463,1.44809064
5c71ec3f2d666100018c6fee,25,0,2024-02-27T14:10:41.670Z,french_616.wav,0,poule,205,23,5,2,english,m,2,0.2,-4.53011914,1.29942812
5c71ec3f2d666100018c6fee,25,0,2024-02-27T14:10:41.670Z,french_616.wav,0,poule,205,23,5,2,english,m,3,0.25666667,5.92531861,0.36849944
5c71ec3f2d666100018c6fee,26,0,2024-02-27T14:10:41.670Z,french_321.wav,0,poule,220,23,5,2,english,m,0,0.0,-11.01764706,1.39443046
5c71ec3f2d666100018c6fee,26,0,2024-02-27T14:10:41.670Z,french_321.wav,0,poule,220,23,5,2,english,m,1,0.1,9.90480799,1.51913173
5c71ec3f2d666100018c6fee,26,0,2024-02-27T14:10:41.670Z,french_321.wav,0,poule,220,23,5,2,english,m,2,0.2,44.10153768,0.74961169
5c71ec3f2d666100018c6fee,26,0,2024-02-27T14:10:41.670Z,french_321.wav,0,poule,220,23,5,2,english,m,3,0.25666667,10.91862898,1.74221707
5c71ec3f2d666100018c6fee,27,0,2024-02-27T14:10:41.670Z,french_557.wav,0,poule,1267,23,5,2,english,m,0,0.0,-4.17762648,0.38732741
5c71ec3f2d666100018c6fee,27,0,2024-02-27T14:10:41.670Z,french_557.wav,0,poule,1267,23,5,2,english,m,1,0.1,91.9464138,1.58225164
5c71ec3f2d666100018c6fee,27,0,2024-02-27T14:10:41.670Z,french_557.wav,0,poule,1267,23,5,2,english,m,2,0.2,-21.05895405,1.02633772
5c71ec3f2d666100018c6fee,27,0,2024-02-27T14:10:41.670Z,french_557.wav,0,poule,1267,23,5,2,english,m,3,0.25666667,45.17146044,0.5187484
5c71ec3f2d666100018c6fee,28,0,2024-02-27T14:10:41.670Z,french_990.wav,0,poule,635,23,5,2,english,m,0,0.0,31.68812365,0.81704568
5c71ec3f2d666100018c6fee,28,0,2024-02-27T14:10:41.670Z,french_990.wav,0,poule,635,23,5,2,english,m,1,0.1,-82.48323459,1.80008391
5c71ec3f2d666100018c6fee,28,0,2024-02-27T14:10:41.670Z,french_990.wav,0,poule,635,23,5,2,english,m,2,0.2,39.0525666,1.73012532
5c71ec3f2d666100018c6fee,28,0,2024-02-27T14:10:41.670Z,french_990.wav,0,poule,635,23,5,2,english,m,3,0.25666667,-59.77120272,0.71793452
5c71ec3f2d666100018c6fee,29,0,2024-02-27T14:10:41.670Z,french_20.wav,0,poule,380,23,5,2,english,m,0,0.0,-78.24291845,1.07200279
5c71ec3f2d666100018c6fee,29,0,2024-02-27T14:10:41.670Z,french_20.wav,0,poule,380,23,5,2,english,m,1,0.1,-38.50442353,1.52694999
5c71ec3f2d666100018c6fee,29,0,2024-02-27T14:10:41.670Z,french_20.wav,0,poule,380,23,5,2,english,m,2,0.2,8.39731749,0.86133356
5c71ec3f2d666100018c6fee,29,0,2024-02-27T14:10:41.670Z,french_20.wav,0,poule,380,23,5,2,english,m,3,0.25666667,-43.87764948,0.74788424
5c71ec3f2d666100018c6fee,30,0,2024-02-27T14:10:41.670Z,french_678.wav,0,pull,942,23,5,2,english,m,0,0.0,8.99494286,0.31277465
5c71ec3f2d666100018c6fee,30,0,2024-02-27T14:10:41.670Z,french_678.wav,0,pull,942,23,5,2,english,m,1,0.1,56.3447022,0.04822955
5c71ec3f2d666100018c6fee,30,0,2024-02-27T14:10:41.670Z,french_678.wav,0,pull,942,23,5,2,english,m,2,0.2,-85.36803825,0.03738606
5c71ec3f2d666100018c6fee,30,0,2024-02-27T14:10:41.670Z,french_678.wav,0,pull,942,23,5,2,english,m,3,0.25666667,-65.39277698,1.60364947
5c71ec3f2d666100018c6fee,31,0,2024-02-27T14:10:41.670Z,french_214.wav,0,poule,633,23,5,2,english,m,0,0.0,76.24554567,0.83658468
5c71ec3f2d666100018c6fee,31,0,2024-02-27T14:10:41.670Z,french_214.wav,0,poule,633,23,5,2,english,m,1,0.1,-45.01894732,0.66247732
5c71ec3f2d666100018c6fee,31,0,2024-02-27T14:10:41.670Z,french_214.wav,0,poule,633,23,5,2,english,m,2,0.2,36.56408721,0.57350576
5c71ec3f2d666100018c6fee,31,0,2024-02-27T14:10:41.670Z,french_214.wav,0,poule,633,23,5,2,english,m,3,0.25666667,-35.03381059,1.70097913
5c71ec3f2d666100018c6fee,32,0,2024-02-27T14:10:41.670Z,french_340.wav,0,poule,392,23,5,2,english,m,0,0.0,-77.74428769,1.5012345
5c71ec3f2d666100018c6fee,32,0,2024-02-27T14:10:41.670Z,french_340.wav,0,poule,392,23,5,2,english,m,1,0.1,-23.36816436,1.72338521
5c71ec3f2d666100018c6fee,32,0,2024-02-27T14:10:41.670Z,french_340.wav,0,poule,392,23,5,2,english,m,2,0.2,-44.47255335,0.55046319
5c71ec3f2d666100018c6fee,32,0,2024-02-27T14:10:41.670Z,french_340.wav,0,poule,392,23,5,2,english,m,3,0.25666667,-51.35474548,0.98182936
5c71ec3f2d666100018c6fee,33,0,2024-02-27T14:10:41.670Z,french_784.wav,0,poule,360,23,5,2,english,m,0,0.0,-39.52347826,1.29179639
5c71ec3f2d666100018c6fee,33,0,2024-02-27T14:10:41.670Z,french_784.wav,0,poule,360,23,5,2,english,m,1,0.1,-77.42465605,1.30882922
5c71ec3f2d666100018c6fee,33,0,2024-02-27T14:10:41.670Z,french_784.wav,0,poule,360,23,5,2,english,m,2,0.2,4.05747108,1.87909974
5c71ec3f2d666100018c6fee,33,0,2024-02-27T14:10:41.670Z,french_784.wav,0,poule,360,23,5,2,english,m,3,0.25666667,56.71695408,1.07202912
5c71ec3f2d666100018c6fee,34,0,2024-02-27T14:10:41.670Z,french_127.wav,0,poule,345,23,5,2,english,m,0,0.0,56.99195339,1.23888103
5c71ec3f2d666100018c6fee,34,0,2024-02-27T14:10:41.670Z,french_127.wav,0,poule,345,23,5,2,english,m,1,0.1,71.02339704,1.9853403
5c71ec3f2d666100018c6fee,34,0,2024-02-27T14:10:41.670Z,french_127.wav,0,poule,345,23,5,2,english,m,2,0.2,72.81237495,0.22936254
5c71ec3f2d666100018c6fee,34,0,2024-02-27T14:10:41.670Z,french_127.wav,0,poule,345,23,5,2,english,m,3,0.25666667,99.25740409,0.23690129
5c71ec3f2d666100018c6fee,35,0,2024-02-27T14:10:41.670Z,french_599.wav,0,poule,490,23,5,2,english,m,0,0.0,67.35107794,1.27225877
5c71ec3f2d666100018c6fee,35,0,2024-02-27T14:10:41.670Z,french_599.wav,0,poule,490,23,5,2,english,m,1,0.1,-80.59112066,1.42607556
5c71ec3f2d666100018c6fee,35,0,2024-02-27T14:10:41.670Z,french_599.wav,0,poule,490,23,5,2,english,m,2,0.2,8.51369184,0.27008032
5c71ec3f2d666100018c6fee,35,0,2024-02-27T14:10:41.670Z,french_599.wav,0,poule,490,23,5,2,english,m,3,0.25666667,74.29539318,0.36016313
5c71ec3f2d666100018c6fee,36,0,2024-02-27T14:10:41.670Z,french_971.wav,0,poule,382,23,5,2,english,m,0,0.0,96.00351489,1.9961872
5c71ec3f2d666100018c6fee,36,0,2024-02-27T14:10:41.670Z,french_971.wav,0,poule,382,23,5,2,english,m,1,0.1,-55.9328558,0.96234699
5c71ec3f2d666100018c6fee,36,0,2024-02-27T14:10:41.670Z,french_971.wav,0,poule,382,23,5,2,english,m,2,0.2,-62.43027521,1.29823686
5c71ec3f2d666100018c6fee,36,0,2024-02-27T14:10:41.670Z,french_971.wav,0,poule,382,23,5,2,english,m,3,0.25666667,67.10785382,1.44437919
5c71ec3f2d666100018c6fee,37,0,2024-02-27T14:10:41.670Z,french_674.wav,0,poule,1363,23,5,2,english,m,0,0.0,36.8658398,0.63817569
5c71ec3f2d666100018c6fee,37,0,2024-02-27T14:10:41.670Z,french_674.wav,0,poule,1363,23,5,2,english,m,1,0.1,-70.55199619,1.9135219
5c71ec3f2d666100018c6fee,37,0,2024-02-27T14:10:41.670Z,french_674.wav,0,poule,1363,23,5,2,english,m,2,0.2,-3.70121723,1.96782527
5c71ec3f2d666100018c6fee,37,0,2024-02-27T14:10:41.670Z,french_674.wav,0,poule,1363,23,5,2,english,m,3,0.25666667,30.12615154,0.86862342
5c71ec3f2d666100018c6fee,38,0,2024-02-27T14:10:41.670Z,french_612.wav,0,pull,549,23,5,2,english,m,0,0.0,43.10783066,0.49686358
5c71ec3f2d666100018c6fee,38,0,2024-02-27T14:10:41.670Z,french_612.wav,0,pull,549,23,5,2,english,m,1,0.1,-4.14995098,1.10500502
5c71ec3f2d666100018c6fee,38,0,2024-02-27T14:10:41.670Z,french_612.wav,0,pull,549,23,5,2,english,m,2,0.2,22.17563662,0.22222502
5c71ec3f2d666100018c6fee,38,0,2024-02-27T14:10:41.670Z,french_612.wav,0,pull,549,23,5,2,english,m,3,0.25666667,-48.75850842,1.14111641
5c71ec3f2d666100018c6fee,39,0,2024-02-27T14:10:41.670Z,french_388.wav,0,pull,354,23,5,2,english,m,0,0.0,-56.99851318,0.76802497
5c71ec3f2d666100018c6fee,39,0,2024-02-27T14:10:41.670Z,french_388.wav,0,pull,354,23,5,2,english,m,1,0.1,-28.42117093,1.07190306
5c71ec3f2d666100018c6fee,39,0,2024-02-27T14:10:41.670Z,french_388.wav,0,pull,354,23,5,2,english,m,2,0.2,-17.37440647,0.91030877
5c71ec3f2d666100018c6fee,39,0,2024-02-27T14:10:41.670Z,french_388.wav,0,pull,354,23,5,2,english,m,3,0.25666667,19.5608334,0.1576099
5c71ec3f2d666100018c6fee,40,0,2024-02-27T14:10:41.670Z,french_691.wav,0,pull,61,23,5,2,english,m,0,0.0,89.02514599,1.04651451
5c71ec3f2d666100018c6fee,40,0,2024-02-27T14:10:41.670Z,french_691.wav,0,pull,61,23,5,2,english,m,1,0.1,84.72414094,1.61938954
5c71ec3f2d666100018c6fee,40,0,2024-02-27T14:10:41.670Z,french_691.wav,0,pull,61,23,5,2,english,m,2,0.2,-3.6265137,1.34588415
5c71ec3f2d666100018c6fee,40,0,2024-02-27T14:10:41.670Z,french_691.wav,0,pull,61,23,5,2,english,m,3,0.25666667,-99.35319265,1.50620009
5c71ec3f2d666100018c6fee,41,0,2024-02-27T14:10:41.670Z,french_105.wav,0,poule,384,23,5,2,english,m,0,0.0,-23.09315354,0.81757602
5c71ec3f2d666100018c6fee,41,0,2024-02-27T14:10:41.670Z,french_105.wav,0,poule,384,23,5,2,english,m,1,0.1,-46.9361669,0.98193048
5c71ec3f2d666100018c6fee,41,0,2024-02-27T14:10:41.670Z,french_105.wav,0,poule,384,23,5,2,english,m,2,0.2,-8.58781729,1.53786831
5c71ec3f2d666100018c6fee,41,0,2024-02-27T14:10:41.670Z,french_105.wav,0,poule,384,23,5,2,english,m,3,0.25666667,56.68271074,0.84600103
5c71ec3f2d666100018c6fee,42,0,2024-02-27T14:10:41.670Z,french_851.wav,0,poule,432,23,5,2,english,m,0,0.0,-16.14738252,1.77999263
5c71ec3f2d666100018c6fee,42,0,2024-02-27T14:10:41.670Z,french_851.wav,0,poule,432,23,5,2,english,m,1,0.1,19.84507786,0.90385235
5c71ec3f2d666100018c6fee,42,0,2024-02-27T14:10:41.670Z,french_851.wav,0,poule,432,23,5,2,english,m,2,0.2,-46.64792285,0.51993189
5c71ec3f2d666100018c6fee,42,0,2024-02-27T14:10:41.670Z,french_851.wav,0,poule,432,23,5,2,english,m,3,0.25666667,-81.41203514,1.06673989
5c71ec3f2d666100018c6fee,43,0,2024-02-27T14:10:41.670Z,french_649.wav,0,pull,644,23,5,2,english,m,0,0.0,-26.84796804,0.38564107
5c71ec3f2d666100018c6fee,43,0,2024-02-27T14:10:41.670Z,french_649.wav,0,pull,644,23,5,2,english,m,1,0.1,90.50092835,0.07645681
5c71ec3f2d666100018c6fee,43,0,2024-02-27T14:10:41.670Z,french_649.wav,0,pull,644,23,5,2,english,m,2,0.2,-42.32642697,0.18898029
5c71ec3f2d666100018c6fee,43,0,2024-02-27T14:10:41.670Z,french_649.wav,0,pull,644,23,5,2,english,m,3,0.25666667,-6.05454316,0.88659006
5c71ec3f2d666100018c6fee,44,0,2024-02-27T14:10:41.670Z,french_918.wav,0,poule,731,23,5,2,english,m,0,0.0,73.93932449,1.12285198
5c71ec3f2d666100018c6fee,44,0,2024-02-27T14:10:41.670Z,french_918.wav,0,poule,731,23,5,2,english,m,1,0.1,-96.38016005,0.52569443
5c71ec3f2d666100018c6fee,44,0,2024-02-27T14:10:41.670Z,french_918.wav,0,poule,731,23,5,2,english,m,2,0.2,52.71903464,1.01384132
5c71ec3f2d666100018c6fee,44,0,2024-02-27T14:10:41.670Z,french_918.wav,0,poule,731,23,5,2,english,m,3,0.25666667,71.89996729,0.74683012
5c71ec3f2d666100018c6fee,45,0,2024-02-27T14:10:41.670Z,french_444.wav,0,poule,576,23,5,2,english,m,0,0.0,55.47353293,0.9328321
5c71ec3f2d666100018c6fee,45,0,2024-02-27T14:10:41.670Z,french_444.wav,0,poule,576,23,5,2,english,m,1,0.1,12.04434333,1.46542582
5c71ec3f2d666100018c6fee,45,0,2024-02-27T14:10:41.670Z,french_444.wav,0,poule,576,23,5,2,english,m,2,0.2,14.09264182,1.44584709
5c71ec3f2d666100018c6fee,45,0,2024-02-27T14:10:41.670Z,french_444.wav,0,poule,576,23,5,2,english,m,3,0.25666667,-80.20656615,1.50777595
5c71ec3f2d666100018c6fee,46,0,2024-02-27T14:10:41.670Z,french_884.wav,0,poule,1454,23,5,2,english,m,0,0.0,44.18626496,0.26295785
5c71ec3f2d666100018c6fee,46,0,2024-02-27T14:10:41.670Z,french_884.wav,0,poule,1454,23,5,2,english,m,1,0.1,-64.95611773,1.5401655
5c71ec3f2d666100018c6fee,46,0,2024-02-27T14:10:41.670Z,french_884.wav,0,poule,1454,23,5,2,english,m,2,0.2,-49.1644617,1.25089254
5c71ec3f2d666100018c6fee,46,0,2024-02-27T14:10:41.670Z,french_884.wav,0,poule,1454,23,5,2,english,m,3,0.25666667,-37.6294576,1.82171191
5c71ec3f2d666100018c6fee,47,0,2024-02-27T14:10:41.670Z,french_927.wav,0,poule,263,23,5,2,english,m,0,0.0,-10.52890049,0.60201579
5c71ec3f2d666100018c6fee,47,0,2024-02-27T14:10:41.670Z,french_927.wav,0,poule,263,23,5,2,english,m,1,0.1,-14.60087289,1.35124195
5c71ec3f2d666100018c6fee,47,0,2024-02-27T14:10:41.670Z,french_927.wav,0,poule,263,23,5,2,english,m,2,0.2,-23.19620382,0.97713268
5c71ec3f2d666100018c6fee,47,0,2024-02-27T14:10:41.670Z,french_927.wav,0,poule,263,23,5,2,english,m,3,0.25666667,-4.91748489,0.83956459
5c71ec3f2d666100018c6fee,48,0,2024-02-27T14:10:41.670Z,french_389.wav,0,poule,269,23,5,2,english,m,0,0.0,69.62296415,1.67675408
5c71ec3f2d666100018c6fee,48,0,2024-02-27T14:10:41.670Z,french_389.wav,0,poule,269,23,5,2,english,m,1,0.1,-41.49433877,1.60540147
5c71ec3f2d666100018c6fee,48,0,2024-02-27T14:10:41.670Z,french_389.wav,0,poule,269,23,5,2,english,m,2,0.2,-65.025051,0.45817867
5c71ec3f2d666100018c6fee,48,0,2024-02-27T14:10:41.670Z,french_389.wav,0,poule,269,23,5,2,english,m,3,0.25666667,10.9117334,1.10562968
5c71ec3f2d666100018c6fee,49,0,2024-02-27T14:10:41.670Z,french_349.wav,0,poule,23,23,5,2,english,m,0,0.0,73.89254537,0.17403551
5c71ec3f2d666100018c6fee,49,0,2024-02-27T14:10:41.670Z,french_349.wav,0,poule,23,23,5,2,english,m,1,0.1,-84.33493486,1.66487719
5c71ec3f2d666100018c6fee,49,0,2024-02-27T14:10:41.670Z,french_349.wav,0,poule,23,23,5,2,english,m,2,0.2,-3.2709249,1.53740634
5c71ec3f2d666100018c6fee,49,0,2024-02-27T14:10:41.670Z,french_349.wav,0,poule,23,23,5,2,english,m,3,0.25666667,-21.54511299,1.56834066
5c71ec3f2d666100018c6fee,50,1,2024-02-27T14:10:41.670Z,french_537.wav,0,poule,233,23,5,2,english,m,0,0.0,24.94182708,0.83905816
5c71ec3f2d666100018c6fee,50,1,2024-02-27T14:10:41.670Z,french_537.wav,0,poule,233,23,5,2,english,m,1,0.1,44.89034985,0.4078644
5c71ec3f2d666100018c6fee,50,1,2024-02-27T14:10:41.670Z,french_537.wav,0,poule,233,23,5,2,english,m,2,0.2,79.4977598,1.66123527
5c71ec3f2d666100018c6fee,50,1,2024-02-27T14:10:41.670Z,french_537.wav,0,poule,233,23,5,2,english,m,3,0.25666667,43.46988515,0.90238518
5c71ec3f2d666100018c6fee,51,1,2024-02-27T14:10:41.670Z,french_500.wav,0,poule,1426,23,5,2,english,m,0,0.0,-64.77507575,1.1238598
5c71ec3f2d666100018c6fee,51,1,2024-02-27T14:10:41.670Z,french_500.wav,0,poule,1426,23,5,2,english,m,1,0.1,-6.64685947,1.28070421
5c71ec3f2d666100018c6fee,51,1,2024-02-27T14:10:41.670Z,french_500.wav,0,poule,1426,23,5,2,english,m,2,0.2,-63.06704172,0.36817987
5c71ec3f2d666100018c6fee,51,1,2024-02-27T14:10:41.670Z,french_500.wav,0,poule,1426,23,5,2,english,m,3,0.25666667,-2.53403127,0.89472864
5c71ec3f2d666100018c6fee,52,1,2024-02-27T14:10:41.670Z,french_337.wav,0,poule,221,23,5,2,english,m,0,0.0,-97.64468947,0.15620351
5c71ec3f2d666100018c6fee,52,1,2024-02-27T14:10:41.670Z,french_337.wav,0,poule,221,23,5,2,english,m,1,0.1,-70.83087303,1.65716961
5c71ec3f2d666100018c6fee,52,1,2024-02-27T14:10:41.670Z,french_337.wav,0,poule,221,23,5,2,english,m,2,0.2,-48.67995381,0.82507575
5c71ec3f2d666100018c6fee,52,1,2024-02-27T14:10:41.670Z,french_337.wav,0,poule,221,23,5,2,english,m,3,0.25666667,-82.84031791,0.89595203
5c71ec3f2d666100018c6fee,53,1,2024-02-27T14:10:41.670Z,french_309.wav,0,pull,416,23,5,2,english,m,0,0.0,-43.78964232,0.29425556
5c71ec3f2d666100018c6fee,53,1,2024-02-27T14:10:41.670Z,french_309.wav,0,pull,416,23,5,2,english,m,1,0.1,78.2069368,1.94220297
5c71ec3f2d666100018c6fee,53,1,2024-02-27T14:10:41.670Z,french_309.wav,0,pull,416,23,5,2,english,m,2,0.2,-31.15110399,1.27018493
5c71ec3f2d666100018c6fee,53,1,2024-02-27T14:10:41.670Z,french_309.wav,0,pull,416,23,5,2,english,m,3,0.25666667,-73.94684578,1.0788176
5c71ec3f2d666100018c6fee,54,1,2024-02-27T14:10:41.670Z,french_931.wav,0,poule,700,23,5,2,english,m,0,0.0,64.75046939,1.51932084
5c71ec3f2d666100018c6fee,54,1,2024-02-27T14:10:41.670Z,french_931.wav,0,poule,700,23,5,2,english,m,1,0.1,-55.9473081,1.08335674
5c71ec3f2d666100018c6fee,54,1,2024-02-27T14:10:41.670Z,french_931.wav,0,poule,700,23,5,2,english,m,2,0.2,32.85596214,0.78781639
5c71ec3f2d666100018c6fee,54,1,2024-02-27T14:10:41.670Z,french_931.wav,0,poule,700,23,5,2,english,m,3,0.25666667,-89.33798771,0.66435238
5c71ec3f2d666100018c6fee,55,1,2024-02-27T14:10:41.670Z,french_936.wav,0,pull,703,23,5,2,english,m,0,0.0,-20.69739044,1.81100612
5c71ec3f2d666100018c6fee,55,1,2024-02-27T14:10:41.670Z,french_936.wav,0,pull,703,23,5,2,english,m,1,0.1,11.25896305,0.34150345
5c71ec3f2d666100018c6fee,55,1,2024-02-27T14:10:41.670Z,french_936.wav,0,pull,703,23,5,2,english,m,2,0.2,-73.43688333,0.78598688
5c71ec3f2d666100018c6fee,55,1,2024-02-27T14:10:41.670Z,french_936.wav,0,pull,703,23,5,2,english,m,3,0.25666667,14.6038409,0.34536881
5c71ec3f2d666100018c6fee,56,1,2024-02-27T14:10:41.670Z,french_307.wav,0,poule,3287,23,5,2,english,m,0,0.0,1.2534749,1.28672407
5c71ec3f2d666100018c6fee,56,1,2024-02-27T14:10:41.670Z,french_307.wav,0,poule,3287,23,5,2,english,m,1,0.1,79.3326992,0.47718292
5c71ec3f2d666100018c6fee,56,1,2024-02-27T14:10:41.670Z,french_307.wav,0,poule,3287,23,5,2,english,m,2,0.2,24.93038066,1.37451018
5c71ec3f2d666100018c6fee,56,1,2024-02-27T14:10:41.670Z,french_307.wav,0,poule,3287,23,5,2,english,m,3,0.25666667,-37.26133342,1.21026525
5c71ec3f2d666100018c6fee,57,1,2024-02-27T14:10:41.670Z,french_14.wav,0,pull,510,23,5,2,english,m,0,0.0,29.04259121,1.27596418
5c71ec3f2d666100018c6fee,57,1,2024-02-27T14:10:41.670Z,french_14.wav,0,pull,510,23,5,2,english,m,1,0.1,-13.93862831,1.81664743
5c71ec3f2d666100018c6fee,57,1,2024-02-27T14:10:41.670Z,french_14.wav,0,pull,510,23,5,2,english,m,2,0.2,-3.57455278,1.61822265
5c71ec3f2d666100018c6fee,57,1,2024-02-27T14:10:41.670Z,french_14.wav,0,pull,510,23,5,2,english,m,3,0.25666667,14.81088412,1.58848758
5c71ec3f2d666100018c6fee,58,1,2024-02-27T14:10:41.670Z,french_12.wav,0,poule,2264,23,5,2,english,m,0,0.0,-57.76127346,1.31680682
5c71ec3f2d666100018c6fee,58,1,2024-02-27T14:10:41.670Z,french_12.wav,0,poule,2264,23,5,2,english,m,1,0.1,13.80138245,1.40135686
5c71ec3f2d666100018c6fee,58,1,2024-02-27T14:10:41.670Z,french_12.wav,0,poule,2264,23,5,2,english,m,2,0.2,70.02389064,0.63152994
5c71ec3f2d666100018c6fee,58,1,2024-02-27T14:10:41.670Z,french_12.wav,0,poule,2264,23,5,2,english,m,3,0.25666667,-46.37027392,0.33836826
5c71ec3f2d666100018c6fee,59,1,2024-02-27T14:10:41.670Z,french_343.wav,0,poule,431,23,5,2,english,m,0,0.0,-21.71261116,1.74552957
5c71ec3f2d666100018c6fee,59,1,2024-02-27T14:10:41.670Z,french_343.wav,0,poule,431,23,5,2,english,m,1,0.1,63.21036052,1.86769095
5c71ec3f2d666100018c6fee,59,1,2024-02-27T14:10:41.670Z,french_343.wav,0,poule,431,23,5,2,english,m,2,0.2,-29.86802649,0.55355845
5c71ec3f2d666100018c6fee,59,1,2024-02-27T14:10:41.670Z,french_343.wav,0,poule,431,23,5,2,english,m,3,0.25666667,57.96835755,1.24725328
5c71ec3f2d666100018c6fee,60,1,2024-02-27T14:10:41.670Z,french_705.wav,0,poule,227,23,5,2,english,m,0,0.0,-31.52083019,1.71356233
5c71ec3f2d666100018c6fee,60,1,2024-02-27T14:10:41.670Z,french_705.wav,0,poule,227,23,5,2,english,m,1,0.1,93.24854214,0.26324818
5c71ec3f2d666100018c6fee,60,1,2024-02-27T14:10:41.670Z,french_705.wav,0,poule,227,23,5,2,english,m,2,0.2,-36.26217339,0.66385994
5c71ec3f2d666100018c6fee,60,1,2024-02-27T14:10:41.670Z,french_705.wav,0,poule,227,23,5,2,english,m,3,0.25666667,58.31905924,1.85027868
5c71ec3f2d666100018c6fee,61,1,2024-02-27T14:10:41.670Z,french_348.wav,0,pull,275,23,5,2,english,m,0,0.0,68.47734878,1.61227716
5c71ec3f2d666100018c6fee,61,1,2024-02-27T14:10:41.670Z,french_348.wav,0,pull,275,23,5,2,english,m,1,0.1,54.05190865,0.93770463
5c71ec3f2d666100018c6fee,61,1,2024-02-27T14:10:41.670Z,french_348.wav,0,pull,275,23,5,2,english,m,2,0.2,0.19125453,1.53689085
5c71ec3f2d666100018c6fee,61,1,2024-02-27T14:10:41.670Z,french_348.wav,0,pull,275,23,5,2,english,m,3,0.25666667,-34.65909089,1.17337711
5c71ec3f2d666100018c6fee,62,1,2024-02-27T14:10:41.670Z,french_825.wav,0,pull,1745,23,5,2,english,m,0,0.0,84.83698811,1.37161619
5c71ec3f2d666100018c6fee,62,1,2024-02-27T14:10:41.670Z,french_825.wav,0,pull,1745,23,5,2,english,m,1,0.1,58.10246948,1.88160769
5c71ec3f2d666100018c6fee,62,1,2024-02-27T14:10:41.670Z,french_825.wav,0,pull,1745,23,5,2,english,m,2,0.2,95.28795352,0.7228962
5c71ec3f2d666100018c6fee,62,1,2024-02-27T14:10:41.670Z,french_825.wav,0,pull,1745,23,5,2,english,m,3,0.25666667,40.96055212,1.18109596
5c71ec3f2d666100018c6fee,63,1,2024-02-27T14:10:41.670Z,french_787.wav,0,pull,538,23,5,2,english,m,0,0.0,-96.56930436,0.95025141
5c71ec3f2d666100018c6fee,63,1,2024-02-27T14:10:41.670Z,french_787.wav,0,pull,538,23,5,2,english,m,1,0.1,-14.18878177,1.10577547
5c71ec3f2d666100018c6fee,63,1,2024-02-27T14:10:41.670Z,french_787.wav,0,pull,538,23,5,2,english,m,2,0.2,-34.79884993,0.4132657
5c71ec3f2d666100018c6fee,63,1,2024-02-27T14:10:41.670Z,french_787.wav,0,pull,538,23,5,2,english,m,3,0.25666667,-70.75211023,0.64958401
5c71ec3f2d666100018c6fee,64,1,2024-02-27T14:10:41.670Z,french_30.wav,0,poule,308,23,5,2,english,m,0,0.0,76.62673318,0.98317975
5c71ec3f2d666100018c6fee,64,1,2024-02-27T14:10:41.670Z,french_30.wav,0,poule,308,23,5,2,english,m,1,0.1,68.4553342,1.99903841
5c71ec3f2d666100018c6fee,64,1,2024-02-27T14:10:41.670Z,french_30.wav,0,poule,308,23,5,2,english,m,2,0.2,55.51592845,1.19167606
5c71ec3f2d666100018c6fee,64,1,2024-02-27T14:10:41.670Z,french_30.wav,0,poule,308,23,5,2,english,m,3,0.25666667,80.18190702,0.01328513
5c71ec3f2d666100018c6fee,65,1,2024-02-27T14:10:41.670Z,french_661.wav,0,pull,64,23,5,2,english,m,0,0.0,34.1047988,1.29957539
5c71ec3f2d666100018c6fee,65,1,2024-02-27T14:10:41.670Z,french_661.wav,0,pull,64,23,5,2,english,m,1,0.1,-45.42737183,0.81809843
5c71ec3f2d666100018c6fee,65,1,2024-02-27T14:10:41.670Z,french_661.wav,0,pull,64,23,5,2,english,m,2,0.2,-32.96226792,1.39938296
5c71ec3f2d666100018c6fee,65,1,2024-02-27T14:10:41.670Z,french_661.wav,0,pull,64,23,5,2,english,m,3,0.25666667,51.87575508,1.33634107
5c71ec3f2d666100018c6fee,66,1,2024-02-27T14:10:41.670Z,french_744.wav,0,poule,307,23,5,2,english,m,0,0.0,20.71284991,1.22360564
5c71ec3f2d666100018c6fee,66,1,2024-02-27T14:10:41.670Z,french_744.wav,0,poule,307,23,5,2,english,m,1,0.1,43.41893938,1.58460028
5c71ec3f2d666100018c6fee,66,1,2024-02-27T14:10:41.670Z,french_744.wav,0,poule,307,23,5,2,english,m,2,0.2,65.94530402,0.38406236
5c71ec3f2d666100018c6fee,66,1,2024-02-27T14:10:41.670Z,french_744.wav,0,poule,307,23,5,2,english,m,3,0.25666667,-59.234779,0.69273959
5c71ec3f2d666100018c6fee,67,1,2024-02-27T14:10:41.670Z,french_534.wav,0,poule,339,23,5,2,english,m,0,0.0,96.41776506,0.28463844
5c71ec3f2d666100018c6fee,67,1,2024-02-27T14:10:41.670Z,french_534.wav,0,poule,339,23,5,2,english,m,1,0.1,-53.52749338,1.69872517
5c71ec3f2d666100018c6fee,67,1,2024-02-27T14:10:41.670Z,french_534.wav,0,poule,339,23,5,2,english,m,2,0.2,51.10087415,0.80798533
5c71ec3f2d666100018c6fee,67,1,2024-02-27T14:10:41.670Z,french_534.wav,0,poule,339,23,5,2,english,m,3,0.25666667,27.39654188,1.79838566
5c71ec3f2d666100018c6fee,68,1,2024-02-27T14:10:41.670Z,french_110.wav,0,poule,137,23,5,2,english,m,0,0.0,14.8960744,1.68730737
5c71ec3f2d666100018c6fee,68,1,2024-02-27T14:10:41.670Z,french_110.wav,0,poule,137,23,5,2,english,m,1,0.1,-82.02762151,1.03733778
5c71ec3f2d666100018c6fee,68,1,2024-02-27T14:10:41.670Z,french_110.wav,0,poule,137,23,5,2,english,m,2,0.2,66.91383722,1.59061665
5c71ec3f2d666100018c6fee,68,1,2024-02-27T14:10:41.670Z,french_110.wav,0,poule,137,23,5,2,english,m,3,0.25666667,-78.07836064,0.49489255
5c71ec3f2d666100018c6fee,69,1,2024-02-27T14:10:41.670Z,french_718.wav,0,poule,344,23,5,2,english,m,0,0.0,60.10154263,0.48894908
5c71ec3f2d666100018c6fee,69,1,2024-02-27T14:10:41.670Z,french_718.wav,0,poule,344,23,5,2,english,m,1,0.1,11.66591821,1.65193902
5c71ec3f2d666100018c6fee,69,1,2024-02-27T14:10:41.670Z,french_718.wav,0,poule,344,23,5,2,english,m,2,0.2,18.23831634,1.63024081
5c71ec3f2d666100018c6fee,69,1,2024-02-27T14:10:41.670Z,french_718.wav,0,poule,344,23,5,2,english,m,3,0.25666667,-0.86268038,0.33166429
5c71ec3f2d666100018c6fee,70,1,2024-02-27T14:10:41.670Z,french_357.wav,0,poule,113,23,5,2,english,m,0,0.0,-39.34197693,1.60610182
5c71ec3f2d666100018c6fee,70,1,2024-02-27T14:10:41.670Z,french_357.wav,0,poule,113,23,5,2,english,m,1,0.1,71.15894406,0.3952593
5c71ec3f2d666100018c6fee,70,1,2024-02-27T14:10:41.670Z,french_357.wav,0,poule,113,23,5,2,english,m,2,0.2,-59.30154436,0.60654741
5c71ec3f2d666100018c6fee,70,1,2024-02-27T14:10:41.670Z,french_357.wav,0,poule,113,23,5,2,english,m,3,0.25666667,60.48174113,0.43480054
5c71ec3f2d666100018c6fee,71,1,2024-02-27T14:10:41.670Z,french_432.wav,0,poule,320,23,5,2,english,m,0,0.0,41.78718943,1.64767318
5c71ec3f2d666100018c6fee,71,1,2024-02-27T14:10:41.670Z,french_432.wav,0,poule,320,23,5,2,english,m,1,0.1,-73.8341876,1.66923601
5c71ec3f2d666100018c6fee,71,1,2024-02-27T14:10:41.670Z,french_432.wav,0,poule,320,23,5,2,english,m,2,0.2,2.46605077,1.63004177
5c71ec3f2d666100018c6fee,71,1,2024-02-27T14:10:41.670Z,french_432.wav,0,poule,320,23,5,2,english,m,3,0.25666667,-5.34058627,1.91522166
5c71ec3f2d666100018c6fee,72,1,2024-02-27T14:10:41.670Z,french_606.wav,0,poule,378,23,5,2,english,m,0,0.0,-20.93687271,1.9895698
5c71ec3f2d666100018c6fee,72,1,2024-02-27T14:10:41.670Z,french_606.wav,0,poule,378,23,5,2,english,m,1,0.1,59.55385743,1.17728958
5c71ec3f2d666100018c6fee,72,1,2024-02-27T14:10:41.670Z,french_606.wav,0,poule,378,23,5,2,english,m,2,0.2,61.58713619,1.48827242
5c71ec3f2d666100018c6fee,72,1,2024-02-27T14:10:41.670Z,french_606.wav,0,poule,378,23,5,2,english,m,3,0.25666667,-92.8987734,0.79910733
5c71ec3f2d666100018c6fee,73,1,2024-02-27T14:10:41.670Z,french_653.wav,0,pull,678,23,5,2,english,m,0,0.0,77.9010548,1.15209157
5c71ec3f2d666100018c6fee,73,1,2024-02-27T14:10:41.670Z,french_653.wav,0,pull,678,23,5,2,english,m,1,0.1,-51.77114594,0.29445829
5c71ec3f2d666100018c6fee,73,1,2024-02-27T14:10:41.670Z,french_653.wav,0,pull,678,23,5,2,english,m,2,0.2,87.84855202,0.58679482
5c71ec3f2d666100018c6fee,73,1,2024-02-27T14:10:41.670Z,french_653.wav,0,pull,678,23,5,2,english,m,3,0.25666667,84.03497815,1.23322571
5c71ec3f2d666100018c6fee,74,1,2024-02-27T14:10:41.670Z,french_245.wav,0,poule,375,23,5,2,english,m,0,0.0,-61.74573417,0.99313774
5c71ec3f2d666100018c6fee,74,1,2024-02-27T14:10:41.670Z,french_245.wav,0,poule,375,23,5,2,english,m,1,0.1,71.88692077,1.19752892
5c71ec3f2d666100018c6fee,74,1,2024-02-27T14:10:41.670Z,french_245.wav,0,poule,375,23,5,2,english,m,2,0.2,-28.60272728,1.585112
5c71ec3f2d666100018c6fee,74,1,2024-02-27T14:10:41.670Z,french_245.wav,0,poule,375,23,5,2,english,m,3,0.25666667,-6.96353839,1.16753586
5c71ec3f2d666100018c6fee,75,1,2024-02-27T14:10:41.670Z,french_378.wav,0,pull,586,23,5,2,english,m,0,0.0,74.25757507,1.44636003
5c71ec3f2d666100018c6fee,75,1,2024-02-27T14:10:41.670Z,french_378.wav,0,pull,586,23,5,2,english,m,1,0.1,69.54270197,0.18429149
5c71ec3f2d666100018c6fee,75,1,2024-02-27T14:10:41.670Z,french_378.wav,0,pull,586,23,5,2,english,m,2,0.2,91.83328043,0.75177649
5c71ec3f2d666100018c6fee,75,1,2024-02-27T14:10:41.670Z,french_378.wav,0,pull,586,23,5,2,english,m,3,0.25666667,65.12199987,0.49263706
5c71ec3f2d666100018c6fee,76,1,2024-02-27T14:10:41.670Z,french_134.wav,0,poule,324,23,5,2,english,m,0,0.0,-65.58132827,0.68669704
5c71ec3f2d666100018c6fee,76,1,2024-02-27T14:10:41.670Z,french_134.wav,0,poule,324,23,5,2,english,m,1,0.1,-89.82992505,1.50131287
5c71ec3f2d666100018c6fee,76,1,2024-02-27T14:10:41.670Z,french_134.wav,0,poule,324,23,5,2,english,m,2,0.2,9.99695038,0.69598371
5c71ec3f2d666100018c6fee,76,1,2024-02-27T14:10:41.670Z,french_134.wav,0,poule,324,23,5,2,english,m,3,0.25666667,24.50908123,1.57047358
5c71ec3f2d666100018c6fee,77,1,2024-02-27T14:10:41.670Z,french_41.wav,0,poule,505,23,5,2,english,m,0,0.0,-11.6612147,0.49328208
5c71ec3f2d666100018c6fee,77,1,2024-02-27T14:10:41.670Z,french_41.wav,0,poule,505,23,5,2,english,m,1,0.1,96.56624365,1.84762861
5c71ec3f2d666100018c6fee,77,1,2024-02-27T14:10:41.670Z,french_41.wav,0,poule,505,23,5,2,english,m,2,0.2,69.39294216,1.1434724
5c71ec3f2d666100018c6fee,77,1,2024-02-27T14:10:41.670Z,french_41.wav,0,poule,505,23,5,2,english,m,3,0.25666667,-30.30775932,1.13333186
5c71ec3f2d666100018c6fee,78,1,2024-02-27T14:10:41.670Z,french_626.wav,0,pull,580,23,5,2,english,m,0,0.0,-93.35692854,1.28523942
5c71ec3f2d666100018c6fee,78,1,2024-02-27T14:10:41.670Z,french_626.wav,0,pull,580,23,5,2,english,m,1,0.1,98.43225428,0.26610399
5c71ec3f2d666100018c6fee,78,1,2024-02-27T14:10:41.670Z,french_626.wav,0,pull,580,23,5,2,english,m,2,0.2,-65.0946996,0.08304138
5c71ec3f2d666100018c6fee,78,1,2024-02-27T14:10:41.670Z,french_626.wav,0,pull,580,23,5,2,english,m,3,0.25666667,62.51553639,1.47830697
5c71ec3f2d666100018c6fee,79,1,2024-02-27T14:10:41.670Z,french_778.wav,0,poule,183,23,5,2,english,m,0,0.0,-2.76577218,0.74255963
5c71ec3f2d666100018c6fee,79,1,2024-02-27T14:10:41.670Z,french_778.wav,0,poule,183,23,5,2,english,m,1,0.1,4.49344871,1.48176587
5c71ec3f2d666100018c6fee,79,1,2024-02-27T14:10:41.670Z,french_778.wav,0,poule,183,23,5,2,english,m,2,0.2,68.81762054,1.59399306
5c71ec3f2d666100018c6fee,79,1,2024-02-27T14:10:41.670Z,french_778.wav,0,poule,183,23,5,2,english,m,3,0.25666667,89.13075651,1.18058537
5c71ec3f2d666100018c6fee,80,1,2024-02-27T14:10:41.670Z,french_513.wav,0,poule,353,23,5,2,english,m,0,0.0,84.63539274,1.68726635
5c71ec3f2d666100018c6fee,80,1,2024-02-27T14:10:41.670Z,french_513.wav,0,poule,353,23,5,2,english,m,1,0.1,36.6114333,0.88690679
5c71ec3f2d666100018c6fee,80,1,2024-02-27T14:10:41.670Z,french_513.wav,0,poule,353,23,5,2,english,m,2,0.2,14.49628471,0.37350839
5c71ec3f2d666100018c6fee,80,1,2024-02-27T14:10:41.670Z,french_513.wav,0,poule,353,23,5,2,english,m,3,0.25666667,-17.17346171,1.74122924
5c71ec3f2d666100018c6fee,81,1,2024-02-27T14:10:41.670Z,french_940.wav,0,poule,841,23,5,2,english,m,0,0.0,60.64207397,1.38818271
5c71ec3f2d666100018c6fee,81,1,2024-02-27T14:10:41.670Z,french_940.wav,0,poule,841,23,5,2,english,m,1,0.1,-16.07257124,1.64047706
5c71ec3f2d666100018c6fee,81,1,2024-02-27T14:10:41.670Z,french_940.wav,0,poule,841,23,5,2,english,m,2,0.2,-38.93693506,1.31963125
5c71ec3f2d666100018c6fee,81,1,2024-02-27T14:10:41.670Z,french_940.wav,0,poule,841,23,5,2,english,m,3,0.25666667,-22.19838027,1.73227719
5c71ec3f2d666100018c6fee,82,1,2024-02-27T14:10:41.670Z,french_541.wav,0,poule,271,23,5,2,english,m,0,0.0,53.31308138,1.84251248
5c71ec3f2d666100018c6fee,82,1,2024-02-27T14:10:41.670Z,french_541.wav,0,poule,271,23,5,2,english,m,1,0.1,48.16539561,0.97729738
5c71ec3f2d666100018c6fee,82,1,2024-02-27T14:10:41.670Z,french_541.wav,0,poule,271,23,5,2,english,m,2,0.2,-38.85260984,1.28801687
5c71ec3f2d666100018c6fee,82,1,2024-02-27T14:10:41.670Z,french_541.wav,0,poule,271,23,5,2,english,m,3,0.25666667,47.13501746,0.86548213
5c71ec3f2d666100018c6fee,83,1,2024-02-27T14:10:41.670Z,french_877.wav,0,poule,238,23,5,2,english,m,0,0.0,-23.96574217,0.96253444
5c71ec3f2d666100018c6fee,83,1,2024-02-27T14:10:41.670Z,french_877.wav,0,poule,238,23,5,2,english,m,1,0.1,51.07186547,1.01009898
5c71ec3f2d666100018c6fee,83,1,2024-02-27T14:10:41.670Z,french_877.wav,0,poule,238,23,5,2,english,m,2,0.2,26.38223439,1.26042149
5c71ec3f2d666100018c6fee,83,1,2024-02-27T14:10:41.670Z,french_877.wav,0,poule,238,23,5,2,english,m,3,0.25666667,57.01482149,0.37917076
5c71ec3f2d666100018c6fee,84,1,2024-02-27T14:10:41.670Z,french_286.wav,0,poule,256,23,5,2,english,m,0,0.0,-12.75776796,0.7334837
5c71ec3f2d666100018c6fee,84,1,2024-02-27T14:10:41.670Z,french_286.wav,0,poule,256,23,5,2,english,m,1,0.1,37.83162005,0.13945261
5c71ec3f2d666100018c6fee,84,1,2024-02-27T14:10:41.670Z,french_286.wav,0,poule,256,23,5,2,english,m,2,0.2,-73.99987606,0.89700821
5c71ec3f2d666100018c6fee,84,1,2024-02-27T14:10:41.670Z,french_286.wav,0,poule,256,23,5,2,english,m,3,0.25666667,-99.59641202,0.06192005
5c71ec3f2d666100018c6fee,85,1,2024-02-27T14:10:41.670Z,french_21.wav,0,pull,521,23,5,2,english,m,0,0.0,54.83693262,0.05508037
5c71ec3f2d666100018c6fee,85,1,2024-02-27T14:10:41.670Z,french_21.wav,0,pull,521,23,5,2,english,m,1,0.1,-44.5884084,0.46211883
5c71ec3f2d666100018c6fee,85,1,2024-02-27T14:10:41.670Z,french_21.wav,0,pull,521,23,5,2,english,m,2,0.2,-75.20982548,1.96075125
5c71ec3f2d666100018c6fee,85,1,2024-02-27T14:10:41.670Z,french_21.wav,0,pull,521,23,5,2,english,m,3,0.25666667,-57.69855476,0.5365247
5c71ec3f2d666100018c6fee,86,1,2024-02-27T14:10:41.670Z,french_814.wav,0,pull,459,23,5,2,english,m,0,0.0,83.0056253,1.4499936
5c71ec3f2d666100018c6fee,86,1,2024-02-27T14:10:41.670Z,french_814.wav,0,pull,459,23,5,2,english,m,1,0.1,-71.4586846,0.77595229
5c71ec3f2d666100018c6fee,86,1,2024-02-27T14:10:41.670Z,french_814.wav,0,pull,459,23,5,2,english,m,2,0.2,12.63844789,0.21302651
5c71ec3f2d666100018c6fee,86,1,2024-02-27T14:10:41.670Z,french_814.wav,0,pull,459,23,5,2,english,m,3,0.25666667,12.39326704,0.16177964
5c71ec3f2d666100018c6fee,87,1,2024-02-27T14:10:41.670Z,french_323.wav,0,pull,545,23,5,2,english,m,0,0.0,32.98542524,1.64001987
5c71ec3f2d666100018c6fee,87,1,2024-02-27T14:10:41.670Z,french_323.wav,0,pull,545,23,5,2,english,m,1,0.1,23.31860642,0.049539
5c71ec3f2d666100018c6fee,87,1,2024-02-27T14:10:41.670Z,french_323.wav,0,pull,545,23,5,2,english,m,2,0.2,85.24347173,1.32093022
5c71ec3f2d666100018c6fee,87,1,2024-02-27T14:10:41.670Z,french_323.wav,0,pull,545,23,5,2,english,m,3,0.25666667,17.19160257,0.33485384
5c71ec3f2d666100018c6fee,88,1,2024-02-27T14:10:41.670Z,french_314.wav,0,pull,545,23,5,2,english,m,0,0.0,-41.28420355,0.77087466
5c71ec3f2d666100018c6fee,88,1,2024-02-27T14:10:41.670Z,french_314.wav,0,pull,545,23,5,2,english,m,1,0.1,38.91630458,0.23409115
5c71ec3f2d666100018c6fee,88,1,2024-02-27T14:10:41.670Z,french_314.wav,0,pull,545,23,5,2,english,m,2,0.2,24.93775916,0.53304912
5c71ec3f2d666100018c6fee,88,1,2024-02-27T14:10:41.670Z,french_314.wav,0,pull,545,23,5,2,english,m,3,0.25666667,33.33111791,0.84036245
5c71ec3f2d666100018c6fee,89,1,2024-02-27T14:10:41.670Z,french_329.wav,0,poule,389,23,5,2,english,m,0,0.0,14.6954169,0.80369944
5c71ec3f2d666100018c6fee,89,1,2024-02-27T14:10:41.670Z,french_329.wav,0,poule,389,23,5,2,english,m,1,0.1,-60.61079034,1.40829285
5c71ec3f2d666100018c6fee,89,1,2024-02-27T14:10:41.670Z,french_329.wav,0,poule,389,23,5,2,english,m,2,0.2,-27.52715396,0.22971006
5c71ec3f2d666100018c6fee,89,1,2024-02-27T14:10:41.670Z,french_329.wav,0,poule,389,23,5,2,english,m,3,0.25666667,-71.65343532,0.37653007
5c71ec3f2d666100018c6fee,90,1,2024-02-27T14:10:41.670Z,french_753.wav,0,poule,306,23,5,2,english,m,0,0.0,-59.12708259,1.15236918
5c71ec3f2d666100018c6fee,90,1,2024-02-27T14:10:41.670Z,french_753.wav,0,poule,306,23,5,2,english,m,1,0.1,-84.15149344,1.24278656
5c71ec3f2d666100018c6fee,90,1,2024-02-27T14:10:41.670Z,french_753.wav,0,poule,306,23,5,2,english,m,2,0.2,-30.31197396,0.56738218
5c71ec3f2d666100018c6fee,90,1,2024-02-27T14:10:41.670Z,french_753.wav,0,poule,306,23,5,2,english,m,3,0.25666667,-23.11550189,0.65045955
5c71ec3f2d666100018c6fee,91,1,2024-02-27T14:10:41.670Z,french_466.wav,0,poule,269,23,5,2,english,m,0,0.0,73.58992944,1.41071494
5c71ec3f2d666100018c6fee,91,1,2024-02-27T14:10:41.670Z,french_466.wav,0,poule,269,23,5,2,english,m,1,0.1,63.97983353,0.05598534
5c71ec3f2d666100018c6fee,91,1,2024-02-27T14:10:41.670Z,french_466.wav,0,poule,269,23,5,2,english,m,2,0.2,36.10141743,1.99104708
5c71ec3f2d666100018c6fee,91,1,2024-02-27T14:10:41.670Z,french_466.wav,0,poule,269,23,5,2,english,m,3,0.25666667,-59.38235663,0.89990448
5c71ec3f2d666100018c6fee,92,1,2024-02-27T14:10:41.670Z,french_643.wav,0,pull,470,23,5,2,english,m,0,0.0,63.91458592,0.06817761
5c71ec3f2d666100018c6fee,92,1,2024-02-27T14:10:41.670Z,french_643.wav,0,pull,470,23,5,2,english,m,1,0.1,-87.79617997,1.72915736
5c71ec3f2d666100018c6fee,92,1,2024-02-27T14:10:41.670Z,french_643.wav,0,pull,470,23,5,2,english,m,2,0.2,-35.4412084,1.06879305
5c71ec3f2d666100018c6fee,92,1,2024-02-27T14:10:41.670Z,french_643.wav,0,pull,470,23,5,2,english,m,3,0.25666667,41.82610472,1.26220402
5c71ec3f2d666100018c6fee,93,1,2024-02-27T14:10:41.670Z,french_243.wav,0,poule,289,23,5,2,english,m,0,0.0,94.15218044,0.53955239
5c71ec3f2d666100018c6fee,93,1,2024-02-27T14:10:41.670Z,french_243.wav,0,poule,289,23,5,2,english,m,1,0.1,77.54642038,1.33237065
5c71ec3f2d666100018c6fee,93,1,2024-02-27T14:10:41.670Z,french_243.wav,0,poule,289,23,5,2,english,m,2,0.2,-54.61145872,1.76705621
5c71ec3f2d666100018c6fee,93,1,2024-02-27T14:10:41.670Z,french_243.wav,0,poule,289,23,5,2,english,m,3,0.25666667,-22.57869657,1.15577178
5c71ec3f2d666100018c6fee,94,1,2024-02-27T14:10:41.670Z,french_121.wav,0,poule,246,23,5,2,english,m,0,0.0,35.32035933,0.75756688
5c71ec3f2d666100018c6fee,94,1,2024-02-27T14:10:41.670Z,french_121.wav,0,poule,246,23,5,2,english,m,1,0.1,-67.07725169,1.37771724
5c71ec3f2d666100018c6fee,94,1,2024-02-27T14:10:41.670Z,french_121.wav,0,poule,246,23,5,2,english,m,2,0.2,83.36951387,1.17860501
5c71ec3f2d666100018c6fee,94,1,2024-02-27T14:10:41.670Z,french_121.wav,0,poule,246,23,5,2,english,m,3,0.25666667,37.65048559,1.25500134
5c71ec3f2d666100018c6fee,95,1,2024-02-27T14:10:41.670Z,french_38.wav,0,pull,348,23,5,2,english,m,0,0.0,-0.72741882,1.73508679
5c71ec3f2d666100018c6fee,95,1,2024-02-27T14:10:41.670Z,french_38.wav,0,pull,348,23,5,2,english,m,1,0.1,17.06804162,1.04827054
5c71ec3f2d666100018c6fee,95,1,2024-02-27T14:10:41.670Z,french_38.wav,0,pull,348,23,5,2,english,m,2,0.2,-90.47269694,0.06966066
5c71ec3f2d666100018c6fee,95,1,2024-02-27T14:10:41.670Z,french_38.wav,0,pull,348,23,5,2,english,m,3,0.25666667,-46.03968341,1.13213122
5c71ec3f2d666100018c6fee,96,1,2024-02-27T14:10:41.670Z,french_683.wav,0,poule,380,23,5,2,english,m,0,0.0,21.98154849,0.17421097
5c71ec3f2d666100018c6fee,96,1,2024-02-27T14:10:41.670Z,french_683.wav,0,poule,380,23,5,2,english,m,1,0.1,59.44126587,0.03094343
5c71ec3f2d666100018c6fee,96,1,2024-02-27T14:10:41.670Z,french_683.wav,0,poule,380,23,5,2,english,m,2,0.2,-51.05687534,0.79924543
5c71ec3f2d666100018c6fee,96,1,2024-02-27T14:10:41.670Z,french_683.wav,0,poule,380,23,5,2,english,m,3,0.25666667,-9.70916743,0.82068176
5c71ec3f2d666100018c6fee,97,1,2024-02-27T14:10:41.670Z,french_62.wav,0,pull,661,23,5,2,english,m,0,0.0,-14.31975686,0.1654928
5c71ec3f2d666100018c6fee,97,1,2024-02-27T14:10:41.670Z,french_62.wav,0,pull,661,23,5,2,english,m,1,0.1,44.56193131,0.95189119
5c71ec3f2d666100018c6fee,97,1,2024-02-27T14:10:41.670Z,french_62.wav,0,pull,661,23,5,2,english,m,2,0.2,-86.7672378,0.13775192
5c71ec3f2d666100018c6fee,97,1,2024-02-27T14:10:41.670Z,french_62.wav,0,pull,661,23,5,2,english,m,3,0.25666667,88.73328565,1.69441392
5c71ec3f2d666100018c6fee,98,1,2024-02-27T14:10:41.670Z,french_783.wav,0,poule,411,23,5,2,english,m,0,0.0,-1.39366148,1.02261841
5c71ec3f2d666100018c6fee,98,1,2024-02-27T14:10:41.670Z,french_783.wav,0,poule,411,23,5,2,english,m,1,0.1,-51.98505422,1.36670641
5c71ec3f2d666100018c6fee,98,1,2024-02-27T14:10:41.670Z,french_783.wav,0,poule,411,23,5,2,english,m,2,0.2,-59.48644931,1.36831513
5c71ec3f2d666100018c6fee,98,1,2024-02-27T14:10:41.670Z,french_783.wav,0,poule,411,23,5,2,english,m,3,0.25666667,-72.0894269,1.17814646
5c71ec3f2d666100018c6fee,99,1,2024-02-27T14:10:41.670Z,french_631.wav,0,poule,720,23,5,2,english,m,0,0.0,87.50143958,0.46380881
5c71ec3f2d666100018c6fee,99,1,2024-02-27T14:10:41.670Z,french_631.wav,0,poule,720,23,5,2,english,m,1,0.1,43.81698528,0.9935464
5c71ec3f2d666100018c6fee,99,1,2024-02-27T14:10:41.670Z,french_631.wav,0,poule,720,23,5,2,english,m,2,0.2,97.72878597,1.55852459
5c71ec3f2d666100018c6fee,99,1,2024-02-27T14:10:41.670Z,french_631.wav,0,poule,720,23,5,2,english,m,3,0.25666667,25.13380659,0.71365297
5c71ec3f2d666100018c6fee,100,2,2024-02-27T14:10:41.670Z,french_158.wav,0,poule,567,23,5,2,english,m,0,0.0,72.88318106,1.5476705
5c71ec3f2d666100018c6fee,100,2,2024-02-27T14:10:41.670Z,french_158.wav,0,poule,567,23,5,2,english,m,1,0.1,51.2800476,1.92933226
5c71ec3f2d666100018c6fee,100,2,2024-02-27T14:10:41.670Z,french_158.wav,0,poule,567,23,5,2,english,m,2,0.2,-29.39007937,1.77733774
5c71ec3f2d666100018c6fee,100,2,2024-02-27T14:10:41.670Z,french_158.wav,0,poule,567,23,5,2,english,m,3,0.25666667,87.52810159,1.82253327
5c71ec3f2d666100018c6fee,101,2,2024-02-27T14:10:41.670Z,french_839.wav,0,poule,370,23,5,2,english,m,0,0.0,11.03740457,0.76467652
5c71ec3f2d666100018c6fee,101,2,2024-02-27T14:10:41.670Z,french_839.wav,0,poule,370,23,5,2,english,m,1,0.1,23.46119987,0.76268055
5c71ec3f2d666100018c6fee,101,2,2024-02-27T14:10:41.670Z,french_839.wav,0,poule,370,23,5,2,english,m,2,0.2,-0.31614798,1.64444165
5c71ec3f2d666100018c6fee,101,2,2024-02-27T14:10:41.670Z,french_839.wav,0,poule,370,23,5,2,english,m,3,0.25666667,62.63183259,0.69482811
5c71ec3f2d666100018c6fee,102,2,2024-02-27T14:10:41.670Z,french_200.wav,0,poule,478,23,5,2,english,m,0,0.0,-10.65818699,0.95052916
5c71ec3f2d666100018c6fee,102,2,2024-02-27T14:10:41.670Z,french_200.wav,0,poule,478,23,5,2,english,m,1,0.1,-8.96413357,0.11424824
5c71ec3f2d666100018c6fee,102,2,2024-02-27T14:10:41.670Z,french_200.wav,0,poule,478,23,5,2,english,m,2,0.2,-78.89627616,1.718039
5c71ec3f2d666100018c6fee,102,2,2024-02-27T14:10:41.670Z,french_200.wav,0,poule,478,23,5,2,english,m,3,0.25666667,8.01745362,1.42690066
5c71ec3f2d666100018c6fee,103,2,2024-02-27T14:10:41.670Z,french_716.wav,0,pull,518,23,5,2,english,m,0,0.0,84.94340614,0.02480266
5c71ec3f2d666100018c6fee,103,2,2024-02-27T14:10:41.670Z,french_716.wav,0,pull,518,23,5,2,english,m,1,0.1,-26.42004262,1.84645248
5c71ec3f2d666100018c6fee,103,2,2024-02-27T14:10:41.670Z,french_716.wav,0,pull,518,23,5,2,english,m,2,0.2,43.13419589,1.11902957
5c71ec3f2d666100018c6fee,103,2,2024-02-27T14:10:41.670Z,french_716.wav,0,pull,518,23,5,2,english,m,3,0.25666667,70.01736472,1.71178302
5c71ec3f2d666100018c6fee,104,2,2024-02-27T14:10:41.670Z,french_486.wav,0,poule,376,23,5,2,english,m,0,0.0,-65.13732965,0.7755652
5c71ec3f2d666100018c6fee,104,2,2024-02-27T14:10:41.670Z,french_486.wav,0,poule,376,23,5,2,english,m,1,0.1,-93.57114331,0.9577819
5c71ec3f2d666100018c6fee,104,2,2024-02-27T14:10:41.670Z,french_486.wav,0,poule,376,23,5,2,english,m,2,0.2,-51.69797787,0.68553835
5c71ec3f2d666100018c6fee,104,2,2024-02-27T14:10:41.670Z,french_486.wav,0,poule,376,23,5,2,english,m,3,0.25666667,-3.30938414,0.55056833
5c71ec3f2d666100018c6fee,105,2,2024-02-27T14:10:41.670Z,french_603.wav,0,poule,374,23,5,2,english,m,0,0.0,59.84554137,1.0661988
5c71ec3f2d666100018c6fee,105,2,2024-02-27T14:10:41.670Z,french_603.wav,0,poule,374,23,5,2,english,m,1,0.1,16.50437024,1.9988244
5c71ec3f2d666100018c6fee,105,2,2024-02-27T14:10:41.670Z,french_603.wav,0,poule,374,23,5,2,english,m,2,0.2,38.82252298,0.61428719
5c71ec3f2d666100018c6fee,105,2,2024-02-27T14:10:41.670Z,french_603.wav,0,poule,374,23,5,2,english,m,3,0.25666667,25.72688984,0.58715273
5c71ec3f2d666100018c6fee,106,2,2024-02-27T14:10:41.670Z,french_993.wav,0,poule,394,23,5,2,english,m,0,0.0,3.12847982,1.75015027
5c71ec3f2d666100018c6fee,106,2,2024-02-27T14:10:41.670Z,french_993.wav,0,poule,394,23,5,2,english,m,1,0.1,-78.95304083,0.83743251
5c71ec3f2d666100018c6fee,106,2,2024-02-27T14:10:41.670Z,french_993.wav,0,poule,394,23,5,2,english,m,2,0.2,-13.84245357,0.53594991
5c71ec3f2d666100018c6fee,106,2,2024-02-27T14:10:41.670Z,french_993.wav,0,poule,394,23,5,2,english,m,3,0.25666667,66.66979397,1.46895698
5c71ec3f2d666100018c6fee,107,2,2024-02-27T14:10:41.670Z,french_792.wav,0,poule,299,23,5,2,english,m,0,0.0,-30.95032355,0.5884638
5c71ec3f2d666100018c6fee,107,2,2024-02-27T14:10:41.670Z,french_792.wav,0,poule,299,23,5,2,english,m,1,0.1,73.05460755,1.61732216
5c71ec3f2d666100018c6fee,107,2,2024-02-27T14:10:41.670Z,french_792.wav,0,poule,299,23,5,2,english,m,2,0.2,-0.6809714,1.33614238
5c71ec3f2d666100018c6fee,107,2,2024-02-27T14:10:41.670Z,french_792.wav,0,poule,299,23,5,2,english,m,3,0.25666667,25.15150688,0.65397567
5c71ec3f2d666100018c6fee,108,2,2024-02-27T14:10:41.670Z,french_135.wav,0,poule,347,23,5,2,english,m,0,0.0,-14.44114523,1.1198793
5c71ec3f2d666100018c6fee,108,2,2024-02-27T14:10:41.670Z,french_135.wav,0,poule,347,23,5,2,english,m,1,0.1,22.88033262,0.12707755
5c71ec3f2d666100018c6fee,108,2,2024-02-27T14:10:41.670Z,french_135.wav,0,poule,347,23,5,2,english,m,2,0.2,45.87784319,1.72429487
5c71ec3f2d666100018c6fee,108,2,2024-02-27T14:10:41.670Z,french_135.wav,0,poule,347,23,5,2,english,m,3,0.25666667,14.60103067,0.79769027
5c71ec3f2d666100018c6fee,109,2,2024-02-27T14:10:41.670Z,french_694.wav,0,poule,293,23,5,2,english,m,0,0.0,17.77218449,1.83585748
5c71ec3f2d666100018c6fee,109,2,2024-02-27T14:10:41.670Z,french_694.wav,0,poule,293,23,5,2,english,m,1,0.1,99.46599521,0.80026037
5c71ec3f2d666100018c6fee,109,2,2024-02-27T14:10:41.670Z,french_694.wav,0,poule,293,23,5,2,english,m,2,0.2,-15.42512366,1.77531791
5c71ec3f2d666100018c6fee,109,2,2024-02-27T14:10:41.670Z,french_694.wav,0,poule,293,23,5,2,english,m,3,0.25666667,-86.21441247,1.07868716
5c71ec3f2d666100018c6fee,110,2,2024-02-27T14:10:41.670Z,french_157.wav,0,poule,784,23,5,2,english,m,0,0.0,-6.6246598,1.79360699
5c71ec3f2d666100018c6fee,110,2,2024-02-27T14:10:41.670Z,french_157.wav,0,poule,784,23,5,2,english,m,1,0.1,49.95824353,1.27582672
5c71ec3f2d666100018c6fee,110,2,2024-02-27T14:10:41.670Z,french_157.wav,0,poule,784,23,5,2,english,m,2,0.2,50.90371108,1.55422844
5c71ec3f2d666100018c6fee,110,2,2024-02-27T14:10:41.670Z,french_157.wav,0,poule,784,23,5,2,english,m,3,0.25666667,-96.22740321,0.51380788
5c71ec3f2d666100018c6fee,111,2,2024-02-27T14:10:41.670Z,french_431.wav,0,poule,268,23,5,2,english,m,0,0.0,-54.98282588,1.39465542
5c71ec3f2d666100018c6fee,111,2,2024-02-27T14:10:41.670Z,french_431.wav,0,poule,268,23,5,2,english,m,1,0.1,-84.59035382,1.77814632
5c71ec3f2d666100018c6fee,111,2,2024-02-27T14:10:41.670Z,french_431.wav,0,poule,268,23,5,2,english,m,2,0.2,-24.91317649,0.57412197
5c71ec3f2d666100018c6fee,111,2,2024-02-27T14:10:41.670Z,french_431.wav,0,poule,268,23,5,2,english,m,3,0.25666667,11.58207854,1.85348509
5c71ec3f2d666100018c6fee,112,2,2024-02-27T14:10:41.670Z,french_638.wav,0,poule,322,23,5,2,english,m,0,0.0,-18.90498038,0.47409532
5c71ec3f2d666100018c6fee,112,2,2024-02-27T14:10:41.670Z,french_638.wav,0,poule,322,23,5,2,english,m,1,0.1,-28.86355513,1.76910273
5c71ec3f2d666100018c6fee,112,2,2024-02-27T14:10:41.670Z,french_638.wav,0,poule,322,23,5,2,english,m,2,0.2,-97.62198235,0.72222374
5c71ec3f2d666100018c6fee,112,2,2024-02-27T14:10:41.670Z,french_638.wav,0,poule,322,23,5,2,english,m,3,0.25666667,26.30993693,0.09803926
5c71ec3f2d666100018c6fee,113,2,2024-02-27T14:10:41.670Z,french_595.wav,0,poule,846,23,5,2,english,m,0,0.0,-73.15061419,1.40746522
5c71ec3f2d666100018c6fee,113,2,2024-02-27T14:10:41.670Z,french_595.wav,0,poule,846,23,5,2,english,m,1,0.1,67.23643261,0.48150889
5c71ec3f2d666100018c6fee,113,2,2024-02-27T14:10:41.670Z,french_595.wav,0,poule,846,23,5,2,english,m,2,0.2,29.33444659,0.65461581
5c71ec3f2d666100018c6fee,113,2,2024-02-27T14:10:41.670Z,french_595.wav,0,poule,846,23,5,2,english,m,3,0.25666667,-65.67909684,0.62395538
5c71ec3f2d666100018c6fee,114,2,2024-02-27T14:10:41.670Z,french_874.wav,0,poule,832,23,5,2,english,m,0,0.0,-35.96007818,0.94126631
5c71ec3f2d666100018c6fee,114,2,2024-02-27T14:10:41.670Z,french_874.wav,0,poule,832,23,5,2,english,m,1,0.1,93.27546243,1.47253108
5c71ec3f2d666100018c6fee,114,2,2024-02-27T14:10:41.670Z,french_874.wav,0,poule,832,23,5,2,english,m,2,0.2,-82.54110259,1.71868685
5c71ec3f2d666100018c6fee,114,2,2024-02-27T14:10:41.670Z,french_874.wav,0,poule,832,23,5,2,english,m,3,0.25666667,1.86870901,0.93280664
5c71ec3f2d666100018c6fee,115,2,2024-02-27T14:10:41.670Z,french_564.wav,0,pull,430,23,5,2,english,m,0,0.0,-42.85760261,0.14777183
5c71ec3f2d666100018c6fee,115,2,2024-02-27T14:10:41.670Z,french_564.wav,0,pull,430,23,5,2,english,m,1,0.1,78.12316343,1.08229262
5c71ec3f2d666100018c6fee,115,2,2024-02-27T14:10:41.670Z,french_564.wav,0,pull,430,23,5,2,english,m,2,0.2,32.53186734,0.52251513
5c71ec3f2d666100018c6fee,115,2,2024-02-27T14:10:41.670Z,french_564.wav,0,pull,430,23,5,2,english,m,3,0.25666667,60.20924512,1.40255579
5c71ec3f2d666100018c6fee,116,2,2024-02-27T14:10:41.670Z,french_688.wav,0,pull,324,23,5,2,english,m,0,0.0,-12.19437797,1.87578392
5c71ec3f2d666100018c6fee,116,2,2024-02-27T14:10:41.670Z,french_688.wav,0,pull,324,23,5,2,english,m,1,0.1,-70.42225937,1.69222134
5c71ec3f2d666100018c6fee,116,2,2024-02-27T14:10:41.670Z,french_688.wav,0,pull,324,23,5,2,english,m,2,0.2,-86.95466997,1.82069748
5c71ec3f2d666100018c6fee,116,2,2024-02-27T14:10:41.670Z,french_688.wav,0,pull,324,23,5,2,english,m,3,0.25666667,-17.4398035,1.64542948
5c71ec3f2d666100018c6fee,117,2,2024-02-27T14:10:41.670Z,french_542.wav,0,pull,458,23,5,2,english,m,0,0.0,88.21755363,1.84211071
5c71ec3f2d666100018c6fee,117,2,2024-02-27T14:10:41.670Z,french_542.wav,0,pull,458,23,5,2,english,m,1,0.1,59.97016865,1.57396898
5c71ec3f2d666100018c6fee,117,2,2024-02-27T14:10:41.670Z,french_542.wav,0,pull,458,23,5,2,english,m,2,0.2,-54.94167031,1.14268549
5c71ec3f2d666100018c6fee,117,2,2024-02-27T14:10:41.670Z,french_542.wav,0,pull,458,23,5,2,english,m,3,0.25666667,-74.88408835,1.52682198
5c71ec3f2d666100018c6fee,118,2,2024-02-27T14:10:41.670Z,french_816.wav,0,poule,450,23,5,2,english,m,0,0.0,-39.39804621,1.26291691
5c71ec3f2d666100018c6fee,118,2,2024-02-27T14:10:41.670Z,french_816.wav,0,poule,450,23,5,2,english,m,1,0.1,14.23792488,1.60181117
5c71ec3f2d666100018c6fee,118,2,2024-02-27T14:10:41.670Z,french_816.wav,0,poule,450,23,5,2,english,m,2,0.2,-84.08825282,0.57012939
5c71ec3f2d666100018c6fee,118,2,2024-02-27T14:10:41.670Z,french_816.wav,0,poule,450,23,5,2,english,m,3,0.25666667,-46.46940665,1.06315664
5c71ec3f2d666100018c6fee,119,2,2024-02-27T14:10:41.670Z,french_960.wav,0,poule,933,23,5,2,english,m,0,0.0,-21.44081237,0.51475761
5c71ec3f2d666100018c6fee,119,2,2024-02-27T14:10:41.670Z,french_960.wav,0,poule,933,23,5,2,english,m,1,0.1,-88.4923718,1.11613408
5c71ec3f2d666100018c6fee,119,2,2024-02-27T14:10:41.670Z,french_960.wav,0,poule,933,23,5,2,english,m,2,0.2,38.79957112,0.09358172
5c71ec3f2d666100018c6fee,119,2,2024-02-27T14:10:41.670Z,french_960.wav,0,poule,933,23,5,2,english,m,3,0.25666667,-94.67313386,1.96196729
5c71ec3f2d666100018c6fee,120,2,2024-02-27T14:10:41.670Z,french_138.wav,0,poule,254,23,5,2,english,m,0,0.0,52.19266886,1.6075583
5c71ec3f2d666100018c6fee,120,2,2024-02-27T14:10:41.670Z,french_138.wav,0,poule,254,23,5,2,english,m,1,0.1,-20.87110469,1.57175316
5c71ec3f2d666100018c6fee,120,2,2024-02-27T14:10:41.670Z,french_138.wav,0,poule,254,23,5,2,english,m,2,0.2,-63.85285305,0.73019834
5c71ec3f2d666100018c6fee,120,2,2024-02-27T14:10:41.670Z,french_138.wav,0,poule,254,23,5,2,english,m,3,0.25666667,35.09837538,0.12473077
5c71ec3f2d666100018c6fee,121,2,2024-02-27T14:10:41.670Z,french_645.wav,0,pull,621,23,5,2,english,m,0,0.0,39.28095882,1.44479402
5c71ec3f2d666100018c6fee,121,2,2024-02-27T14:10:41.670Z,french_645.wav,0,pull,621,23,5,2,english,m,1,0.1,36.97709506,1.97267477
5c71ec3f2d666100018c6fee,121,2,2024-02-27T14:10:41.670Z,french_645.wav,0,pull,621,23,5,2,english,m,2,0.2,-20.56368862,0.33303832
5c71ec3f2d666100018c6fee,121,2,2024-02-27T14:10:41.670Z,french_645.wav,0,pull,621,23,5,2,english,m,3,0.25666667,45.13755494,0.87530899
5c71ec3f2d666100018c6fee,122,2,2024-02-27T14:10:41.670Z,french_247.wav,0,pull,21,23,5,2,english,m,0,0.0,31.18827639,0.50646138
5c71ec3f2d666100018c6fee,122,2,2024-02-27T14:10:41.670Z,french_247.wav,0,pull,21,23,5,2,english,m,1,0.1,28.69447174,0.63180121
5c71ec3f2d666100018c6fee,122,2,2024-02-27T14:10:41.670Z,french_247.wav,0,pull,21,23,5,2,english,m,2,0.2,-68.83088208,1.73165753
5c71ec3f2d666100018c6fee,122,2,2024-02-27T14:10:41.670Z,french_247.wav,0,pull,21,23,5,2,english,m,3,0.25666667,44.69710936,1.77415142
5c71ec3f2d666100018c6fee,123,2,2024-02-27T14:10:41.670Z,french_926.wav,0,pull,573,23,5,2,english,m,0,0.0,-38.30420493,1.0266732
5c71ec3f2d666100018c6fee,123,2,2024-02-27T14:10:41.670Z,french_926.wav,0,pull,573,23,5,2,english,m,1,0.1,-97.26803886,0.03873156
5c71ec3f2d666100018c6fee,123,2,2024-02-27T14:10:41.670Z,french_926.wav,0,pull,573,23,5,2,english,m,2,0.2,55.3544282,0.32593073
5c71ec3f2d666100018c6fee,123,2,2024-02-27T14:10:41.670Z,french_926.wav,0,pull,573,23,5,2,english,m,3,0.25666667,8.78644418,0.80695306
5c71ec3f2d666100018c6fee,124,2,2024-02-27T14:10:41.670Z,french_923.wav,0,pull,456,23,5,2,english,m,0,0.0,-57.84523262,1.35677253
5c71ec3f2d666100018c6fee,124,2,2024-02-27T14:10:41.670Z,french_923.wav,0,pull,456,23,5,2,english,m,1,0.1,-15.65652506,1.1280373
5c71ec3f2d666100018c6fee,124,2,2024-02-27T14:10:41.670Z,french_923.wav,0,pull,456,23,5,2,english,m,2,0.2,37.84243464,1.38752537
5c71ec3f2d666100018c6fee,124,2,2024-02-27T14:10:41.670Z,french_923.wav,0,pull,456,23,5,2,english,m,3,0.25666667,15.41728704,1.42596606
5c71ec3f2d666100018c6fee,125,2,2024-02-27T14:10:41.670Z,french_318.wav,0,pull,927,23,5,2,english,m,0,0.0,51.46520294,0.36120202
5c71ec3f2d666100018c6fee,125,2,2024-02-27T14:10:41.670Z,french_318.wav,0,pull,927,23,5,2,english,m,1,0.1,86.78866558,0.00996795
5c71ec3f2d666100018c6fee,125,2,2024-02-27T14:10:41.670Z,french_318.wav,0,pull,927,23,5,2,english,m,2,0.2,-10.27725715,1.05940341
5c71ec3f2d666100018c6fee,125,2,2024-02-27T14:10:41.670Z,french_318.wav,0,pull,927,23,5,2,english,m,3,0.25666667,9.68065634,1.37923943
5c71ec3f2d666100018c6fee,126,2,2024-02-27T14:10:41.670Z,french_393.wav,0,poule,436,23,5,2,english,m,0,0.0,-4.17853165,1.11841435
5c71ec3f2d666100018c6fee,126,2,2024-02-27T14:10:41.670Z,french_393.wav,0,poule,436,23,5,2,english,m,1,0.1,-52.7672758,1.14982518
5c71ec3f2d666100018c6fee,126,2,2024-02-27T14:10:41.670Z,french_393.wav,0,poule,436,23,5,2,english,m,2,0.2,-35.65632354,1.99911749
5c71ec3f2d666100018c6fee,126,2,2024-02-27T14:10:41.670Z,french_393.wav,0,poule,436,23,5,2,english,m,3,0.25666667,-38.23501308,0.07284053
5c71ec3f2d666100018c6fee,127,2,2024-02-27T14:10:41.670Z,french_493.wav,0,pull,958,23,5,2,english,m,0,0.0,-68.32294441,0.52835731
5c71ec3f2d666100018c6fee,127,2,2024-02-27T14:10:41.670Z,french_493.wav,0,pull,958,23,5,2,english,m,1,0.1,-10.78892258,0.49612748
5c71ec3f2d666100018c6fee,127,2,2024-02-27T14:10:41.670Z,french_493.wav,0,pull,958,23,5,2,english,m,2,0.2,91.72278204,1.46473376
5c71ec3f2d666100018c6fee,127,2,2024-02-27T14:10:41.670Z,french_493.wav,0,pull,958,23,5,2,english,m,3,0.25666667,-45.09260027,1.2872874
5c71ec3f2d666100018c6fee,128,2,2024-02-27T14:10:41.670Z,french_822.wav,0,pull,836,23,5,2,english,m,0,0.0,70.1141555,0.03091404
5c71ec3f2d666100018c6fee,128,2,2024-02-27T14:10:41.670Z,french_822.wav,0,pull,836,23,5,2,english,m,1,0.1,-32.80370271,1.54599653
5c71ec3f2d666100018c6fee,128,2,2024-02-27T14:10:41.670Z,french_822.wav,0,pull,836,23,5,2,english,m,2,0.2,9.36864383,0.45983016
5c71ec3f2d666100018c6fee,128,2,2024-02-27T14:10:41.670Z,french_822.wav,0,pull,836,23,5,2,english,m,3,0.25666667,-70.41865943,0.57036726
5c71ec3f2d666100018c6fee,129,2,2024-02-27T14:10:41.670Z,french_112.wav,0,poule,499,23,5,2,english,m,0,0.0,-70.30580716,0.18088618
5c71ec3f2d666100018c6fee,129,2,2024-02-27T14:10:41.670Z,french_112.wav,0,poule,499,23,5,2,english,m,1,0.1,33.64373442,1.43869791
5c71ec3f2d666100018c6fee,129,2,2024-02-27T14:10:41.670Z,french_112.wav,0,poule,499,23,5,2,english,m,2,0.2,26.55830463,0.89230346
5c71ec3f2d666100018c6fee,129,2,2024-02-27T14:10:41.670Z,french_112.wav,0,poule,499,23,5,2,english,m,3,0.25666667,46.16769785,0.14009493
5c71ec3f2d666100018c6fee,130,2,2024-02-27T14:10:41.670Z,french_866.wav,0,pull,378,23,5,2,english,m,0,0.0,-60.69074585,1.64484001
5c71ec3f2d666100018c6fee,130,2,2024-02-27T14:10:41.670Z,french_866.wav,0,pull,378,23,5,2,english,m,1,0.1,-41.67968152,0.19415831
5c71ec3f2d666100018c6fee,130,2,2024-02-27T14:10:41.670Z,french_866.wav,0,pull,378,23,5,2,english,m,2,0.2,-8.99838874,1.20864699
5c71ec3f2d666100018c6fee,130,2,2024-02-27T14:10:41.670Z,french_866.wav,0,pull,378,23,5,2,english,m,3,0.25666667,40.83736488,0.81730442
5c71ec3f2d666100018c6fee,131,2,2024-02-27T14:10:41.670Z,french_351.wav,0,poule,533,23,5,2,english,m,0,0.0,-22.87012194,0.67033139
5c71ec3f2d666100018c6fee,131,2,2024-02-27T14:10:41.670Z,french_351.wav,0,poule,533,23,5,2,english,m,1,0.1,10.68995272,0.80045466
5c71ec3f2d666100018c6fee,131,2,2024-02-27T14:10:41.670Z,french_351.wav,0,poule,533,23,5,2,english,m,2,0.2,60.8101445,0.88778875
5c71ec3f2d666100018c6fee,131,2,2024-02-27T14:10:41.670Z,french_351.wav,0,poule,533,23,5,2,english,m,3,0.25666667,32.12752515,0.26390259
5c71ec3f2d666100018c6fee,132,2,2024-02-27T14:10:41.670Z,french_1000.wav,0,poule,574,23,5,2,english,m,0,0.0,-14.94486739,0.60674079
5c71ec3f2d666100018c6fee,132,2,2024-02-27T14:10:41.670Z,french_1000.wav,0,poule,574,23,5,2,english,m,1,0.1,-3.70752284,0.18450848
5c71ec3f2d666100018c6fee,132,2,2024-02-27T14:10:41.670Z,french_1000.wav,0,poule,574,23,5,2,english,m,2,0.2,-14.04083749,1.64475948
5c71ec3f2d666100018c6fee,132,2,2024-02-27T14:10:41.670Z,french_1000.wav,0,poule,574,23,5,2,english,m,3,0.25666667,-29.27941665,0.26397745
5c71ec3f2d666100018c6fee,133,2,2024-02-27T14:10:41.670Z,french_793.wav,0,poule,663,23,5,2,english,m,0,0.0,24.81509803,0.12690374
5c71ec3f2d666100018c6fee,133,2,2024-02-27T14:10:41.670Z,french_793.wav,0,poule,663,23,5,2,english,m,1,0.1,-63.66512484,0.60816637
5c71ec3f2d666100018c6fee,133,2,2024-02-27T14:10:41.670Z,french_793.wav,0,poule,663,23,5,2,english,m,2,0.2,-35.07665133,0.42682998
5c71ec3f2d666100018c6fee,133,2,2024-02-27T14:10:41.670Z,french_793.wav,0,poule,663,23,5,2,english,m,3,0.25666667,-2.30327069,0.74050477
5c71ec3f2d666100018c6fee,134,2,2024-02-27T14:10:41.670Z,french_451.wav,0,pull,953,23,5,2,english,m,0,0.0,4.63188994,1.82787098
5c71ec3f2d666100018c6fee,134,2,2024-02-27T14:10:41.670Z,french_451.wav,0,pull,953,23,5,2,english,m,1,0.1,28.08955108,0.29502826
5c71ec3f2d666100018c6fee,134,2,2024-02-27T14:10:41.670Z,french_451.wav,0,pull,953,23,5,2,english,m,2,0.2,71.15157801,0.14883578
5c71ec3f2d666100018c6fee,134,2,2024-02-27T14:10:41.670Z,french_451.wav,0,pull,953,23,5,2,english,m,3,0.25666667,-28.31676071,0.64245631
5c71ec3f2d666100018c6fee,135,2,2024-02-27T14:10:41.670Z,french_193.wav,0,poule,374,23,5,2,english,m,0,0.0,-28.32639357,1.40536398
5c71ec3f2d666100018c6fee,135,2,2024-02-27T14:10:41.670Z,french_193.wav,0,poule,374,23,5,2,english,m,1,0.1,-28.26139456,0.96467568
5c71ec3f2d666100018c6fee,135,2,2024-02-27T14:10:41.670Z,french_193.wav,0,poule,374,23,5,2,english,m,2,0.2,-57.21870996,1.12687293
5c71ec3f2d666100018c6fee,135,2,2024-02-27T14:10:41.670Z,french_193.wav,0,poule,374,23,5,2,english,m,3,0.25666667,-51.4120543,0.49094377
5c71ec3f2d666100018c6fee,136,2,2024-02-27T14:10:41.670Z,french_470.wav,0,poule,268,23,5,2,english,m,0,0.0,35.80891732,1.18984778
5c71ec3f2d666100018c6fee,136,2,2024-02-27T14:10:41.670Z,french_470.wav,0,poule,268,23,5,2,english,m,1,0.1,-69.45523052,0.95727089
5c71ec3f2d666100018c6fee,136,2,2024-02-27T14:10:41.670Z,french_470.wav,0,poule,268,23,5,2,english,m,2,0.2,14.95046841,1.94704509
5c71ec3f2d666100018c6fee,136,2,2024-02-27T14:10:41.670Z,french_470.wav,0,poule,268,23,5,2,english,m,3,0.25666667,17.64450191,1.37814226
5c71ec3f2d666100018c6fee,137,2,2024-02-27T14:10:41.670Z,french_169.wav,0,poule,335,23,5,2,english,m,0,0.0,14.47590961,1.38784349
5c71ec3f2d666100018c6fee,137,2,2024-02-27T14:10:41.670Z,french_169.wav,0,poule,335,23,5,2,english,m,1,0.1,38.07545665,1.28983767
5c71ec3f2d666100018c6fee,137,2,2024-02-27T14:10:41.670Z,french_169.wav,0,poule,335,23,5,2,english,m,2,0.2,-50.40298695,0.58936297
5c71ec3f2d666100018c6fee,137,2,2024-02-27T14:10:41.670Z,french_169.wav,0,poule,335,23,5,2,english,m,3,0.25666667,25.61467991,0.49151359
5c71ec3f2d666100018c6fee,138,2,2024-02-27T14:10:41.670Z,french_560.wav,0,poule,435,23,5,2,english,m,0,0.0,-42.00998938,1.48749501
5c71ec3f2d666100018c6fee,138,2,2024-02-27T14:10:41.670Z,french_560.wav,0,poule,435,23,5,2,english,m,1,0.1,-57.33016448,0.25124208
5c71ec3f2d666100018c6fee,138,2,2024-02-27T14:10:41.670Z,french_560.wav,0,poule,435,23,5,2,english,m,2,0.2,94.61210268,1.70870291
5c71ec3f2d666100018c6fee,138,2,2024-02-27T14:10:41.670Z,french_560.wav,0,poule,435,23,5,2,english,m,3,0.25666667,-53.14621565,0.91259566
5c71ec3f2d666100018c6fee,139,2,2024-02-27T14:10:41.670Z,french_461.wav,0,poule,124,23,5,2,english,m,0,0.0,76.34817382,0.72953599
5c71ec3f2d666100018c6fee,139,2,2024-02-27T14:10:41.670Z,french_461.wav,0,poule,124,23,5,2,english,m,1,0.1,2.37579461,1.5415695
5c71ec3f2d666100018c6fee,139,2,2024-02-27T14:10:41.670Z,french_461.wav,0,poule,124,23,5,2,english,m,2,0.2,-59.90047781,1.01078515
5c71ec3f2d666100018c6fee,139,2,2024-02-27T14:10:41.670Z,french_461.wav,0,poule,124,23,5,2,english,m,3,0.25666667,20.08623444,1.02737445
5c71ec3f2d666100018c6fee,140,2,2024-02-27T14:10:41.670Z,french_850.wav,0,pull,506,23,5,2,english,m,0,0.0,-88.87179188,0.91597825
5c71ec3f2d666100018c6fee,140,2,2024-02-27T14:10:41.670Z,french_850.wav,0,pull,506,23,5,2,english,m,1,0.1,15.70736636,0.21425776
5c71ec3f2d666100018c6fee,140,2,2024-02-27T14:10:41.670Z,french_850.wav,0,pull,506,23,5,2,english,m,2,0.2,67.7730952,1.52338939
5c71ec3f2d666100018c6fee,140,2,2024-02-27T14:10:41.670Z,french_850.wav,0,pull,506,23,5,2,english,m,3,0.25666667,-20.3872908,0.55241946
5c71ec3f2d666100018c6fee,141,2,2024-02-27T14:10:41.670Z,french_520.wav,0,pull,543,23,5,2,english,m,0,0.0,-93.2931023,0.41573501
5c71ec3f2d666100018c6fee,141,2,2024-02-27T14:10:41.670Z,french_520.wav,0,pull,543,23,5,2,english,m,1,0.1,13.33088057,0.24185226
5c71ec3f2d666100018c6fee,141,2,2024-02-27T14:10:41.670Z,french_520.wav,0,pull,543,23,5,2,english,m,2,0.2,-27.94628904,0.74385359
5c71ec3f2d666100018c6fee,141,2,2024-02-27T14:10:41.670Z,french_520.wav,0,pull,543,23,5,2,english,m,3,0.25666667,-1.59677094,0.80521135
5c71ec3f2d666100018c6fee,142,2,2024-02-27T14:10:41.670Z,french_834.wav,0,pull,284,23,5,2,english,m,0,0.0,-86.08965853,1.35817583
5c71ec3f2d666100018c6fee,142,2,2024-02-27T14:10:41.670Z,french_834.wav,0,pull,284,23,5,2,english,m,1,0.1,69.78931281,0.2902945
5c71ec3f2d666100018c6fee,142,2,2024-02-27T14:10:41.670Z,french_834.wav,0,pull,284,23,5,2,english,m,2,0.2,-42.1324214,0.84488429
5c71ec3f2d666100018c6fee,142,2,2024-02-27T14:10:41.670Z,french_834.wav,0,pull,284,23,5,2,english,m,3,0.25666667,-13.11810425,0.59655356
5c71ec3f2d666100018c6fee,143,2,2024-02-27T14:10:41.670Z,french_633.wav,0,pull,172,23,5,2,english,m,0,0.0,86.81441283,1.16860967
5c71ec3f2d666100018c6fee,143,2,2024-02-27T14:10:41.670Z,french_633.wav,0,pull,172,23,5,2,english,m,1,0.1,-4.21988764,0.88033016
5c71ec3f2d666100018c6fee,143,2,2024-02-27T14:10:41.670Z,french_633.wav,0,pull,172,23,5,2,english,m,2,0.2,27.13702415,0.79008737
5c71ec3f2d666100018c6fee,143,2,2024-02-27T14:10:41.670Z,french_633.wav,0,pull,172,23,5,2,english,m,3,0.25666667,25.74151368,1.16621919
5c71ec3f2d666100018c6fee,144,2,2024-02-27T14:10:41.670Z,french_386.wav,0,pull,348,23,5,2,english,m,0,0.0,50.68041389,0.75883449
5c71ec3f2d666100018c6fee,144,2,2024-02-27T14:10:41.670Z,french_386.wav,0,pull,348,23,5,2,english,m,1,0.1,19.37586599,1.33167931
5c71ec3f2d666100018c6fee,144,2,2024-02-27T14:10:41.670Z,french_386.wav,0,pull,348,23,5,2,english,m,2,0.2,0.19752764,0.89836148
5c71ec3f2d666100018c6fee,144,2,2024-02-27T14:10:41.670Z,french_386.wav,0,pull,348,23,5,2,english,m,3,0.25666667,-78.73875249,0.64515466
5c71ec3f2d666100018c6fee,145,2,2024-02-27T14:10:41.670Z,french_363.wav,0,poule,617,23,5,2,english,m,0,0.0,53.04818478,0.48026107
5c71ec3f2d666100018c6fee,145,2,2024-02-27T14:10:41.670Z,french_363.wav,0,poule,617,23,5,2,english,m,1,0.1,68.67010762,1.94302888
5c71ec3f2d666100018c6fee,145,2,2024-02-27T14:10:41.670Z,french_363.wav,0,poule,617,23,5,2,english,m,2,0.2,-91.11205335,0.36511891
5c71ec3f2d666100018c6fee,145,2,2024-02-27T14:10:41.670Z,french_363.wav,0,poule,617,23,5,2,english,m,3,0.25666667,-38.9131055,1.6181542
5c71ec3f2d666100018c6fee,146,2,2024-02-27T14:10:41.670Z,french_897.wav,0,pull,638,23,5,2,english,m,0,0.0,-2.62488743,0.95618392
5c71ec3f2d666100018c6fee,146,2,2024-02-27T14:10:41.670Z,french_897.wav,0,pull,638,23,5,2,english,m,1,0.1,-35.09835725,0.97615626
5c71ec3f2d666100018c6fee,146,2,2024-02-27T14:10:41.670Z,french_897.wav,0,pull,638,23,5,2,english,m,2,0.2,-7.90226738,0.33556547
5c71ec3f2d666100018c6fee,146,2,2024-02-27T14:10:41.670Z,french_897.wav,0,pull,638,23,5,2,english,m,3,0.25666667,34.22753828,0.12618193
5c71ec3f2d666100018c6fee,147,2,2024-02-27T14:10:41.670Z,french_442.wav,0,pull,142,23,5,2,english,m,0,0.0,60.29330972,0.95088916
5c71ec3f2d666100018c6fee,147,2,2024-02-27T14:10:41.670Z,french_442.wav,0,pull,142,23,5,2,english,m,1,0.1,96.30587546,0.89420653
5c71ec3f2d666100018c6fee,147,2,2024-02-27T14:10:41.670Z,french_442.wav,0,pull,142,23,5,2,english,m,2,0.2,3.75375275,0.09745987
5c71ec3f2d666100018c6fee,147,2,2024-02-27T14:10:41.670Z,french_442.wav,0,pull,142,23,5,2,english,m,3,0.25666667,65.23357012,0.42759775
5c71ec3f2d666100018c6fee,148,2,2024-02-27T14:10:41.670Z,french_797.wav,0,poule,211,23,5,2,english,m,0,0.0,10.83398763,1.35681854
5c71ec3f2d666100018c6fee,148,2,2024-02-27T14:10:41.670Z,french_797.wav,0,poule,211,23,5,2,english,m,1,0.1,29.96867406,1.57636752
5c71ec3f2d666100018c6fee,148,2,2024-02-27T14:10:41.670Z,french_797.wav,0,poule,211,23,5,2,english,m,2,0.2,64.14464291,0.81932008
5c71ec3f2d666100018c6fee,148,2,2024-02-27T14:10:41.670Z,french_797.wav,0,poule,211,23,5,2,english,m,3,0.25666667,10.44882606,0.26521499
5c71ec3f2d666100018c6fee,149,2,2024-02-27T14:10:41.670Z,french_596.wav,0,poule,537,23,5,2,english,m,0,0.0,-19.67623174,1.19630482
5c71ec3f2d666100018c6fee,149,2,2024-02-27T14:10:41.670Z,french_596.wav,0,poule,537,23,5,2,english,m,1,0.1,5.02630097,1.45796377
5c71ec3f2d666100018c6fee,149,2,2024-02-27T14:10:41.670Z,french_596.wav,0,poule,537,23,5,2,english,m,2,0.2,17.71933024,1.33112957
5c71ec3f2d666100018c6fee,149,2,2024-02-27T14:10:41.670Z,french_596.wav,0,poule,537,23,5,2,english,m,3,0.25666667,-99.90911374,0.42422988
5c71ec3f2d666100018c6fee,150,3,2024-02-27T14:10:41.670Z,french_481.wav,0,poule,53,23,5,2,english,m,0,0.0,-44.05926666,1.24899263
5c71ec3f2d666100018c6fee,150,3,2024-02-27T14:10:41.670Z,french_481.wav,0,poule,53,23,5,2,english,m,1,0.1,85.82418432,1.22078865
5c71ec3f2d666100018c6fee,150,3,2024-02-27T14:10:41.670Z,french_481.wav,0,poule,53,23,5,2,english,m,2,0.2,87.54559417,0.10859618
5c71ec3f2d666100018c6fee,150,3,2024-02-27T14:10:41.670Z,french_481.wav,0,poule,53,23,5,2,english,m,3,0.25666667,50.04191005,0.19634609
5c71ec3f2d666100018c6fee,151,3,2024-02-27T14:10:41.670Z,french_507.wav,0,pull,181,23,5,2,english,m,0,0.0,-39.00130205,0.88980729
5c71ec3f2d666100018c6fee,151,3,2024-02-27T14:10:41.670Z,french_507.wav,0,pull,181,23,5,2,english,m,1,0.1,8.15448279,1.12034654
5c71ec3f2d666100018c6fee,151,3,2024-02-27T14:10:41.670Z,french_507.wav,0,pull,181,23,5,2,english,m,2,0.2,-39.88004764,1.15006522
5c71ec3f2d666100018c6fee,151,3,2024-02-27T14:10:41.670Z,french_507.wav,0,pull,181,23,5,2,english,m,3,0.25666667,66.54300966,1.10945683
5c71ec3f2d666100018c6fee,152,3,2024-02-27T14:10:41.670Z,french_706.wav,0,poule,342,23,5,2,english,m,0,0.0,53.91986852,0.595313
5c71ec3f2d666100018c6fee,152,3,2024-02-27T14:10:41.670Z,french_706.wav,0,poule,342,23,5,2,english,m,1,0.1,-86.79287422,0.19033695
5c71ec3f2d666100018c6fee,152,3,2024-02-27T14:10:41.670Z,french_706.wav,0,poule,342,23,5,2,english,m,2,0.2,-18.13553248,1.2444166
5c71ec3f2d666100018c6fee,152,3,2024-02-27T14:10:41.670Z,french_706.wav,0,poule,342,23,5,2,english,m,3,0.25666667,-98.41078943,0.51551453
5c71ec3f2d666100018c6fee,153,3,2024-02-27T14:10:41.670Z,french_987.wav,0,pull,452,23,5,2,english,m,0,0.0,29.59235099,0.62183529
5c71ec3f2d666100018c6fee,153,3,2024-02-27T14:10:41.670Z,french_987.wav,0,pull,452,23,5,2,english,m,1,0.1,34.94187385,0.21370909
5c71ec3f2d666100018c6fee,153,3,2024-02-27T14:10:41.670Z,french_987.wav,0,pull,452,23,5,2,english,m,2,0.2,50.69614072,0.33639435
5c71ec3f2d666100018c6fee,153,3,2024-02-27T14:10:41.670Z,french_987.wav,0,pull,452,23,5,2,english,m,3,0.25666667,30.08512425,1.23768731
5c71ec3f2d666100018c6fee,154,3,2024-02-27T14:10:41.670Z,french_417.wav,0,poule,389,23,5,2,english,m,0,0.0,-52.68130191,1.49469738
5c71ec3f2d666100018c6fee,154,3,2024-02-27T14:10:41.670Z,french_417.wav,0,poule,389,23,5,2,english,m,1,0.1,73.91368418,1.06358835
5c71ec3f2d666100018c6fee,154,3,2024-02-27T14:10:41.670Z,french_417.wav,0,poule,389,23,5,2,english,m,2,0.2,7.73324389,1.12421265
5c71ec3f2d666100018c6fee,154,3,2024-02-27T14:10:41.670Z,french_417.wav,0,poule,389,23,5,2,english,m,3,0.25666667,92.88066518,0.65436219
5c71ec3f2d666100018c6fee,155,3,2024-02-27T14:10:41.670Z,french_438.wav,0,poule,1006,23,5,2,english,m,0,0.0,38.28600595,0.24947118
5c71ec3f2d666100018c6fee,155,3,2024-02-27T14:10:41.670Z,french_438.wav,0,poule,1006,23,5,2,english,m,1,0.1,-2.73615403,0.88566368
5c71ec3f2d666100018c6fee,155,3,2024-02-27T14:10:41.670Z,french_438.wav,0,poule,1006,23,5,2,english,m,2,0.2,-43.32822043,0.23078024
5c71ec3f2d666100018c6fee,155,3,2024-02-27T14:10:41.670Z,french_438.wav,0,poule,1006,23,5,2,english,m,3,0.25666667,-21.43836029,1.64360752
5c71ec3f2d666100018c6fee,156,3,2024-02-27T14:10:41.670Z,french_758.wav,0,poule,707,23,5,2,english,m,0,0.0,45.30317447,1.53591398
5c71ec3f2d666100018c6fee,156,3,2024-02-27T14:10:41.670Z,french_758.wav,0,poule,707,23,5,2,english,m,1,0.1,37.35504147,1.00413053
5c71ec3f2d666100018c6fee,156,3,2024-02-27T14:10:41.670Z,french_758.wav,0,poule,707,23,5,2,english,m,2,0.2,-7.74982346,1.59140772
5c71ec3f2d666100018c6fee,156,3,2024-02-27T14:10:41.670Z,french_758.wav,0,poule,707,23,5,2,english,m,3,0.25666667,-75.22654498,0.76456646
5c71ec3f2d666100018c6fee,157,3,2024-02-27T14:10:41.670Z,french_802.wav,0,poule,373,23,5,2,english,m,0,0.0,-73.24347689,0.39190156
5c71ec3f2d666100018c6fee,157,3,2024-02-27T14:10:41.670Z,french_802.wav,0,poule,373,23,5,2,english,m,1,0.1,14.85977478,1.18064228
5c71ec3f2d666100018c6fee,157,3,2024-02-27T14:10:41.670Z,french_802.wav,0,poule,373,23,5,2,english,m,2,0.2,-45.72901481,1.4654249
5c71ec3f2d666100018c6fee,157,3,2024-02-27T14:10:41.670Z,french_802.wav,0,poule,373,23,5,2,english,m,3,0.25666667,-78.69015161,0.6030906
5c71ec3f2d666100018c6fee,158,3,2024-02-27T14:10:41.670Z,french_86.wav,0,pull,371,23,5,2,english,m,0,0.0,-13.34839912,1.5394535
5c71ec3f2d666100018c6fee,158,3,2024-02-27T14:10:41.670Z,french_86.wav,0,pull,371,23,5,2,english,m,1,0.1,-0.15074382,0.88064418
5c71ec3f2d666100018c6fee,158,3,2024-02-27T14:10:41.670Z,french_86.wav,0,pull,371,23,5,2,english,m,2,0.2,25.45831569,1.66652907
5c71ec3f2d666100018c6fee,158,3,2024-02-27T14:10:41.670Z,french_86.wav,0,pull,371,23,5,2,english,m,3,0.25666667,48.27326553,0.20293469
5c71ec3f2d666100018c6fee,159,3,2024-02-27T14:10:41.670Z,french_334.wav,0,pull,763,23,5,2,english,m,0,0.0,40.44836216,0.13212964
5c71ec3f2d666100018c6fee,159,3,2024-02-27T14:10:41.670Z,french_334.wav,0,pull,763,23,5,2,english,m,1,0.1,-67.56280837,0.74019732
5c71ec3f2d666100018c6fee,159,3,2024-02-27T14:10:41.670Z,french_334.wav,0,pull,763,23,5,2,english,m,2,0.2,-28.73514643,0.72240648
5c71ec3f2d666100018c6fee,159,3,2024-02-27T14:10:41.670Z,french_334.wav,0,pull,763,23,5,2,english,m,3,0.25666667,-49.63309354,0.47162208
5c71ec3f2d666100018c6fee,160,3,2024-02-27T14:10:41.670Z,french_78.wav,0,poule,303,23,5,2,english,m,0,0.0,-36.45256911,0.98498246
5c71ec3f2d666100018c6fee,160,3,2024-02-27T14:10:41.670Z,french_78.wav,0,poule,303,23,5,2,english,m,1,0.1,52.80709263,1.84515784
5c71ec3f2d666100018c6fee,160,3,2024-02-27T14:10:41.670Z,french_78.wav,0,poule,303,23,5,2,english,m,2,0.2,-45.25624127,1.50799972
5c71ec3f2d666100018c6fee,160,3,2024-02-27T14:10:41.670Z,french_78.wav,0,poule,303,23,5,2,english,m,3,0.25666667,18.96418323,1.61920031
5c71ec3f2d666100018c6fee,161,3,2024-02-27T14:10:41.670Z,french_533.wav,0,poule,396,23,5,2,english,m,0,0.0,16.04004141,1.94214745
5c71ec3f2d666100018c6fee,161,3,2024-02-27T14:10:41.670Z,french_533.wav,0,poule,396,23,5,2,english,m,1,0.1,56.74964814,0.96958639
5c71ec3f2d666100018c6fee,161,3,2024-02-27T14:10:41.670Z,french_533.wav,0,poule,396,23,5,2,english,m,2,0.2,94.00728235,1.49563925
5c71ec3f2d666100018c6fee,161,3,2024-02-27T14:10:41.670Z,french_533.wav,0,poule,396,23,5,2,english,m,3,0.25666667,-15.92685786,1.75047909
5c71ec3f2d666100018c6fee,162,3,2024-02-27T14:10:41.670Z,french_836.wav,0,poule,340,23,5,2,english,m,0,0.0,40.23641464,0.42377088
5c71ec3f2d666100018c6fee,162,3,2024-02-27T14:10:41.670Z,french_836.wav,0,poule,340,23,5,2,english,m,1,0.1,53.79535187,0.63943013
5c71ec3f2d666100018c6fee,162,3,2024-02-27T14:10:41.670Z,french_836.wav,0,poule,340,23,5,2,english,m,2,0.2,-4.0789246,1.19242466
5c71ec3f2d666100018c6fee,162,3,2024-02-27T14:10:41.670Z,french_836.wav,0,poule,340,23,5,2,english,m,3,0.25666667,3.8536211,1.488673
5c71ec3f2d666100018c6fee,163,3,2024-02-27T14:10:41.670Z,french_242.wav,0,poule,349,23,5,2,english,m,0,0.0,19.1317605,0.13091957
5c71ec3f2d666100018c6fee,163,3,2024-02-27T14:10:41.670Z,french_242.wav,0,poule,349,23,5,2,english,m,1,0.1,-45.8995637,1.80487076
5c71ec3f2d666100018c6fee,163,3,2024-02-27T14:10:41.670Z,french_242.wav,0,poule,349,23,5,2,english,m,2,0.2,0.0160089686,1.56599149
5c71ec3f2d666100018c6fee,163,3,2024-02-27T14:10:41.670Z,french_242.wav,0,poule,349,23,5,2,english,m,3,0.256666667,88.294087,1.35043951
5c71ec3f2d666100018c6fee,164,3,2024-02-27T14:10:41.670Z,french_823.wav,0,poule,362,23,5,2,english,m,0,0.0,-89.53533563,0.87621895
5c71ec3f2d666100018c6fee,164,3,2024-02-27T14:10:41.670Z,french_823.wav,0,poule,362,23,5,2,english,m,1,0.1,14.01752274,0.92757563
5c71ec3f2d666100018c6fee,164,3,2024-02-27T14:10:41.670Z,french_823.wav,0,poule,362,23,5,2,english,m,2,0.2,33.24657022,1.30685671
5c71ec3f2d666100018c6fee,164,3,2024-02-27T14:10:41.670Z,french_823.wav,0,poule,362,23,5,2,english,m,3,0.25666667,-78.84260648,1.33840969
5c71ec3f2d666100018c6fee,165,3,2024-02-27T14:10:41.670Z,french_826.wav,0,poule,378,23,5,2,english,m,0,0.0,-33.86739367,0.07066528
5c71ec3f2d666100018c6fee,165,3,2024-02-27T14:10:41.670Z,french_826.wav,0,poule,378,23,5,2,english,m,1,0.1,-31.27966971,0.90490109
5c71ec3f2d666100018c6fee,165,3,2024-02-27T14:10:41.670Z,french_826.wav,0,poule,378,23,5,2,english,m,2,0.2,51.84533444,0.66906535
5c71ec3f2d666100018c6fee,165,3,2024-02-27T14:10:41.670Z,french_826.wav,0,poule,378,23,5,2,english,m,3,0.25666667,-81.13386792,0.4882988
5c71ec3f2d666100018c6fee,166,3,2024-02-27T14:10:41.670Z,french_609.wav,0,pull,342,23,5,2,english,m,0,0.0,11.6890167,1.75568789
5c71ec3f2d666100018c6fee,166,3,2024-02-27T14:10:41.670Z,french_609.wav,0,pull,342,23,5,2,english,m,1,0.1,-35.50971605,1.50542158
5c71ec3f2d666100018c6fee,166,3,2024-02-27T14:10:41.670Z,french_609.wav,0,pull,342,23,5,2,english,m,2,0.2,-98.47760025,0.96032408
5c71ec3f2d666100018c6fee,166,3,2024-02-27T14:10:41.670Z,french_609.wav,0,pull,342,23,5,2,english,m,3,0.25666667,-64.00925784,1.1186533
5c71ec3f2d666100018c6fee,167,3,2024-02-27T14:10:41.670Z,french_472.wav,0,poule,410,23,5,2,english,m,0,0.0,-9.46806957,0.85855516
5c71ec3f2d666100018c6fee,167,3,2024-02-27T14:10:41.670Z,french_472.wav,0,poule,410,23,5,2,english,m,1,0.1,45.81973918,1.60383991
5c71ec3f2d666100018c6fee,167,3,2024-02-27T14:10:41.670Z,french_472.wav,0,poule,410,23,5,2,english,m,2,0.2,-32.95266456,0.80244772
5c71ec3f2d666100018c6fee,167,3,2024-02-27T14:10:41.670Z,french_472.wav,0,poule,410,23,5,2,english,m,3,0.25666667,-10.56557549,1.48234138
5c71ec3f2d666100018c6fee,168,3,2024-02-27T14:10:41.670Z,french_867.wav,0,poule,658,23,5,2,english,m,0,0.0,-56.83459408,0.56298114
5c71ec3f2d666100018c6fee,168,3,2024-02-27T14:10:41.670Z,french_867.wav,0,poule,658,23,5,2,english,m,1,0.1,-43.30462201,1.09173708
5c71ec3f2d666100018c6fee,168,3,2024-02-27T14:10:41.670Z,french_867.wav,0,poule,658,23,5,2,english,m,2,0.2,-57.08778715,1.10722732
5c71ec3f2d666100018c6fee,168,3,2024-02-27T14:10:41.670Z,french_867.wav,0,poule,658,23,5,2,english,m,3,0.25666667,26.25433727,0.48299304
5c71ec3f2d666100018c6fee,169,3,2024-02-27T14:10:41.670Z,french_416.wav,0,poule,860,23,5,2,english,m,0,0.0,27.68943274,1.77963231
5c71ec3f2d666100018c6fee,169,3,2024-02-27T14:10:41.670Z,french_416.wav,0,poule,860,23,5,2,english,m,1,0.1,-10.10461599,1.68240888
5c71ec3f2d666100018c6fee,169,3,2024-02-27T14:10:41.670Z,french_416.wav,0,poule,860,23,5,2,english,m,2,0.2,24.64183683,1.38997073
5c71ec3f2d666100018c6fee,169,3,2024-02-27T14:10:41.670Z,french_416.wav,0,poule,860,23,5,2,english,m,3,0.25666667,96.08137129,0.64151937
5c71ec3f2d666100018c6fee,170,3,2024-02-27T14:10:41.670Z,french_908.wav,0,pull,276,23,5,2,english,m,0,0.0,-17.448813,1.41004623
5c71ec3f2d666100018c6fee,170,3,2024-02-27T14:10:41.670Z,french_908.wav,0,pull,276,23,5,2,english,m,1,0.1,35.46481843,0.76159164
5c71ec3f2d666100018c6fee,170,3,2024-02-27T14:10:41.670Z,french_908.wav,0,pull,276,23,5,2,english,m,2,0.2,-20.0899606,1.03892063
5c71ec3f2d666100018c6fee,170,3,2024-02-27T14:10:41.670Z,french_908.wav,0,pull,276,23,5,2,english,m,3,0.25666667,-29.56589343,1.03966959
5c71ec3f2d666100018c6fee,171,3,2024-02-27T14:10:41.670Z,french_724.wav,0,pull,580,23,5,2,english,m,0,0.0,-58.96674975,0.30578628
5c71ec3f2d666100018c6fee,171,3,2024-02-27T14:10:41.670Z,french_724.wav,0,pull,580,23,5,2,english,m,1,0.1,-95.33611412,0.57010607
5c71ec3f2d666100018c6fee,171,3,2024-02-27T14:10:41.670Z,french_724.wav,0,pull,580,23,5,2,english,m,2,0.2,-56.69004984,1.33615123
5c71ec3f2d666100018c6fee,171,3,2024-02-27T14:10:41.670Z,french_724.wav,0,pull,580,23,5,2,english,m,3,0.25666667,-50.97008283,1.59962144
5c71ec3f2d666100018c6fee,172,3,2024-02-27T14:10:41.670Z,french_939.wav,0,poule,250,23,5,2,english,m,0,0.0,26.75853805,1.87296773
5c71ec3f2d666100018c6fee,172,3,2024-02-27T14:10:41.670Z,french_939.wav,0,poule,250,23,5,2,english,m,1,0.1,6.19803181,1.06061528
5c71ec3f2d666100018c6fee,172,3,2024-02-27T14:10:41.670Z,french_939.wav,0,poule,250,23,5,2,english,m,2,0.2,-16.72335747,1.33482008
5c71ec3f2d666100018c6fee,172,3,2024-02-27T14:10:41.670Z,french_939.wav,0,poule,250,23,5,2,english,m,3,0.25666667,96.23810145,0.73381464
5c71ec3f2d666100018c6fee,173,3,2024-02-27T14:10:41.670Z,french_565.wav,0,pull,461,23,5,2,english,m,0,0.0,50.78822436,1.00864226
5c71ec3f2d666100018c6fee,173,3,2024-02-27T14:10:41.670Z,french_565.wav,0,pull,461,23,5,2,english,m,1,0.1,-75.93967217,1.52231663
5c71ec3f2d666100018c6fee,173,3,2024-02-27T14:10:41.670Z,french_565.wav,0,pull,461,23,5,2,english,m,2,0.2,-58.95969425,0.24874103
5c71ec3f2d666100018c6fee,173,3,2024-02-27T14:10:41.670Z,french_565.wav,0,pull,461,23,5,2,english,m,3,0.25666667,-53.32673619,1.47271882
5c71ec3f2d666100018c6fee,174,3,2024-02-27T14:10:41.670Z,french_944.wav,0,pull,527,23,5,2,english,m,0,0.0,-8.30121602,1.41077405
5c71ec3f2d666100018c6fee,174,3,2024-02-27T14:10:41.670Z,french_944.wav,0,pull,527,23,5,2,english,m,1,0.1,15.19990023,0.52690475
5c71ec3f2d666100018c6fee,174,3,2024-02-27T14:10:41.670Z,french_944.wav,0,pull,527,23,5,2,english,m,2,0.2,-34.54061483,0.23733031
5c71ec3f2d666100018c6fee,174,3,2024-02-27T14:10:41.670Z,french_944.wav,0,pull,527,23,5,2,english,m,3,0.25666667,-24.04483863,1.49354387
5c71ec3f2d666100018c6fee,175,3,2024-02-27T14:10:41.670Z,french_397.wav,0,pull,264,23,5,2,english,m,0,0.0,-13.81470081,1.26162917
5c71ec3f2d666100018c6fee,175,3,2024-02-27T14:10:41.670Z,french_397.wav,0,pull,264,23,5,2,english,m,1,0.1,50.38281738,1.19612478
5c71ec3f2d666100018c6fee,175,3,2024-02-27T14:10:41.670Z,french_397.wav,0,pull,264,23,5,2,english,m,2,0.2,50.22980228,1.02842354
5c71ec3f2d666100018c6fee,175,3,2024-02-27T14:10:41.670Z,french_397.wav,0,pull,264,23,5,2,english,m,3,0.25666667,-83.86271009,0.53389444
5c71ec3f2d666100018c6fee,176,3,2024-02-27T14:10:41.670Z,french_968.wav,0,pull,240,23,5,2,english,m,0,0.0,45.43845159,0.89884875
5c71ec3f2d666100018c6fee,176,3,2024-02-27T14:10:41.670Z,french_968.wav,0,pull,240,23,5,2,english,m,1,0.1,86.71618344,1.25950681
5c71ec3f2d666100018c6fee,176,3,2024-02-27T14:10:41.670Z,french_968.wav,0,pull,240,23,5,2,english,m,2,0.2,-29.06718199,0.29298434
5c71ec3f2d666100018c6fee,176,3,2024-02-27T14:10:41.670Z,french_968.wav,0,pull,240,23,5,2,english,m,3,0.25666667,11.394495,1.98021593
5c71ec3f2d666100018c6fee,177,3,2024-02-27T14:10:41.670Z,french_999.wav,0,pull,271,23,5,2,english,m,0,0.0,47.65145935,0.42993564
5c71ec3f2d666100018c6fee,177,3,2024-02-27T14:10:41.670Z,french_999.wav,0,pull,271,23,5,2,english,m,1,0.1,64.90222313,1.41824969
5c71ec3f2d666100018c6fee,177,3,2024-02-27T14:10:41.670Z,french_999.wav,0,pull,271,23,5,2,english,m,2,0.2,79.66636989,1.25132817
5c71ec3f2d666100018c6fee,177,3,2024-02-27T14:10:41.670Z,french_999.wav,0,pull,271,23,5,2,english,m,3,0.25666667,-10.95327426,1.10016678
5c71ec3f2d666100018c6fee,178,3,2024-02-27T14:10:41.670Z,french_312.wav,0,poule,650,23,5,2,english,m,0,0.0,-19.98952993,1.92157149
5c71ec3f2d666100018c6fee,178,3,2024-02-27T14:10:41.670Z,french_312.wav,0,poule,650,23,5,2,english,m,1,0.1,50.70617954,0.53263035
5c71ec3f2d666100018c6fee,178,3,2024-02-27T14:10:41.670Z,french_312.wav,0,poule,650,23,5,2,english,m,2,0.2,80.27383631,1.8452111
5c71ec3f2d666100018c6fee,178,3,2024-02-27T14:10:41.670Z,french_312.wav,0,poule,650,23,5,2,english,m,3,0.25666667,31.55502425,1.73122835
5c71ec3f2d666100018c6fee,179,3,2024-02-27T14:10:41.670Z,french_698.wav,0,poule,223,23,5,2,english,m,0,0.0,77.87531809,1.86418809
5c71ec3f2d666100018c6fee,179,3,2024-02-27T14:10:41.670Z,french_698.wav,0,poule,223,23,5,2,english,m,1,0.1,-26.89699032,0.30357323
5c71ec3f2d666100018c6fee,179,3,2024-02-27T14:10:41.670Z,french_698.wav,0,poule,223,23,5,2,english,m,2,0.2,-54.93316964,1.97458381
5c71ec3f2d666100018c6fee,179,3,2024-02-27T14:10:41.670Z,french_698.wav,0,poule,223,23,5,2,english,m,3,0.25666667,-94.94644501,1.01877906
5c71ec3f2d666100018c6fee,180,3,2024-02-27T14:10:41.670Z,french_272.wav,0,pull,1290,23,5,2,english,m,0,0.0,50.55701535,1.0419248
5c71ec3f2d666100018c6fee,180,3,2024-02-27T14:10:41.670Z,french_272.wav,0,pull,1290,23,5,2,english,m,1,0.1,63.46835537,0.05024982
5c71ec3f2d666100018c6fee,180,3,2024-02-27T14:10:41.670Z,french_272.wav,0,pull,1290,23,5,2,english,m,2,0.2,-46.63250527,0.3554473
5c71ec3f2d666100018c6fee,180,3,2024-02-27T14:10:41.670Z,french_272.wav,0,pull,1290,23,5,2,english,m,3,0.25666667,74.93577843,1.3845464
5c71ec3f2d666100018c6fee,181,3,2024-02-27T14:10:41.670Z,french_921.wav,0,poule,723,23,5,2,english,m,0,0.0,24.11125356,1.60122976
5c71ec3f2d666100018c6fee,181,3,2024-02-27T14:10:41.670Z,french_921.wav,0,poule,723,23,5,2,english,m,1,0.1,37.62729467,0.45720022
5c71ec3f2d666100018c6fee,181,3,2024-02-27T14:10:41.670Z,french_921.wav,0,poule,723,23,5,2,english,m,2,0.2,-94.55025244,1.67775241
5c71ec3f2d666100018c6fee,181,3,2024-02-27T14:10:41.670Z,french_921.wav,0,poule,723,23,5,2,english,m,3,0.25666667,10.27679313,0.96598245
5c71ec3f2d666100018c6fee,182,3,2024-02-27T14:10:41.670Z,french_986.wav,0,poule,344,23,5,2,english,m,0,0.0,-69.96795985,1.93285955
5c71ec3f2d666100018c6fee,182,3,2024-02-27T14:10:41.670Z,french_986.wav,0,poule,344,23,5,2,english,m,1,0.1,-65.30377544,1.55838575
5c71ec3f2d666100018c6fee,182,3,2024-02-27T14:10:41.670Z,french_986.wav,0,poule,344,23,5,2,english,m,2,0.2,27.38987225,0.12645153
5c71ec3f2d666100018c6fee,182,3,2024-02-27T14:10:41.670Z,french_986.wav,0,poule,344,23,5,2,english,m,3,0.25666667,-55.80740264,0.78072242
5c71ec3f2d666100018c6fee,183,3,2024-02-27T14:10:41.670Z,french_880.wav,0,poule,367,23,5,2,english,m,0,0.0,34.54343789,1.97652899
5c71ec3f2d666100018c6fee,183,3,2024-02-27T14:10:41.670Z,french_880.wav,0,poule,367,23,5,2,english,m,1,0.1,76.62551814,0.35866047
5c71ec3f2d666100018c6fee,183,3,2024-02-27T14:10:41.670Z,french_880.wav,0,poule,367,23,5,2,english,m,2,0.2,69.99614697,1.49815227
5c71ec3f2d666100018c6fee,183,3,2024-02-27T14:10:41.670Z,french_880.wav,0,poule,367,23,5,2,english,m,3,0.25666667,-97.30266151,1.92878763
5c71ec3f2d666100018c6fee,184,3,2024-02-27T14:10:41.670Z,french_186.wav,0,poule,326,23,5,2,english,m,0,0.0,-80.05391137,1.48946386
5c71ec3f2d666100018c6fee,184,3,2024-02-27T14:10:41.670Z,french_186.wav,0,poule,326,23,5,2,english,m,1,0.1,-76.4275614,1.35064599
5c71ec3f2d666100018c6fee,184,3,2024-02-27T14:10:41.670Z,french_186.wav,0,poule,326,23,5,2,english,m,2,0.2,7.24631247,0.88239158
5c71ec3f2d666100018c6fee,184,3,2024-02-27T14:10:41.670Z,french_186.wav,0,poule,326,23,5,2,english,m,3,0.25666667,-47.449751,1.60975952
5c71ec3f2d666100018c6fee,185,3,2024-02-27T14:10:41.670Z,french_330.wav,0,poule,431,23,5,2,english,m,0,0.0,-46.98301203,1.92315583
5c71ec3f2d666100018c6fee,185,3,2024-02-27T14:10:41.670Z,french_330.wav,0,poule,431,23,5,2,english,m,1,0.1,55.18277966,0.64158591
5c71ec3f2d666100018c6fee,185,3,2024-02-27T14:10:41.670Z,french_330.wav,0,poule,431,23,5,2,english,m,2,0.2,68.01781419,0.71457858
5c71ec3f2d666100018c6fee,185,3,2024-02-27T14:10:41.670Z,french_330.wav,0,poule,431,23,5,2,english,m,3,0.25666667,-65.13341665,0.26661962
5c71ec3f2d666100018c6fee,186,3,2024-02-27T14:10:41.670Z,french_952.wav,0,pull,569,23,5,2,english,m,0,0.0,89.6944408,1.65049473
5c71ec3f2d666100018c6fee,186,3,2024-02-27T14:10:41.670Z,french_952.wav,0,pull,569,23,5,2,english,m,1,0.1,29.6191185,0.9962644
5c71ec3f2d666100018c6fee,186,3,2024-02-27T14:10:41.670Z,french_952.wav,0,pull,569,23,5,2,english,m,2,0.2,82.60414553,0.25471402
5c71ec3f2d666100018c6fee,186,3,2024-02-27T14:10:41.670Z,french_952.wav,0,pull,569,23,5,2,english,m,3,0.25666667,-20.57336344,0.85149117
5c71ec3f2d666100018c6fee,187,3,2024-02-27T14:10:41.670Z,french_126.wav,0,pull,314,23,5,2,english,m,0,0.0,92.90369484,0.56379558
5c71ec3f2d666100018c6fee,187,3,2024-02-27T14:10:41.670Z,french_126.wav,0,pull,314,23,5,2,english,m,1,0.1,25.09820179,1.73295328
5c71ec3f2d666100018c6fee,187,3,2024-02-27T14:10:41.670Z,french_126.wav,0,pull,314,23,5,2,english,m,2,0.2,92.10026461,0.28067586
5c71ec3f2d666100018c6fee,187,3,2024-02-27T14:10:41.670Z,french_126.wav,0,pull,314,23,5,2,english,m,3,0.25666667,-27.205087,0.82028398
5c71ec3f2d666100018c6fee,188,3,2024-02-27T14:10:41.670Z,french_385.wav,0,pull,239,23,5,2,english,m,0,0.0,-5.35501711,1.94967077
5c71ec3f2d666100018c6fee,188,3,2024-02-27T14:10:41.670Z,french_385.wav,0,pull,239,23,5,2,english,m,1,0.1,28.75563306,0.4629862
5c71ec3f2d666100018c6fee,188,3,2024-02-27T14:10:41.670Z,french_385.wav,0,pull,239,23,5,2,english,m,2,0.2,60.61846434,0.74478567
5c71ec3f2d666100018c6fee,188,3,2024-02-27T14:10:41.670Z,french_385.wav,0,pull,239,23,5,2,english,m,3,0.25666667,-78.89426498,0.69826307
5c71ec3f2d666100018c6fee,189,3,2024-02-27T14:10:41.670Z,french_213.wav,0,pull,160,23,5,2,english,m,0,0.0,18.19792563,0.91602818
5c71ec3f2d666100018c6fee,189,3,2024-02-27T14:10:41.670Z,french_213.wav,0,pull,160,23,5,2,english,m,1,0.1,59.29536603,0.93215034
5c71ec3f2d666100018c6fee,189,3,2024-02-27T14:10:41.670Z,french_213.wav,0,pull,160,23,5,2,english,m,2,0.2,83.4693574,1.11468909
5c71ec3f2d666100018c6fee,189,3,2024-02-27T14:10:41.670Z,french_213.wav,0,pull,160,23,5,2,english,m,3,0.25666667,-3.87812814,1.61202928
5c71ec3f2d666100018c6fee,190,3,2024-02-27T14:10:41.670Z,french_682.wav,0,pull,457,23,5,2,english,m,0,0.0,-16.33102186,0.79850708
5c71ec3f2d666100018c6fee,190,3,2024-02-27T14:10:41.670Z,french_682.wav,0,pull,457,23,5,2,english,m,1,0.1,-49.72009429,1.31273679
5c71ec3f2d666100018c6fee,190,3,2024-02-27T14:10:41.670Z,french_682.wav,0,pull,457,23,5,2,english,m,2,0.2,-23.39596266,1.51298147
5c71ec3f2d666100018c6fee,190,3,2024-02-27T14:10:41.670Z,french_682.wav,0,pull,457,23,5,2,english,m,3,0.25666667,-34.72439006,0.92861139
5c71ec3f2d666100018c6fee,191,3,2024-02-27T14:10:41.670Z,french_443.wav,0,pull,301,23,5,2,english,m,0,0.0,-70.8287672,0.48827419
5c71ec3f2d666100018c6fee,191,3,2024-02-27T14:10:41.670Z,french_443.wav,0,pull,301,23,5,2,english,m,1,0.1,-57.74098156,0.38931866
5c71ec3f2d666100018c6fee,191,3,2024-02-27T14:10:41.670Z,french_443.wav,0,pull,301,23,5,2,english,m,2,0.2,-4.83347895,0.64406231
5c71ec3f2d666100018c6fee,191,3,2024-02-27T14:10:41.670Z,french_443.wav,0,pull,301,23,5,2,english,m,3,0.25666667,-81.70376308,1.21599086
