subj,trial,block,date,stim,stim_order,response,rt,age,english,french,language,sex,param_index,segment,pitch,stretch
651a03c8ea1027b3193b9e35,0,0,2024-02-27T12:15:05.558Z,french_503.wav,0,poule,3989,36,5,4,english,f,0,0.0,-70.57406247,0.43346158
651a03c8ea1027b3193b9e35,0,0,2024-02-27T12:15:05.558Z,french_503.wav,0,poule,3989,36,5,4,english,f,1,0.1,-50.28029143,1.6767429
651a03c8ea1027b3193b9e35,0,0,2024-02-27T12:15:05.558Z,french_503.wav,0,poule,3989,36,5,4,english,f,2,0.2,-1.92788211,0.59100625
651a03c8ea1027b3193b9e35,0,0,2024-02-27T12:15:05.558Z,french_503.wav,0,poule,3989,36,5,4,english,f,3,0.25666667,82.92590596,1.4727109
651a03c8ea1027b3193b9e35,1,0,2024-02-27T12:15:05.558Z,french_307.wav,0,poule,3421,36,5,4,english,f,0,0.0,1.2534749,1.28672407
651a03c8ea1027b3193b9e35,1,0,2024-02-27T12:15:05.558Z,french_307.wav,0,poule,3421,36,5,4,english,f,1,0.1,79.3326992,0.47718292
651a03c8ea1027b3193b9e35,1,0,2024-02-27T12:15:05.558Z,french_307.wav,0,poule,3421,36,5,4,english,f,2,0.2,24.93038066,1.37451018
651a03c8ea1027b3193b9e35,1,0,2024-02-27T12:15:05.558Z,french_307.wav,0,poule,3421,36,5,4,english,f,3,0.25666667,-37.26133342,1.21026525
651a03c8ea1027b3193b9e35,2,0,2024-02-27T12:15:05.558Z,french_472.wav,0,poule,1147,36,5,4,english,f,0,0.0,-9.46806957,0.85855516
651a03c8ea1027b3193b9e35,2,0,2024-02-27T12:15:05.558Z,french_472.wav,0,poule,1147,36,5,4,english,f,1,0.1,45.81973918,1.60383991
651a03c8ea1027b3193b9e35,2,0,2024-02-27T12:15:05.558Z,french_472.wav,0,poule,1147,36,5,4,english,f,2,0.2,-32.95266456,0.80244772
651a03c8ea1027b3193b9e35,2,0,2024-02-27T12:15:05.558Z,french_472.wav,0,poule,1147,36,5,4,english,f,3,0.25666667,-10.56557549,1.48234138
651a03c8ea1027b3193b9e35,3,0,2024-02-27T12:15:05.558Z,french_435.wav,0,pull,320,36,5,4,english,f,0,0.0,-69.76325337,1.8844701
651a03c8ea1027b3193b9e35,3,0,2024-02-27T12:15:05.558Z,french_435.wav,0,pull,320,36,5,4,english,f,1,0.1,47.38197985,1.37326168
651a03c8ea1027b3193b9e35,3,0,2024-02-27T12:15:05.558Z,french_435.wav,0,pull,320,36,5,4,english,f,2,0.2,-46.68992054,0.23230631
651a03c8ea1027b3193b9e35,3,0,2024-02-27T12:15:05.558Z,french_435.wav,0,pull,320,36,5,4,english,f,3,0.25666667,49.41050132,0.56533705
651a03c8ea1027b3193b9e35,4,0,2024-02-27T12:15:05.558Z,french_649.wav,0,pull,1538,36,5,4,english,f,0,0.0,-26.84796804,0.38564107
651a03c8ea1027b3193b9e35,4,0,2024-02-27T12:15:05.558Z,french_649.wav,0,pull,1538,36,5,4,english,f,1,0.1,90.50092835,0.07645681
651a03c8ea1027b3193b9e35,4,0,2024-02-27T12:15:05.558Z,french_649.wav,0,pull,1538,36,5,4,english,f,2,0.2,-42.32642697,0.18898029
651a03c8ea1027b3193b9e35,4,0,2024-02-27T12:15:05.558Z,french_649.wav,0,pull,1538,36,5,4,english,f,3,0.25666667,-6.05454316,0.88659006
651a03c8ea1027b3193b9e35,5,0,2024-02-27T12:15:05.558Z,french_30.wav,0,poule,2970,36,5,4,english,f,0,0.0,76.62673318,0.98317975
651a03c8ea1027b3193b9e35,5,0,2024-02-27T12:15:05.558Z,french_30.wav,0,poule,2970,36,5,4,english,f,1,0.1,68.4553342,1.99903841
651a03c8ea1027b3193b9e35,5,0,2024-02-27T12:15:05.558Z,french_30.wav,0,poule,2970,36,5,4,english,f,2,0.2,55.51592845,1.19167606
651a03c8ea1027b3193b9e35,5,0,2024-02-27T12:15:05.558Z,french_30.wav,0,poule,2970,36,5,4,english,f,3,0.25666667,80.18190702,0.01328513
651a03c8ea1027b3193b9e35,6,0,2024-02-27T12:15:05.558Z,french_175.wav,0,pull,555,36,5,4,english,f,0,0.0,-66.64800697,0.89831181
651a03c8ea1027b3193b9e35,6,0,2024-02-27T12:15:05.558Z,french_175.wav,0,pull,555,36,5,4,english,f,1,0.1,55.8136762,1.16054297
651a03c8ea1027b3193b9e35,6,0,2024-02-27T12:15:05.558Z,french_175.wav,0,pull,555,36,5,4,english,f,2,0.2,13.86880033,0.04267506
651a03c8ea1027b3193b9e35,6,0,2024-02-27T12:15:05.558Z,french_175.wav,0,pull,555,36,5,4,english,f,3,0.25666667,79.77573594,1.48091244
651a03c8ea1027b3193b9e35,7,0,2024-02-27T12:15:05.558Z,french_904.wav,0,poule,823,36,5,4,english,f,0,0.0,-3.33486868,1.84649441
651a03c8ea1027b3193b9e35,7,0,2024-02-27T12:15:05.558Z,french_904.wav,0,poule,823,36,5,4,english,f,1,0.1,-72.00110742,1.91186975
651a03c8ea1027b3193b9e35,7,0,2024-02-27T12:15:05.558Z,french_904.wav,0,poule,823,36,5,4,english,f,2,0.2,32.54458222,0.71589927
651a03c8ea1027b3193b9e35,7,0,2024-02-27T12:15:05.558Z,french_904.wav,0,poule,823,36,5,4,english,f,3,0.25666667,13.13318907,0.21658524
651a03c8ea1027b3193b9e35,8,0,2024-02-27T12:15:05.558Z,french_718.wav,0,poule,439,36,5,4,english,f,0,0.0,60.10154263,0.48894908
651a03c8ea1027b3193b9e35,8,0,2024-02-27T12:15:05.558Z,french_718.wav,0,poule,439,36,5,4,english,f,1,0.1,11.66591821,1.65193902
651a03c8ea1027b3193b9e35,8,0,2024-02-27T12:15:05.558Z,french_718.wav,0,poule,439,36,5,4,english,f,2,0.2,18.23831634,1.63024081
651a03c8ea1027b3193b9e35,8,0,2024-02-27T12:15:05.558Z,french_718.wav,0,poule,439,36,5,4,english,f,3,0.25666667,-0.86268038,0.33166429
651a03c8ea1027b3193b9e35,9,0,2024-02-27T12:15:05.558Z,french_639.wav,0,pull,445,36,5,4,english,f,0,0.0,11.64385005,1.86180111
651a03c8ea1027b3193b9e35,9,0,2024-02-27T12:15:05.558Z,french_639.wav,0,pull,445,36,5,4,english,f,1,0.1,-83.53772589,1.31531339
651a03c8ea1027b3193b9e35,9,0,2024-02-27T12:15:05.558Z,french_639.wav,0,pull,445,36,5,4,english,f,2,0.2,-26.70113898,0.16484712
651a03c8ea1027b3193b9e35,9,0,2024-02-27T12:15:05.558Z,french_639.wav,0,pull,445,36,5,4,english,f,3,0.25666667,-28.21717215,0.08923993
651a03c8ea1027b3193b9e35,10,0,2024-02-27T12:15:05.558Z,french_144.wav,0,pull,568,36,5,4,english,f,0,0.0,54.7439873,1.65699933
651a03c8ea1027b3193b9e35,10,0,2024-02-27T12:15:05.558Z,french_144.wav,0,pull,568,36,5,4,english,f,1,0.1,-90.40840953,0.10946834
651a03c8ea1027b3193b9e35,10,0,2024-02-27T12:15:05.558Z,french_144.wav,0,pull,568,36,5,4,english,f,2,0.2,-23.8496949,0.63660565
651a03c8ea1027b3193b9e35,10,0,2024-02-27T12:15:05.558Z,french_144.wav,0,pull,568,36,5,4,english,f,3,0.25666667,9.69074846,0.31092992
651a03c8ea1027b3193b9e35,11,0,2024-02-27T12:15:05.558Z,french_521.wav,0,poule,326,36,5,4,english,f,0,0.0,11.04386286,1.73052604
651a03c8ea1027b3193b9e35,11,0,2024-02-27T12:15:05.558Z,french_521.wav,0,poule,326,36,5,4,english,f,1,0.1,-55.65083084,0.96564678
651a03c8ea1027b3193b9e35,11,0,2024-02-27T12:15:05.558Z,french_521.wav,0,poule,326,36,5,4,english,f,2,0.2,98.93037095,1.35299162
651a03c8ea1027b3193b9e35,11,0,2024-02-27T12:15:05.558Z,french_521.wav,0,poule,326,36,5,4,english,f,3,0.25666667,14.06437892,1.41353716
651a03c8ea1027b3193b9e35,12,0,2024-02-27T12:15:05.558Z,french_65.wav,0,poule,477,36,5,4,english,f,0,0.0,-17.53877645,1.80859796
651a03c8ea1027b3193b9e35,12,0,2024-02-27T12:15:05.558Z,french_65.wav,0,poule,477,36,5,4,english,f,1,0.1,77.85789868,1.24255314
651a03c8ea1027b3193b9e35,12,0,2024-02-27T12:15:05.558Z,french_65.wav,0,poule,477,36,5,4,english,f,2,0.2,16.40180032,1.28894604
651a03c8ea1027b3193b9e35,12,0,2024-02-27T12:15:05.558Z,french_65.wav,0,poule,477,36,5,4,english,f,3,0.25666667,56.20856175,0.80043142
651a03c8ea1027b3193b9e35,13,0,2024-02-27T12:15:05.558Z,french_342.wav,0,poule,475,36,5,4,english,f,0,0.0,-84.22246184,0.80111929
651a03c8ea1027b3193b9e35,13,0,2024-02-27T12:15:05.558Z,french_342.wav,0,poule,475,36,5,4,english,f,1,0.1,-88.55202377,0.92289162
651a03c8ea1027b3193b9e35,13,0,2024-02-27T12:15:05.558Z,french_342.wav,0,poule,475,36,5,4,english,f,2,0.2,12.74462997,0.96187701
651a03c8ea1027b3193b9e35,13,0,2024-02-27T12:15:05.558Z,french_342.wav,0,poule,475,36,5,4,english,f,3,0.25666667,-73.67155113,0.57764427
651a03c8ea1027b3193b9e35,14,0,2024-02-27T12:15:05.558Z,french_98.wav,0,pull,329,36,5,4,english,f,0,0.0,-5.34356544,0.47275823
651a03c8ea1027b3193b9e35,14,0,2024-02-27T12:15:05.558Z,french_98.wav,0,pull,329,36,5,4,english,f,1,0.1,-51.77157259,0.98771666
651a03c8ea1027b3193b9e35,14,0,2024-02-27T12:15:05.558Z,french_98.wav,0,pull,329,36,5,4,english,f,2,0.2,16.6615471,0.01400035
651a03c8ea1027b3193b9e35,14,0,2024-02-27T12:15:05.558Z,french_98.wav,0,pull,329,36,5,4,english,f,3,0.25666667,-37.68560636,0.42827786
651a03c8ea1027b3193b9e35,15,0,2024-02-27T12:15:05.558Z,french_19.wav,0,pull,396,36,5,4,english,f,0,0.0,-43.32613145,0.86768791
651a03c8ea1027b3193b9e35,15,0,2024-02-27T12:15:05.558Z,french_19.wav,0,pull,396,36,5,4,english,f,1,0.1,-51.04998213,0.12235363
651a03c8ea1027b3193b9e35,15,0,2024-02-27T12:15:05.558Z,french_19.wav,0,pull,396,36,5,4,english,f,2,0.2,-30.05832199,0.93205141
651a03c8ea1027b3193b9e35,15,0,2024-02-27T12:15:05.558Z,french_19.wav,0,pull,396,36,5,4,english,f,3,0.25666667,-62.89931607,0.68272422
651a03c8ea1027b3193b9e35,16,0,2024-02-27T12:15:05.558Z,french_425.wav,0,pull,512,36,5,4,english,f,0,0.0,36.0896382,0.72680638
651a03c8ea1027b3193b9e35,16,0,2024-02-27T12:15:05.558Z,french_425.wav,0,pull,512,36,5,4,english,f,1,0.1,-60.28824884,0.01839492
651a03c8ea1027b3193b9e35,16,0,2024-02-27T12:15:05.558Z,french_425.wav,0,pull,512,36,5,4,english,f,2,0.2,-83.12671609,1.09901753
651a03c8ea1027b3193b9e35,16,0,2024-02-27T12:15:05.558Z,french_425.wav,0,pull,512,36,5,4,english,f,3,0.25666667,32.66103116,1.13928828
651a03c8ea1027b3193b9e35,17,0,2024-02-27T12:15:05.558Z,french_864.wav,0,poule,360,36,5,4,english,f,0,0.0,27.21382842,1.35032716
651a03c8ea1027b3193b9e35,17,0,2024-02-27T12:15:05.558Z,french_864.wav,0,poule,360,36,5,4,english,f,1,0.1,-8.96687562,1.41041806
651a03c8ea1027b3193b9e35,17,0,2024-02-27T12:15:05.558Z,french_864.wav,0,poule,360,36,5,4,english,f,2,0.2,47.01768167,0.47669103
651a03c8ea1027b3193b9e35,17,0,2024-02-27T12:15:05.558Z,french_864.wav,0,poule,360,36,5,4,english,f,3,0.25666667,98.93956807,1.26265942
651a03c8ea1027b3193b9e35,18,0,2024-02-27T12:15:05.558Z,french_734.wav,0,poule,584,36,5,4,english,f,0,0.0,24.54171911,0.95806039
651a03c8ea1027b3193b9e35,18,0,2024-02-27T12:15:05.558Z,french_734.wav,0,poule,584,36,5,4,english,f,1,0.1,62.00217695,1.43009574
651a03c8ea1027b3193b9e35,18,0,2024-02-27T12:15:05.558Z,french_734.wav,0,poule,584,36,5,4,english,f,2,0.2,-55.547606,0.47319646
651a03c8ea1027b3193b9e35,18,0,2024-02-27T12:15:05.558Z,french_734.wav,0,poule,584,36,5,4,english,f,3,0.25666667,25.07561383,0.83118698
651a03c8ea1027b3193b9e35,19,0,2024-02-27T12:15:05.558Z,french_908.wav,0,poule,765,36,5,4,english,f,0,0.0,-17.448813,1.41004623
651a03c8ea1027b3193b9e35,19,0,2024-02-27T12:15:05.558Z,french_908.wav,0,poule,765,36,5,4,english,f,1,0.1,35.46481843,0.76159164
651a03c8ea1027b3193b9e35,19,0,2024-02-27T12:15:05.558Z,french_908.wav,0,poule,765,36,5,4,english,f,2,0.2,-20.0899606,1.03892063
651a03c8ea1027b3193b9e35,19,0,2024-02-27T12:15:05.558Z,french_908.wav,0,poule,765,36,5,4,english,f,3,0.25666667,-29.56589343,1.03966959
651a03c8ea1027b3193b9e35,20,0,2024-02-27T12:15:05.558Z,french_211.wav,0,poule,603,36,5,4,english,f,0,0.0,26.09911827,0.38797522
651a03c8ea1027b3193b9e35,20,0,2024-02-27T12:15:05.558Z,french_211.wav,0,poule,603,36,5,4,english,f,1,0.1,37.88219535,0.97106999
651a03c8ea1027b3193b9e35,20,0,2024-02-27T12:15:05.558Z,french_211.wav,0,poule,603,36,5,4,english,f,2,0.2,25.3370042,0.82384696
651a03c8ea1027b3193b9e35,20,0,2024-02-27T12:15:05.558Z,french_211.wav,0,poule,603,36,5,4,english,f,3,0.25666667,-31.50750366,0.88987221
651a03c8ea1027b3193b9e35,21,0,2024-02-27T12:15:05.558Z,french_479.wav,0,poule,438,36,5,4,english,f,0,0.0,-77.56228832,0.23971003
651a03c8ea1027b3193b9e35,21,0,2024-02-27T12:15:05.558Z,french_479.wav,0,poule,438,36,5,4,english,f,1,0.1,-51.14246902,1.41057828
651a03c8ea1027b3193b9e35,21,0,2024-02-27T12:15:05.558Z,french_479.wav,0,poule,438,36,5,4,english,f,2,0.2,54.51803315,0.5803481
651a03c8ea1027b3193b9e35,21,0,2024-02-27T12:15:05.558Z,french_479.wav,0,poule,438,36,5,4,english,f,3,0.25666667,-8.31356421,0.39274068
651a03c8ea1027b3193b9e35,22,0,2024-02-27T12:15:05.558Z,french_87.wav,0,poule,2296,36,5,4,english,f,0,0.0,57.46562038,1.84924107
651a03c8ea1027b3193b9e35,22,0,2024-02-27T12:15:05.558Z,french_87.wav,0,poule,2296,36,5,4,english,f,1,0.1,64.37451918,1.35752119
651a03c8ea1027b3193b9e35,22,0,2024-02-27T12:15:05.558Z,french_87.wav,0,poule,2296,36,5,4,english,f,2,0.2,34.82822911,1.55092153
651a03c8ea1027b3193b9e35,22,0,2024-02-27T12:15:05.558Z,french_87.wav,0,poule,2296,36,5,4,english,f,3,0.25666667,-44.22171713,0.2478561
651a03c8ea1027b3193b9e35,23,0,2024-02-27T12:15:05.558Z,french_812.wav,0,poule,1380,36,5,4,english,f,0,0.0,78.53201718,1.73310634
651a03c8ea1027b3193b9e35,23,0,2024-02-27T12:15:05.558Z,french_812.wav,0,poule,1380,36,5,4,english,f,1,0.1,87.32508034,1.73147281
651a03c8ea1027b3193b9e35,23,0,2024-02-27T12:15:05.558Z,french_812.wav,0,poule,1380,36,5,4,english,f,2,0.2,77.15455549,1.58178344
651a03c8ea1027b3193b9e35,23,0,2024-02-27T12:15:05.558Z,french_812.wav,0,poule,1380,36,5,4,english,f,3,0.25666667,-51.33102937,0.27993183
651a03c8ea1027b3193b9e35,24,0,2024-02-27T12:15:05.558Z,french_666.wav,0,pull,321,36,5,4,english,f,0,0.0,51.58977068,0.51416215
651a03c8ea1027b3193b9e35,24,0,2024-02-27T12:15:05.558Z,french_666.wav,0,pull,321,36,5,4,english,f,1,0.1,81.806625,0.1213722
651a03c8ea1027b3193b9e35,24,0,2024-02-27T12:15:05.558Z,french_666.wav,0,pull,321,36,5,4,english,f,2,0.2,10.32462757,1.14435945
651a03c8ea1027b3193b9e35,24,0,2024-02-27T12:15:05.558Z,french_666.wav,0,pull,321,36,5,4,english,f,3,0.25666667,-51.25764779,1.68381456
651a03c8ea1027b3193b9e35,25,0,2024-02-27T12:15:05.558Z,french_798.wav,0,poule,346,36,5,4,english,f,0,0.0,80.80013175,1.56222047
651a03c8ea1027b3193b9e35,25,0,2024-02-27T12:15:05.558Z,french_798.wav,0,poule,346,36,5,4,english,f,1,0.1,8.18850232,1.67765441
651a03c8ea1027b3193b9e35,25,0,2024-02-27T12:15:05.558Z,french_798.wav,0,poule,346,36,5,4,english,f,2,0.2,-10.54144101,1.93747014
651a03c8ea1027b3193b9e35,25,0,2024-02-27T12:15:05.558Z,french_798.wav,0,poule,346,36,5,4,english,f,3,0.25666667,26.86908184,1.76378238
651a03c8ea1027b3193b9e35,26,0,2024-02-27T12:15:05.558Z,french_23.wav,0,pull,299,36,5,4,english,f,0,0.0,60.31001525,1.86606536
651a03c8ea1027b3193b9e35,26,0,2024-02-27T12:15:05.558Z,french_23.wav,0,pull,299,36,5,4,english,f,1,0.1,-66.5420171,0.5728784
651a03c8ea1027b3193b9e35,26,0,2024-02-27T12:15:05.558Z,french_23.wav,0,pull,299,36,5,4,english,f,2,0.2,63.07925381,0.71513043
651a03c8ea1027b3193b9e35,26,0,2024-02-27T12:15:05.558Z,french_23.wav,0,pull,299,36,5,4,english,f,3,0.25666667,-69.51509132,1.52612213
651a03c8ea1027b3193b9e35,27,0,2024-02-27T12:15:05.558Z,french_700.wav,0,pull,416,36,5,4,english,f,0,0.0,27.78595998,1.84943535
651a03c8ea1027b3193b9e35,27,0,2024-02-27T12:15:05.558Z,french_700.wav,0,pull,416,36,5,4,english,f,1,0.1,-29.96160528,0.52483958
651a03c8ea1027b3193b9e35,27,0,2024-02-27T12:15:05.558Z,french_700.wav,0,pull,416,36,5,4,english,f,2,0.2,60.6733782,0.55672926
651a03c8ea1027b3193b9e35,27,0,2024-02-27T12:15:05.558Z,french_700.wav,0,pull,416,36,5,4,english,f,3,0.25666667,39.12324738,0.96842636
651a03c8ea1027b3193b9e35,28,0,2024-02-27T12:15:05.558Z,french_431.wav,0,poule,327,36,5,4,english,f,0,0.0,-54.98282588,1.39465542
651a03c8ea1027b3193b9e35,28,0,2024-02-27T12:15:05.558Z,french_431.wav,0,poule,327,36,5,4,english,f,1,0.1,-84.59035382,1.77814632
651a03c8ea1027b3193b9e35,28,0,2024-02-27T12:15:05.558Z,french_431.wav,0,poule,327,36,5,4,english,f,2,0.2,-24.91317649,0.57412197
651a03c8ea1027b3193b9e35,28,0,2024-02-27T12:15:05.558Z,french_431.wav,0,poule,327,36,5,4,english,f,3,0.25666667,11.58207854,1.85348509
651a03c8ea1027b3193b9e35,29,0,2024-02-27T12:15:05.558Z,french_405.wav,0,pull,389,36,5,4,english,f,0,0.0,52.22885858,0.59532017
651a03c8ea1027b3193b9e35,29,0,2024-02-27T12:15:05.558Z,french_405.wav,0,pull,389,36,5,4,english,f,1,0.1,18.90294402,0.31881138
651a03c8ea1027b3193b9e35,29,0,2024-02-27T12:15:05.558Z,french_405.wav,0,pull,389,36,5,4,english,f,2,0.2,-84.01769715,1.18035169
651a03c8ea1027b3193b9e35,29,0,2024-02-27T12:15:05.558Z,french_405.wav,0,pull,389,36,5,4,english,f,3,0.25666667,95.02638452,0.2814716
651a03c8ea1027b3193b9e35,30,0,2024-02-27T12:15:05.558Z,french_326.wav,0,poule,582,36,5,4,english,f,0,0.0,-63.35446608,1.54071776
651a03c8ea1027b3193b9e35,30,0,2024-02-27T12:15:05.558Z,french_326.wav,0,poule,582,36,5,4,english,f,1,0.1,12.54179258,0.67448432
651a03c8ea1027b3193b9e35,30,0,2024-02-27T12:15:05.558Z,french_326.wav,0,poule,582,36,5,4,english,f,2,0.2,2.59324468,0.56210636
651a03c8ea1027b3193b9e35,30,0,2024-02-27T12:15:05.558Z,french_326.wav,0,poule,582,36,5,4,english,f,3,0.25666667,34.92537359,1.5196438
651a03c8ea1027b3193b9e35,31,0,2024-02-27T12:15:05.558Z,french_619.wav,0,pull,300,36,5,4,english,f,0,0.0,-58.15289928,0.63115023
651a03c8ea1027b3193b9e35,31,0,2024-02-27T12:15:05.558Z,french_619.wav,0,pull,300,36,5,4,english,f,1,0.1,30.86987971,0.12868397
651a03c8ea1027b3193b9e35,31,0,2024-02-27T12:15:05.558Z,french_619.wav,0,pull,300,36,5,4,english,f,2,0.2,96.84221096,0.73139592
651a03c8ea1027b3193b9e35,31,0,2024-02-27T12:15:05.558Z,french_619.wav,0,pull,300,36,5,4,english,f,3,0.25666667,69.41225319,1.17738103
651a03c8ea1027b3193b9e35,32,0,2024-02-27T12:15:05.558Z,french_527.wav,0,pull,340,36,5,4,english,f,0,0.0,97.81644093,0.09503525
651a03c8ea1027b3193b9e35,32,0,2024-02-27T12:15:05.558Z,french_527.wav,0,pull,340,36,5,4,english,f,1,0.1,68.05004199,0.33267387
651a03c8ea1027b3193b9e35,32,0,2024-02-27T12:15:05.558Z,french_527.wav,0,pull,340,36,5,4,english,f,2,0.2,-44.05597581,1.51053464
651a03c8ea1027b3193b9e35,32,0,2024-02-27T12:15:05.558Z,french_527.wav,0,pull,340,36,5,4,english,f,3,0.25666667,40.91945638,1.37458991
651a03c8ea1027b3193b9e35,33,0,2024-02-27T12:15:05.558Z,french_954.wav,0,poule,360,36,5,4,english,f,0,0.0,-31.81965022,1.69468269
651a03c8ea1027b3193b9e35,33,0,2024-02-27T12:15:05.558Z,french_954.wav,0,poule,360,36,5,4,english,f,1,0.1,82.90828133,0.7734121
651a03c8ea1027b3193b9e35,33,0,2024-02-27T12:15:05.558Z,french_954.wav,0,poule,360,36,5,4,english,f,2,0.2,94.68318648,0.43346946
651a03c8ea1027b3193b9e35,33,0,2024-02-27T12:15:05.558Z,french_954.wav,0,poule,360,36,5,4,english,f,3,0.25666667,-42.01635115,0.14112827
651a03c8ea1027b3193b9e35,34,0,2024-02-27T12:15:05.558Z,french_273.wav,0,pull,404,36,5,4,english,f,0,0.0,-64.70279697,0.53531099
651a03c8ea1027b3193b9e35,34,0,2024-02-27T12:15:05.558Z,french_273.wav,0,pull,404,36,5,4,english,f,1,0.1,51.79292953,0.11586536
651a03c8ea1027b3193b9e35,34,0,2024-02-27T12:15:05.558Z,french_273.wav,0,pull,404,36,5,4,english,f,2,0.2,-96.4801009,0.21168864
651a03c8ea1027b3193b9e35,34,0,2024-02-27T12:15:05.558Z,french_273.wav,0,pull,404,36,5,4,english,f,3,0.25666667,93.42641001,1.2771199
651a03c8ea1027b3193b9e35,35,0,2024-02-27T12:15:05.558Z,french_232.wav,0,poule,358,36,5,4,english,f,0,0.0,48.62304181,1.60041799
651a03c8ea1027b3193b9e35,35,0,2024-02-27T12:15:05.558Z,french_232.wav,0,poule,358,36,5,4,english,f,1,0.1,-66.91586117,0.5698369
651a03c8ea1027b3193b9e35,35,0,2024-02-27T12:15:05.558Z,french_232.wav,0,poule,358,36,5,4,english,f,2,0.2,-71.38800945,1.21368891
651a03c8ea1027b3193b9e35,35,0,2024-02-27T12:15:05.558Z,french_232.wav,0,poule,358,36,5,4,english,f,3,0.25666667,32.42157584,1.05085576
651a03c8ea1027b3193b9e35,36,0,2024-02-27T12:15:05.558Z,french_620.wav,0,poule,365,36,5,4,english,f,0,0.0,-75.53708421,1.75028991
651a03c8ea1027b3193b9e35,36,0,2024-02-27T12:15:05.558Z,french_620.wav,0,poule,365,36,5,4,english,f,1,0.1,4.57362866,1.1712224
651a03c8ea1027b3193b9e35,36,0,2024-02-27T12:15:05.558Z,french_620.wav,0,poule,365,36,5,4,english,f,2,0.2,-79.19764782,1.92554269
651a03c8ea1027b3193b9e35,36,0,2024-02-27T12:15:05.558Z,french_620.wav,0,poule,365,36,5,4,english,f,3,0.25666667,-82.06470668,1.1477244
651a03c8ea1027b3193b9e35,37,0,2024-02-27T12:15:05.558Z,french_896.wav,0,poule,383,36,5,4,english,f,0,0.0,-50.03367973,0.4350745
651a03c8ea1027b3193b9e35,37,0,2024-02-27T12:15:05.558Z,french_896.wav,0,poule,383,36,5,4,english,f,1,0.1,73.95849411,1.7879982
651a03c8ea1027b3193b9e35,37,0,2024-02-27T12:15:05.558Z,french_896.wav,0,poule,383,36,5,4,english,f,2,0.2,16.78858773,0.61207276
651a03c8ea1027b3193b9e35,37,0,2024-02-27T12:15:05.558Z,french_896.wav,0,poule,383,36,5,4,english,f,3,0.25666667,-49.02431976,0.35432813
651a03c8ea1027b3193b9e35,38,0,2024-02-27T12:15:05.558Z,french_79.wav,0,pull,546,36,5,4,english,f,0,0.0,-17.81057473,1.07647634
651a03c8ea1027b3193b9e35,38,0,2024-02-27T12:15:05.558Z,french_79.wav,0,pull,546,36,5,4,english,f,1,0.1,-79.49788956,0.19758175
651a03c8ea1027b3193b9e35,38,0,2024-02-27T12:15:05.558Z,french_79.wav,0,pull,546,36,5,4,english,f,2,0.2,21.64031361,1.4893643
651a03c8ea1027b3193b9e35,38,0,2024-02-27T12:15:05.558Z,french_79.wav,0,pull,546,36,5,4,english,f,3,0.25666667,9.8962074,1.60982877
651a03c8ea1027b3193b9e35,39,0,2024-02-27T12:15:05.558Z,french_172.wav,0,poule,258,36,5,4,english,f,0,0.0,48.7065843,1.72774852
651a03c8ea1027b3193b9e35,39,0,2024-02-27T12:15:05.558Z,french_172.wav,0,poule,258,36,5,4,english,f,1,0.1,36.17213003,0.94223675
651a03c8ea1027b3193b9e35,39,0,2024-02-27T12:15:05.558Z,french_172.wav,0,poule,258,36,5,4,english,f,2,0.2,22.16215467,1.06724209
651a03c8ea1027b3193b9e35,39,0,2024-02-27T12:15:05.558Z,french_172.wav,0,poule,258,36,5,4,english,f,3,0.25666667,3.80373218,1.19623342
651a03c8ea1027b3193b9e35,40,0,2024-02-27T12:15:05.558Z,french_293.wav,0,pull,476,36,5,4,english,f,0,0.0,-11.30043192,0.58860684
651a03c8ea1027b3193b9e35,40,0,2024-02-27T12:15:05.558Z,french_293.wav,0,pull,476,36,5,4,english,f,1,0.1,-69.36716709,0.23928943
651a03c8ea1027b3193b9e35,40,0,2024-02-27T12:15:05.558Z,french_293.wav,0,pull,476,36,5,4,english,f,2,0.2,65.20751159,1.00971501
651a03c8ea1027b3193b9e35,40,0,2024-02-27T12:15:05.558Z,french_293.wav,0,pull,476,36,5,4,english,f,3,0.25666667,27.71872742,0.31746318
651a03c8ea1027b3193b9e35,41,0,2024-02-27T12:15:05.558Z,french_889.wav,0,poule,332,36,5,4,english,f,0,0.0,-11.44618348,1.60032155
651a03c8ea1027b3193b9e35,41,0,2024-02-27T12:15:05.558Z,french_889.wav,0,poule,332,36,5,4,english,f,1,0.1,14.52697714,0.84860504
651a03c8ea1027b3193b9e35,41,0,2024-02-27T12:15:05.558Z,french_889.wav,0,poule,332,36,5,4,english,f,2,0.2,-51.60315894,1.67734449
651a03c8ea1027b3193b9e35,41,0,2024-02-27T12:15:05.558Z,french_889.wav,0,poule,332,36,5,4,english,f,3,0.25666667,40.16126686,0.04411269
651a03c8ea1027b3193b9e35,42,0,2024-02-27T12:15:05.558Z,french_959.wav,0,poule,322,36,5,4,english,f,0,0.0,-92.66274659,1.46575448
651a03c8ea1027b3193b9e35,42,0,2024-02-27T12:15:05.558Z,french_959.wav,0,poule,322,36,5,4,english,f,1,0.1,10.27191584,1.6425047
651a03c8ea1027b3193b9e35,42,0,2024-02-27T12:15:05.558Z,french_959.wav,0,poule,322,36,5,4,english,f,2,0.2,-51.62824615,0.28117244
651a03c8ea1027b3193b9e35,42,0,2024-02-27T12:15:05.558Z,french_959.wav,0,poule,322,36,5,4,english,f,3,0.25666667,-30.4370249,1.68634793
651a03c8ea1027b3193b9e35,43,0,2024-02-27T12:15:05.558Z,french_212.wav,0,poule,780,36,5,4,english,f,0,0.0,-65.85125812,0.99084671
651a03c8ea1027b3193b9e35,43,0,2024-02-27T12:15:05.558Z,french_212.wav,0,poule,780,36,5,4,english,f,1,0.1,4.72891676,1.71951251
651a03c8ea1027b3193b9e35,43,0,2024-02-27T12:15:05.558Z,french_212.wav,0,poule,780,36,5,4,english,f,2,0.2,52.80654505,1.56745001
651a03c8ea1027b3193b9e35,43,0,2024-02-27T12:15:05.558Z,french_212.wav,0,poule,780,36,5,4,english,f,3,0.25666667,75.91927134,1.70119676
651a03c8ea1027b3193b9e35,44,0,2024-02-27T12:15:05.558Z,french_708.wav,0,pull,1266,36,5,4,english,f,0,0.0,77.88438146,0.30850898
651a03c8ea1027b3193b9e35,44,0,2024-02-27T12:15:05.558Z,french_708.wav,0,pull,1266,36,5,4,english,f,1,0.1,-89.66132416,1.49064351
651a03c8ea1027b3193b9e35,44,0,2024-02-27T12:15:05.558Z,french_708.wav,0,pull,1266,36,5,4,english,f,2,0.2,66.08375885,1.28629193
651a03c8ea1027b3193b9e35,44,0,2024-02-27T12:15:05.558Z,french_708.wav,0,pull,1266,36,5,4,english,f,3,0.25666667,-39.93161414,1.01533724
651a03c8ea1027b3193b9e35,45,0,2024-02-27T12:15:05.558Z,french_20.wav,0,poule,330,36,5,4,english,f,0,0.0,-78.24291845,1.07200279
651a03c8ea1027b3193b9e35,45,0,2024-02-27T12:15:05.558Z,french_20.wav,0,poule,330,36,5,4,english,f,1,0.1,-38.50442353,1.52694999
651a03c8ea1027b3193b9e35,45,0,2024-02-27T12:15:05.558Z,french_20.wav,0,poule,330,36,5,4,english,f,2,0.2,8.39731749,0.86133356
651a03c8ea1027b3193b9e35,45,0,2024-02-27T12:15:05.558Z,french_20.wav,0,poule,330,36,5,4,english,f,3,0.25666667,-43.87764948,0.74788424
651a03c8ea1027b3193b9e35,46,0,2024-02-27T12:15:05.558Z,french_960.wav,0,pull,331,36,5,4,english,f,0,0.0,-21.44081237,0.51475761
651a03c8ea1027b3193b9e35,46,0,2024-02-27T12:15:05.558Z,french_960.wav,0,pull,331,36,5,4,english,f,1,0.1,-88.4923718,1.11613408
651a03c8ea1027b3193b9e35,46,0,2024-02-27T12:15:05.558Z,french_960.wav,0,pull,331,36,5,4,english,f,2,0.2,38.79957112,0.09358172
651a03c8ea1027b3193b9e35,46,0,2024-02-27T12:15:05.558Z,french_960.wav,0,pull,331,36,5,4,english,f,3,0.25666667,-94.67313386,1.96196729
651a03c8ea1027b3193b9e35,47,0,2024-02-27T12:15:05.558Z,french_770.wav,0,poule,239,36,5,4,english,f,0,0.0,28.65055954,1.27945621
651a03c8ea1027b3193b9e35,47,0,2024-02-27T12:15:05.558Z,french_770.wav,0,poule,239,36,5,4,english,f,1,0.1,-72.95217839,1.48453538
651a03c8ea1027b3193b9e35,47,0,2024-02-27T12:15:05.558Z,french_770.wav,0,poule,239,36,5,4,english,f,2,0.2,-37.01197006,1.47789059
651a03c8ea1027b3193b9e35,47,0,2024-02-27T12:15:05.558Z,french_770.wav,0,poule,239,36,5,4,english,f,3,0.25666667,17.9887053,1.81501711
651a03c8ea1027b3193b9e35,48,0,2024-02-27T12:15:05.558Z,french_595.wav,0,pull,499,36,5,4,english,f,0,0.0,-73.15061419,1.40746522
651a03c8ea1027b3193b9e35,48,0,2024-02-27T12:15:05.558Z,french_595.wav,0,pull,499,36,5,4,english,f,1,0.1,67.23643261,0.48150889
651a03c8ea1027b3193b9e35,48,0,2024-02-27T12:15:05.558Z,french_595.wav,0,pull,499,36,5,4,english,f,2,0.2,29.33444659,0.65461581
651a03c8ea1027b3193b9e35,48,0,2024-02-27T12:15:05.558Z,french_595.wav,0,pull,499,36,5,4,english,f,3,0.25666667,-65.67909684,0.62395538
651a03c8ea1027b3193b9e35,49,0,2024-02-27T12:15:05.558Z,french_125.wav,0,poule,311,36,5,4,english,f,0,0.0,-5.4163583,1.55997732
651a03c8ea1027b3193b9e35,49,0,2024-02-27T12:15:05.558Z,french_125.wav,0,poule,311,36,5,4,english,f,1,0.1,-78.82020266,1.46538696
651a03c8ea1027b3193b9e35,49,0,2024-02-27T12:15:05.558Z,french_125.wav,0,poule,311,36,5,4,english,f,2,0.2,7.21605105,1.19887704
651a03c8ea1027b3193b9e35,49,0,2024-02-27T12:15:05.558Z,french_125.wav,0,poule,311,36,5,4,english,f,3,0.25666667,-41.55982592,1.01520467
651a03c8ea1027b3193b9e35,50,1,2024-02-27T12:15:05.558Z,french_91.wav,0,poule,294,36,5,4,english,f,0,0.0,22.16772641,0.07376739
651a03c8ea1027b3193b9e35,50,1,2024-02-27T12:15:05.558Z,french_91.wav,0,poule,294,36,5,4,english,f,1,0.1,4.75787086,1.79269703
651a03c8ea1027b3193b9e35,50,1,2024-02-27T12:15:05.558Z,french_91.wav,0,poule,294,36,5,4,english,f,2,0.2,16.21543539,1.59138707
651a03c8ea1027b3193b9e35,50,1,2024-02-27T12:15:05.558Z,french_91.wav,0,poule,294,36,5,4,english,f,3,0.25666667,-31.35162056,1.67096256
651a03c8ea1027b3193b9e35,51,1,2024-02-27T12:15:05.558Z,french_420.wav,0,poule,236,36,5,4,english,f,0,0.0,-21.03631645,1.00707818
651a03c8ea1027b3193b9e35,51,1,2024-02-27T12:15:05.558Z,french_420.wav,0,poule,236,36,5,4,english,f,1,0.1,59.70125687,0.92270488
651a03c8ea1027b3193b9e35,51,1,2024-02-27T12:15:05.558Z,french_420.wav,0,poule,236,36,5,4,english,f,2,0.2,54.71539052,1.69105963
651a03c8ea1027b3193b9e35,51,1,2024-02-27T12:15:05.558Z,french_420.wav,0,poule,236,36,5,4,english,f,3,0.25666667,38.49486436,0.9671157
651a03c8ea1027b3193b9e35,52,1,2024-02-27T12:15:05.558Z,french_582.wav,0,pull,248,36,5,4,english,f,0,0.0,1.47980053,0.83350323
651a03c8ea1027b3193b9e35,52,1,2024-02-27T12:15:05.558Z,french_582.wav,0,pull,248,36,5,4,english,f,1,0.1,-89.13888063,1.99658076
651a03c8ea1027b3193b9e35,52,1,2024-02-27T12:15:05.558Z,french_582.wav,0,pull,248,36,5,4,english,f,2,0.2,1.45566029,0.72464724
651a03c8ea1027b3193b9e35,52,1,2024-02-27T12:15:05.558Z,french_582.wav,0,pull,248,36,5,4,english,f,3,0.25666667,-76.25724372,1.09622387
651a03c8ea1027b3193b9e35,53,1,2024-02-27T12:15:05.558Z,french_96.wav,0,pull,571,36,5,4,english,f,0,0.0,-35.67204937,1.29614461
651a03c8ea1027b3193b9e35,53,1,2024-02-27T12:15:05.558Z,french_96.wav,0,pull,571,36,5,4,english,f,1,0.1,-14.5967046,0.74963508
651a03c8ea1027b3193b9e35,53,1,2024-02-27T12:15:05.558Z,french_96.wav,0,pull,571,36,5,4,english,f,2,0.2,23.77171322,0.96397917
651a03c8ea1027b3193b9e35,53,1,2024-02-27T12:15:05.558Z,french_96.wav,0,pull,571,36,5,4,english,f,3,0.25666667,-43.45086892,0.69619931
651a03c8ea1027b3193b9e35,54,1,2024-02-27T12:15:05.558Z,french_637.wav,0,pull,571,36,5,4,english,f,0,0.0,35.81604326,0.01301393
651a03c8ea1027b3193b9e35,54,1,2024-02-27T12:15:05.558Z,french_637.wav,0,pull,571,36,5,4,english,f,1,0.1,-3.18432816,0.82513299
651a03c8ea1027b3193b9e35,54,1,2024-02-27T12:15:05.558Z,french_637.wav,0,pull,571,36,5,4,english,f,2,0.2,50.06715701,0.10233849
651a03c8ea1027b3193b9e35,54,1,2024-02-27T12:15:05.558Z,french_637.wav,0,pull,571,36,5,4,english,f,3,0.25666667,13.82838787,0.87921638
651a03c8ea1027b3193b9e35,55,1,2024-02-27T12:15:05.558Z,french_11.wav,0,poule,343,36,5,4,english,f,0,0.0,-27.01625533,0.65463853
651a03c8ea1027b3193b9e35,55,1,2024-02-27T12:15:05.558Z,french_11.wav,0,poule,343,36,5,4,english,f,1,0.1,30.5454192,0.82547758
651a03c8ea1027b3193b9e35,55,1,2024-02-27T12:15:05.558Z,french_11.wav,0,poule,343,36,5,4,english,f,2,0.2,-10.3355652,1.18020414
651a03c8ea1027b3193b9e35,55,1,2024-02-27T12:15:05.558Z,french_11.wav,0,poule,343,36,5,4,english,f,3,0.25666667,-1.40658107,0.75245655
651a03c8ea1027b3193b9e35,56,1,2024-02-27T12:15:05.558Z,french_328.wav,0,poule,327,36,5,4,english,f,0,0.0,-82.86069205,0.98291516
651a03c8ea1027b3193b9e35,56,1,2024-02-27T12:15:05.558Z,french_328.wav,0,poule,327,36,5,4,english,f,1,0.1,-76.70984367,1.53428028
651a03c8ea1027b3193b9e35,56,1,2024-02-27T12:15:05.558Z,french_328.wav,0,poule,327,36,5,4,english,f,2,0.2,-82.63579977,1.97086095
651a03c8ea1027b3193b9e35,56,1,2024-02-27T12:15:05.558Z,french_328.wav,0,poule,327,36,5,4,english,f,3,0.25666667,-88.21582145,0.71580661
651a03c8ea1027b3193b9e35,57,1,2024-02-27T12:15:05.558Z,french_677.wav,0,pull,460,36,5,4,english,f,0,0.0,-14.76179085,0.10277679
651a03c8ea1027b3193b9e35,57,1,2024-02-27T12:15:05.558Z,french_677.wav,0,pull,460,36,5,4,english,f,1,0.1,-96.15101895,0.35083798
651a03c8ea1027b3193b9e35,57,1,2024-02-27T12:15:05.558Z,french_677.wav,0,pull,460,36,5,4,english,f,2,0.2,48.20621423,0.65953763
651a03c8ea1027b3193b9e35,57,1,2024-02-27T12:15:05.558Z,french_677.wav,0,pull,460,36,5,4,english,f,3,0.25666667,23.33985038,0.76581679
651a03c8ea1027b3193b9e35,58,1,2024-02-27T12:15:05.558Z,french_470.wav,0,poule,286,36,5,4,english,f,0,0.0,35.80891732,1.18984778
651a03c8ea1027b3193b9e35,58,1,2024-02-27T12:15:05.558Z,french_470.wav,0,poule,286,36,5,4,english,f,1,0.1,-69.45523052,0.95727089
651a03c8ea1027b3193b9e35,58,1,2024-02-27T12:15:05.558Z,french_470.wav,0,poule,286,36,5,4,english,f,2,0.2,14.95046841,1.94704509
651a03c8ea1027b3193b9e35,58,1,2024-02-27T12:15:05.558Z,french_470.wav,0,poule,286,36,5,4,english,f,3,0.25666667,17.64450191,1.37814226
651a03c8ea1027b3193b9e35,59,1,2024-02-27T12:15:05.558Z,french_923.wav,0,poule,375,36,5,4,english,f,0,0.0,-57.84523262,1.35677253
651a03c8ea1027b3193b9e35,59,1,2024-02-27T12:15:05.558Z,french_923.wav,0,poule,375,36,5,4,english,f,1,0.1,-15.65652506,1.1280373
651a03c8ea1027b3193b9e35,59,1,2024-02-27T12:15:05.558Z,french_923.wav,0,poule,375,36,5,4,english,f,2,0.2,37.84243464,1.38752537
651a03c8ea1027b3193b9e35,59,1,2024-02-27T12:15:05.558Z,french_923.wav,0,poule,375,36,5,4,english,f,3,0.25666667,15.41728704,1.42596606
651a03c8ea1027b3193b9e35,60,1,2024-02-27T12:15:05.558Z,french_471.wav,0,poule,216,36,5,4,english,f,0,0.0,35.47460752,0.77553755
651a03c8ea1027b3193b9e35,60,1,2024-02-27T12:15:05.558Z,french_471.wav,0,poule,216,36,5,4,english,f,1,0.1,-49.00208302,1.38730058
651a03c8ea1027b3193b9e35,60,1,2024-02-27T12:15:05.558Z,french_471.wav,0,poule,216,36,5,4,english,f,2,0.2,47.17677121,0.98156507
651a03c8ea1027b3193b9e35,60,1,2024-02-27T12:15:05.558Z,french_471.wav,0,poule,216,36,5,4,english,f,3,0.25666667,64.34433074,0.66404961
651a03c8ea1027b3193b9e35,61,1,2024-02-27T12:15:05.558Z,french_822.wav,0,pull,307,36,5,4,english,f,0,0.0,70.1141555,0.03091404
651a03c8ea1027b3193b9e35,61,1,2024-02-27T12:15:05.558Z,french_822.wav,0,pull,307,36,5,4,english,f,1,0.1,-32.80370271,1.54599653
651a03c8ea1027b3193b9e35,61,1,2024-02-27T12:15:05.558Z,french_822.wav,0,pull,307,36,5,4,english,f,2,0.2,9.36864383,0.45983016
651a03c8ea1027b3193b9e35,61,1,2024-02-27T12:15:05.558Z,french_822.wav,0,pull,307,36,5,4,english,f,3,0.25666667,-70.41865943,0.57036726
651a03c8ea1027b3193b9e35,62,1,2024-02-27T12:15:05.558Z,french_385.wav,0,poule,816,36,5,4,english,f,0,0.0,-5.35501711,1.94967077
651a03c8ea1027b3193b9e35,62,1,2024-02-27T12:15:05.558Z,french_385.wav,0,poule,816,36,5,4,english,f,1,0.1,28.75563306,0.4629862
651a03c8ea1027b3193b9e35,62,1,2024-02-27T12:15:05.558Z,french_385.wav,0,poule,816,36,5,4,english,f,2,0.2,60.61846434,0.74478567
651a03c8ea1027b3193b9e35,62,1,2024-02-27T12:15:05.558Z,french_385.wav,0,poule,816,36,5,4,english,f,3,0.25666667,-78.89426498,0.69826307
651a03c8ea1027b3193b9e35,63,1,2024-02-27T12:15:05.558Z,french_600.wav,0,pull,396,36,5,4,english,f,0,0.0,29.66563504,0.34173365
651a03c8ea1027b3193b9e35,63,1,2024-02-27T12:15:05.558Z,french_600.wav,0,pull,396,36,5,4,english,f,1,0.1,-8.64659381,0.28144694
651a03c8ea1027b3193b9e35,63,1,2024-02-27T12:15:05.558Z,french_600.wav,0,pull,396,36,5,4,english,f,2,0.2,-34.77347642,1.5541161
651a03c8ea1027b3193b9e35,63,1,2024-02-27T12:15:05.558Z,french_600.wav,0,pull,396,36,5,4,english,f,3,0.25666667,-62.75040759,1.60255421
651a03c8ea1027b3193b9e35,64,1,2024-02-27T12:15:05.558Z,french_811.wav,0,poule,372,36,5,4,english,f,0,0.0,35.12158591,1.63803033
651a03c8ea1027b3193b9e35,64,1,2024-02-27T12:15:05.558Z,french_811.wav,0,poule,372,36,5,4,english,f,1,0.1,4.09145181,0.91441893
651a03c8ea1027b3193b9e35,64,1,2024-02-27T12:15:05.558Z,french_811.wav,0,poule,372,36,5,4,english,f,2,0.2,-79.3353891,1.53056324
651a03c8ea1027b3193b9e35,64,1,2024-02-27T12:15:05.558Z,french_811.wav,0,poule,372,36,5,4,english,f,3,0.25666667,-59.5865152,1.20408751
651a03c8ea1027b3193b9e35,65,1,2024-02-27T12:15:05.558Z,french_948.wav,0,poule,237,36,5,4,english,f,0,0.0,54.2755123,0.60698289
651a03c8ea1027b3193b9e35,65,1,2024-02-27T12:15:05.558Z,french_948.wav,0,poule,237,36,5,4,english,f,1,0.1,-26.53776759,1.07019337
651a03c8ea1027b3193b9e35,65,1,2024-02-27T12:15:05.558Z,french_948.wav,0,poule,237,36,5,4,english,f,2,0.2,-51.24045856,1.47276383
651a03c8ea1027b3193b9e35,65,1,2024-02-27T12:15:05.558Z,french_948.wav,0,poule,237,36,5,4,english,f,3,0.25666667,84.11086463,1.01044713
651a03c8ea1027b3193b9e35,66,1,2024-02-27T12:15:05.558Z,french_686.wav,0,poule,394,36,5,4,english,f,0,0.0,20.49516986,1.86861476
651a03c8ea1027b3193b9e35,66,1,2024-02-27T12:15:05.558Z,french_686.wav,0,poule,394,36,5,4,english,f,1,0.1,27.4040505,1.87689714
651a03c8ea1027b3193b9e35,66,1,2024-02-27T12:15:05.558Z,french_686.wav,0,poule,394,36,5,4,english,f,2,0.2,31.96095965,0.80940067
651a03c8ea1027b3193b9e35,66,1,2024-02-27T12:15:05.558Z,french_686.wav,0,poule,394,36,5,4,english,f,3,0.25666667,61.08066052,0.04075967
651a03c8ea1027b3193b9e35,67,1,2024-02-27T12:15:05.558Z,french_897.wav,0,pull,362,36,5,4,english,f,0,0.0,-2.62488743,0.95618392
651a03c8ea1027b3193b9e35,67,1,2024-02-27T12:15:05.558Z,french_897.wav,0,pull,362,36,5,4,english,f,1,0.1,-35.09835725,0.97615626
651a03c8ea1027b3193b9e35,67,1,2024-02-27T12:15:05.558Z,french_897.wav,0,pull,362,36,5,4,english,f,2,0.2,-7.90226738,0.33556547
651a03c8ea1027b3193b9e35,67,1,2024-02-27T12:15:05.558Z,french_897.wav,0,pull,362,36,5,4,english,f,3,0.25666667,34.22753828,0.12618193
651a03c8ea1027b3193b9e35,68,1,2024-02-27T12:15:05.558Z,french_14.wav,0,poule,167,36,5,4,english,f,0,0.0,29.04259121,1.27596418
651a03c8ea1027b3193b9e35,68,1,2024-02-27T12:15:05.558Z,french_14.wav,0,poule,167,36,5,4,english,f,1,0.1,-13.93862831,1.81664743
651a03c8ea1027b3193b9e35,68,1,2024-02-27T12:15:05.558Z,french_14.wav,0,poule,167,36,5,4,english,f,2,0.2,-3.57455278,1.61822265
651a03c8ea1027b3193b9e35,68,1,2024-02-27T12:15:05.558Z,french_14.wav,0,poule,167,36,5,4,english,f,3,0.25666667,14.81088412,1.58848758
651a03c8ea1027b3193b9e35,69,1,2024-02-27T12:15:05.558Z,french_854.wav,0,pull,449,36,5,4,english,f,0,0.0,-7.31529778,1.19205775
651a03c8ea1027b3193b9e35,69,1,2024-02-27T12:15:05.558Z,french_854.wav,0,pull,449,36,5,4,english,f,1,0.1,-99.41756076,1.8519083
651a03c8ea1027b3193b9e35,69,1,2024-02-27T12:15:05.558Z,french_854.wav,0,pull,449,36,5,4,english,f,2,0.2,9.72781791,0.75121465
651a03c8ea1027b3193b9e35,69,1,2024-02-27T12:15:05.558Z,french_854.wav,0,pull,449,36,5,4,english,f,3,0.25666667,12.92966386,0.73809803
651a03c8ea1027b3193b9e35,70,1,2024-02-27T12:15:05.558Z,french_354.wav,0,pull,368,36,5,4,english,f,0,0.0,-52.94558073,1.79880208
651a03c8ea1027b3193b9e35,70,1,2024-02-27T12:15:05.558Z,french_354.wav,0,pull,368,36,5,4,english,f,1,0.1,92.39955521,1.0939287
651a03c8ea1027b3193b9e35,70,1,2024-02-27T12:15:05.558Z,french_354.wav,0,pull,368,36,5,4,english,f,2,0.2,-42.31606849,0.57130202
651a03c8ea1027b3193b9e35,70,1,2024-02-27T12:15:05.558Z,french_354.wav,0,pull,368,36,5,4,english,f,3,0.25666667,97.06976377,1.82278353
651a03c8ea1027b3193b9e35,71,1,2024-02-27T12:15:05.558Z,french_47.wav,0,pull,664,36,5,4,english,f,0,0.0,85.02614504,1.30132326
651a03c8ea1027b3193b9e35,71,1,2024-02-27T12:15:05.558Z,french_47.wav,0,pull,664,36,5,4,english,f,1,0.1,79.4123752,0.75427136
651a03c8ea1027b3193b9e35,71,1,2024-02-27T12:15:05.558Z,french_47.wav,0,pull,664,36,5,4,english,f,2,0.2,52.99117024,0.35196824
651a03c8ea1027b3193b9e35,71,1,2024-02-27T12:15:05.558Z,french_47.wav,0,pull,664,36,5,4,english,f,3,0.25666667,-70.6267891,0.96175292
651a03c8ea1027b3193b9e35,72,1,2024-02-27T12:15:05.558Z,french_258.wav,0,pull,398,36,5,4,english,f,0,0.0,49.87761594,0.27922365
651a03c8ea1027b3193b9e35,72,1,2024-02-27T12:15:05.558Z,french_258.wav,0,pull,398,36,5,4,english,f,1,0.1,-83.77774399,1.89432374
651a03c8ea1027b3193b9e35,72,1,2024-02-27T12:15:05.558Z,french_258.wav,0,pull,398,36,5,4,english,f,2,0.2,58.69904626,0.22934206
651a03c8ea1027b3193b9e35,72,1,2024-02-27T12:15:05.558Z,french_258.wav,0,pull,398,36,5,4,english,f,3,0.25666667,-57.68721695,0.35615934
651a03c8ea1027b3193b9e35,73,1,2024-02-27T12:15:05.558Z,french_653.wav,0,pull,489,36,5,4,english,f,0,0.0,77.9010548,1.15209157
651a03c8ea1027b3193b9e35,73,1,2024-02-27T12:15:05.558Z,french_653.wav,0,pull,489,36,5,4,english,f,1,0.1,-51.77114594,0.29445829
651a03c8ea1027b3193b9e35,73,1,2024-02-27T12:15:05.558Z,french_653.wav,0,pull,489,36,5,4,english,f,2,0.2,87.84855202,0.58679482
651a03c8ea1027b3193b9e35,73,1,2024-02-27T12:15:05.558Z,french_653.wav,0,pull,489,36,5,4,english,f,3,0.25666667,84.03497815,1.23322571
651a03c8ea1027b3193b9e35,74,1,2024-02-27T12:15:05.558Z,french_101.wav,0,pull,346,36,5,4,english,f,0,0.0,2.45558497,0.33272101
651a03c8ea1027b3193b9e35,74,1,2024-02-27T12:15:05.558Z,french_101.wav,0,pull,346,36,5,4,english,f,1,0.1,-89.46857105,1.30167387
651a03c8ea1027b3193b9e35,74,1,2024-02-27T12:15:05.558Z,french_101.wav,0,pull,346,36,5,4,english,f,2,0.2,26.84471845,0.45771198
651a03c8ea1027b3193b9e35,74,1,2024-02-27T12:15:05.558Z,french_101.wav,0,pull,346,36,5,4,english,f,3,0.25666667,-40.2942876,1.30875705
651a03c8ea1027b3193b9e35,75,1,2024-02-27T12:15:05.558Z,french_26.wav,0,poule,473,36,5,4,english,f,0,0.0,-38.52186107,1.55913274
651a03c8ea1027b3193b9e35,75,1,2024-02-27T12:15:05.558Z,french_26.wav,0,poule,473,36,5,4,english,f,1,0.1,92.94908957,0.73355846
651a03c8ea1027b3193b9e35,75,1,2024-02-27T12:15:05.558Z,french_26.wav,0,poule,473,36,5,4,english,f,2,0.2,38.63958599,0.51766924
651a03c8ea1027b3193b9e35,75,1,2024-02-27T12:15:05.558Z,french_26.wav,0,poule,473,36,5,4,english,f,3,0.25666667,81.76747676,0.7935304
651a03c8ea1027b3193b9e35,76,1,2024-02-27T12:15:05.558Z,french_832.wav,0,poule,393,36,5,4,english,f,0,0.0,72.4957568,1.55241154
651a03c8ea1027b3193b9e35,76,1,2024-02-27T12:15:05.558Z,french_832.wav,0,poule,393,36,5,4,english,f,1,0.1,-42.52759542,0.51342339
651a03c8ea1027b3193b9e35,76,1,2024-02-27T12:15:05.558Z,french_832.wav,0,poule,393,36,5,4,english,f,2,0.2,-19.34515336,1.23436829
651a03c8ea1027b3193b9e35,76,1,2024-02-27T12:15:05.558Z,french_832.wav,0,poule,393,36,5,4,english,f,3,0.25666667,29.69631954,0.63501701
651a03c8ea1027b3193b9e35,77,1,2024-02-27T12:15:05.558Z,french_696.wav,0,poule,370,36,5,4,english,f,0,0.0,39.34258856,1.15492287
651a03c8ea1027b3193b9e35,77,1,2024-02-27T12:15:05.558Z,french_696.wav,0,poule,370,36,5,4,english,f,1,0.1,16.85699936,0.81118798
651a03c8ea1027b3193b9e35,77,1,2024-02-27T12:15:05.558Z,french_696.wav,0,poule,370,36,5,4,english,f,2,0.2,-58.01570434,0.43841119
651a03c8ea1027b3193b9e35,77,1,2024-02-27T12:15:05.558Z,french_696.wav,0,poule,370,36,5,4,english,f,3,0.25666667,-91.70212518,1.32812972
651a03c8ea1027b3193b9e35,78,1,2024-02-27T12:15:05.558Z,french_953.wav,0,poule,389,36,5,4,english,f,0,0.0,-27.22394829,1.27693125
651a03c8ea1027b3193b9e35,78,1,2024-02-27T12:15:05.558Z,french_953.wav,0,poule,389,36,5,4,english,f,1,0.1,-3.36109764,0.12331262
651a03c8ea1027b3193b9e35,78,1,2024-02-27T12:15:05.558Z,french_953.wav,0,poule,389,36,5,4,english,f,2,0.2,79.96390299,1.48485403
651a03c8ea1027b3193b9e35,78,1,2024-02-27T12:15:05.558Z,french_953.wav,0,poule,389,36,5,4,english,f,3,0.25666667,-20.83871742,0.51230705
651a03c8ea1027b3193b9e35,79,1,2024-02-27T12:15:05.558Z,french_297.wav,0,poule,843,36,5,4,english,f,0,0.0,66.56614261,0.35086225
651a03c8ea1027b3193b9e35,79,1,2024-02-27T12:15:05.558Z,french_297.wav,0,poule,843,36,5,4,english,f,1,0.1,-3.32812159,1.7876007
651a03c8ea1027b3193b9e35,79,1,2024-02-27T12:15:05.558Z,french_297.wav,0,poule,843,36,5,4,english,f,2,0.2,85.62103424,0.63077709
651a03c8ea1027b3193b9e35,79,1,2024-02-27T12:15:05.558Z,french_297.wav,0,poule,843,36,5,4,english,f,3,0.25666667,92.99895728,0.65985351
651a03c8ea1027b3193b9e35,80,1,2024-02-27T12:15:05.558Z,french_539.wav,0,poule,253,36,5,4,english,f,0,0.0,-25.67038427,1.25415191
651a03c8ea1027b3193b9e35,80,1,2024-02-27T12:15:05.558Z,french_539.wav,0,poule,253,36,5,4,english,f,1,0.1,48.64308398,1.80742897
651a03c8ea1027b3193b9e35,80,1,2024-02-27T12:15:05.558Z,french_539.wav,0,poule,253,36,5,4,english,f,2,0.2,-77.82337419,1.66801057
651a03c8ea1027b3193b9e35,80,1,2024-02-27T12:15:05.558Z,french_539.wav,0,poule,253,36,5,4,english,f,3,0.25666667,-42.20378119,0.618258
651a03c8ea1027b3193b9e35,81,1,2024-02-27T12:15:05.558Z,french_93.wav,0,pull,425,36,5,4,english,f,0,0.0,23.57211404,0.62732128
651a03c8ea1027b3193b9e35,81,1,2024-02-27T12:15:05.558Z,french_93.wav,0,pull,425,36,5,4,english,f,1,0.1,-16.15934767,0.10811818
651a03c8ea1027b3193b9e35,81,1,2024-02-27T12:15:05.558Z,french_93.wav,0,pull,425,36,5,4,english,f,2,0.2,25.54711871,0.30787392
651a03c8ea1027b3193b9e35,81,1,2024-02-27T12:15:05.558Z,french_93.wav,0,pull,425,36,5,4,english,f,3,0.25666667,65.09284613,1.57978374
651a03c8ea1027b3193b9e35,82,1,2024-02-27T12:15:05.558Z,french_614.wav,0,poule,307,36,5,4,english,f,0,0.0,13.55245103,0.76920018
651a03c8ea1027b3193b9e35,82,1,2024-02-27T12:15:05.558Z,french_614.wav,0,poule,307,36,5,4,english,f,1,0.1,56.56377999,1.46632319
651a03c8ea1027b3193b9e35,82,1,2024-02-27T12:15:05.558Z,french_614.wav,0,poule,307,36,5,4,english,f,2,0.2,18.28165036,0.77890927
651a03c8ea1027b3193b9e35,82,1,2024-02-27T12:15:05.558Z,french_614.wav,0,poule,307,36,5,4,english,f,3,0.25666667,42.87971424,1.0073418
651a03c8ea1027b3193b9e35,83,1,2024-02-27T12:15:05.558Z,french_73.wav,0,pull,452,36,5,4,english,f,0,0.0,79.91377479,0.94290919
651a03c8ea1027b3193b9e35,83,1,2024-02-27T12:15:05.558Z,french_73.wav,0,pull,452,36,5,4,english,f,1,0.1,21.44914026,0.58511712
651a03c8ea1027b3193b9e35,83,1,2024-02-27T12:15:05.558Z,french_73.wav,0,pull,452,36,5,4,english,f,2,0.2,94.23892751,1.07660977
651a03c8ea1027b3193b9e35,83,1,2024-02-27T12:15:05.558Z,french_73.wav,0,pull,452,36,5,4,english,f,3,0.25666667,-26.36168046,0.0399298
651a03c8ea1027b3193b9e35,84,1,2024-02-27T12:15:05.558Z,french_661.wav,0,poule,284,36,5,4,english,f,0,0.0,34.1047988,1.29957539
651a03c8ea1027b3193b9e35,84,1,2024-02-27T12:15:05.558Z,french_661.wav,0,poule,284,36,5,4,english,f,1,0.1,-45.42737183,0.81809843
651a03c8ea1027b3193b9e35,84,1,2024-02-27T12:15:05.558Z,french_661.wav,0,poule,284,36,5,4,english,f,2,0.2,-32.96226792,1.39938296
651a03c8ea1027b3193b9e35,84,1,2024-02-27T12:15:05.558Z,french_661.wav,0,poule,284,36,5,4,english,f,3,0.25666667,51.87575508,1.33634107
651a03c8ea1027b3193b9e35,85,1,2024-02-27T12:15:05.558Z,french_202.wav,0,pull,436,36,5,4,english,f,0,0.0,13.54970771,0.17477243
651a03c8ea1027b3193b9e35,85,1,2024-02-27T12:15:05.558Z,french_202.wav,0,pull,436,36,5,4,english,f,1,0.1,96.46591802,0.30528336
651a03c8ea1027b3193b9e35,85,1,2024-02-27T12:15:05.558Z,french_202.wav,0,pull,436,36,5,4,english,f,2,0.2,96.13650215,0.41819952
651a03c8ea1027b3193b9e35,85,1,2024-02-27T12:15:05.558Z,french_202.wav,0,pull,436,36,5,4,english,f,3,0.25666667,-35.2772524,1.86493567
651a03c8ea1027b3193b9e35,86,1,2024-02-27T12:15:05.558Z,french_361.wav,0,poule,332,36,5,4,english,f,0,0.0,-18.04801315,1.02641127
651a03c8ea1027b3193b9e35,86,1,2024-02-27T12:15:05.558Z,french_361.wav,0,poule,332,36,5,4,english,f,1,0.1,93.73679052,0.21625505
651a03c8ea1027b3193b9e35,86,1,2024-02-27T12:15:05.558Z,french_361.wav,0,poule,332,36,5,4,english,f,2,0.2,42.88870655,1.63254817
651a03c8ea1027b3193b9e35,86,1,2024-02-27T12:15:05.558Z,french_361.wav,0,poule,332,36,5,4,english,f,3,0.25666667,45.1087167,0.1659632
651a03c8ea1027b3193b9e35,87,1,2024-02-27T12:15:05.558Z,french_86.wav,0,poule,318,36,5,4,english,f,0,0.0,-13.34839912,1.5394535
651a03c8ea1027b3193b9e35,87,1,2024-02-27T12:15:05.558Z,french_86.wav,0,poule,318,36,5,4,english,f,1,0.1,-0.15074382,0.88064418
651a03c8ea1027b3193b9e35,87,1,2024-02-27T12:15:05.558Z,french_86.wav,0,poule,318,36,5,4,english,f,2,0.2,25.45831569,1.66652907
651a03c8ea1027b3193b9e35,87,1,2024-02-27T12:15:05.558Z,french_86.wav,0,poule,318,36,5,4,english,f,3,0.25666667,48.27326553,0.20293469
651a03c8ea1027b3193b9e35,88,1,2024-02-27T12:15:05.558Z,french_360.wav,0,pull,574,36,5,4,english,f,0,0.0,-0.00235073025,1.59141319
651a03c8ea1027b3193b9e35,88,1,2024-02-27T12:15:05.558Z,french_360.wav,0,pull,574,36,5,4,english,f,1,0.1,75.1310722,0.32502124
651a03c8ea1027b3193b9e35,88,1,2024-02-27T12:15:05.558Z,french_360.wav,0,pull,574,36,5,4,english,f,2,0.2,-55.9073348,0.48861064
651a03c8ea1027b3193b9e35,88,1,2024-02-27T12:15:05.558Z,french_360.wav,0,pull,574,36,5,4,english,f,3,0.256666667,-59.6885988,0.13551716
651a03c8ea1027b3193b9e35,89,1,2024-02-27T12:15:05.558Z,french_323.wav,0,pull,459,36,5,4,english,f,0,0.0,32.98542524,1.64001987
651a03c8ea1027b3193b9e35,89,1,2024-02-27T12:15:05.558Z,french_323.wav,0,pull,459,36,5,4,english,f,1,0.1,23.31860642,0.049539
651a03c8ea1027b3193b9e35,89,1,2024-02-27T12:15:05.558Z,french_323.wav,0,pull,459,36,5,4,english,f,2,0.2,85.24347173,1.32093022
651a03c8ea1027b3193b9e35,89,1,2024-02-27T12:15:05.558Z,french_323.wav,0,pull,459,36,5,4,english,f,3,0.25666667,17.19160257,0.33485384
651a03c8ea1027b3193b9e35,90,1,2024-02-27T12:15:05.558Z,french_225.wav,0,poule,301,36,5,4,english,f,0,0.0,29.07754255,1.10473325
651a03c8ea1027b3193b9e35,90,1,2024-02-27T12:15:05.558Z,french_225.wav,0,poule,301,36,5,4,english,f,1,0.1,99.63110947,0.86614983
651a03c8ea1027b3193b9e35,90,1,2024-02-27T12:15:05.558Z,french_225.wav,0,poule,301,36,5,4,english,f,2,0.2,-11.85966914,1.10071
651a03c8ea1027b3193b9e35,90,1,2024-02-27T12:15:05.558Z,french_225.wav,0,poule,301,36,5,4,english,f,3,0.25666667,-24.94738594,1.32437332
651a03c8ea1027b3193b9e35,91,1,2024-02-27T12:15:05.558Z,french_978.wav,0,pull,333,36,5,4,english,f,0,0.0,-36.32035497,0.76958877
651a03c8ea1027b3193b9e35,91,1,2024-02-27T12:15:05.558Z,french_978.wav,0,pull,333,36,5,4,english,f,1,0.1,-92.00024605,0.1229223
651a03c8ea1027b3193b9e35,91,1,2024-02-27T12:15:05.558Z,french_978.wav,0,pull,333,36,5,4,english,f,2,0.2,-85.64640387,1.83920091
651a03c8ea1027b3193b9e35,91,1,2024-02-27T12:15:05.558Z,french_978.wav,0,pull,333,36,5,4,english,f,3,0.25666667,30.4024855,1.45747353
651a03c8ea1027b3193b9e35,92,1,2024-02-27T12:15:05.558Z,french_906.wav,0,pull,378,36,5,4,english,f,0,0.0,-13.49448879,0.31236465
651a03c8ea1027b3193b9e35,92,1,2024-02-27T12:15:05.558Z,french_906.wav,0,pull,378,36,5,4,english,f,1,0.1,31.46373863,1.12113229
651a03c8ea1027b3193b9e35,92,1,2024-02-27T12:15:05.558Z,french_906.wav,0,pull,378,36,5,4,english,f,2,0.2,-49.02376816,0.0749788
651a03c8ea1027b3193b9e35,92,1,2024-02-27T12:15:05.558Z,french_906.wav,0,pull,378,36,5,4,english,f,3,0.25666667,26.58933429,0.8331551
651a03c8ea1027b3193b9e35,93,1,2024-02-27T12:15:05.558Z,french_407.wav,0,poule,268,36,5,4,english,f,0,0.0,-57.6292462,1.8651924
651a03c8ea1027b3193b9e35,93,1,2024-02-27T12:15:05.558Z,french_407.wav,0,poule,268,36,5,4,english,f,1,0.1,-25.10683904,1.55880725
651a03c8ea1027b3193b9e35,93,1,2024-02-27T12:15:05.558Z,french_407.wav,0,poule,268,36,5,4,english,f,2,0.2,13.09742102,1.30220718
651a03c8ea1027b3193b9e35,93,1,2024-02-27T12:15:05.558Z,french_407.wav,0,poule,268,36,5,4,english,f,3,0.25666667,-8.98604593,1.55663467
651a03c8ea1027b3193b9e35,94,1,2024-02-27T12:15:05.558Z,french_717.wav,0,pull,451,36,5,4,english,f,0,0.0,-84.32189387,1.00877352
651a03c8ea1027b3193b9e35,94,1,2024-02-27T12:15:05.558Z,french_717.wav,0,pull,451,36,5,4,english,f,1,0.1,40.2374262,0.42603024
651a03c8ea1027b3193b9e35,94,1,2024-02-27T12:15:05.558Z,french_717.wav,0,pull,451,36,5,4,english,f,2,0.2,80.19404777,0.00517131
651a03c8ea1027b3193b9e35,94,1,2024-02-27T12:15:05.558Z,french_717.wav,0,pull,451,36,5,4,english,f,3,0.25666667,-31.07147466,1.19241547
651a03c8ea1027b3193b9e35,95,1,2024-02-27T12:15:05.558Z,french_206.wav,0,poule,287,36,5,4,english,f,0,0.0,54.3984601,1.52634336
651a03c8ea1027b3193b9e35,95,1,2024-02-27T12:15:05.558Z,french_206.wav,0,poule,287,36,5,4,english,f,1,0.1,63.13301153,0.52222794
651a03c8ea1027b3193b9e35,95,1,2024-02-27T12:15:05.558Z,french_206.wav,0,poule,287,36,5,4,english,f,2,0.2,42.02994149,1.32066154
651a03c8ea1027b3193b9e35,95,1,2024-02-27T12:15:05.558Z,french_206.wav,0,poule,287,36,5,4,english,f,3,0.25666667,-16.37363905,0.63957267
651a03c8ea1027b3193b9e35,96,1,2024-02-27T12:15:05.558Z,french_362.wav,0,poule,420,36,5,4,english,f,0,0.0,-5.18125688,1.66521149
651a03c8ea1027b3193b9e35,96,1,2024-02-27T12:15:05.558Z,french_362.wav,0,poule,420,36,5,4,english,f,1,0.1,-33.24228679,1.63330091
651a03c8ea1027b3193b9e35,96,1,2024-02-27T12:15:05.558Z,french_362.wav,0,poule,420,36,5,4,english,f,2,0.2,13.99395474,0.18995652
651a03c8ea1027b3193b9e35,96,1,2024-02-27T12:15:05.558Z,french_362.wav,0,poule,420,36,5,4,english,f,3,0.25666667,-44.70505318,0.66219279
651a03c8ea1027b3193b9e35,97,1,2024-02-27T12:15:05.558Z,french_701.wav,0,poule,257,36,5,4,english,f,0,0.0,-44.50216008,0.81644439
651a03c8ea1027b3193b9e35,97,1,2024-02-27T12:15:05.558Z,french_701.wav,0,poule,257,36,5,4,english,f,1,0.1,39.62093866,1.46668212
651a03c8ea1027b3193b9e35,97,1,2024-02-27T12:15:05.558Z,french_701.wav,0,poule,257,36,5,4,english,f,2,0.2,59.49522687,1.68659205
651a03c8ea1027b3193b9e35,97,1,2024-02-27T12:15:05.558Z,french_701.wav,0,poule,257,36,5,4,english,f,3,0.25666667,-55.32580216,1.60664037
651a03c8ea1027b3193b9e35,98,1,2024-02-27T12:15:05.558Z,french_415.wav,0,pull,370,36,5,4,english,f,0,0.0,-78.44301617,1.61962555
651a03c8ea1027b3193b9e35,98,1,2024-02-27T12:15:05.558Z,french_415.wav,0,pull,370,36,5,4,english,f,1,0.1,84.17180311,0.78674907
651a03c8ea1027b3193b9e35,98,1,2024-02-27T12:15:05.558Z,french_415.wav,0,pull,370,36,5,4,english,f,2,0.2,32.05176365,0.83302444
651a03c8ea1027b3193b9e35,98,1,2024-02-27T12:15:05.558Z,french_415.wav,0,pull,370,36,5,4,english,f,3,0.25666667,1.79049447,0.85177262
651a03c8ea1027b3193b9e35,99,1,2024-02-27T12:15:05.558Z,french_566.wav,0,poule,296,36,5,4,english,f,0,0.0,64.79843522,1.40647024
651a03c8ea1027b3193b9e35,99,1,2024-02-27T12:15:05.558Z,french_566.wav,0,poule,296,36,5,4,english,f,1,0.1,34.55507538,1.25726542
651a03c8ea1027b3193b9e35,99,1,2024-02-27T12:15:05.558Z,french_566.wav,0,poule,296,36,5,4,english,f,2,0.2,88.9191899,0.22445964
651a03c8ea1027b3193b9e35,99,1,2024-02-27T12:15:05.558Z,french_566.wav,0,poule,296,36,5,4,english,f,3,0.25666667,20.7211509,0.73474601
651a03c8ea1027b3193b9e35,100,2,2024-02-27T12:15:05.558Z,french_828.wav,0,poule,398,36,5,4,english,f,0,0.0,-2.7154125,0.72553522
651a03c8ea1027b3193b9e35,100,2,2024-02-27T12:15:05.558Z,french_828.wav,0,poule,398,36,5,4,english,f,1,0.1,-36.83814983,1.24313396
651a03c8ea1027b3193b9e35,100,2,2024-02-27T12:15:05.558Z,french_828.wav,0,poule,398,36,5,4,english,f,2,0.2,-50.98592502,0.62544862
651a03c8ea1027b3193b9e35,100,2,2024-02-27T12:15:05.558Z,french_828.wav,0,poule,398,36,5,4,english,f,3,0.25666667,-48.36073317,1.19233037
651a03c8ea1027b3193b9e35,101,2,2024-02-27T12:15:05.558Z,french_529.wav,0,pull,590,36,5,4,english,f,0,0.0,54.97727121,0.19662293
651a03c8ea1027b3193b9e35,101,2,2024-02-27T12:15:05.558Z,french_529.wav,0,pull,590,36,5,4,english,f,1,0.1,-15.05833494,1.39103506
651a03c8ea1027b3193b9e35,101,2,2024-02-27T12:15:05.558Z,french_529.wav,0,pull,590,36,5,4,english,f,2,0.2,4.35581279,0.62492467
651a03c8ea1027b3193b9e35,101,2,2024-02-27T12:15:05.558Z,french_529.wav,0,pull,590,36,5,4,english,f,3,0.25666667,-47.03433584,1.10830727
651a03c8ea1027b3193b9e35,102,2,2024-02-27T12:15:05.558Z,french_839.wav,0,poule,402,36,5,4,english,f,0,0.0,11.03740457,0.76467652
651a03c8ea1027b3193b9e35,102,2,2024-02-27T12:15:05.558Z,french_839.wav,0,poule,402,36,5,4,english,f,1,0.1,23.46119987,0.76268055
651a03c8ea1027b3193b9e35,102,2,2024-02-27T12:15:05.558Z,french_839.wav,0,poule,402,36,5,4,english,f,2,0.2,-0.31614798,1.64444165
651a03c8ea1027b3193b9e35,102,2,2024-02-27T12:15:05.558Z,french_839.wav,0,poule,402,36,5,4,english,f,3,0.25666667,62.63183259,0.69482811
651a03c8ea1027b3193b9e35,103,2,2024-02-27T12:15:05.558Z,french_714.wav,0,pull,547,36,5,4,english,f,0,0.0,77.35355583,0.35690042
651a03c8ea1027b3193b9e35,103,2,2024-02-27T12:15:05.558Z,french_714.wav,0,pull,547,36,5,4,english,f,1,0.1,-16.5812175,0.7400083
651a03c8ea1027b3193b9e35,103,2,2024-02-27T12:15:05.558Z,french_714.wav,0,pull,547,36,5,4,english,f,2,0.2,-79.42314022,1.17849399
651a03c8ea1027b3193b9e35,103,2,2024-02-27T12:15:05.558Z,french_714.wav,0,pull,547,36,5,4,english,f,3,0.25666667,64.71981705,1.38365213
651a03c8ea1027b3193b9e35,104,2,2024-02-27T12:15:05.558Z,french_681.wav,0,poule,248,36,5,4,english,f,0,0.0,-28.020652,0.15084138
651a03c8ea1027b3193b9e35,104,2,2024-02-27T12:15:05.558Z,french_681.wav,0,poule,248,36,5,4,english,f,1,0.1,-7.04160788,1.22079629
651a03c8ea1027b3193b9e35,104,2,2024-02-27T12:15:05.558Z,french_681.wav,0,poule,248,36,5,4,english,f,2,0.2,53.5795515,1.97804896
651a03c8ea1027b3193b9e35,104,2,2024-02-27T12:15:05.558Z,french_681.wav,0,poule,248,36,5,4,english,f,3,0.25666667,-33.12503676,0.44897499
651a03c8ea1027b3193b9e35,105,2,2024-02-27T12:15:05.558Z,french_659.wav,0,poule,244,36,5,4,english,f,0,0.0,85.50464417,1.33522586
651a03c8ea1027b3193b9e35,105,2,2024-02-27T12:15:05.558Z,french_659.wav,0,poule,244,36,5,4,english,f,1,0.1,65.46448613,1.79413259
651a03c8ea1027b3193b9e35,105,2,2024-02-27T12:15:05.558Z,french_659.wav,0,poule,244,36,5,4,english,f,2,0.2,39.40171471,1.57337642
651a03c8ea1027b3193b9e35,105,2,2024-02-27T12:15:05.558Z,french_659.wav,0,poule,244,36,5,4,english,f,3,0.25666667,-2.24011696,0.55895062
651a03c8ea1027b3193b9e35,106,2,2024-02-27T12:15:05.558Z,french_165.wav,0,poule,241,36,5,4,english,f,0,0.0,34.81781775,0.27086967
651a03c8ea1027b3193b9e35,106,2,2024-02-27T12:15:05.558Z,french_165.wav,0,poule,241,36,5,4,english,f,1,0.1,-0.63630456,1.42196963
651a03c8ea1027b3193b9e35,106,2,2024-02-27T12:15:05.558Z,french_165.wav,0,poule,241,36,5,4,english,f,2,0.2,85.92593744,1.99513726
651a03c8ea1027b3193b9e35,106,2,2024-02-27T12:15:05.558Z,french_165.wav,0,poule,241,36,5,4,english,f,3,0.25666667,7.56589877,0.37439059
651a03c8ea1027b3193b9e35,107,2,2024-02-27T12:15:05.558Z,french_737.wav,0,pull,310,36,5,4,english,f,0,0.0,13.02374388,1.19502519
651a03c8ea1027b3193b9e35,107,2,2024-02-27T12:15:05.558Z,french_737.wav,0,pull,310,36,5,4,english,f,1,0.1,-10.41694685,0.96501463
651a03c8ea1027b3193b9e35,107,2,2024-02-27T12:15:05.558Z,french_737.wav,0,pull,310,36,5,4,english,f,2,0.2,-16.29618142,0.50712422
651a03c8ea1027b3193b9e35,107,2,2024-02-27T12:15:05.558Z,french_737.wav,0,pull,310,36,5,4,english,f,3,0.25666667,15.62671798,0.54653665
651a03c8ea1027b3193b9e35,108,2,2024-02-27T12:15:05.558Z,french_194.wav,0,pull,416,36,5,4,english,f,0,0.0,82.45325258,0.54112087
651a03c8ea1027b3193b9e35,108,2,2024-02-27T12:15:05.558Z,french_194.wav,0,pull,416,36,5,4,english,f,1,0.1,88.9094727,0.47601939
651a03c8ea1027b3193b9e35,108,2,2024-02-27T12:15:05.558Z,french_194.wav,0,pull,416,36,5,4,english,f,2,0.2,-44.07936747,1.71905709
651a03c8ea1027b3193b9e35,108,2,2024-02-27T12:15:05.558Z,french_194.wav,0,pull,416,36,5,4,english,f,3,0.25666667,97.80970813,1.16289195
651a03c8ea1027b3193b9e35,109,2,2024-02-27T12:15:05.558Z,french_330.wav,0,pull,530,36,5,4,english,f,0,0.0,-46.98301203,1.92315583
651a03c8ea1027b3193b9e35,109,2,2024-02-27T12:15:05.558Z,french_330.wav,0,pull,530,36,5,4,english,f,1,0.1,55.18277966,0.64158591
651a03c8ea1027b3193b9e35,109,2,2024-02-27T12:15:05.558Z,french_330.wav,0,pull,530,36,5,4,english,f,2,0.2,68.01781419,0.71457858
651a03c8ea1027b3193b9e35,109,2,2024-02-27T12:15:05.558Z,french_330.wav,0,pull,530,36,5,4,english,f,3,0.25666667,-65.13341665,0.26661962
651a03c8ea1027b3193b9e35,110,2,2024-02-27T12:15:05.558Z,french_657.wav,0,pull,432,36,5,4,english,f,0,0.0,99.76716584,0.85695778
651a03c8ea1027b3193b9e35,110,2,2024-02-27T12:15:05.558Z,french_657.wav,0,pull,432,36,5,4,english,f,1,0.1,11.51898435,1.00645436
651a03c8ea1027b3193b9e35,110,2,2024-02-27T12:15:05.558Z,french_657.wav,0,pull,432,36,5,4,english,f,2,0.2,-43.45408234,0.73989588
651a03c8ea1027b3193b9e35,110,2,2024-02-27T12:15:05.558Z,french_657.wav,0,pull,432,36,5,4,english,f,3,0.25666667,22.46427071,1.57217431
651a03c8ea1027b3193b9e35,111,2,2024-02-27T12:15:05.558Z,french_648.wav,0,pull,483,36,5,4,english,f,0,0.0,45.21338473,1.3610165
651a03c8ea1027b3193b9e35,111,2,2024-02-27T12:15:05.558Z,french_648.wav,0,pull,483,36,5,4,english,f,1,0.1,35.84509453,0.40626065
651a03c8ea1027b3193b9e35,111,2,2024-02-27T12:15:05.558Z,french_648.wav,0,pull,483,36,5,4,english,f,2,0.2,-67.01500747,0.74636895
651a03c8ea1027b3193b9e35,111,2,2024-02-27T12:15:05.558Z,french_648.wav,0,pull,483,36,5,4,english,f,3,0.25666667,-57.94291625,1.66903202
651a03c8ea1027b3193b9e35,112,2,2024-02-27T12:15:05.558Z,french_532.wav,0,pull,458,36,5,4,english,f,0,0.0,51.6664435,1.30171402
651a03c8ea1027b3193b9e35,112,2,2024-02-27T12:15:05.558Z,french_532.wav,0,pull,458,36,5,4,english,f,1,0.1,12.38327687,0.03929558
651a03c8ea1027b3193b9e35,112,2,2024-02-27T12:15:05.558Z,french_532.wav,0,pull,458,36,5,4,english,f,2,0.2,-89.35582175,1.38931331
651a03c8ea1027b3193b9e35,112,2,2024-02-27T12:15:05.558Z,french_532.wav,0,pull,458,36,5,4,english,f,3,0.25666667,25.37493155,0.74157834
651a03c8ea1027b3193b9e35,113,2,2024-02-27T12:15:05.558Z,french_868.wav,0,poule,304,36,5,4,english,f,0,0.0,-35.95288605,1.76613711
651a03c8ea1027b3193b9e35,113,2,2024-02-27T12:15:05.558Z,french_868.wav,0,poule,304,36,5,4,english,f,1,0.1,-17.44977395,1.66440326
651a03c8ea1027b3193b9e35,113,2,2024-02-27T12:15:05.558Z,french_868.wav,0,poule,304,36,5,4,english,f,2,0.2,-64.01864585,0.72417379
651a03c8ea1027b3193b9e35,113,2,2024-02-27T12:15:05.558Z,french_868.wav,0,poule,304,36,5,4,english,f,3,0.25666667,14.1526891,0.87347262
651a03c8ea1027b3193b9e35,114,2,2024-02-27T12:15:05.558Z,french_779.wav,0,poule,360,36,5,4,english,f,0,0.0,-23.73686582,0.65858767
651a03c8ea1027b3193b9e35,114,2,2024-02-27T12:15:05.558Z,french_779.wav,0,poule,360,36,5,4,english,f,1,0.1,96.23962081,1.55580865
651a03c8ea1027b3193b9e35,114,2,2024-02-27T12:15:05.558Z,french_779.wav,0,poule,360,36,5,4,english,f,2,0.2,19.26430851,1.22244229
651a03c8ea1027b3193b9e35,114,2,2024-02-27T12:15:05.558Z,french_779.wav,0,poule,360,36,5,4,english,f,3,0.25666667,-72.92378626,1.83333034
651a03c8ea1027b3193b9e35,115,2,2024-02-27T12:15:05.558Z,french_331.wav,0,poule,340,36,5,4,english,f,0,0.0,-65.4197333,1.29365297
651a03c8ea1027b3193b9e35,115,2,2024-02-27T12:15:05.558Z,french_331.wav,0,poule,340,36,5,4,english,f,1,0.1,-42.63112693,1.19213918
651a03c8ea1027b3193b9e35,115,2,2024-02-27T12:15:05.558Z,french_331.wav,0,poule,340,36,5,4,english,f,2,0.2,-74.29271092,0.93002313
651a03c8ea1027b3193b9e35,115,2,2024-02-27T12:15:05.558Z,french_331.wav,0,poule,340,36,5,4,english,f,3,0.25666667,-22.37665177,1.59897964
651a03c8ea1027b3193b9e35,116,2,2024-02-27T12:15:05.558Z,french_187.wav,0,poule,336,36,5,4,english,f,0,0.0,-18.61743148,0.79177474
651a03c8ea1027b3193b9e35,116,2,2024-02-27T12:15:05.558Z,french_187.wav,0,poule,336,36,5,4,english,f,1,0.1,27.93687652,0.90472294
651a03c8ea1027b3193b9e35,116,2,2024-02-27T12:15:05.558Z,french_187.wav,0,poule,336,36,5,4,english,f,2,0.2,6.26647606,1.3885115
651a03c8ea1027b3193b9e35,116,2,2024-02-27T12:15:05.558Z,french_187.wav,0,poule,336,36,5,4,english,f,3,0.25666667,58.88972832,1.88547829
651a03c8ea1027b3193b9e35,117,2,2024-02-27T12:15:05.558Z,french_802.wav,0,poule,479,36,5,4,english,f,0,0.0,-73.24347689,0.39190156
651a03c8ea1027b3193b9e35,117,2,2024-02-27T12:15:05.558Z,french_802.wav,0,poule,479,36,5,4,english,f,1,0.1,14.85977478,1.18064228
651a03c8ea1027b3193b9e35,117,2,2024-02-27T12:15:05.558Z,french_802.wav,0,poule,479,36,5,4,english,f,2,0.2,-45.72901481,1.4654249
651a03c8ea1027b3193b9e35,117,2,2024-02-27T12:15:05.558Z,french_802.wav,0,poule,479,36,5,4,english,f,3,0.25666667,-78.69015161,0.6030906
651a03c8ea1027b3193b9e35,118,2,2024-02-27T12:15:05.558Z,french_759.wav,0,poule,303,36,5,4,english,f,0,0.0,43.66892012,0.9017147
651a03c8ea1027b3193b9e35,118,2,2024-02-27T12:15:05.558Z,french_759.wav,0,poule,303,36,5,4,english,f,1,0.1,28.75822808,1.01118462
651a03c8ea1027b3193b9e35,118,2,2024-02-27T12:15:05.558Z,french_759.wav,0,poule,303,36,5,4,english,f,2,0.2,-53.65094598,1.43326948
651a03c8ea1027b3193b9e35,118,2,2024-02-27T12:15:05.558Z,french_759.wav,0,poule,303,36,5,4,english,f,3,0.25666667,-79.66264825,0.32927354
651a03c8ea1027b3193b9e35,119,2,2024-02-27T12:15:05.558Z,french_968.wav,0,poule,335,36,5,4,english,f,0,0.0,45.43845159,0.89884875
651a03c8ea1027b3193b9e35,119,2,2024-02-27T12:15:05.558Z,french_968.wav,0,poule,335,36,5,4,english,f,1,0.1,86.71618344,1.25950681
651a03c8ea1027b3193b9e35,119,2,2024-02-27T12:15:05.558Z,french_968.wav,0,poule,335,36,5,4,english,f,2,0.2,-29.06718199,0.29298434
651a03c8ea1027b3193b9e35,119,2,2024-02-27T12:15:05.558Z,french_968.wav,0,poule,335,36,5,4,english,f,3,0.25666667,11.394495,1.98021593
651a03c8ea1027b3193b9e35,120,2,2024-02-27T12:15:05.558Z,french_396.wav,0,pull,323,36,5,4,english,f,0,0.0,-42.7744445,0.31798537
651a03c8ea1027b3193b9e35,120,2,2024-02-27T12:15:05.558Z,french_396.wav,0,pull,323,36,5,4,english,f,1,0.1,3.59774391,0.67756986
651a03c8ea1027b3193b9e35,120,2,2024-02-27T12:15:05.558Z,french_396.wav,0,pull,323,36,5,4,english,f,2,0.2,-86.41595133,1.44355676
651a03c8ea1027b3193b9e35,120,2,2024-02-27T12:15:05.558Z,french_396.wav,0,pull,323,36,5,4,english,f,3,0.25666667,76.20152203,1.44326023
651a03c8ea1027b3193b9e35,121,2,2024-02-27T12:15:05.558Z,french_997.wav,0,pull,408,36,5,4,english,f,0,0.0,70.02211451,0.23520638
651a03c8ea1027b3193b9e35,121,2,2024-02-27T12:15:05.558Z,french_997.wav,0,pull,408,36,5,4,english,f,1,0.1,69.24362731,0.40856699
651a03c8ea1027b3193b9e35,121,2,2024-02-27T12:15:05.558Z,french_997.wav,0,pull,408,36,5,4,english,f,2,0.2,73.007848,1.59962624
651a03c8ea1027b3193b9e35,121,2,2024-02-27T12:15:05.558Z,french_997.wav,0,pull,408,36,5,4,english,f,3,0.25666667,83.15376715,0.8906701
651a03c8ea1027b3193b9e35,122,2,2024-02-27T12:15:05.558Z,french_150.wav,0,poule,394,36,5,4,english,f,0,0.0,8.70975457,0.6151883
651a03c8ea1027b3193b9e35,122,2,2024-02-27T12:15:05.558Z,french_150.wav,0,poule,394,36,5,4,english,f,1,0.1,-27.10460474,1.35739255
651a03c8ea1027b3193b9e35,122,2,2024-02-27T12:15:05.558Z,french_150.wav,0,poule,394,36,5,4,english,f,2,0.2,-81.59186784,1.42530839
651a03c8ea1027b3193b9e35,122,2,2024-02-27T12:15:05.558Z,french_150.wav,0,poule,394,36,5,4,english,f,3,0.25666667,-72.54184128,0.64697028
651a03c8ea1027b3193b9e35,123,2,2024-02-27T12:15:05.558Z,french_786.wav,0,poule,482,36,5,4,english,f,0,0.0,46.81596915,0.36321177
651a03c8ea1027b3193b9e35,123,2,2024-02-27T12:15:05.558Z,french_786.wav,0,poule,482,36,5,4,english,f,1,0.1,35.10066142,1.24415108
651a03c8ea1027b3193b9e35,123,2,2024-02-27T12:15:05.558Z,french_786.wav,0,poule,482,36,5,4,english,f,2,0.2,15.54537814,1.19760647
651a03c8ea1027b3193b9e35,123,2,2024-02-27T12:15:05.558Z,french_786.wav,0,poule,482,36,5,4,english,f,3,0.25666667,97.25347056,0.79076548
651a03c8ea1027b3193b9e35,124,2,2024-02-27T12:15:05.558Z,french_645.wav,0,poule,479,36,5,4,english,f,0,0.0,39.28095882,1.44479402
651a03c8ea1027b3193b9e35,124,2,2024-02-27T12:15:05.558Z,french_645.wav,0,poule,479,36,5,4,english,f,1,0.1,36.97709506,1.97267477
651a03c8ea1027b3193b9e35,124,2,2024-02-27T12:15:05.558Z,french_645.wav,0,poule,479,36,5,4,english,f,2,0.2,-20.56368862,0.33303832
651a03c8ea1027b3193b9e35,124,2,2024-02-27T12:15:05.558Z,french_645.wav,0,poule,479,36,5,4,english,f,3,0.25666667,45.13755494,0.87530899
651a03c8ea1027b3193b9e35,125,2,2024-02-27T12:15:05.558Z,french_453.wav,0,pull,273,36,5,4,english,f,0,0.0,17.16336321,0.53243678
651a03c8ea1027b3193b9e35,125,2,2024-02-27T12:15:05.558Z,french_453.wav,0,pull,273,36,5,4,english,f,1,0.1,-89.93005254,1.83492113
651a03c8ea1027b3193b9e35,125,2,2024-02-27T12:15:05.558Z,french_453.wav,0,pull,273,36,5,4,english,f,2,0.2,91.22824445,1.32944014
651a03c8ea1027b3193b9e35,125,2,2024-02-27T12:15:05.558Z,french_453.wav,0,pull,273,36,5,4,english,f,3,0.25666667,-84.37948707,0.35681228
651a03c8ea1027b3193b9e35,126,2,2024-02-27T12:15:05.558Z,french_915.wav,0,poule,488,36,5,4,english,f,0,0.0,-64.10930236,0.7615396
651a03c8ea1027b3193b9e35,126,2,2024-02-27T12:15:05.558Z,french_915.wav,0,poule,488,36,5,4,english,f,1,0.1,-7.16601985,1.77142655
651a03c8ea1027b3193b9e35,126,2,2024-02-27T12:15:05.558Z,french_915.wav,0,poule,488,36,5,4,english,f,2,0.2,-76.9677693,1.45350334
651a03c8ea1027b3193b9e35,126,2,2024-02-27T12:15:05.558Z,french_915.wav,0,poule,488,36,5,4,english,f,3,0.25666667,64.27469246,1.62999495
651a03c8ea1027b3193b9e35,127,2,2024-02-27T12:15:05.558Z,french_540.wav,0,poule,436,36,5,4,english,f,0,0.0,64.41538276,0.51709462
651a03c8ea1027b3193b9e35,127,2,2024-02-27T12:15:05.558Z,french_540.wav,0,poule,436,36,5,4,english,f,1,0.1,17.02048616,1.30376576
651a03c8ea1027b3193b9e35,127,2,2024-02-27T12:15:05.558Z,french_540.wav,0,poule,436,36,5,4,english,f,2,0.2,-33.22379056,0.40148031
651a03c8ea1027b3193b9e35,127,2,2024-02-27T12:15:05.558Z,french_540.wav,0,poule,436,36,5,4,english,f,3,0.25666667,6.66749413,1.14865781
651a03c8ea1027b3193b9e35,128,2,2024-02-27T12:15:05.558Z,french_804.wav,0,poule,415,36,5,4,english,f,0,0.0,26.75542793,1.45857154
651a03c8ea1027b3193b9e35,128,2,2024-02-27T12:15:05.558Z,french_804.wav,0,poule,415,36,5,4,english,f,1,0.1,-36.26520541,0.22938299
651a03c8ea1027b3193b9e35,128,2,2024-02-27T12:15:05.558Z,french_804.wav,0,poule,415,36,5,4,english,f,2,0.2,56.17292919,1.23693855
651a03c8ea1027b3193b9e35,128,2,2024-02-27T12:15:05.558Z,french_804.wav,0,poule,415,36,5,4,english,f,3,0.25666667,8.82571189,1.26994951
651a03c8ea1027b3193b9e35,129,2,2024-02-27T12:15:05.558Z,french_732.wav,0,pull,281,36,5,4,english,f,0,0.0,-82.9393053,0.90840431
651a03c8ea1027b3193b9e35,129,2,2024-02-27T12:15:05.558Z,french_732.wav,0,pull,281,36,5,4,english,f,1,0.1,-79.22735873,0.47468339
651a03c8ea1027b3193b9e35,129,2,2024-02-27T12:15:05.558Z,french_732.wav,0,pull,281,36,5,4,english,f,2,0.2,-67.09796721,1.61768905
651a03c8ea1027b3193b9e35,129,2,2024-02-27T12:15:05.558Z,french_732.wav,0,pull,281,36,5,4,english,f,3,0.25666667,35.15971491,1.44596926
651a03c8ea1027b3193b9e35,130,2,2024-02-27T12:15:05.558Z,french_679.wav,0,pull,329,36,5,4,english,f,0,0.0,-12.30272173,0.22564891
651a03c8ea1027b3193b9e35,130,2,2024-02-27T12:15:05.558Z,french_679.wav,0,pull,329,36,5,4,english,f,1,0.1,-25.8054218,0.32954228
651a03c8ea1027b3193b9e35,130,2,2024-02-27T12:15:05.558Z,french_679.wav,0,pull,329,36,5,4,english,f,2,0.2,-49.36641871,0.69268874
651a03c8ea1027b3193b9e35,130,2,2024-02-27T12:15:05.558Z,french_679.wav,0,pull,329,36,5,4,english,f,3,0.25666667,3.29240265,1.86334945
651a03c8ea1027b3193b9e35,131,2,2024-02-27T12:15:05.558Z,french_524.wav,0,poule,337,36,5,4,english,f,0,0.0,29.26114001,1.50805134
651a03c8ea1027b3193b9e35,131,2,2024-02-27T12:15:05.558Z,french_524.wav,0,poule,337,36,5,4,english,f,1,0.1,51.10918927,1.00551207
651a03c8ea1027b3193b9e35,131,2,2024-02-27T12:15:05.558Z,french_524.wav,0,poule,337,36,5,4,english,f,2,0.2,-43.7486939,1.81734516
651a03c8ea1027b3193b9e35,131,2,2024-02-27T12:15:05.558Z,french_524.wav,0,poule,337,36,5,4,english,f,3,0.25666667,-29.29338592,0.93830148
651a03c8ea1027b3193b9e35,132,2,2024-02-27T12:15:05.558Z,french_292.wav,0,pull,824,36,5,4,english,f,0,0.0,-5.98307963,1.30181039
651a03c8ea1027b3193b9e35,132,2,2024-02-27T12:15:05.558Z,french_292.wav,0,pull,824,36,5,4,english,f,1,0.1,-89.4143915,0.71580693
651a03c8ea1027b3193b9e35,132,2,2024-02-27T12:15:05.558Z,french_292.wav,0,pull,824,36,5,4,english,f,2,0.2,50.82370108,0.58623796
651a03c8ea1027b3193b9e35,132,2,2024-02-27T12:15:05.558Z,french_292.wav,0,pull,824,36,5,4,english,f,3,0.25666667,-75.87081721,1.49080339
651a03c8ea1027b3193b9e35,133,2,2024-02-27T12:15:05.558Z,french_879.wav,0,pull,526,36,5,4,english,f,0,0.0,-48.96816685,1.19104759
651a03c8ea1027b3193b9e35,133,2,2024-02-27T12:15:05.558Z,french_879.wav,0,pull,526,36,5,4,english,f,1,0.1,-79.01398257,0.98306132
651a03c8ea1027b3193b9e35,133,2,2024-02-27T12:15:05.558Z,french_879.wav,0,pull,526,36,5,4,english,f,2,0.2,-55.9985187,0.68767433
651a03c8ea1027b3193b9e35,133,2,2024-02-27T12:15:05.558Z,french_879.wav,0,pull,526,36,5,4,english,f,3,0.25666667,-98.06504365,1.4115175
651a03c8ea1027b3193b9e35,134,2,2024-02-27T12:15:05.558Z,french_475.wav,0,pull,481,36,5,4,english,f,0,0.0,42.4700979,1.46915347
651a03c8ea1027b3193b9e35,134,2,2024-02-27T12:15:05.558Z,french_475.wav,0,pull,481,36,5,4,english,f,1,0.1,19.82242754,0.15565226
651a03c8ea1027b3193b9e35,134,2,2024-02-27T12:15:05.558Z,french_475.wav,0,pull,481,36,5,4,english,f,2,0.2,35.42792781,0.40628011
651a03c8ea1027b3193b9e35,134,2,2024-02-27T12:15:05.558Z,french_475.wav,0,pull,481,36,5,4,english,f,3,0.25666667,-96.45453718,1.14503128
651a03c8ea1027b3193b9e35,135,2,2024-02-27T12:15:05.558Z,french_787.wav,0,poule,448,36,5,4,english,f,0,0.0,-96.56930436,0.95025141
651a03c8ea1027b3193b9e35,135,2,2024-02-27T12:15:05.558Z,french_787.wav,0,poule,448,36,5,4,english,f,1,0.1,-14.18878177,1.10577547
651a03c8ea1027b3193b9e35,135,2,2024-02-27T12:15:05.558Z,french_787.wav,0,poule,448,36,5,4,english,f,2,0.2,-34.79884993,0.4132657
651a03c8ea1027b3193b9e35,135,2,2024-02-27T12:15:05.558Z,french_787.wav,0,poule,448,36,5,4,english,f,3,0.25666667,-70.75211023,0.64958401
651a03c8ea1027b3193b9e35,136,2,2024-02-27T12:15:05.558Z,french_100.wav,0,poule,417,36,5,4,english,f,0,0.0,-35.75508116,1.72997046
651a03c8ea1027b3193b9e35,136,2,2024-02-27T12:15:05.558Z,french_100.wav,0,poule,417,36,5,4,english,f,1,0.1,57.82815341,1.04300978
651a03c8ea1027b3193b9e35,136,2,2024-02-27T12:15:05.558Z,french_100.wav,0,poule,417,36,5,4,english,f,2,0.2,31.92112674,1.01595182
651a03c8ea1027b3193b9e35,136,2,2024-02-27T12:15:05.558Z,french_100.wav,0,poule,417,36,5,4,english,f,3,0.25666667,34.87308497,1.9286069
651a03c8ea1027b3193b9e35,137,2,2024-02-27T12:15:05.558Z,french_185.wav,0,poule,202,36,5,4,english,f,0,0.0,61.04894301,1.56575395
651a03c8ea1027b3193b9e35,137,2,2024-02-27T12:15:05.558Z,french_185.wav,0,poule,202,36,5,4,english,f,1,0.1,4.55457692,1.97883698
651a03c8ea1027b3193b9e35,137,2,2024-02-27T12:15:05.558Z,french_185.wav,0,poule,202,36,5,4,english,f,2,0.2,51.77529612,1.92093932
651a03c8ea1027b3193b9e35,137,2,2024-02-27T12:15:05.558Z,french_185.wav,0,poule,202,36,5,4,english,f,3,0.25666667,-22.06501589,0.68389876
651a03c8ea1027b3193b9e35,138,2,2024-02-27T12:15:05.558Z,french_697.wav,0,pull,504,36,5,4,english,f,0,0.0,-19.8565912,1.89587242
651a03c8ea1027b3193b9e35,138,2,2024-02-27T12:15:05.558Z,french_697.wav,0,pull,504,36,5,4,english,f,1,0.1,-16.18456076,0.49072185
651a03c8ea1027b3193b9e35,138,2,2024-02-27T12:15:05.558Z,french_697.wav,0,pull,504,36,5,4,english,f,2,0.2,-70.77550193,1.8362568
651a03c8ea1027b3193b9e35,138,2,2024-02-27T12:15:05.558Z,french_697.wav,0,pull,504,36,5,4,english,f,3,0.25666667,-81.21106402,0.50078837
651a03c8ea1027b3193b9e35,139,2,2024-02-27T12:15:05.558Z,french_941.wav,0,pull,778,36,5,4,english,f,0,0.0,-66.32571195,0.9896497
651a03c8ea1027b3193b9e35,139,2,2024-02-27T12:15:05.558Z,french_941.wav,0,pull,778,36,5,4,english,f,1,0.1,85.09907795,0.67654191
651a03c8ea1027b3193b9e35,139,2,2024-02-27T12:15:05.558Z,french_941.wav,0,pull,778,36,5,4,english,f,2,0.2,87.37862016,1.4708398
651a03c8ea1027b3193b9e35,139,2,2024-02-27T12:15:05.558Z,french_941.wav,0,pull,778,36,5,4,english,f,3,0.25666667,-18.39108149,0.82969394
651a03c8ea1027b3193b9e35,140,2,2024-02-27T12:15:05.558Z,french_526.wav,0,poule,473,36,5,4,english,f,0,0.0,88.08406442,1.10890049
651a03c8ea1027b3193b9e35,140,2,2024-02-27T12:15:05.558Z,french_526.wav,0,poule,473,36,5,4,english,f,1,0.1,34.72799638,1.05741796
651a03c8ea1027b3193b9e35,140,2,2024-02-27T12:15:05.558Z,french_526.wav,0,poule,473,36,5,4,english,f,2,0.2,4.2178472,1.4706377
651a03c8ea1027b3193b9e35,140,2,2024-02-27T12:15:05.558Z,french_526.wav,0,poule,473,36,5,4,english,f,3,0.25666667,90.74946068,0.12061003
651a03c8ea1027b3193b9e35,141,2,2024-02-27T12:15:05.558Z,french_709.wav,0,pull,626,36,5,4,english,f,0,0.0,-79.1228884,1.66046785
651a03c8ea1027b3193b9e35,141,2,2024-02-27T12:15:05.558Z,french_709.wav,0,pull,626,36,5,4,english,f,1,0.1,-27.45222572,0.50815509
651a03c8ea1027b3193b9e35,141,2,2024-02-27T12:15:05.558Z,french_709.wav,0,pull,626,36,5,4,english,f,2,0.2,-11.54770291,1.01994244
651a03c8ea1027b3193b9e35,141,2,2024-02-27T12:15:05.558Z,french_709.wav,0,pull,626,36,5,4,english,f,3,0.25666667,-99.06734201,1.8368488
651a03c8ea1027b3193b9e35,142,2,2024-02-27T12:15:05.558Z,french_406.wav,0,poule,287,36,5,4,english,f,0,0.0,58.13533855,1.29537269
651a03c8ea1027b3193b9e35,142,2,2024-02-27T12:15:05.558Z,french_406.wav,0,poule,287,36,5,4,english,f,1,0.1,16.77938971,1.03128378
651a03c8ea1027b3193b9e35,142,2,2024-02-27T12:15:05.558Z,french_406.wav,0,poule,287,36,5,4,english,f,2,0.2,-34.29610563,1.90878176
651a03c8ea1027b3193b9e35,142,2,2024-02-27T12:15:05.558Z,french_406.wav,0,poule,287,36,5,4,english,f,3,0.25666667,5.14727068,1.43946259
651a03c8ea1027b3193b9e35,143,2,2024-02-27T12:15:05.558Z,french_493.wav,0,pull,288,36,5,4,english,f,0,0.0,-68.32294441,0.52835731
651a03c8ea1027b3193b9e35,143,2,2024-02-27T12:15:05.558Z,french_493.wav,0,pull,288,36,5,4,english,f,1,0.1,-10.78892258,0.49612748
651a03c8ea1027b3193b9e35,143,2,2024-02-27T12:15:05.558Z,french_493.wav,0,pull,288,36,5,4,english,f,2,0.2,91.72278204,1.46473376
651a03c8ea1027b3193b9e35,143,2,2024-02-27T12:15:05.558Z,french_493.wav,0,pull,288,36,5,4,english,f,3,0.25666667,-45.09260027,1.2872874
651a03c8ea1027b3193b9e35,144,2,2024-02-27T12:15:05.558Z,french_715.wav,0,pull,609,36,5,4,english,f,0,0.0,89.89167485,1.90551341
651a03c8ea1027b3193b9e35,144,2,2024-02-27T12:15:05.558Z,french_715.wav,0,pull,609,36,5,4,english,f,1,0.1,47.15597215,0.2376049
651a03c8ea1027b3193b9e35,144,2,2024-02-27T12:15:05.558Z,french_715.wav,0,pull,609,36,5,4,english,f,2,0.2,44.59513653,0.03260857
651a03c8ea1027b3193b9e35,144,2,2024-02-27T12:15:05.558Z,french_715.wav,0,pull,609,36,5,4,english,f,3,0.25666667,-32.08567965,1.14470607
651a03c8ea1027b3193b9e35,145,2,2024-02-27T12:15:05.558Z,french_918.wav,0,pull,319,36,5,4,english,f,0,0.0,73.93932449,1.12285198
651a03c8ea1027b3193b9e35,145,2,2024-02-27T12:15:05.558Z,french_918.wav,0,pull,319,36,5,4,english,f,1,0.1,-96.38016005,0.52569443
651a03c8ea1027b3193b9e35,145,2,2024-02-27T12:15:05.558Z,french_918.wav,0,pull,319,36,5,4,english,f,2,0.2,52.71903464,1.01384132
651a03c8ea1027b3193b9e35,145,2,2024-02-27T12:15:05.558Z,french_918.wav,0,pull,319,36,5,4,english,f,3,0.25666667,71.89996729,0.74683012
651a03c8ea1027b3193b9e35,146,2,2024-02-27T12:15:05.558Z,french_319.wav,0,pull,342,36,5,4,english,f,0,0.0,63.69489547,0.79356863
651a03c8ea1027b3193b9e35,146,2,2024-02-27T12:15:05.558Z,french_319.wav,0,pull,342,36,5,4,english,f,1,0.1,60.76449486,1.37507237
651a03c8ea1027b3193b9e35,146,2,2024-02-27T12:15:05.558Z,french_319.wav,0,pull,342,36,5,4,english,f,2,0.2,-58.82123998,1.06369674
651a03c8ea1027b3193b9e35,146,2,2024-02-27T12:15:05.558Z,french_319.wav,0,pull,342,36,5,4,english,f,3,0.25666667,43.46614377,1.64660946
651a03c8ea1027b3193b9e35,147,2,2024-02-27T12:15:05.558Z,french_963.wav,0,poule,332,36,5,4,english,f,0,0.0,47.65214736,0.44378955
651a03c8ea1027b3193b9e35,147,2,2024-02-27T12:15:05.558Z,french_963.wav,0,poule,332,36,5,4,english,f,1,0.1,6.38608236,0.94107122
651a03c8ea1027b3193b9e35,147,2,2024-02-27T12:15:05.558Z,french_963.wav,0,poule,332,36,5,4,english,f,2,0.2,90.58649254,1.48470349
651a03c8ea1027b3193b9e35,147,2,2024-02-27T12:15:05.558Z,french_963.wav,0,poule,332,36,5,4,english,f,3,0.25666667,-7.76898595,1.98203536
651a03c8ea1027b3193b9e35,148,2,2024-02-27T12:15:05.558Z,french_6.wav,0,pull,512,36,5,4,english,f,0,0.0,67.46153681,1.53277947
651a03c8ea1027b3193b9e35,148,2,2024-02-27T12:15:05.558Z,french_6.wav,0,pull,512,36,5,4,english,f,1,0.1,-88.84735091,1.45938327
651a03c8ea1027b3193b9e35,148,2,2024-02-27T12:15:05.558Z,french_6.wav,0,pull,512,36,5,4,english,f,2,0.2,-91.91919173,0.73643418
651a03c8ea1027b3193b9e35,148,2,2024-02-27T12:15:05.558Z,french_6.wav,0,pull,512,36,5,4,english,f,3,0.25666667,29.60258617,1.91810532
651a03c8ea1027b3193b9e35,149,2,2024-02-27T12:15:05.558Z,french_627.wav,0,poule,256,36,5,4,english,f,0,0.0,2.1799823,1.97167661
651a03c8ea1027b3193b9e35,149,2,2024-02-27T12:15:05.558Z,french_627.wav,0,poule,256,36,5,4,english,f,1,0.1,30.63833179,1.14790719
651a03c8ea1027b3193b9e35,149,2,2024-02-27T12:15:05.558Z,french_627.wav,0,poule,256,36,5,4,english,f,2,0.2,99.93583097,1.70510721
651a03c8ea1027b3193b9e35,149,2,2024-02-27T12:15:05.558Z,french_627.wav,0,poule,256,36,5,4,english,f,3,0.25666667,-23.95585557,1.67415678
651a03c8ea1027b3193b9e35,150,3,2024-02-27T12:15:05.558Z,french_345.wav,0,poule,320,36,5,4,english,f,0,0.0,-15.34440167,0.71900559
651a03c8ea1027b3193b9e35,150,3,2024-02-27T12:15:05.558Z,french_345.wav,0,poule,320,36,5,4,english,f,1,0.1,10.78758757,1.22956467
651a03c8ea1027b3193b9e35,150,3,2024-02-27T12:15:05.558Z,french_345.wav,0,poule,320,36,5,4,english,f,2,0.2,-99.05600522,1.71608101
651a03c8ea1027b3193b9e35,150,3,2024-02-27T12:15:05.558Z,french_345.wav,0,poule,320,36,5,4,english,f,3,0.25666667,-6.99010662,1.92257683
651a03c8ea1027b3193b9e35,151,3,2024-02-27T12:15:05.558Z,french_203.wav,0,pull,363,36,5,4,english,f,0,0.0,9.50743764,1.88144993
651a03c8ea1027b3193b9e35,151,3,2024-02-27T12:15:05.558Z,french_203.wav,0,pull,363,36,5,4,english,f,1,0.1,-98.19338414,1.32545529
651a03c8ea1027b3193b9e35,151,3,2024-02-27T12:15:05.558Z,french_203.wav,0,pull,363,36,5,4,english,f,2,0.2,67.11536794,0.82099832
651a03c8ea1027b3193b9e35,151,3,2024-02-27T12:15:05.558Z,french_203.wav,0,pull,363,36,5,4,english,f,3,0.25666667,-71.08115362,1.4347795
651a03c8ea1027b3193b9e35,152,3,2024-02-27T12:15:05.558Z,french_674.wav,0,poule,219,36,5,4,english,f,0,0.0,36.8658398,0.63817569
651a03c8ea1027b3193b9e35,152,3,2024-02-27T12:15:05.558Z,french_674.wav,0,poule,219,36,5,4,english,f,1,0.1,-70.55199619,1.9135219
651a03c8ea1027b3193b9e35,152,3,2024-02-27T12:15:05.558Z,french_674.wav,0,poule,219,36,5,4,english,f,2,0.2,-3.70121723,1.96782527
651a03c8ea1027b3193b9e35,152,3,2024-02-27T12:15:05.558Z,french_674.wav,0,poule,219,36,5,4,english,f,3,0.25666667,30.12615154,0.86862342
651a03c8ea1027b3193b9e35,153,3,2024-02-27T12:15:05.558Z,french_609.wav,0,poule,275,36,5,4,english,f,0,0.0,11.6890167,1.75568789
651a03c8ea1027b3193b9e35,153,3,2024-02-27T12:15:05.558Z,french_609.wav,0,poule,275,36,5,4,english,f,1,0.1,-35.50971605,1.50542158
651a03c8ea1027b3193b9e35,153,3,2024-02-27T12:15:05.558Z,french_609.wav,0,poule,275,36,5,4,english,f,2,0.2,-98.47760025,0.96032408
651a03c8ea1027b3193b9e35,153,3,2024-02-27T12:15:05.558Z,french_609.wav,0,poule,275,36,5,4,english,f,3,0.25666667,-64.00925784,1.1186533
651a03c8ea1027b3193b9e35,154,3,2024-02-27T12:15:05.558Z,french_253.wav,0,pull,535,36,5,4,english,f,0,0.0,46.57034738,1.71066879
651a03c8ea1027b3193b9e35,154,3,2024-02-27T12:15:05.558Z,french_253.wav,0,pull,535,36,5,4,english,f,1,0.1,95.71705704,0.77231307
651a03c8ea1027b3193b9e35,154,3,2024-02-27T12:15:05.558Z,french_253.wav,0,pull,535,36,5,4,english,f,2,0.2,-25.2299753,0.81370988
651a03c8ea1027b3193b9e35,154,3,2024-02-27T12:15:05.558Z,french_253.wav,0,pull,535,36,5,4,english,f,3,0.25666667,-10.51050389,1.71668189
651a03c8ea1027b3193b9e35,155,3,2024-02-27T12:15:05.558Z,french_632.wav,0,poule,239,36,5,4,english,f,0,0.0,-75.14768165,1.61991752
651a03c8ea1027b3193b9e35,155,3,2024-02-27T12:15:05.558Z,french_632.wav,0,poule,239,36,5,4,english,f,1,0.1,-2.61560916,1.85762338
651a03c8ea1027b3193b9e35,155,3,2024-02-27T12:15:05.558Z,french_632.wav,0,poule,239,36,5,4,english,f,2,0.2,-59.30318173,1.4379908
651a03c8ea1027b3193b9e35,155,3,2024-02-27T12:15:05.558Z,french_632.wav,0,poule,239,36,5,4,english,f,3,0.25666667,-18.46762736,1.77571767
651a03c8ea1027b3193b9e35,156,3,2024-02-27T12:15:05.558Z,french_492.wav,0,pull,602,36,5,4,english,f,0,0.0,26.23401792,1.39276004
651a03c8ea1027b3193b9e35,156,3,2024-02-27T12:15:05.558Z,french_492.wav,0,pull,602,36,5,4,english,f,1,0.1,-24.69700304,1.17915575
651a03c8ea1027b3193b9e35,156,3,2024-02-27T12:15:05.558Z,french_492.wav,0,pull,602,36,5,4,english,f,2,0.2,20.89476161,0.89700471
651a03c8ea1027b3193b9e35,156,3,2024-02-27T12:15:05.558Z,french_492.wav,0,pull,602,36,5,4,english,f,3,0.25666667,-5.21833306,0.44164607
651a03c8ea1027b3193b9e35,157,3,2024-02-27T12:15:05.558Z,french_218.wav,0,pull,424,36,5,4,english,f,0,0.0,50.58163299,1.39700525
651a03c8ea1027b3193b9e35,157,3,2024-02-27T12:15:05.558Z,french_218.wav,0,pull,424,36,5,4,english,f,1,0.1,-62.47432707,0.24728847
651a03c8ea1027b3193b9e35,157,3,2024-02-27T12:15:05.558Z,french_218.wav,0,pull,424,36,5,4,english,f,2,0.2,-11.24403131,1.10420939
651a03c8ea1027b3193b9e35,157,3,2024-02-27T12:15:05.558Z,french_218.wav,0,pull,424,36,5,4,english,f,3,0.25666667,-76.23808147,0.34157158
651a03c8ea1027b3193b9e35,158,3,2024-02-27T12:15:05.558Z,french_851.wav,0,pull,494,36,5,4,english,f,0,0.0,-16.14738252,1.77999263
651a03c8ea1027b3193b9e35,158,3,2024-02-27T12:15:05.558Z,french_851.wav,0,pull,494,36,5,4,english,f,1,0.1,19.84507786,0.90385235
651a03c8ea1027b3193b9e35,158,3,2024-02-27T12:15:05.558Z,french_851.wav,0,pull,494,36,5,4,english,f,2,0.2,-46.64792285,0.51993189
651a03c8ea1027b3193b9e35,158,3,2024-02-27T12:15:05.558Z,french_851.wav,0,pull,494,36,5,4,english,f,3,0.25666667,-81.41203514,1.06673989
651a03c8ea1027b3193b9e35,159,3,2024-02-27T12:15:05.558Z,french_966.wav,0,pull,450,36,5,4,english,f,0,0.0,94.80811126,1.26057873
651a03c8ea1027b3193b9e35,159,3,2024-02-27T12:15:05.558Z,french_966.wav,0,pull,450,36,5,4,english,f,1,0.1,-90.73743651,1.58996588
651a03c8ea1027b3193b9e35,159,3,2024-02-27T12:15:05.558Z,french_966.wav,0,pull,450,36,5,4,english,f,2,0.2,94.60686235,0.08752829
651a03c8ea1027b3193b9e35,159,3,2024-02-27T12:15:05.558Z,french_966.wav,0,pull,450,36,5,4,english,f,3,0.25666667,-83.76406221,0.32239013
651a03c8ea1027b3193b9e35,160,3,2024-02-27T12:15:05.558Z,french_590.wav,0,pull,459,36,5,4,english,f,0,0.0,-77.28287391,1.10563408
651a03c8ea1027b3193b9e35,160,3,2024-02-27T12:15:05.558Z,french_590.wav,0,pull,459,36,5,4,english,f,1,0.1,-59.34931175,0.27897949
651a03c8ea1027b3193b9e35,160,3,2024-02-27T12:15:05.558Z,french_590.wav,0,pull,459,36,5,4,english,f,2,0.2,-59.15957395,1.42245938
651a03c8ea1027b3193b9e35,160,3,2024-02-27T12:15:05.558Z,french_590.wav,0,pull,459,36,5,4,english,f,3,0.25666667,88.90935082,0.18524725
651a03c8ea1027b3193b9e35,161,3,2024-02-27T12:15:05.558Z,french_612.wav,0,pull,474,36,5,4,english,f,0,0.0,43.10783066,0.49686358
651a03c8ea1027b3193b9e35,161,3,2024-02-27T12:15:05.558Z,french_612.wav,0,pull,474,36,5,4,english,f,1,0.1,-4.14995098,1.10500502
651a03c8ea1027b3193b9e35,161,3,2024-02-27T12:15:05.558Z,french_612.wav,0,pull,474,36,5,4,english,f,2,0.2,22.17563662,0.22222502
651a03c8ea1027b3193b9e35,161,3,2024-02-27T12:15:05.558Z,french_612.wav,0,pull,474,36,5,4,english,f,3,0.25666667,-48.75850842,1.14111641
651a03c8ea1027b3193b9e35,162,3,2024-02-27T12:15:05.558Z,french_379.wav,0,pull,275,36,5,4,english,f,0,0.0,22.44752401,1.77059304
651a03c8ea1027b3193b9e35,162,3,2024-02-27T12:15:05.558Z,french_379.wav,0,pull,275,36,5,4,english,f,1,0.1,26.97339804,0.69418911
651a03c8ea1027b3193b9e35,162,3,2024-02-27T12:15:05.558Z,french_379.wav,0,pull,275,36,5,4,english,f,2,0.2,53.43729248,0.76703539
651a03c8ea1027b3193b9e35,162,3,2024-02-27T12:15:05.558Z,french_379.wav,0,pull,275,36,5,4,english,f,3,0.25666667,-63.2778902,0.57510346
651a03c8ea1027b3193b9e35,163,3,2024-02-27T12:15:05.558Z,french_993.wav,0,pull,399,36,5,4,english,f,0,0.0,3.12847982,1.75015027
651a03c8ea1027b3193b9e35,163,3,2024-02-27T12:15:05.558Z,french_993.wav,0,pull,399,36,5,4,english,f,1,0.1,-78.95304083,0.83743251
651a03c8ea1027b3193b9e35,163,3,2024-02-27T12:15:05.558Z,french_993.wav,0,pull,399,36,5,4,english,f,2,0.2,-13.84245357,0.53594991
651a03c8ea1027b3193b9e35,163,3,2024-02-27T12:15:05.558Z,french_993.wav,0,pull,399,36,5,4,english,f,3,0.25666667,66.66979397,1.46895698
651a03c8ea1027b3193b9e35,164,3,2024-02-27T12:15:05.558Z,french_703.wav,0,poule,310,36,5,4,english,f,0,0.0,84.48201003,0.82331622
651a03c8ea1027b3193b9e35,164,3,2024-02-27T12:15:05.558Z,french_703.wav,0,poule,310,36,5,4,english,f,1,0.1,-13.2968245,1.50639414
651a03c8ea1027b3193b9e35,164,3,2024-02-27T12:15:05.558Z,french_703.wav,0,poule,310,36,5,4,english,f,2,0.2,-49.01598543,0.83966854
651a03c8ea1027b3193b9e35,164,3,2024-02-27T12:15:05.558Z,french_703.wav,0,poule,310,36,5,4,english,f,3,0.25666667,-63.56156529,1.27848793
651a03c8ea1027b3193b9e35,165,3,2024-02-27T12:15:05.558Z,french_533.wav,0,poule,165,36,5,4,english,f,0,0.0,16.04004141,1.94214745
651a03c8ea1027b3193b9e35,165,3,2024-02-27T12:15:05.558Z,french_533.wav,0,poule,165,36,5,4,english,f,1,0.1,56.74964814,0.96958639
651a03c8ea1027b3193b9e35,165,3,2024-02-27T12:15:05.558Z,french_533.wav,0,poule,165,36,5,4,english,f,2,0.2,94.00728235,1.49563925
651a03c8ea1027b3193b9e35,165,3,2024-02-27T12:15:05.558Z,french_533.wav,0,poule,165,36,5,4,english,f,3,0.25666667,-15.92685786,1.75047909
651a03c8ea1027b3193b9e35,166,3,2024-02-27T12:15:05.558Z,french_654.wav,0,poule,415,36,5,4,english,f,0,0.0,4.75004181,0.71611878
651a03c8ea1027b3193b9e35,166,3,2024-02-27T12:15:05.558Z,french_654.wav,0,poule,415,36,5,4,english,f,1,0.1,-26.31758413,1.28432707
651a03c8ea1027b3193b9e35,166,3,2024-02-27T12:15:05.558Z,french_654.wav,0,poule,415,36,5,4,english,f,2,0.2,5.97151275,0.58455266
651a03c8ea1027b3193b9e35,166,3,2024-02-27T12:15:05.558Z,french_654.wav,0,poule,415,36,5,4,english,f,3,0.25666667,-86.03507884,1.03676738
651a03c8ea1027b3193b9e35,167,3,2024-02-27T12:15:05.558Z,french_378.wav,0,pull,472,36,5,4,english,f,0,0.0,74.25757507,1.44636003
651a03c8ea1027b3193b9e35,167,3,2024-02-27T12:15:05.558Z,french_378.wav,0,pull,472,36,5,4,english,f,1,0.1,69.54270197,0.18429149
651a03c8ea1027b3193b9e35,167,3,2024-02-27T12:15:05.558Z,french_378.wav,0,pull,472,36,5,4,english,f,2,0.2,91.83328043,0.75177649
651a03c8ea1027b3193b9e35,167,3,2024-02-27T12:15:05.558Z,french_378.wav,0,pull,472,36,5,4,english,f,3,0.25666667,65.12199987,0.49263706
651a03c8ea1027b3193b9e35,168,3,2024-02-27T12:15:05.558Z,french_8.wav,0,poule,211,36,5,4,english,f,0,0.0,75.36204911,1.20802323
651a03c8ea1027b3193b9e35,168,3,2024-02-27T12:15:05.558Z,french_8.wav,0,poule,211,36,5,4,english,f,1,0.1,99.77980072,1.04694521
651a03c8ea1027b3193b9e35,168,3,2024-02-27T12:15:05.558Z,french_8.wav,0,poule,211,36,5,4,english,f,2,0.2,31.87407215,1.95307637
651a03c8ea1027b3193b9e35,168,3,2024-02-27T12:15:05.558Z,french_8.wav,0,poule,211,36,5,4,english,f,3,0.25666667,-3.14162979,0.34441347
651a03c8ea1027b3193b9e35,169,3,2024-02-27T12:15:05.558Z,french_15.wav,0,pull,362,36,5,4,english,f,0,0.0,75.10258226,1.00702741
651a03c8ea1027b3193b9e35,169,3,2024-02-27T12:15:05.558Z,french_15.wav,0,pull,362,36,5,4,english,f,1,0.1,91.64852869,0.72289983
651a03c8ea1027b3193b9e35,169,3,2024-02-27T12:15:05.558Z,french_15.wav,0,pull,362,36,5,4,english,f,2,0.2,-54.2483896,1.50363401
651a03c8ea1027b3193b9e35,169,3,2024-02-27T12:15:05.558Z,french_15.wav,0,pull,362,36,5,4,english,f,3,0.25666667,-67.82917504,0.97553874
651a03c8ea1027b3193b9e35,170,3,2024-02-27T12:15:05.558Z,french_215.wav,0,pull,645,36,5,4,english,f,0,0.0,-76.5324967,0.00928887
651a03c8ea1027b3193b9e35,170,3,2024-02-27T12:15:05.558Z,french_215.wav,0,pull,645,36,5,4,english,f,1,0.1,-12.7876278,1.85204819
651a03c8ea1027b3193b9e35,170,3,2024-02-27T12:15:05.558Z,french_215.wav,0,pull,645,36,5,4,english,f,2,0.2,-43.60684601,1.20297214
651a03c8ea1027b3193b9e35,170,3,2024-02-27T12:15:05.558Z,french_215.wav,0,pull,645,36,5,4,english,f,3,0.25666667,3.65547736,1.48182424
651a03c8ea1027b3193b9e35,171,3,2024-02-27T12:15:05.558Z,french_107.wav,0,pull,844,36,5,4,english,f,0,0.0,67.03881883,1.87266913
651a03c8ea1027b3193b9e35,171,3,2024-02-27T12:15:05.558Z,french_107.wav,0,pull,844,36,5,4,english,f,1,0.1,45.78296109,0.27229476
651a03c8ea1027b3193b9e35,171,3,2024-02-27T12:15:05.558Z,french_107.wav,0,pull,844,36,5,4,english,f,2,0.2,-43.22729876,1.08803063
651a03c8ea1027b3193b9e35,171,3,2024-02-27T12:15:05.558Z,french_107.wav,0,pull,844,36,5,4,english,f,3,0.25666667,-74.69599774,1.63601275
651a03c8ea1027b3193b9e35,172,3,2024-02-27T12:15:05.558Z,french_834.wav,0,pull,423,36,5,4,english,f,0,0.0,-86.08965853,1.35817583
651a03c8ea1027b3193b9e35,172,3,2024-02-27T12:15:05.558Z,french_834.wav,0,pull,423,36,5,4,english,f,1,0.1,69.78931281,0.2902945
651a03c8ea1027b3193b9e35,172,3,2024-02-27T12:15:05.558Z,french_834.wav,0,pull,423,36,5,4,english,f,2,0.2,-42.1324214,0.84488429
651a03c8ea1027b3193b9e35,172,3,2024-02-27T12:15:05.558Z,french_834.wav,0,pull,423,36,5,4,english,f,3,0.25666667,-13.11810425,0.59655356
651a03c8ea1027b3193b9e35,173,3,2024-02-27T12:15:05.558Z,french_796.wav,0,poule,264,36,5,4,english,f,0,0.0,-38.09805788,1.93486201
651a03c8ea1027b3193b9e35,173,3,2024-02-27T12:15:05.558Z,french_796.wav,0,poule,264,36,5,4,english,f,1,0.1,-51.81358868,1.49994235
651a03c8ea1027b3193b9e35,173,3,2024-02-27T12:15:05.558Z,french_796.wav,0,poule,264,36,5,4,english,f,2,0.2,88.47322764,1.42581223
651a03c8ea1027b3193b9e35,173,3,2024-02-27T12:15:05.558Z,french_796.wav,0,poule,264,36,5,4,english,f,3,0.25666667,-34.90405205,0.47367866
651a03c8ea1027b3193b9e35,174,3,2024-02-27T12:15:05.558Z,french_163.wav,0,pull,558,36,5,4,english,f,0,0.0,95.00435891,1.26837246
651a03c8ea1027b3193b9e35,174,3,2024-02-27T12:15:05.558Z,french_163.wav,0,pull,558,36,5,4,english,f,1,0.1,41.67922454,0.25754486
651a03c8ea1027b3193b9e35,174,3,2024-02-27T12:15:05.558Z,french_163.wav,0,pull,558,36,5,4,english,f,2,0.2,-79.43338234,1.96804031
651a03c8ea1027b3193b9e35,174,3,2024-02-27T12:15:05.558Z,french_163.wav,0,pull,558,36,5,4,english,f,3,0.25666667,-47.45672342,0.46721947
651a03c8ea1027b3193b9e35,175,3,2024-02-27T12:15:05.558Z,french_339.wav,0,pull,552,36,5,4,english,f,0,0.0,54.2761061,1.89825103
651a03c8ea1027b3193b9e35,175,3,2024-02-27T12:15:05.558Z,french_339.wav,0,pull,552,36,5,4,english,f,1,0.1,63.28603184,0.66946091
651a03c8ea1027b3193b9e35,175,3,2024-02-27T12:15:05.558Z,french_339.wav,0,pull,552,36,5,4,english,f,2,0.2,-39.09064926,1.06421907
651a03c8ea1027b3193b9e35,175,3,2024-02-27T12:15:05.558Z,french_339.wav,0,pull,552,36,5,4,english,f,3,0.25666667,-65.51257867,1.4091401
651a03c8ea1027b3193b9e35,176,3,2024-02-27T12:15:05.558Z,french_741.wav,0,poule,312,36,5,4,english,f,0,0.0,52.99239945,1.20115282
651a03c8ea1027b3193b9e35,176,3,2024-02-27T12:15:05.558Z,french_741.wav,0,poule,312,36,5,4,english,f,1,0.1,-62.37721768,0.53106937
651a03c8ea1027b3193b9e35,176,3,2024-02-27T12:15:05.558Z,french_741.wav,0,poule,312,36,5,4,english,f,2,0.2,54.26195155,1.91925029
651a03c8ea1027b3193b9e35,176,3,2024-02-27T12:15:05.558Z,french_741.wav,0,poule,312,36,5,4,english,f,3,0.25666667,8.23350592,0.42380295
651a03c8ea1027b3193b9e35,177,3,2024-02-27T12:15:05.558Z,french_45.wav,0,pull,309,36,5,4,english,f,0,0.0,6.51510613,0.83763225
651a03c8ea1027b3193b9e35,177,3,2024-02-27T12:15:05.558Z,french_45.wav,0,pull,309,36,5,4,english,f,1,0.1,-86.25018513,1.19709151
651a03c8ea1027b3193b9e35,177,3,2024-02-27T12:15:05.558Z,french_45.wav,0,pull,309,36,5,4,english,f,2,0.2,-60.46903131,0.87484565
651a03c8ea1027b3193b9e35,177,3,2024-02-27T12:15:05.558Z,french_45.wav,0,pull,309,36,5,4,english,f,3,0.25666667,-48.31089161,0.45414185
651a03c8ea1027b3193b9e35,178,3,2024-02-27T12:15:05.558Z,french_995.wav,0,pull,402,36,5,4,english,f,0,0.0,-29.39777781,0.04069973
651a03c8ea1027b3193b9e35,178,3,2024-02-27T12:15:05.558Z,french_995.wav,0,pull,402,36,5,4,english,f,1,0.1,22.57403903,0.75529124
651a03c8ea1027b3193b9e35,178,3,2024-02-27T12:15:05.558Z,french_995.wav,0,pull,402,36,5,4,english,f,2,0.2,-65.41348422,0.72194837
651a03c8ea1027b3193b9e35,178,3,2024-02-27T12:15:05.558Z,french_995.wav,0,pull,402,36,5,4,english,f,3,0.25666667,24.23364448,0.85657711
651a03c8ea1027b3193b9e35,179,3,2024-02-27T12:15:05.558Z,french_483.wav,0,pull,486,36,5,4,english,f,0,0.0,97.94153635,0.77689604
651a03c8ea1027b3193b9e35,179,3,2024-02-27T12:15:05.558Z,french_483.wav,0,pull,486,36,5,4,english,f,1,0.1,11.27160269,0.07842581
651a03c8ea1027b3193b9e35,179,3,2024-02-27T12:15:05.558Z,french_483.wav,0,pull,486,36,5,4,english,f,2,0.2,92.4188156,1.30147174
651a03c8ea1027b3193b9e35,179,3,2024-02-27T12:15:05.558Z,french_483.wav,0,pull,486,36,5,4,english,f,3,0.25666667,46.65552131,0.73281584
651a03c8ea1027b3193b9e35,180,3,2024-02-27T12:15:05.558Z,french_286.wav,0,pull,533,36,5,4,english,f,0,0.0,-12.75776796,0.7334837
651a03c8ea1027b3193b9e35,180,3,2024-02-27T12:15:05.558Z,french_286.wav,0,pull,533,36,5,4,english,f,1,0.1,37.83162005,0.13945261
651a03c8ea1027b3193b9e35,180,3,2024-02-27T12:15:05.558Z,french_286.wav,0,pull,533,36,5,4,english,f,2,0.2,-73.99987606,0.89700821
651a03c8ea1027b3193b9e35,180,3,2024-02-27T12:15:05.558Z,french_286.wav,0,pull,533,36,5,4,english,f,3,0.25666667,-99.59641202,0.06192005
651a03c8ea1027b3193b9e35,181,3,2024-02-27T12:15:05.558Z,french_604.wav,0,pull,708,36,5,4,english,f,0,0.0,-11.11210875,1.64316359
651a03c8ea1027b3193b9e35,181,3,2024-02-27T12:15:05.558Z,french_604.wav,0,pull,708,36,5,4,english,f,1,0.1,-13.90326971,0.56968283
651a03c8ea1027b3193b9e35,181,3,2024-02-27T12:15:05.558Z,french_604.wav,0,pull,708,36,5,4,english,f,2,0.2,-78.59226075,1.3955722
651a03c8ea1027b3193b9e35,181,3,2024-02-27T12:15:05.558Z,french_604.wav,0,pull,708,36,5,4,english,f,3,0.25666667,87.42620436,0.51982143
651a03c8ea1027b3193b9e35,182,3,2024-02-27T12:15:05.558Z,french_374.wav,0,pull,322,36,5,4,english,f,0,0.0,23.12233407,0.63582229
651a03c8ea1027b3193b9e35,182,3,2024-02-27T12:15:05.558Z,french_374.wav,0,pull,322,36,5,4,english,f,1,0.1,4.88786521,0.48218095
651a03c8ea1027b3193b9e35,182,3,2024-02-27T12:15:05.558Z,french_374.wav,0,pull,322,36,5,4,english,f,2,0.2,75.40336837,0.81003499
651a03c8ea1027b3193b9e35,182,3,2024-02-27T12:15:05.558Z,french_374.wav,0,pull,322,36,5,4,english,f,3,0.25666667,-52.23092949,1.31471089
651a03c8ea1027b3193b9e35,183,3,2024-02-27T12:15:05.558Z,french_266.wav,0,pull,363,36,5,4,english,f,0,0.0,58.27883453,0.79886668
651a03c8ea1027b3193b9e35,183,3,2024-02-27T12:15:05.558Z,french_266.wav,0,pull,363,36,5,4,english,f,1,0.1,-28.04411439,1.49488383
651a03c8ea1027b3193b9e35,183,3,2024-02-27T12:15:05.558Z,french_266.wav,0,pull,363,36,5,4,english,f,2,0.2,-38.46127027,0.15170522
651a03c8ea1027b3193b9e35,183,3,2024-02-27T12:15:05.558Z,french_266.wav,0,pull,363,36,5,4,english,f,3,0.25666667,-84.67234247,1.57053192
651a03c8ea1027b3193b9e35,184,3,2024-02-27T12:15:05.558Z,french_557.wav,0,poule,461,36,5,4,english,f,0,0.0,-4.17762648,0.38732741
651a03c8ea1027b3193b9e35,184,3,2024-02-27T12:15:05.558Z,french_557.wav,0,poule,461,36,5,4,english,f,1,0.1,91.9464138,1.58225164
651a03c8ea1027b3193b9e35,184,3,2024-02-27T12:15:05.558Z,french_557.wav,0,poule,461,36,5,4,english,f,2,0.2,-21.05895405,1.02633772
651a03c8ea1027b3193b9e35,184,3,2024-02-27T12:15:05.558Z,french_557.wav,0,poule,461,36,5,4,english,f,3,0.25666667,45.17146044,0.5187484
651a03c8ea1027b3193b9e35,185,3,2024-02-27T12:15:05.558Z,french_466.wav,0,pull,353,36,5,4,english,f,0,0.0,73.58992944,1.41071494
651a03c8ea1027b3193b9e35,185,3,2024-02-27T12:15:05.558Z,french_466.wav,0,pull,353,36,5,4,english,f,1,0.1,63.97983353,0.05598534
651a03c8ea1027b3193b9e35,185,3,2024-02-27T12:15:05.558Z,french_466.wav,0,pull,353,36,5,4,english,f,2,0.2,36.10141743,1.99104708
651a03c8ea1027b3193b9e35,185,3,2024-02-27T12:15:05.558Z,french_466.wav,0,pull,353,36,5,4,english,f,3,0.25666667,-59.38235663,0.89990448
651a03c8ea1027b3193b9e35,186,3,2024-02-27T12:15:05.558Z,french_429.wav,0,poule,204,36,5,4,english,f,0,0.0,-86.61428582,0.48550144
651a03c8ea1027b3193b9e35,186,3,2024-02-27T12:15:05.558Z,french_429.wav,0,poule,204,36,5,4,english,f,1,0.1,-42.15720505,1.43221201
651a03c8ea1027b3193b9e35,186,3,2024-02-27T12:15:05.558Z,french_429.wav,0,poule,204,36,5,4,english,f,2,0.2,57.81850322,1.77393014
651a03c8ea1027b3193b9e35,186,3,2024-02-27T12:15:05.558Z,french_429.wav,0,poule,204,36,5,4,english,f,3,0.25666667,56.8864302,0.85506946
651a03c8ea1027b3193b9e35,187,3,2024-02-27T12:15:05.558Z,french_359.wav,0,pull,474,36,5,4,english,f,0,0.0,4.86221528,1.66863127
651a03c8ea1027b3193b9e35,187,3,2024-02-27T12:15:05.558Z,french_359.wav,0,pull,474,36,5,4,english,f,1,0.1,41.19609007,0.25992168
651a03c8ea1027b3193b9e35,187,3,2024-02-27T12:15:05.558Z,french_359.wav,0,pull,474,36,5,4,english,f,2,0.2,55.98013436,1.95186144
651a03c8ea1027b3193b9e35,187,3,2024-02-27T12:15:05.558Z,french_359.wav,0,pull,474,36,5,4,english,f,3,0.25666667,-59.88256532,1.64110453
651a03c8ea1027b3193b9e35,188,3,2024-02-27T12:15:05.558Z,french_890.wav,0,pull,438,36,5,4,english,f,0,0.0,17.48321345,1.85587598
651a03c8ea1027b3193b9e35,188,3,2024-02-27T12:15:05.558Z,french_890.wav,0,pull,438,36,5,4,english,f,1,0.1,-18.95749083,0.79262665
651a03c8ea1027b3193b9e35,188,3,2024-02-27T12:15:05.558Z,french_890.wav,0,pull,438,36,5,4,english,f,2,0.2,0.74707456,0.19694232
651a03c8ea1027b3193b9e35,188,3,2024-02-27T12:15:05.558Z,french_890.wav,0,pull,438,36,5,4,english,f,3,0.25666667,92.62024404,1.22282027
651a03c8ea1027b3193b9e35,189,3,2024-02-27T12:15:05.558Z,french_178.wav,0,poule,288,36,5,4,english,f,0,0.0,26.38045069,1.33493468
651a03c8ea1027b3193b9e35,189,3,2024-02-27T12:15:05.558Z,french_178.wav,0,poule,288,36,5,4,english,f,1,0.1,54.67313893,1.2022917
651a03c8ea1027b3193b9e35,189,3,2024-02-27T12:15:05.558Z,french_178.wav,0,poule,288,36,5,4,english,f,2,0.2,58.86585948,1.32810738
651a03c8ea1027b3193b9e35,189,3,2024-02-27T12:15:05.558Z,french_178.wav,0,poule,288,36,5,4,english,f,3,0.25666667,8.14592544,0.94030025
651a03c8ea1027b3193b9e35,190,3,2024-02-27T12:15:05.558Z,french_213.wav,0,poule,405,36,5,4,english,f,0,0.0,18.19792563,0.91602818
651a03c8ea1027b3193b9e35,190,3,2024-02-27T12:15:05.558Z,french_213.wav,0,poule,405,36,5,4,english,f,1,0.1,59.29536603,0.93215034
651a03c8ea1027b3193b9e35,190,3,2024-02-27T12:15:05.558Z,french_213.wav,0,poule,405,36,5,4,english,f,2,0.2,83.4693574,1.11468909
651a03c8ea1027b3193b9e35,190,3,2024-02-27T12:15:05.558Z,french_213.wav,0,poule,405,36,5,4,english,f,3,0.25666667,-3.87812814,1.61202928
651a03c8ea1027b3193b9e35,191,3,2024-02-27T12:15:05.558Z,french_720.wav,0,poule,521,36,5,4,english,f,0,0.0,-84.90658582,1.45299565
651a03c8ea1027b3193b9e35,191,3,2024-02-27T12:15:05.558Z,french_720.wav,0,poule,521,36,5,4,english,f,1,0.1,42.34331668,1.58494494
651a03c8ea1027b3193b9e35,191,3,2024-02-27T12:15:05.558Z,french_720.wav,0,poule,521,36,5,4,english,f,2,0.2,-51.84568825,1.67187292
651a03c8ea1027b3193b9e35,191,3,2024-02-27T12:15:05.558Z,french_720.wav,0,poule,521,36,5,4,english,f,3,0.25666667,70.93496883,0.90000718
651a03c8ea1027b3193b9e35,192,3,2024-02-27T12:15:05.558Z,french_862.wav,0,pull,452,36,5,4,english,f,0,0.0,99.41401176,0.02807195
