subj,trial,block,date,stim,stim_order,response,rt,age,english,french,language,sex,param_index,segment,pitch,stretch
65b3be7e048c91426e271ded,0,0,2024-02-27T13:22:32.077Z,french_864.wav,0,poule,3168,24,5,4,english,m,0,0.0,27.21382842,1.35032716
65b3be7e048c91426e271ded,0,0,2024-02-27T13:22:32.077Z,french_864.wav,0,poule,3168,24,5,4,english,m,1,0.1,-8.96687562,1.41041806
65b3be7e048c91426e271ded,0,0,2024-02-27T13:22:32.077Z,french_864.wav,0,poule,3168,24,5,4,english,m,2,0.2,47.01768167,0.47669103
65b3be7e048c91426e271ded,0,0,2024-02-27T13:22:32.077Z,french_864.wav,0,poule,3168,24,5,4,english,m,3,0.25666667,98.93956807,1.26265942
65b3be7e048c91426e271ded,1,0,2024-02-27T13:22:32.077Z,french_272.wav,0,pull,2898,24,5,4,english,m,0,0.0,50.55701535,1.0419248
65b3be7e048c91426e271ded,1,0,2024-02-27T13:22:32.077Z,french_272.wav,0,pull,2898,24,5,4,english,m,1,0.1,63.46835537,0.05024982
65b3be7e048c91426e271ded,1,0,2024-02-27T13:22:32.077Z,french_272.wav,0,pull,2898,24,5,4,english,m,2,0.2,-46.63250527,0.3554473
65b3be7e048c91426e271ded,1,0,2024-02-27T13:22:32.077Z,french_272.wav,0,pull,2898,24,5,4,english,m,3,0.25666667,74.93577843,1.3845464
65b3be7e048c91426e271ded,2,0,2024-02-27T13:22:32.077Z,french_762.wav,0,poule,827,24,5,4,english,m,0,0.0,-45.61990315,0.95776955
65b3be7e048c91426e271ded,2,0,2024-02-27T13:22:32.077Z,french_762.wav,0,poule,827,24,5,4,english,m,1,0.1,-38.16727298,0.16992331
65b3be7e048c91426e271ded,2,0,2024-02-27T13:22:32.077Z,french_762.wav,0,poule,827,24,5,4,english,m,2,0.2,-15.44626984,1.21301125
65b3be7e048c91426e271ded,2,0,2024-02-27T13:22:32.077Z,french_762.wav,0,poule,827,24,5,4,english,m,3,0.25666667,-31.31206952,0.49399223
65b3be7e048c91426e271ded,3,0,2024-02-27T13:22:32.077Z,french_806.wav,0,poule,496,24,5,4,english,m,0,0.0,97.26957313,1.48673004
65b3be7e048c91426e271ded,3,0,2024-02-27T13:22:32.077Z,french_806.wav,0,poule,496,24,5,4,english,m,1,0.1,79.44562669,1.9967546
65b3be7e048c91426e271ded,3,0,2024-02-27T13:22:32.077Z,french_806.wav,0,poule,496,24,5,4,english,m,2,0.2,79.77586719,0.9238106
65b3be7e048c91426e271ded,3,0,2024-02-27T13:22:32.077Z,french_806.wav,0,poule,496,24,5,4,english,m,3,0.25666667,-46.2684083,1.39755131
65b3be7e048c91426e271ded,4,0,2024-02-27T13:22:32.077Z,french_289.wav,0,pull,1869,24,5,4,english,m,0,0.0,-36.76000605,0.0295717
65b3be7e048c91426e271ded,4,0,2024-02-27T13:22:32.077Z,french_289.wav,0,pull,1869,24,5,4,english,m,1,0.1,10.32506406,0.30354321
65b3be7e048c91426e271ded,4,0,2024-02-27T13:22:32.077Z,french_289.wav,0,pull,1869,24,5,4,english,m,2,0.2,-63.16699613,0.64873245
65b3be7e048c91426e271ded,4,0,2024-02-27T13:22:32.077Z,french_289.wav,0,pull,1869,24,5,4,english,m,3,0.25666667,44.4452875,1.33679234
65b3be7e048c91426e271ded,5,0,2024-02-27T13:22:32.077Z,french_226.wav,0,poule,826,24,5,4,english,m,0,0.0,85.32452385,1.68909252
65b3be7e048c91426e271ded,5,0,2024-02-27T13:22:32.077Z,french_226.wav,0,poule,826,24,5,4,english,m,1,0.1,-25.06918931,0.17046025
65b3be7e048c91426e271ded,5,0,2024-02-27T13:22:32.077Z,french_226.wav,0,poule,826,24,5,4,english,m,2,0.2,-17.89357971,0.61029189
65b3be7e048c91426e271ded,5,0,2024-02-27T13:22:32.077Z,french_226.wav,0,poule,826,24,5,4,english,m,3,0.25666667,45.31971501,0.53544367
65b3be7e048c91426e271ded,6,0,2024-02-27T13:22:32.077Z,french_215.wav,0,pull,2208,24,5,4,english,m,0,0.0,-76.5324967,0.00928887
65b3be7e048c91426e271ded,6,0,2024-02-27T13:22:32.077Z,french_215.wav,0,pull,2208,24,5,4,english,m,1,0.1,-12.7876278,1.85204819
65b3be7e048c91426e271ded,6,0,2024-02-27T13:22:32.077Z,french_215.wav,0,pull,2208,24,5,4,english,m,2,0.2,-43.60684601,1.20297214
65b3be7e048c91426e271ded,6,0,2024-02-27T13:22:32.077Z,french_215.wav,0,pull,2208,24,5,4,english,m,3,0.25666667,3.65547736,1.48182424
65b3be7e048c91426e271ded,7,0,2024-02-27T13:22:32.077Z,french_344.wav,0,poule,1016,24,5,4,english,m,0,0.0,52.58849346,0.27482393
65b3be7e048c91426e271ded,7,0,2024-02-27T13:22:32.077Z,french_344.wav,0,poule,1016,24,5,4,english,m,1,0.1,-22.3140036,0.23105003
65b3be7e048c91426e271ded,7,0,2024-02-27T13:22:32.077Z,french_344.wav,0,poule,1016,24,5,4,english,m,2,0.2,-66.1637605,0.54206464
65b3be7e048c91426e271ded,7,0,2024-02-27T13:22:32.077Z,french_344.wav,0,poule,1016,24,5,4,english,m,3,0.25666667,-23.8196401,1.18246439
65b3be7e048c91426e271ded,8,0,2024-02-27T13:22:32.077Z,french_837.wav,0,poule,550,24,5,4,english,m,0,0.0,12.86528577,1.70928146
65b3be7e048c91426e271ded,8,0,2024-02-27T13:22:32.077Z,french_837.wav,0,poule,550,24,5,4,english,m,1,0.1,80.83337189,0.14925978
65b3be7e048c91426e271ded,8,0,2024-02-27T13:22:32.077Z,french_837.wav,0,poule,550,24,5,4,english,m,2,0.2,-88.94110826,0.83215091
65b3be7e048c91426e271ded,8,0,2024-02-27T13:22:32.077Z,french_837.wav,0,poule,550,24,5,4,english,m,3,0.25666667,32.10555955,1.23671449
65b3be7e048c91426e271ded,9,0,2024-02-27T13:22:32.077Z,french_252.wav,0,poule,431,24,5,4,english,m,0,0.0,-68.3996329,0.41781817
65b3be7e048c91426e271ded,9,0,2024-02-27T13:22:32.077Z,french_252.wav,0,poule,431,24,5,4,english,m,1,0.1,79.02734002,1.03502761
65b3be7e048c91426e271ded,9,0,2024-02-27T13:22:32.077Z,french_252.wav,0,poule,431,24,5,4,english,m,2,0.2,-18.50805447,0.82044901
65b3be7e048c91426e271ded,9,0,2024-02-27T13:22:32.077Z,french_252.wav,0,poule,431,24,5,4,english,m,3,0.25666667,-85.84066145,1.09163249
65b3be7e048c91426e271ded,10,0,2024-02-27T13:22:32.077Z,french_843.wav,0,poule,1076,24,5,4,english,m,0,0.0,13.6803361,0.65425976
65b3be7e048c91426e271ded,10,0,2024-02-27T13:22:32.077Z,french_843.wav,0,poule,1076,24,5,4,english,m,1,0.1,92.02668438,1.47814853
65b3be7e048c91426e271ded,10,0,2024-02-27T13:22:32.077Z,french_843.wav,0,poule,1076,24,5,4,english,m,2,0.2,-93.52604538,0.78236369
65b3be7e048c91426e271ded,10,0,2024-02-27T13:22:32.077Z,french_843.wav,0,poule,1076,24,5,4,english,m,3,0.25666667,-12.7136852,0.52413001
65b3be7e048c91426e271ded,11,0,2024-02-27T13:22:32.077Z,french_434.wav,0,poule,610,24,5,4,english,m,0,0.0,7.9294609,1.64452419
65b3be7e048c91426e271ded,11,0,2024-02-27T13:22:32.077Z,french_434.wav,0,poule,610,24,5,4,english,m,1,0.1,36.47837772,0.73911435
65b3be7e048c91426e271ded,11,0,2024-02-27T13:22:32.077Z,french_434.wav,0,poule,610,24,5,4,english,m,2,0.2,71.3301905,0.53221197
65b3be7e048c91426e271ded,11,0,2024-02-27T13:22:32.077Z,french_434.wav,0,poule,610,24,5,4,english,m,3,0.25666667,-21.81717993,1.83629349
65b3be7e048c91426e271ded,12,0,2024-02-27T13:22:32.077Z,french_719.wav,0,poule,589,24,5,4,english,m,0,0.0,-0.39387326,0.47887204
65b3be7e048c91426e271ded,12,0,2024-02-27T13:22:32.077Z,french_719.wav,0,poule,589,24,5,4,english,m,1,0.1,1.52424656,1.22874683
65b3be7e048c91426e271ded,12,0,2024-02-27T13:22:32.077Z,french_719.wav,0,poule,589,24,5,4,english,m,2,0.2,34.63950895,0.97564384
65b3be7e048c91426e271ded,12,0,2024-02-27T13:22:32.077Z,french_719.wav,0,poule,589,24,5,4,english,m,3,0.25666667,-19.23986751,0.79252429
65b3be7e048c91426e271ded,13,0,2024-02-27T13:22:32.077Z,french_152.wav,0,poule,493,24,5,4,english,m,0,0.0,-3.84179402,0.21245747
65b3be7e048c91426e271ded,13,0,2024-02-27T13:22:32.077Z,french_152.wav,0,poule,493,24,5,4,english,m,1,0.1,56.28738818,1.74384484
65b3be7e048c91426e271ded,13,0,2024-02-27T13:22:32.077Z,french_152.wav,0,poule,493,24,5,4,english,m,2,0.2,-25.33799013,1.40208126
65b3be7e048c91426e271ded,13,0,2024-02-27T13:22:32.077Z,french_152.wav,0,poule,493,24,5,4,english,m,3,0.25666667,-10.23447911,0.94312755
65b3be7e048c91426e271ded,14,0,2024-02-27T13:22:32.077Z,french_970.wav,0,poule,798,24,5,4,english,m,0,0.0,45.66425393,0.15526341
65b3be7e048c91426e271ded,14,0,2024-02-27T13:22:32.077Z,french_970.wav,0,poule,798,24,5,4,english,m,1,0.1,-82.79761983,0.70533305
65b3be7e048c91426e271ded,14,0,2024-02-27T13:22:32.077Z,french_970.wav,0,poule,798,24,5,4,english,m,2,0.2,16.19264407,1.08595816
65b3be7e048c91426e271ded,14,0,2024-02-27T13:22:32.077Z,french_970.wav,0,poule,798,24,5,4,english,m,3,0.25666667,56.04070076,0.89955958
65b3be7e048c91426e271ded,15,0,2024-02-27T13:22:32.077Z,french_52.wav,0,poule,498,24,5,4,english,m,0,0.0,77.15950351,1.06345864
65b3be7e048c91426e271ded,15,0,2024-02-27T13:22:32.077Z,french_52.wav,0,poule,498,24,5,4,english,m,1,0.1,66.43146777,1.73071791
65b3be7e048c91426e271ded,15,0,2024-02-27T13:22:32.077Z,french_52.wav,0,poule,498,24,5,4,english,m,2,0.2,76.85444305,1.08790246
65b3be7e048c91426e271ded,15,0,2024-02-27T13:22:32.077Z,french_52.wav,0,poule,498,24,5,4,english,m,3,0.25666667,-69.48513432,0.32336701
65b3be7e048c91426e271ded,16,0,2024-02-27T13:22:32.077Z,french_426.wav,0,pull,486,24,5,4,english,m,0,0.0,94.83015244,1.95768421
65b3be7e048c91426e271ded,16,0,2024-02-27T13:22:32.077Z,french_426.wav,0,pull,486,24,5,4,english,m,1,0.1,80.74954266,0.5170286
65b3be7e048c91426e271ded,16,0,2024-02-27T13:22:32.077Z,french_426.wav,0,pull,486,24,5,4,english,m,2,0.2,14.22402444,0.27456075
65b3be7e048c91426e271ded,16,0,2024-02-27T13:22:32.077Z,french_426.wav,0,pull,486,24,5,4,english,m,3,0.25666667,92.85203769,1.53042381
65b3be7e048c91426e271ded,17,0,2024-02-27T13:22:32.077Z,french_372.wav,0,poule,424,24,5,4,english,m,0,0.0,2.47243072,0.40204166
65b3be7e048c91426e271ded,17,0,2024-02-27T13:22:32.077Z,french_372.wav,0,poule,424,24,5,4,english,m,1,0.1,-60.42501292,1.5432551
65b3be7e048c91426e271ded,17,0,2024-02-27T13:22:32.077Z,french_372.wav,0,poule,424,24,5,4,english,m,2,0.2,-16.68820648,1.17639585
65b3be7e048c91426e271ded,17,0,2024-02-27T13:22:32.077Z,french_372.wav,0,poule,424,24,5,4,english,m,3,0.25666667,27.86473169,1.5977063
65b3be7e048c91426e271ded,18,0,2024-02-27T13:22:32.077Z,french_913.wav,0,poule,784,24,5,4,english,m,0,0.0,5.31236155,1.37558602
65b3be7e048c91426e271ded,18,0,2024-02-27T13:22:32.077Z,french_913.wav,0,poule,784,24,5,4,english,m,1,0.1,-59.65057946,0.3561265
65b3be7e048c91426e271ded,18,0,2024-02-27T13:22:32.077Z,french_913.wav,0,poule,784,24,5,4,english,m,2,0.2,27.87230438,1.61604884
65b3be7e048c91426e271ded,18,0,2024-02-27T13:22:32.077Z,french_913.wav,0,poule,784,24,5,4,english,m,3,0.25666667,-58.49443874,0.97981321
65b3be7e048c91426e271ded,19,0,2024-02-27T13:22:32.077Z,french_190.wav,0,poule,574,24,5,4,english,m,0,0.0,69.06529403,1.3481685
65b3be7e048c91426e271ded,19,0,2024-02-27T13:22:32.077Z,french_190.wav,0,poule,574,24,5,4,english,m,1,0.1,69.42395119,0.73404764
65b3be7e048c91426e271ded,19,0,2024-02-27T13:22:32.077Z,french_190.wav,0,poule,574,24,5,4,english,m,2,0.2,67.79801708,1.27794388
65b3be7e048c91426e271ded,19,0,2024-02-27T13:22:32.077Z,french_190.wav,0,poule,574,24,5,4,english,m,3,0.25666667,63.92857008,1.43465572
65b3be7e048c91426e271ded,20,0,2024-02-27T13:22:32.077Z,french_43.wav,0,poule,885,24,5,4,english,m,0,0.0,-6.86336629,1.4879687
65b3be7e048c91426e271ded,20,0,2024-02-27T13:22:32.077Z,french_43.wav,0,poule,885,24,5,4,english,m,1,0.1,1.3862511,1.50259819
65b3be7e048c91426e271ded,20,0,2024-02-27T13:22:32.077Z,french_43.wav,0,poule,885,24,5,4,english,m,2,0.2,-46.66652787,1.37505073
65b3be7e048c91426e271ded,20,0,2024-02-27T13:22:32.077Z,french_43.wav,0,poule,885,24,5,4,english,m,3,0.25666667,99.62545591,0.7561706
65b3be7e048c91426e271ded,21,0,2024-02-27T13:22:32.077Z,french_337.wav,0,poule,488,24,5,4,english,m,0,0.0,-97.64468947,0.15620351
65b3be7e048c91426e271ded,21,0,2024-02-27T13:22:32.077Z,french_337.wav,0,poule,488,24,5,4,english,m,1,0.1,-70.83087303,1.65716961
65b3be7e048c91426e271ded,21,0,2024-02-27T13:22:32.077Z,french_337.wav,0,poule,488,24,5,4,english,m,2,0.2,-48.67995381,0.82507575
65b3be7e048c91426e271ded,21,0,2024-02-27T13:22:32.077Z,french_337.wav,0,poule,488,24,5,4,english,m,3,0.25666667,-82.84031791,0.89595203
65b3be7e048c91426e271ded,22,0,2024-02-27T13:22:32.077Z,french_729.wav,0,pull,486,24,5,4,english,m,0,0.0,53.20588085,1.49423138
65b3be7e048c91426e271ded,22,0,2024-02-27T13:22:32.077Z,french_729.wav,0,pull,486,24,5,4,english,m,1,0.1,89.42375323,0.2074599
65b3be7e048c91426e271ded,22,0,2024-02-27T13:22:32.077Z,french_729.wav,0,pull,486,24,5,4,english,m,2,0.2,-13.37040397,1.07839331
65b3be7e048c91426e271ded,22,0,2024-02-27T13:22:32.077Z,french_729.wav,0,pull,486,24,5,4,english,m,3,0.25666667,-26.89484255,0.61183567
65b3be7e048c91426e271ded,23,0,2024-02-27T13:22:32.077Z,french_995.wav,0,pull,1821,24,5,4,english,m,0,0.0,-29.39777781,0.04069973
65b3be7e048c91426e271ded,23,0,2024-02-27T13:22:32.077Z,french_995.wav,0,pull,1821,24,5,4,english,m,1,0.1,22.57403903,0.75529124
65b3be7e048c91426e271ded,23,0,2024-02-27T13:22:32.077Z,french_995.wav,0,pull,1821,24,5,4,english,m,2,0.2,-65.41348422,0.72194837
65b3be7e048c91426e271ded,23,0,2024-02-27T13:22:32.077Z,french_995.wav,0,pull,1821,24,5,4,english,m,3,0.25666667,24.23364448,0.85657711
65b3be7e048c91426e271ded,24,0,2024-02-27T13:22:32.077Z,french_29.wav,0,poule,561,24,5,4,english,m,0,0.0,82.92052959,1.65542147
65b3be7e048c91426e271ded,24,0,2024-02-27T13:22:32.077Z,french_29.wav,0,poule,561,24,5,4,english,m,1,0.1,96.5660735,0.71189304
65b3be7e048c91426e271ded,24,0,2024-02-27T13:22:32.077Z,french_29.wav,0,poule,561,24,5,4,english,m,2,0.2,76.1539425,0.4523944
65b3be7e048c91426e271ded,24,0,2024-02-27T13:22:32.077Z,french_29.wav,0,poule,561,24,5,4,english,m,3,0.25666667,-7.00195585,1.32757755
65b3be7e048c91426e271ded,25,0,2024-02-27T13:22:32.077Z,french_170.wav,0,poule,392,24,5,4,english,m,0,0.0,33.63406691,1.37140183
65b3be7e048c91426e271ded,25,0,2024-02-27T13:22:32.077Z,french_170.wav,0,poule,392,24,5,4,english,m,1,0.1,-66.14633185,0.98919038
65b3be7e048c91426e271ded,25,0,2024-02-27T13:22:32.077Z,french_170.wav,0,poule,392,24,5,4,english,m,2,0.2,-74.26701986,1.38629831
65b3be7e048c91426e271ded,25,0,2024-02-27T13:22:32.077Z,french_170.wav,0,poule,392,24,5,4,english,m,3,0.25666667,32.33295865,0.43392523
65b3be7e048c91426e271ded,26,0,2024-02-27T13:22:32.077Z,french_425.wav,0,pull,723,24,5,4,english,m,0,0.0,36.0896382,0.72680638
65b3be7e048c91426e271ded,26,0,2024-02-27T13:22:32.077Z,french_425.wav,0,pull,723,24,5,4,english,m,1,0.1,-60.28824884,0.01839492
65b3be7e048c91426e271ded,26,0,2024-02-27T13:22:32.077Z,french_425.wav,0,pull,723,24,5,4,english,m,2,0.2,-83.12671609,1.09901753
65b3be7e048c91426e271ded,26,0,2024-02-27T13:22:32.077Z,french_425.wav,0,pull,723,24,5,4,english,m,3,0.25666667,32.66103116,1.13928828
65b3be7e048c91426e271ded,27,0,2024-02-27T13:22:32.077Z,french_992.wav,0,poule,404,24,5,4,english,m,0,0.0,88.64163737,1.670281
65b3be7e048c91426e271ded,27,0,2024-02-27T13:22:32.077Z,french_992.wav,0,poule,404,24,5,4,english,m,1,0.1,46.51622821,0.7447474
65b3be7e048c91426e271ded,27,0,2024-02-27T13:22:32.077Z,french_992.wav,0,poule,404,24,5,4,english,m,2,0.2,89.40723484,0.87778012
65b3be7e048c91426e271ded,27,0,2024-02-27T13:22:32.077Z,french_992.wav,0,poule,404,24,5,4,english,m,3,0.25666667,-7.16948766,1.06303204
65b3be7e048c91426e271ded,28,0,2024-02-27T13:22:32.077Z,french_466.wav,0,poule,410,24,5,4,english,m,0,0.0,73.58992944,1.41071494
65b3be7e048c91426e271ded,28,0,2024-02-27T13:22:32.077Z,french_466.wav,0,poule,410,24,5,4,english,m,1,0.1,63.97983353,0.05598534
65b3be7e048c91426e271ded,28,0,2024-02-27T13:22:32.077Z,french_466.wav,0,poule,410,24,5,4,english,m,2,0.2,36.10141743,1.99104708
65b3be7e048c91426e271ded,28,0,2024-02-27T13:22:32.077Z,french_466.wav,0,poule,410,24,5,4,english,m,3,0.25666667,-59.38235663,0.89990448
65b3be7e048c91426e271ded,29,0,2024-02-27T13:22:32.077Z,french_928.wav,0,poule,519,24,5,4,english,m,0,0.0,23.35867854,0.39112769
65b3be7e048c91426e271ded,29,0,2024-02-27T13:22:32.077Z,french_928.wav,0,poule,519,24,5,4,english,m,1,0.1,-18.47737087,1.71601552
65b3be7e048c91426e271ded,29,0,2024-02-27T13:22:32.077Z,french_928.wav,0,poule,519,24,5,4,english,m,2,0.2,41.22883985,0.4467351
65b3be7e048c91426e271ded,29,0,2024-02-27T13:22:32.077Z,french_928.wav,0,poule,519,24,5,4,english,m,3,0.25666667,67.72155047,0.12145746
65b3be7e048c91426e271ded,30,0,2024-02-27T13:22:32.077Z,french_699.wav,0,poule,671,24,5,4,english,m,0,0.0,38.02578945,0.2020154
65b3be7e048c91426e271ded,30,0,2024-02-27T13:22:32.077Z,french_699.wav,0,poule,671,24,5,4,english,m,1,0.1,21.65060188,0.44231897
65b3be7e048c91426e271ded,30,0,2024-02-27T13:22:32.077Z,french_699.wav,0,poule,671,24,5,4,english,m,2,0.2,73.60148166,1.2945402
65b3be7e048c91426e271ded,30,0,2024-02-27T13:22:32.077Z,french_699.wav,0,poule,671,24,5,4,english,m,3,0.25666667,94.39755493,1.2548045
65b3be7e048c91426e271ded,31,0,2024-02-27T13:22:32.077Z,french_645.wav,0,poule,1379,24,5,4,english,m,0,0.0,39.28095882,1.44479402
65b3be7e048c91426e271ded,31,0,2024-02-27T13:22:32.077Z,french_645.wav,0,poule,1379,24,5,4,english,m,1,0.1,36.97709506,1.97267477
65b3be7e048c91426e271ded,31,0,2024-02-27T13:22:32.077Z,french_645.wav,0,poule,1379,24,5,4,english,m,2,0.2,-20.56368862,0.33303832
65b3be7e048c91426e271ded,31,0,2024-02-27T13:22:32.077Z,french_645.wav,0,poule,1379,24,5,4,english,m,3,0.25666667,45.13755494,0.87530899
65b3be7e048c91426e271ded,32,0,2024-02-27T13:22:32.077Z,french_670.wav,0,pull,568,24,5,4,english,m,0,0.0,-38.80852857,0.18324618
65b3be7e048c91426e271ded,32,0,2024-02-27T13:22:32.077Z,french_670.wav,0,pull,568,24,5,4,english,m,1,0.1,-8.64332938,0.81857347
65b3be7e048c91426e271ded,32,0,2024-02-27T13:22:32.077Z,french_670.wav,0,pull,568,24,5,4,english,m,2,0.2,-55.35683075,1.27404838
65b3be7e048c91426e271ded,32,0,2024-02-27T13:22:32.077Z,french_670.wav,0,pull,568,24,5,4,english,m,3,0.25666667,17.57735741,1.12537981
65b3be7e048c91426e271ded,33,0,2024-02-27T13:22:32.077Z,french_666.wav,0,pull,994,24,5,4,english,m,0,0.0,51.58977068,0.51416215
65b3be7e048c91426e271ded,33,0,2024-02-27T13:22:32.077Z,french_666.wav,0,pull,994,24,5,4,english,m,1,0.1,81.806625,0.1213722
65b3be7e048c91426e271ded,33,0,2024-02-27T13:22:32.077Z,french_666.wav,0,pull,994,24,5,4,english,m,2,0.2,10.32462757,1.14435945
65b3be7e048c91426e271ded,33,0,2024-02-27T13:22:32.077Z,french_666.wav,0,pull,994,24,5,4,english,m,3,0.25666667,-51.25764779,1.68381456
65b3be7e048c91426e271ded,34,0,2024-02-27T13:22:32.077Z,french_622.wav,0,poule,384,24,5,4,english,m,0,0.0,47.12624694,0.11708635
65b3be7e048c91426e271ded,34,0,2024-02-27T13:22:32.077Z,french_622.wav,0,poule,384,24,5,4,english,m,1,0.1,27.16283734,1.67756831
65b3be7e048c91426e271ded,34,0,2024-02-27T13:22:32.077Z,french_622.wav,0,poule,384,24,5,4,english,m,2,0.2,55.37707654,0.50575055
65b3be7e048c91426e271ded,34,0,2024-02-27T13:22:32.077Z,french_622.wav,0,poule,384,24,5,4,english,m,3,0.25666667,-3.25728377,0.46543416
65b3be7e048c91426e271ded,35,0,2024-02-27T13:22:32.077Z,french_397.wav,0,poule,325,24,5,4,english,m,0,0.0,-13.81470081,1.26162917
65b3be7e048c91426e271ded,35,0,2024-02-27T13:22:32.077Z,french_397.wav,0,poule,325,24,5,4,english,m,1,0.1,50.38281738,1.19612478
65b3be7e048c91426e271ded,35,0,2024-02-27T13:22:32.077Z,french_397.wav,0,poule,325,24,5,4,english,m,2,0.2,50.22980228,1.02842354
65b3be7e048c91426e271ded,35,0,2024-02-27T13:22:32.077Z,french_397.wav,0,poule,325,24,5,4,english,m,3,0.25666667,-83.86271009,0.53389444
65b3be7e048c91426e271ded,36,0,2024-02-27T13:22:32.077Z,french_39.wav,0,poule,260,24,5,4,english,m,0,0.0,-37.58690814,0.69509593
65b3be7e048c91426e271ded,36,0,2024-02-27T13:22:32.077Z,french_39.wav,0,poule,260,24,5,4,english,m,1,0.1,64.36969435,0.9899387
65b3be7e048c91426e271ded,36,0,2024-02-27T13:22:32.077Z,french_39.wav,0,poule,260,24,5,4,english,m,2,0.2,-16.17747505,1.54991446
65b3be7e048c91426e271ded,36,0,2024-02-27T13:22:32.077Z,french_39.wav,0,poule,260,24,5,4,english,m,3,0.25666667,-31.52468705,1.42558302
65b3be7e048c91426e271ded,37,0,2024-02-27T13:22:32.077Z,french_976.wav,0,poule,247,24,5,4,english,m,0,0.0,-70.02335232,0.30263581
65b3be7e048c91426e271ded,37,0,2024-02-27T13:22:32.077Z,french_976.wav,0,poule,247,24,5,4,english,m,1,0.1,-61.25816472,1.77513966
65b3be7e048c91426e271ded,37,0,2024-02-27T13:22:32.077Z,french_976.wav,0,poule,247,24,5,4,english,m,2,0.2,38.21349803,0.48920434
65b3be7e048c91426e271ded,37,0,2024-02-27T13:22:32.077Z,french_976.wav,0,poule,247,24,5,4,english,m,3,0.25666667,27.10323863,1.97348905
65b3be7e048c91426e271ded,38,0,2024-02-27T13:22:32.077Z,french_417.wav,0,poule,471,24,5,4,english,m,0,0.0,-52.68130191,1.49469738
65b3be7e048c91426e271ded,38,0,2024-02-27T13:22:32.077Z,french_417.wav,0,poule,471,24,5,4,english,m,1,0.1,73.91368418,1.06358835
65b3be7e048c91426e271ded,38,0,2024-02-27T13:22:32.077Z,french_417.wav,0,poule,471,24,5,4,english,m,2,0.2,7.73324389,1.12421265
65b3be7e048c91426e271ded,38,0,2024-02-27T13:22:32.077Z,french_417.wav,0,poule,471,24,5,4,english,m,3,0.25666667,92.88066518,0.65436219
65b3be7e048c91426e271ded,39,0,2024-02-27T13:22:32.077Z,french_649.wav,0,pull,684,24,5,4,english,m,0,0.0,-26.84796804,0.38564107
65b3be7e048c91426e271ded,39,0,2024-02-27T13:22:32.077Z,french_649.wav,0,pull,684,24,5,4,english,m,1,0.1,90.50092835,0.07645681
65b3be7e048c91426e271ded,39,0,2024-02-27T13:22:32.077Z,french_649.wav,0,pull,684,24,5,4,english,m,2,0.2,-42.32642697,0.18898029
65b3be7e048c91426e271ded,39,0,2024-02-27T13:22:32.077Z,french_649.wav,0,pull,684,24,5,4,english,m,3,0.25666667,-6.05454316,0.88659006
65b3be7e048c91426e271ded,40,0,2024-02-27T13:22:32.077Z,french_788.wav,0,pull,617,24,5,4,english,m,0,0.0,-49.59093674,1.03975343
65b3be7e048c91426e271ded,40,0,2024-02-27T13:22:32.077Z,french_788.wav,0,pull,617,24,5,4,english,m,1,0.1,-37.12859592,0.12530513
65b3be7e048c91426e271ded,40,0,2024-02-27T13:22:32.077Z,french_788.wav,0,pull,617,24,5,4,english,m,2,0.2,78.06548219,0.40268526
65b3be7e048c91426e271ded,40,0,2024-02-27T13:22:32.077Z,french_788.wav,0,pull,617,24,5,4,english,m,3,0.25666667,52.38730842,1.72021211
65b3be7e048c91426e271ded,41,0,2024-02-27T13:22:32.077Z,french_161.wav,0,poule,335,24,5,4,english,m,0,0.0,61.58397479,1.02686065
65b3be7e048c91426e271ded,41,0,2024-02-27T13:22:32.077Z,french_161.wav,0,poule,335,24,5,4,english,m,1,0.1,44.64347815,1.42523068
65b3be7e048c91426e271ded,41,0,2024-02-27T13:22:32.077Z,french_161.wav,0,poule,335,24,5,4,english,m,2,0.2,-11.65199572,0.36377374
65b3be7e048c91426e271ded,41,0,2024-02-27T13:22:32.077Z,french_161.wav,0,poule,335,24,5,4,english,m,3,0.25666667,76.59463145,0.41836879
65b3be7e048c91426e271ded,42,0,2024-02-27T13:22:32.077Z,french_565.wav,0,poule,384,24,5,4,english,m,0,0.0,50.78822436,1.00864226
65b3be7e048c91426e271ded,42,0,2024-02-27T13:22:32.077Z,french_565.wav,0,poule,384,24,5,4,english,m,1,0.1,-75.93967217,1.52231663
65b3be7e048c91426e271ded,42,0,2024-02-27T13:22:32.077Z,french_565.wav,0,poule,384,24,5,4,english,m,2,0.2,-58.95969425,0.24874103
65b3be7e048c91426e271ded,42,0,2024-02-27T13:22:32.077Z,french_565.wav,0,poule,384,24,5,4,english,m,3,0.25666667,-53.32673619,1.47271882
65b3be7e048c91426e271ded,43,0,2024-02-27T13:22:32.077Z,french_715.wav,0,pull,604,24,5,4,english,m,0,0.0,89.89167485,1.90551341
65b3be7e048c91426e271ded,43,0,2024-02-27T13:22:32.077Z,french_715.wav,0,pull,604,24,5,4,english,m,1,0.1,47.15597215,0.2376049
65b3be7e048c91426e271ded,43,0,2024-02-27T13:22:32.077Z,french_715.wav,0,pull,604,24,5,4,english,m,2,0.2,44.59513653,0.03260857
65b3be7e048c91426e271ded,43,0,2024-02-27T13:22:32.077Z,french_715.wav,0,pull,604,24,5,4,english,m,3,0.25666667,-32.08567965,1.14470607
65b3be7e048c91426e271ded,44,0,2024-02-27T13:22:32.077Z,french_457.wav,0,poule,1097,24,5,4,english,m,0,0.0,42.86960152,1.10156515
65b3be7e048c91426e271ded,44,0,2024-02-27T13:22:32.077Z,french_457.wav,0,poule,1097,24,5,4,english,m,1,0.1,79.85160671,0.90608198
65b3be7e048c91426e271ded,44,0,2024-02-27T13:22:32.077Z,french_457.wav,0,poule,1097,24,5,4,english,m,2,0.2,98.12255829,0.87189229
65b3be7e048c91426e271ded,44,0,2024-02-27T13:22:32.077Z,french_457.wav,0,poule,1097,24,5,4,english,m,3,0.25666667,78.01153847,1.12024719
65b3be7e048c91426e271ded,45,0,2024-02-27T13:22:32.077Z,french_233.wav,0,poule,443,24,5,4,english,m,0,0.0,-74.05194232,1.46941626
65b3be7e048c91426e271ded,45,0,2024-02-27T13:22:32.077Z,french_233.wav,0,poule,443,24,5,4,english,m,1,0.1,45.77276391,0.63238632
65b3be7e048c91426e271ded,45,0,2024-02-27T13:22:32.077Z,french_233.wav,0,poule,443,24,5,4,english,m,2,0.2,-37.66213209,1.46686039
65b3be7e048c91426e271ded,45,0,2024-02-27T13:22:32.077Z,french_233.wav,0,poule,443,24,5,4,english,m,3,0.25666667,-32.85858595,1.82755258
65b3be7e048c91426e271ded,46,0,2024-02-27T13:22:32.077Z,french_879.wav,0,poule,562,24,5,4,english,m,0,0.0,-48.96816685,1.19104759
65b3be7e048c91426e271ded,46,0,2024-02-27T13:22:32.077Z,french_879.wav,0,poule,562,24,5,4,english,m,1,0.1,-79.01398257,0.98306132
65b3be7e048c91426e271ded,46,0,2024-02-27T13:22:32.077Z,french_879.wav,0,poule,562,24,5,4,english,m,2,0.2,-55.9985187,0.68767433
65b3be7e048c91426e271ded,46,0,2024-02-27T13:22:32.077Z,french_879.wav,0,poule,562,24,5,4,english,m,3,0.25666667,-98.06504365,1.4115175
65b3be7e048c91426e271ded,47,0,2024-02-27T13:22:32.077Z,french_842.wav,0,pull,506,24,5,4,english,m,0,0.0,74.80920959,0.40194032
65b3be7e048c91426e271ded,47,0,2024-02-27T13:22:32.077Z,french_842.wav,0,pull,506,24,5,4,english,m,1,0.1,-40.95587484,0.66729024
65b3be7e048c91426e271ded,47,0,2024-02-27T13:22:32.077Z,french_842.wav,0,pull,506,24,5,4,english,m,2,0.2,40.36105872,0.3355789
65b3be7e048c91426e271ded,47,0,2024-02-27T13:22:32.077Z,french_842.wav,0,pull,506,24,5,4,english,m,3,0.25666667,-80.22764814,0.97335266
65b3be7e048c91426e271ded,48,0,2024-02-27T13:22:32.077Z,french_799.wav,0,poule,372,24,5,4,english,m,0,0.0,-36.40535669,1.51597666
65b3be7e048c91426e271ded,48,0,2024-02-27T13:22:32.077Z,french_799.wav,0,poule,372,24,5,4,english,m,1,0.1,61.69828746,0.87708619
65b3be7e048c91426e271ded,48,0,2024-02-27T13:22:32.077Z,french_799.wav,0,poule,372,24,5,4,english,m,2,0.2,66.97541187,1.35480731
65b3be7e048c91426e271ded,48,0,2024-02-27T13:22:32.077Z,french_799.wav,0,poule,372,24,5,4,english,m,3,0.25666667,-86.21475416,0.58642825
65b3be7e048c91426e271ded,49,0,2024-02-27T13:22:32.077Z,french_893.wav,0,poule,602,24,5,4,english,m,0,0.0,-94.12021506,0.88252126
65b3be7e048c91426e271ded,49,0,2024-02-27T13:22:32.077Z,french_893.wav,0,poule,602,24,5,4,english,m,1,0.1,53.79826098,0.31460198
65b3be7e048c91426e271ded,49,0,2024-02-27T13:22:32.077Z,french_893.wav,0,poule,602,24,5,4,english,m,2,0.2,-24.3553788,1.36492904
65b3be7e048c91426e271ded,49,0,2024-02-27T13:22:32.077Z,french_893.wav,0,poule,602,24,5,4,english,m,3,0.25666667,-81.90861644,1.93292807
65b3be7e048c91426e271ded,50,1,2024-02-27T13:22:32.077Z,french_438.wav,0,pull,558,24,5,4,english,m,0,0.0,38.28600595,0.24947118
65b3be7e048c91426e271ded,50,1,2024-02-27T13:22:32.077Z,french_438.wav,0,pull,558,24,5,4,english,m,1,0.1,-2.73615403,0.88566368
65b3be7e048c91426e271ded,50,1,2024-02-27T13:22:32.077Z,french_438.wav,0,pull,558,24,5,4,english,m,2,0.2,-43.32822043,0.23078024
65b3be7e048c91426e271ded,50,1,2024-02-27T13:22:32.077Z,french_438.wav,0,pull,558,24,5,4,english,m,3,0.25666667,-21.43836029,1.64360752
65b3be7e048c91426e271ded,51,1,2024-02-27T13:22:32.077Z,french_485.wav,0,poule,313,24,5,4,english,m,0,0.0,49.72116837,1.80184077
65b3be7e048c91426e271ded,51,1,2024-02-27T13:22:32.077Z,french_485.wav,0,poule,313,24,5,4,english,m,1,0.1,30.83147643,1.80095915
65b3be7e048c91426e271ded,51,1,2024-02-27T13:22:32.077Z,french_485.wav,0,poule,313,24,5,4,english,m,2,0.2,37.98454641,1.42682554
65b3be7e048c91426e271ded,51,1,2024-02-27T13:22:32.077Z,french_485.wav,0,poule,313,24,5,4,english,m,3,0.25666667,-93.0468476,0.86529676
65b3be7e048c91426e271ded,52,1,2024-02-27T13:22:32.077Z,french_786.wav,0,poule,264,24,5,4,english,m,0,0.0,46.81596915,0.36321177
65b3be7e048c91426e271ded,52,1,2024-02-27T13:22:32.077Z,french_786.wav,0,poule,264,24,5,4,english,m,1,0.1,35.10066142,1.24415108
65b3be7e048c91426e271ded,52,1,2024-02-27T13:22:32.077Z,french_786.wav,0,poule,264,24,5,4,english,m,2,0.2,15.54537814,1.19760647
65b3be7e048c91426e271ded,52,1,2024-02-27T13:22:32.077Z,french_786.wav,0,poule,264,24,5,4,english,m,3,0.25666667,97.25347056,0.79076548
65b3be7e048c91426e271ded,53,1,2024-02-27T13:22:32.077Z,french_654.wav,0,poule,311,24,5,4,english,m,0,0.0,4.75004181,0.71611878
65b3be7e048c91426e271ded,53,1,2024-02-27T13:22:32.077Z,french_654.wav,0,poule,311,24,5,4,english,m,1,0.1,-26.31758413,1.28432707
65b3be7e048c91426e271ded,53,1,2024-02-27T13:22:32.077Z,french_654.wav,0,poule,311,24,5,4,english,m,2,0.2,5.97151275,0.58455266
65b3be7e048c91426e271ded,53,1,2024-02-27T13:22:32.077Z,french_654.wav,0,poule,311,24,5,4,english,m,3,0.25666667,-86.03507884,1.03676738
65b3be7e048c91426e271ded,54,1,2024-02-27T13:22:32.077Z,french_944.wav,0,pull,349,24,5,4,english,m,0,0.0,-8.30121602,1.41077405
65b3be7e048c91426e271ded,54,1,2024-02-27T13:22:32.077Z,french_944.wav,0,pull,349,24,5,4,english,m,1,0.1,15.19990023,0.52690475
65b3be7e048c91426e271ded,54,1,2024-02-27T13:22:32.077Z,french_944.wav,0,pull,349,24,5,4,english,m,2,0.2,-34.54061483,0.23733031
65b3be7e048c91426e271ded,54,1,2024-02-27T13:22:32.077Z,french_944.wav,0,pull,349,24,5,4,english,m,3,0.25666667,-24.04483863,1.49354387
65b3be7e048c91426e271ded,55,1,2024-02-27T13:22:32.077Z,french_411.wav,0,poule,308,24,5,4,english,m,0,0.0,65.70741219,1.12073031
65b3be7e048c91426e271ded,55,1,2024-02-27T13:22:32.077Z,french_411.wav,0,poule,308,24,5,4,english,m,1,0.1,9.47903784,1.20345695
65b3be7e048c91426e271ded,55,1,2024-02-27T13:22:32.077Z,french_411.wav,0,poule,308,24,5,4,english,m,2,0.2,88.46874173,1.7567893
65b3be7e048c91426e271ded,55,1,2024-02-27T13:22:32.077Z,french_411.wav,0,poule,308,24,5,4,english,m,3,0.25666667,-33.05830924,0.68949127
65b3be7e048c91426e271ded,56,1,2024-02-27T13:22:32.077Z,french_820.wav,0,poule,868,24,5,4,english,m,0,0.0,-23.2512771,0.85914582
65b3be7e048c91426e271ded,56,1,2024-02-27T13:22:32.077Z,french_820.wav,0,poule,868,24,5,4,english,m,1,0.1,-3.42093224,1.44867235
65b3be7e048c91426e271ded,56,1,2024-02-27T13:22:32.077Z,french_820.wav,0,poule,868,24,5,4,english,m,2,0.2,-78.83822409,1.61907263
65b3be7e048c91426e271ded,56,1,2024-02-27T13:22:32.077Z,french_820.wav,0,poule,868,24,5,4,english,m,3,0.25666667,-24.79307177,1.11055267
65b3be7e048c91426e271ded,57,1,2024-02-27T13:22:32.077Z,french_356.wav,0,poule,249,24,5,4,english,m,0,0.0,-28.24477507,0.35227097
65b3be7e048c91426e271ded,57,1,2024-02-27T13:22:32.077Z,french_356.wav,0,poule,249,24,5,4,english,m,1,0.1,-36.63699676,1.16218152
65b3be7e048c91426e271ded,57,1,2024-02-27T13:22:32.077Z,french_356.wav,0,poule,249,24,5,4,english,m,2,0.2,67.9524461,1.82395355
65b3be7e048c91426e271ded,57,1,2024-02-27T13:22:32.077Z,french_356.wav,0,poule,249,24,5,4,english,m,3,0.25666667,8.53170414,1.63669257
65b3be7e048c91426e271ded,58,1,2024-02-27T13:22:32.077Z,french_991.wav,0,poule,1016,24,5,4,english,m,0,0.0,-95.18678644,1.24715664
65b3be7e048c91426e271ded,58,1,2024-02-27T13:22:32.077Z,french_991.wav,0,poule,1016,24,5,4,english,m,1,0.1,-65.70936013,0.64410058
65b3be7e048c91426e271ded,58,1,2024-02-27T13:22:32.077Z,french_991.wav,0,poule,1016,24,5,4,english,m,2,0.2,44.22545462,0.83152977
65b3be7e048c91426e271ded,58,1,2024-02-27T13:22:32.077Z,french_991.wav,0,poule,1016,24,5,4,english,m,3,0.25666667,31.01090832,1.93309413
65b3be7e048c91426e271ded,59,1,2024-02-27T13:22:32.077Z,french_266.wav,0,pull,466,24,5,4,english,m,0,0.0,58.27883453,0.79886668
65b3be7e048c91426e271ded,59,1,2024-02-27T13:22:32.077Z,french_266.wav,0,pull,466,24,5,4,english,m,1,0.1,-28.04411439,1.49488383
65b3be7e048c91426e271ded,59,1,2024-02-27T13:22:32.077Z,french_266.wav,0,pull,466,24,5,4,english,m,2,0.2,-38.46127027,0.15170522
65b3be7e048c91426e271ded,59,1,2024-02-27T13:22:32.077Z,french_266.wav,0,pull,466,24,5,4,english,m,3,0.25666667,-84.67234247,1.57053192
65b3be7e048c91426e271ded,60,1,2024-02-27T13:22:32.077Z,french_621.wav,0,poule,428,24,5,4,english,m,0,0.0,-65.12133357,1.7602607
65b3be7e048c91426e271ded,60,1,2024-02-27T13:22:32.077Z,french_621.wav,0,poule,428,24,5,4,english,m,1,0.1,-34.98790471,0.92649718
65b3be7e048c91426e271ded,60,1,2024-02-27T13:22:32.077Z,french_621.wav,0,poule,428,24,5,4,english,m,2,0.2,-12.78608876,1.46782633
65b3be7e048c91426e271ded,60,1,2024-02-27T13:22:32.077Z,french_621.wav,0,poule,428,24,5,4,english,m,3,0.25666667,53.53170361,0.68266442
65b3be7e048c91426e271ded,61,1,2024-02-27T13:22:32.077Z,french_16.wav,0,poule,330,24,5,4,english,m,0,0.0,-0.6461067,1.33944457
65b3be7e048c91426e271ded,61,1,2024-02-27T13:22:32.077Z,french_16.wav,0,poule,330,24,5,4,english,m,1,0.1,90.1568776,0.35137866
65b3be7e048c91426e271ded,61,1,2024-02-27T13:22:32.077Z,french_16.wav,0,poule,330,24,5,4,english,m,2,0.2,64.8388413,1.61271584
65b3be7e048c91426e271ded,61,1,2024-02-27T13:22:32.077Z,french_16.wav,0,poule,330,24,5,4,english,m,3,0.25666667,-49.08803112,0.05305125
65b3be7e048c91426e271ded,62,1,2024-02-27T13:22:32.077Z,french_644.wav,0,poule,683,24,5,4,english,m,0,0.0,8.48376577,1.03282428
65b3be7e048c91426e271ded,62,1,2024-02-27T13:22:32.077Z,french_644.wav,0,poule,683,24,5,4,english,m,1,0.1,5.7720639,1.52915319
65b3be7e048c91426e271ded,62,1,2024-02-27T13:22:32.077Z,french_644.wav,0,poule,683,24,5,4,english,m,2,0.2,-22.58890758,0.21561806
65b3be7e048c91426e271ded,62,1,2024-02-27T13:22:32.077Z,french_644.wav,0,poule,683,24,5,4,english,m,3,0.25666667,-77.55637272,0.23424831
65b3be7e048c91426e271ded,63,1,2024-02-27T13:22:32.077Z,french_463.wav,0,poule,579,24,5,4,english,m,0,0.0,-19.30652055,0.66062429
65b3be7e048c91426e271ded,63,1,2024-02-27T13:22:32.077Z,french_463.wav,0,poule,579,24,5,4,english,m,1,0.1,40.7979064,1.38698103
65b3be7e048c91426e271ded,63,1,2024-02-27T13:22:32.077Z,french_463.wav,0,poule,579,24,5,4,english,m,2,0.2,73.8964325,0.77621561
65b3be7e048c91426e271ded,63,1,2024-02-27T13:22:32.077Z,french_463.wav,0,poule,579,24,5,4,english,m,3,0.25666667,-55.7146218,0.65457598
65b3be7e048c91426e271ded,64,1,2024-02-27T13:22:32.077Z,french_630.wav,0,poule,1221,24,5,4,english,m,0,0.0,77.73428331,1.3363399
65b3be7e048c91426e271ded,64,1,2024-02-27T13:22:32.077Z,french_630.wav,0,poule,1221,24,5,4,english,m,1,0.1,-25.60495453,1.21399003
65b3be7e048c91426e271ded,64,1,2024-02-27T13:22:32.077Z,french_630.wav,0,poule,1221,24,5,4,english,m,2,0.2,64.05787884,0.69039687
65b3be7e048c91426e271ded,64,1,2024-02-27T13:22:32.077Z,french_630.wav,0,poule,1221,24,5,4,english,m,3,0.25666667,12.38181906,0.92340198
65b3be7e048c91426e271ded,65,1,2024-02-27T13:22:32.077Z,french_682.wav,0,pull,662,24,5,4,english,m,0,0.0,-16.33102186,0.79850708
65b3be7e048c91426e271ded,65,1,2024-02-27T13:22:32.077Z,french_682.wav,0,pull,662,24,5,4,english,m,1,0.1,-49.72009429,1.31273679
65b3be7e048c91426e271ded,65,1,2024-02-27T13:22:32.077Z,french_682.wav,0,pull,662,24,5,4,english,m,2,0.2,-23.39596266,1.51298147
65b3be7e048c91426e271ded,65,1,2024-02-27T13:22:32.077Z,french_682.wav,0,pull,662,24,5,4,english,m,3,0.25666667,-34.72439006,0.92861139
65b3be7e048c91426e271ded,66,1,2024-02-27T13:22:32.077Z,french_147.wav,0,poule,214,24,5,4,english,m,0,0.0,-8.88234032,0.56903223
65b3be7e048c91426e271ded,66,1,2024-02-27T13:22:32.077Z,french_147.wav,0,poule,214,24,5,4,english,m,1,0.1,-14.76798318,0.94922216
65b3be7e048c91426e271ded,66,1,2024-02-27T13:22:32.077Z,french_147.wav,0,poule,214,24,5,4,english,m,2,0.2,-57.87683145,1.80420194
65b3be7e048c91426e271ded,66,1,2024-02-27T13:22:32.077Z,french_147.wav,0,poule,214,24,5,4,english,m,3,0.25666667,44.89226386,0.62760473
65b3be7e048c91426e271ded,67,1,2024-02-27T13:22:32.077Z,french_511.wav,0,poule,262,24,5,4,english,m,0,0.0,-19.9871771,1.33271467
65b3be7e048c91426e271ded,67,1,2024-02-27T13:22:32.077Z,french_511.wav,0,poule,262,24,5,4,english,m,1,0.1,-61.98813266,1.54343533
65b3be7e048c91426e271ded,67,1,2024-02-27T13:22:32.077Z,french_511.wav,0,poule,262,24,5,4,english,m,2,0.2,-51.99144191,1.11888865
65b3be7e048c91426e271ded,67,1,2024-02-27T13:22:32.077Z,french_511.wav,0,poule,262,24,5,4,english,m,3,0.25666667,26.5419494,1.56196296
65b3be7e048c91426e271ded,68,1,2024-02-27T13:22:32.077Z,french_371.wav,0,poule,273,24,5,4,english,m,0,0.0,31.80119749,0.65227963
65b3be7e048c91426e271ded,68,1,2024-02-27T13:22:32.077Z,french_371.wav,0,poule,273,24,5,4,english,m,1,0.1,-38.52135119,1.80763105
65b3be7e048c91426e271ded,68,1,2024-02-27T13:22:32.077Z,french_371.wav,0,poule,273,24,5,4,english,m,2,0.2,9.85895876,1.44692227
65b3be7e048c91426e271ded,68,1,2024-02-27T13:22:32.077Z,french_371.wav,0,poule,273,24,5,4,english,m,3,0.25666667,79.11511398,1.12716888
65b3be7e048c91426e271ded,69,1,2024-02-27T13:22:32.077Z,french_308.wav,0,pull,423,24,5,4,english,m,0,0.0,10.28514005,0.92806529
65b3be7e048c91426e271ded,69,1,2024-02-27T13:22:32.077Z,french_308.wav,0,pull,423,24,5,4,english,m,1,0.1,-39.60290217,0.73191769
65b3be7e048c91426e271ded,69,1,2024-02-27T13:22:32.077Z,french_308.wav,0,pull,423,24,5,4,english,m,2,0.2,99.30719553,0.07740888
65b3be7e048c91426e271ded,69,1,2024-02-27T13:22:32.077Z,french_308.wav,0,pull,423,24,5,4,english,m,3,0.25666667,64.43745932,0.80481059
65b3be7e048c91426e271ded,70,1,2024-02-27T13:22:32.077Z,french_241.wav,0,pull,285,24,5,4,english,m,0,0.0,89.40240056,1.53101086
65b3be7e048c91426e271ded,70,1,2024-02-27T13:22:32.077Z,french_241.wav,0,pull,285,24,5,4,english,m,1,0.1,40.19017079,0.22293869
65b3be7e048c91426e271ded,70,1,2024-02-27T13:22:32.077Z,french_241.wav,0,pull,285,24,5,4,english,m,2,0.2,6.95264839,0.66477428
65b3be7e048c91426e271ded,70,1,2024-02-27T13:22:32.077Z,french_241.wav,0,pull,285,24,5,4,english,m,3,0.25666667,60.0147698,1.1640228
65b3be7e048c91426e271ded,71,1,2024-02-27T13:22:32.077Z,french_32.wav,0,pull,266,24,5,4,english,m,0,0.0,-95.97477456,1.5242089
65b3be7e048c91426e271ded,71,1,2024-02-27T13:22:32.077Z,french_32.wav,0,pull,266,24,5,4,english,m,1,0.1,-25.31572866,0.2047991
65b3be7e048c91426e271ded,71,1,2024-02-27T13:22:32.077Z,french_32.wav,0,pull,266,24,5,4,english,m,2,0.2,-25.0492654,1.11388434
65b3be7e048c91426e271ded,71,1,2024-02-27T13:22:32.077Z,french_32.wav,0,pull,266,24,5,4,english,m,3,0.25666667,-74.56689772,1.18772321
65b3be7e048c91426e271ded,72,1,2024-02-27T13:22:32.077Z,french_859.wav,0,poule,341,24,5,4,english,m,0,0.0,52.92786792,1.14238893
65b3be7e048c91426e271ded,72,1,2024-02-27T13:22:32.077Z,french_859.wav,0,poule,341,24,5,4,english,m,1,0.1,18.54274392,1.12707434
65b3be7e048c91426e271ded,72,1,2024-02-27T13:22:32.077Z,french_859.wav,0,poule,341,24,5,4,english,m,2,0.2,-25.06242892,1.93999144
65b3be7e048c91426e271ded,72,1,2024-02-27T13:22:32.077Z,french_859.wav,0,poule,341,24,5,4,english,m,3,0.25666667,0.70946668,1.31682519
65b3be7e048c91426e271ded,73,1,2024-02-27T13:22:32.077Z,french_641.wav,0,poule,280,24,5,4,english,m,0,0.0,-92.89939655,0.72916007
65b3be7e048c91426e271ded,73,1,2024-02-27T13:22:32.077Z,french_641.wav,0,poule,280,24,5,4,english,m,1,0.1,80.14352585,1.01323436
65b3be7e048c91426e271ded,73,1,2024-02-27T13:22:32.077Z,french_641.wav,0,poule,280,24,5,4,english,m,2,0.2,74.03041043,0.998205
65b3be7e048c91426e271ded,73,1,2024-02-27T13:22:32.077Z,french_641.wav,0,poule,280,24,5,4,english,m,3,0.25666667,18.97683281,0.30086371
65b3be7e048c91426e271ded,74,1,2024-02-27T13:22:32.077Z,french_559.wav,0,poule,288,24,5,4,english,m,0,0.0,64.66028359,0.94999591
65b3be7e048c91426e271ded,74,1,2024-02-27T13:22:32.077Z,french_559.wav,0,poule,288,24,5,4,english,m,1,0.1,-43.2680873,1.38482691
65b3be7e048c91426e271ded,74,1,2024-02-27T13:22:32.077Z,french_559.wav,0,poule,288,24,5,4,english,m,2,0.2,-64.36892284,1.27938883
65b3be7e048c91426e271ded,74,1,2024-02-27T13:22:32.077Z,french_559.wav,0,poule,288,24,5,4,english,m,3,0.25666667,44.10109235,0.16591499
65b3be7e048c91426e271ded,75,1,2024-02-27T13:22:32.077Z,french_445.wav,0,poule,276,24,5,4,english,m,0,0.0,8.73559539,0.8054478
65b3be7e048c91426e271ded,75,1,2024-02-27T13:22:32.077Z,french_445.wav,0,poule,276,24,5,4,english,m,1,0.1,-22.15313252,1.73211315
65b3be7e048c91426e271ded,75,1,2024-02-27T13:22:32.077Z,french_445.wav,0,poule,276,24,5,4,english,m,2,0.2,26.0955013,0.21896619
65b3be7e048c91426e271ded,75,1,2024-02-27T13:22:32.077Z,french_445.wav,0,poule,276,24,5,4,english,m,3,0.25666667,22.70157082,0.54256666
65b3be7e048c91426e271ded,76,1,2024-02-27T13:22:32.077Z,french_697.wav,0,poule,574,24,5,4,english,m,0,0.0,-19.8565912,1.89587242
65b3be7e048c91426e271ded,76,1,2024-02-27T13:22:32.077Z,french_697.wav,0,poule,574,24,5,4,english,m,1,0.1,-16.18456076,0.49072185
65b3be7e048c91426e271ded,76,1,2024-02-27T13:22:32.077Z,french_697.wav,0,poule,574,24,5,4,english,m,2,0.2,-70.77550193,1.8362568
65b3be7e048c91426e271ded,76,1,2024-02-27T13:22:32.077Z,french_697.wav,0,poule,574,24,5,4,english,m,3,0.25666667,-81.21106402,0.50078837
65b3be7e048c91426e271ded,77,1,2024-02-27T13:22:32.077Z,french_95.wav,0,pull,605,24,5,4,english,m,0,0.0,35.71270194,1.05464779
65b3be7e048c91426e271ded,77,1,2024-02-27T13:22:32.077Z,french_95.wav,0,pull,605,24,5,4,english,m,1,0.1,34.21637588,0.916907
65b3be7e048c91426e271ded,77,1,2024-02-27T13:22:32.077Z,french_95.wav,0,pull,605,24,5,4,english,m,2,0.2,69.23850983,0.63861668
65b3be7e048c91426e271ded,77,1,2024-02-27T13:22:32.077Z,french_95.wav,0,pull,605,24,5,4,english,m,3,0.25666667,-5.02213551,0.96363956
65b3be7e048c91426e271ded,78,1,2024-02-27T13:22:32.077Z,french_260.wav,0,pull,299,24,5,4,english,m,0,0.0,-3.22947754,0.22766361
65b3be7e048c91426e271ded,78,1,2024-02-27T13:22:32.077Z,french_260.wav,0,pull,299,24,5,4,english,m,1,0.1,-16.22535722,1.16747398
65b3be7e048c91426e271ded,78,1,2024-02-27T13:22:32.077Z,french_260.wav,0,pull,299,24,5,4,english,m,2,0.2,-91.54207183,1.39667181
65b3be7e048c91426e271ded,78,1,2024-02-27T13:22:32.077Z,french_260.wav,0,pull,299,24,5,4,english,m,3,0.25666667,-55.70642268,1.03484551
65b3be7e048c91426e271ded,79,1,2024-02-27T13:22:32.077Z,french_903.wav,0,pull,610,24,5,4,english,m,0,0.0,-17.08871031,0.50691937
65b3be7e048c91426e271ded,79,1,2024-02-27T13:22:32.077Z,french_903.wav,0,pull,610,24,5,4,english,m,1,0.1,52.87150714,1.06902364
65b3be7e048c91426e271ded,79,1,2024-02-27T13:22:32.077Z,french_903.wav,0,pull,610,24,5,4,english,m,2,0.2,-46.35078868,1.77440634
65b3be7e048c91426e271ded,79,1,2024-02-27T13:22:32.077Z,french_903.wav,0,pull,610,24,5,4,english,m,3,0.25666667,67.27089244,0.5573406
65b3be7e048c91426e271ded,80,1,2024-02-27T13:22:32.077Z,french_817.wav,0,pull,433,24,5,4,english,m,0,0.0,78.06162864,0.52442488
65b3be7e048c91426e271ded,80,1,2024-02-27T13:22:32.077Z,french_817.wav,0,pull,433,24,5,4,english,m,1,0.1,7.60258692,1.548285
65b3be7e048c91426e271ded,80,1,2024-02-27T13:22:32.077Z,french_817.wav,0,pull,433,24,5,4,english,m,2,0.2,-72.81657303,0.10823364
65b3be7e048c91426e271ded,80,1,2024-02-27T13:22:32.077Z,french_817.wav,0,pull,433,24,5,4,english,m,3,0.25666667,58.9269084,1.31415279
65b3be7e048c91426e271ded,81,1,2024-02-27T13:22:32.077Z,french_113.wav,0,pull,369,24,5,4,english,m,0,0.0,0.51528889,0.39555504
65b3be7e048c91426e271ded,81,1,2024-02-27T13:22:32.077Z,french_113.wav,0,pull,369,24,5,4,english,m,1,0.1,31.38938416,1.50115078
65b3be7e048c91426e271ded,81,1,2024-02-27T13:22:32.077Z,french_113.wav,0,pull,369,24,5,4,english,m,2,0.2,-56.71204584,1.00732686
65b3be7e048c91426e271ded,81,1,2024-02-27T13:22:32.077Z,french_113.wav,0,pull,369,24,5,4,english,m,3,0.25666667,95.05763822,0.59062761
65b3be7e048c91426e271ded,82,1,2024-02-27T13:22:32.077Z,french_173.wav,0,pull,387,24,5,4,english,m,0,0.0,-85.34625679,1.0505287
65b3be7e048c91426e271ded,82,1,2024-02-27T13:22:32.077Z,french_173.wav,0,pull,387,24,5,4,english,m,1,0.1,19.71799215,1.50206547
65b3be7e048c91426e271ded,82,1,2024-02-27T13:22:32.077Z,french_173.wav,0,pull,387,24,5,4,english,m,2,0.2,-84.96079432,1.53807785
65b3be7e048c91426e271ded,82,1,2024-02-27T13:22:32.077Z,french_173.wav,0,pull,387,24,5,4,english,m,3,0.25666667,-20.27996547,1.54027091
65b3be7e048c91426e271ded,83,1,2024-02-27T13:22:32.077Z,french_251.wav,0,poule,264,24,5,4,english,m,0,0.0,24.13853868,0.84222584
65b3be7e048c91426e271ded,83,1,2024-02-27T13:22:32.077Z,french_251.wav,0,poule,264,24,5,4,english,m,1,0.1,69.59392202,0.35569373
65b3be7e048c91426e271ded,83,1,2024-02-27T13:22:32.077Z,french_251.wav,0,poule,264,24,5,4,english,m,2,0.2,5.2598313,1.18426262
65b3be7e048c91426e271ded,83,1,2024-02-27T13:22:32.077Z,french_251.wav,0,poule,264,24,5,4,english,m,3,0.25666667,49.58604743,1.47594706
65b3be7e048c91426e271ded,84,1,2024-02-27T13:22:32.077Z,french_69.wav,0,poule,349,24,5,4,english,m,0,0.0,-60.6968374,1.40310832
65b3be7e048c91426e271ded,84,1,2024-02-27T13:22:32.077Z,french_69.wav,0,poule,349,24,5,4,english,m,1,0.1,-13.66133732,0.07324596
65b3be7e048c91426e271ded,84,1,2024-02-27T13:22:32.077Z,french_69.wav,0,poule,349,24,5,4,english,m,2,0.2,-49.05218158,0.92091935
65b3be7e048c91426e271ded,84,1,2024-02-27T13:22:32.077Z,french_69.wav,0,poule,349,24,5,4,english,m,3,0.25666667,-62.82393396,0.56730757
65b3be7e048c91426e271ded,85,1,2024-02-27T13:22:32.077Z,french_418.wav,0,poule,335,24,5,4,english,m,0,0.0,69.65568707,1.45647369
65b3be7e048c91426e271ded,85,1,2024-02-27T13:22:32.077Z,french_418.wav,0,poule,335,24,5,4,english,m,1,0.1,-73.62960571,0.96644453
65b3be7e048c91426e271ded,85,1,2024-02-27T13:22:32.077Z,french_418.wav,0,poule,335,24,5,4,english,m,2,0.2,-12.19608601,0.59086709
65b3be7e048c91426e271ded,85,1,2024-02-27T13:22:32.077Z,french_418.wav,0,poule,335,24,5,4,english,m,3,0.25666667,31.099867,1.25987346
65b3be7e048c91426e271ded,86,1,2024-02-27T13:22:32.077Z,french_886.wav,0,poule,275,24,5,4,english,m,0,0.0,-29.93146366,0.4543131
65b3be7e048c91426e271ded,86,1,2024-02-27T13:22:32.077Z,french_886.wav,0,poule,275,24,5,4,english,m,1,0.1,-19.22170842,1.74784503
65b3be7e048c91426e271ded,86,1,2024-02-27T13:22:32.077Z,french_886.wav,0,poule,275,24,5,4,english,m,2,0.2,-71.55320982,1.04864587
65b3be7e048c91426e271ded,86,1,2024-02-27T13:22:32.077Z,french_886.wav,0,poule,275,24,5,4,english,m,3,0.25666667,-23.6698032,1.15835862
65b3be7e048c91426e271ded,87,1,2024-02-27T13:22:32.077Z,french_583.wav,0,poule,393,24,5,4,english,m,0,0.0,54.77106994,0.72700192
65b3be7e048c91426e271ded,87,1,2024-02-27T13:22:32.077Z,french_583.wav,0,poule,393,24,5,4,english,m,1,0.1,-91.79725644,1.43459804
65b3be7e048c91426e271ded,87,1,2024-02-27T13:22:32.077Z,french_583.wav,0,poule,393,24,5,4,english,m,2,0.2,19.12152033,0.59283069
65b3be7e048c91426e271ded,87,1,2024-02-27T13:22:32.077Z,french_583.wav,0,poule,393,24,5,4,english,m,3,0.25666667,80.05255959,1.58166394
65b3be7e048c91426e271ded,88,1,2024-02-27T13:22:32.077Z,french_459.wav,0,pull,378,24,5,4,english,m,0,0.0,4.79398058,1.10654006
65b3be7e048c91426e271ded,88,1,2024-02-27T13:22:32.077Z,french_459.wav,0,pull,378,24,5,4,english,m,1,0.1,85.90612859,1.2996969
65b3be7e048c91426e271ded,88,1,2024-02-27T13:22:32.077Z,french_459.wav,0,pull,378,24,5,4,english,m,2,0.2,-69.41023595,0.20520219
65b3be7e048c91426e271ded,88,1,2024-02-27T13:22:32.077Z,french_459.wav,0,pull,378,24,5,4,english,m,3,0.25666667,-22.07588814,1.17361701
65b3be7e048c91426e271ded,89,1,2024-02-27T13:22:32.077Z,french_503.wav,0,poule,500,24,5,4,english,m,0,0.0,-70.57406247,0.43346158
65b3be7e048c91426e271ded,89,1,2024-02-27T13:22:32.077Z,french_503.wav,0,poule,500,24,5,4,english,m,1,0.1,-50.28029143,1.6767429
65b3be7e048c91426e271ded,89,1,2024-02-27T13:22:32.077Z,french_503.wav,0,poule,500,24,5,4,english,m,2,0.2,-1.92788211,0.59100625
65b3be7e048c91426e271ded,89,1,2024-02-27T13:22:32.077Z,french_503.wav,0,poule,500,24,5,4,english,m,3,0.25666667,82.92590596,1.4727109
65b3be7e048c91426e271ded,90,1,2024-02-27T13:22:32.077Z,french_969.wav,0,poule,489,24,5,4,english,m,0,0.0,-10.47620341,0.56181474
65b3be7e048c91426e271ded,90,1,2024-02-27T13:22:32.077Z,french_969.wav,0,poule,489,24,5,4,english,m,1,0.1,-9.05898311,1.62172025
65b3be7e048c91426e271ded,90,1,2024-02-27T13:22:32.077Z,french_969.wav,0,poule,489,24,5,4,english,m,2,0.2,-40.12378042,1.31687422
65b3be7e048c91426e271ded,90,1,2024-02-27T13:22:32.077Z,french_969.wav,0,poule,489,24,5,4,english,m,3,0.25666667,9.74664574,0.40962586
65b3be7e048c91426e271ded,91,1,2024-02-27T13:22:32.077Z,french_505.wav,0,poule,352,24,5,4,english,m,0,0.0,-38.72168331,1.89725183
65b3be7e048c91426e271ded,91,1,2024-02-27T13:22:32.077Z,french_505.wav,0,poule,352,24,5,4,english,m,1,0.1,-12.49542568,0.88243769
65b3be7e048c91426e271ded,91,1,2024-02-27T13:22:32.077Z,french_505.wav,0,poule,352,24,5,4,english,m,2,0.2,71.90880982,1.24748728
65b3be7e048c91426e271ded,91,1,2024-02-27T13:22:32.077Z,french_505.wav,0,poule,352,24,5,4,english,m,3,0.25666667,-94.40337553,0.62032879
65b3be7e048c91426e271ded,92,1,2024-02-27T13:22:32.077Z,french_564.wav,0,pull,366,24,5,4,english,m,0,0.0,-42.85760261,0.14777183
65b3be7e048c91426e271ded,92,1,2024-02-27T13:22:32.077Z,french_564.wav,0,pull,366,24,5,4,english,m,1,0.1,78.12316343,1.08229262
65b3be7e048c91426e271ded,92,1,2024-02-27T13:22:32.077Z,french_564.wav,0,pull,366,24,5,4,english,m,2,0.2,32.53186734,0.52251513
65b3be7e048c91426e271ded,92,1,2024-02-27T13:22:32.077Z,french_564.wav,0,pull,366,24,5,4,english,m,3,0.25666667,60.20924512,1.40255579
65b3be7e048c91426e271ded,93,1,2024-02-27T13:22:32.077Z,french_795.wav,0,pull,333,24,5,4,english,m,0,0.0,33.06955163,0.26323542
65b3be7e048c91426e271ded,93,1,2024-02-27T13:22:32.077Z,french_795.wav,0,pull,333,24,5,4,english,m,1,0.1,99.3644883,0.35684642
65b3be7e048c91426e271ded,93,1,2024-02-27T13:22:32.077Z,french_795.wav,0,pull,333,24,5,4,english,m,2,0.2,-80.69510174,0.7045199
65b3be7e048c91426e271ded,93,1,2024-02-27T13:22:32.077Z,french_795.wav,0,pull,333,24,5,4,english,m,3,0.25666667,67.54375124,0.58342204
65b3be7e048c91426e271ded,94,1,2024-02-27T13:22:32.077Z,french_44.wav,0,pull,356,24,5,4,english,m,0,0.0,89.66608323,1.27808882
65b3be7e048c91426e271ded,94,1,2024-02-27T13:22:32.077Z,french_44.wav,0,pull,356,24,5,4,english,m,1,0.1,-59.25624901,0.57075293
65b3be7e048c91426e271ded,94,1,2024-02-27T13:22:32.077Z,french_44.wav,0,pull,356,24,5,4,english,m,2,0.2,-68.11161816,0.14730706
65b3be7e048c91426e271ded,94,1,2024-02-27T13:22:32.077Z,french_44.wav,0,pull,356,24,5,4,english,m,3,0.25666667,57.66656697,1.61481461
65b3be7e048c91426e271ded,95,1,2024-02-27T13:22:32.077Z,french_918.wav,0,pull,304,24,5,4,english,m,0,0.0,73.93932449,1.12285198
65b3be7e048c91426e271ded,95,1,2024-02-27T13:22:32.077Z,french_918.wav,0,pull,304,24,5,4,english,m,1,0.1,-96.38016005,0.52569443
65b3be7e048c91426e271ded,95,1,2024-02-27T13:22:32.077Z,french_918.wav,0,pull,304,24,5,4,english,m,2,0.2,52.71903464,1.01384132
65b3be7e048c91426e271ded,95,1,2024-02-27T13:22:32.077Z,french_918.wav,0,pull,304,24,5,4,english,m,3,0.25666667,71.89996729,0.74683012
65b3be7e048c91426e271ded,96,1,2024-02-27T13:22:32.077Z,french_354.wav,0,pull,523,24,5,4,english,m,0,0.0,-52.94558073,1.79880208
65b3be7e048c91426e271ded,96,1,2024-02-27T13:22:32.077Z,french_354.wav,0,pull,523,24,5,4,english,m,1,0.1,92.39955521,1.0939287
65b3be7e048c91426e271ded,96,1,2024-02-27T13:22:32.077Z,french_354.wav,0,pull,523,24,5,4,english,m,2,0.2,-42.31606849,0.57130202
65b3be7e048c91426e271ded,96,1,2024-02-27T13:22:32.077Z,french_354.wav,0,pull,523,24,5,4,english,m,3,0.25666667,97.06976377,1.82278353
65b3be7e048c91426e271ded,97,1,2024-02-27T13:22:32.077Z,french_919.wav,0,pull,498,24,5,4,english,m,0,0.0,-50.18617417,1.92623259
65b3be7e048c91426e271ded,97,1,2024-02-27T13:22:32.077Z,french_919.wav,0,pull,498,24,5,4,english,m,1,0.1,-24.76321709,1.20800331
65b3be7e048c91426e271ded,97,1,2024-02-27T13:22:32.077Z,french_919.wav,0,pull,498,24,5,4,english,m,2,0.2,-27.90521194,0.01078602
65b3be7e048c91426e271ded,97,1,2024-02-27T13:22:32.077Z,french_919.wav,0,pull,498,24,5,4,english,m,3,0.25666667,55.47311868,0.27796628
65b3be7e048c91426e271ded,98,1,2024-02-27T13:22:32.077Z,french_780.wav,0,pull,506,24,5,4,english,m,0,0.0,-26.4428256,1.10618342
65b3be7e048c91426e271ded,98,1,2024-02-27T13:22:32.077Z,french_780.wav,0,pull,506,24,5,4,english,m,1,0.1,71.38381251,1.00150251
65b3be7e048c91426e271ded,98,1,2024-02-27T13:22:32.077Z,french_780.wav,0,pull,506,24,5,4,english,m,2,0.2,23.58434052,0.69699056
65b3be7e048c91426e271ded,98,1,2024-02-27T13:22:32.077Z,french_780.wav,0,pull,506,24,5,4,english,m,3,0.25666667,-77.81567576,1.24957366
65b3be7e048c91426e271ded,99,1,2024-02-27T13:22:32.077Z,french_402.wav,0,pull,562,24,5,4,english,m,0,0.0,-15.06976312,1.40090564
65b3be7e048c91426e271ded,99,1,2024-02-27T13:22:32.077Z,french_402.wav,0,pull,562,24,5,4,english,m,1,0.1,-35.17937665,1.12974732
65b3be7e048c91426e271ded,99,1,2024-02-27T13:22:32.077Z,french_402.wav,0,pull,562,24,5,4,english,m,2,0.2,-39.80354227,1.04756912
65b3be7e048c91426e271ded,99,1,2024-02-27T13:22:32.077Z,french_402.wav,0,pull,562,24,5,4,english,m,3,0.25666667,-27.78014644,0.16748103
65b3be7e048c91426e271ded,100,2,2024-02-27T13:22:32.077Z,french_776.wav,0,poule,580,24,5,4,english,m,0,0.0,-9.17095967,0.42962635
65b3be7e048c91426e271ded,100,2,2024-02-27T13:22:32.077Z,french_776.wav,0,poule,580,24,5,4,english,m,1,0.1,-70.57850226,1.70698124
65b3be7e048c91426e271ded,100,2,2024-02-27T13:22:32.077Z,french_776.wav,0,poule,580,24,5,4,english,m,2,0.2,63.21349252,1.25010697
65b3be7e048c91426e271ded,100,2,2024-02-27T13:22:32.077Z,french_776.wav,0,poule,580,24,5,4,english,m,3,0.25666667,59.47578694,1.52671833
65b3be7e048c91426e271ded,101,2,2024-02-27T13:22:32.077Z,french_524.wav,0,poule,263,24,5,4,english,m,0,0.0,29.26114001,1.50805134
65b3be7e048c91426e271ded,101,2,2024-02-27T13:22:32.077Z,french_524.wav,0,poule,263,24,5,4,english,m,1,0.1,51.10918927,1.00551207
65b3be7e048c91426e271ded,101,2,2024-02-27T13:22:32.077Z,french_524.wav,0,poule,263,24,5,4,english,m,2,0.2,-43.7486939,1.81734516
65b3be7e048c91426e271ded,101,2,2024-02-27T13:22:32.077Z,french_524.wav,0,poule,263,24,5,4,english,m,3,0.25666667,-29.29338592,0.93830148
65b3be7e048c91426e271ded,102,2,2024-02-27T13:22:32.077Z,french_604.wav,0,poule,380,24,5,4,english,m,0,0.0,-11.11210875,1.64316359
65b3be7e048c91426e271ded,102,2,2024-02-27T13:22:32.077Z,french_604.wav,0,poule,380,24,5,4,english,m,1,0.1,-13.90326971,0.56968283
65b3be7e048c91426e271ded,102,2,2024-02-27T13:22:32.077Z,french_604.wav,0,poule,380,24,5,4,english,m,2,0.2,-78.59226075,1.3955722
65b3be7e048c91426e271ded,102,2,2024-02-27T13:22:32.077Z,french_604.wav,0,poule,380,24,5,4,english,m,3,0.25666667,87.42620436,0.51982143
65b3be7e048c91426e271ded,103,2,2024-02-27T13:22:32.077Z,french_28.wav,0,pull,219,24,5,4,english,m,0,0.0,-42.04092007,0.8096396
65b3be7e048c91426e271ded,103,2,2024-02-27T13:22:32.077Z,french_28.wav,0,pull,219,24,5,4,english,m,1,0.1,-47.89065573,0.68168646
65b3be7e048c91426e271ded,103,2,2024-02-27T13:22:32.077Z,french_28.wav,0,pull,219,24,5,4,english,m,2,0.2,88.67668081,0.86103635
65b3be7e048c91426e271ded,103,2,2024-02-27T13:22:32.077Z,french_28.wav,0,pull,219,24,5,4,english,m,3,0.25666667,23.25138011,1.13642067
65b3be7e048c91426e271ded,104,2,2024-02-27T13:22:32.077Z,french_235.wav,0,poule,392,24,5,4,english,m,0,0.0,-56.36701875,1.31563667
65b3be7e048c91426e271ded,104,2,2024-02-27T13:22:32.077Z,french_235.wav,0,poule,392,24,5,4,english,m,1,0.1,-33.99236587,1.74570455
65b3be7e048c91426e271ded,104,2,2024-02-27T13:22:32.077Z,french_235.wav,0,poule,392,24,5,4,english,m,2,0.2,5.32608114,1.41652928
65b3be7e048c91426e271ded,104,2,2024-02-27T13:22:32.077Z,french_235.wav,0,poule,392,24,5,4,english,m,3,0.25666667,-55.46298983,0.87975081
65b3be7e048c91426e271ded,105,2,2024-02-27T13:22:32.077Z,french_304.wav,0,poule,372,24,5,4,english,m,0,0.0,58.70341866,1.21350262
65b3be7e048c91426e271ded,105,2,2024-02-27T13:22:32.077Z,french_304.wav,0,poule,372,24,5,4,english,m,1,0.1,64.39481967,0.74970721
65b3be7e048c91426e271ded,105,2,2024-02-27T13:22:32.077Z,french_304.wav,0,poule,372,24,5,4,english,m,2,0.2,24.44185136,0.32537914
65b3be7e048c91426e271ded,105,2,2024-02-27T13:22:32.077Z,french_304.wav,0,poule,372,24,5,4,english,m,3,0.25666667,-92.24598877,0.12166717
65b3be7e048c91426e271ded,106,2,2024-02-27T13:22:32.077Z,french_611.wav,0,pull,403,24,5,4,english,m,0,0.0,-21.77805362,0.549449
65b3be7e048c91426e271ded,106,2,2024-02-27T13:22:32.077Z,french_611.wav,0,pull,403,24,5,4,english,m,1,0.1,-45.2722057,0.20224538
65b3be7e048c91426e271ded,106,2,2024-02-27T13:22:32.077Z,french_611.wav,0,pull,403,24,5,4,english,m,2,0.2,67.02777506,1.0051208
65b3be7e048c91426e271ded,106,2,2024-02-27T13:22:32.077Z,french_611.wav,0,pull,403,24,5,4,english,m,3,0.25666667,-75.35716628,1.31223223
65b3be7e048c91426e271ded,107,2,2024-02-27T13:22:32.077Z,french_658.wav,0,pull,291,24,5,4,english,m,0,0.0,-96.64822149,1.39139244
65b3be7e048c91426e271ded,107,2,2024-02-27T13:22:32.077Z,french_658.wav,0,pull,291,24,5,4,english,m,1,0.1,49.0828934,0.52881355
65b3be7e048c91426e271ded,107,2,2024-02-27T13:22:32.077Z,french_658.wav,0,pull,291,24,5,4,english,m,2,0.2,12.17217875,0.81868418
65b3be7e048c91426e271ded,107,2,2024-02-27T13:22:32.077Z,french_658.wav,0,pull,291,24,5,4,english,m,3,0.25666667,21.40759607,0.56425508
65b3be7e048c91426e271ded,108,2,2024-02-27T13:22:32.077Z,french_481.wav,0,pull,360,24,5,4,english,m,0,0.0,-44.05926666,1.24899263
65b3be7e048c91426e271ded,108,2,2024-02-27T13:22:32.077Z,french_481.wav,0,pull,360,24,5,4,english,m,1,0.1,85.82418432,1.22078865
65b3be7e048c91426e271ded,108,2,2024-02-27T13:22:32.077Z,french_481.wav,0,pull,360,24,5,4,english,m,2,0.2,87.54559417,0.10859618
65b3be7e048c91426e271ded,108,2,2024-02-27T13:22:32.077Z,french_481.wav,0,pull,360,24,5,4,english,m,3,0.25666667,50.04191005,0.19634609
65b3be7e048c91426e271ded,109,2,2024-02-27T13:22:32.077Z,french_441.wav,0,poule,374,24,5,4,english,m,0,0.0,-52.65918707,0.98643262
65b3be7e048c91426e271ded,109,2,2024-02-27T13:22:32.077Z,french_441.wav,0,poule,374,24,5,4,english,m,1,0.1,-61.65013116,1.35237654
65b3be7e048c91426e271ded,109,2,2024-02-27T13:22:32.077Z,french_441.wav,0,poule,374,24,5,4,english,m,2,0.2,34.26317373,1.5364694
65b3be7e048c91426e271ded,109,2,2024-02-27T13:22:32.077Z,french_441.wav,0,poule,374,24,5,4,english,m,3,0.25666667,30.98760828,1.29655121
65b3be7e048c91426e271ded,110,2,2024-02-27T13:22:32.077Z,french_216.wav,0,poule,329,24,5,4,english,m,0,0.0,94.47877999,1.14166801
65b3be7e048c91426e271ded,110,2,2024-02-27T13:22:32.077Z,french_216.wav,0,poule,329,24,5,4,english,m,1,0.1,-35.64680956,0.96477388
65b3be7e048c91426e271ded,110,2,2024-02-27T13:22:32.077Z,french_216.wav,0,poule,329,24,5,4,english,m,2,0.2,-6.49582042,1.30348701
65b3be7e048c91426e271ded,110,2,2024-02-27T13:22:32.077Z,french_216.wav,0,poule,329,24,5,4,english,m,3,0.25666667,88.58272088,1.4092971
65b3be7e048c91426e271ded,111,2,2024-02-27T13:22:32.077Z,french_388.wav,0,poule,334,24,5,4,english,m,0,0.0,-56.99851318,0.76802497
65b3be7e048c91426e271ded,111,2,2024-02-27T13:22:32.077Z,french_388.wav,0,poule,334,24,5,4,english,m,1,0.1,-28.42117093,1.07190306
65b3be7e048c91426e271ded,111,2,2024-02-27T13:22:32.077Z,french_388.wav,0,poule,334,24,5,4,english,m,2,0.2,-17.37440647,0.91030877
65b3be7e048c91426e271ded,111,2,2024-02-27T13:22:32.077Z,french_388.wav,0,poule,334,24,5,4,english,m,3,0.25666667,19.5608334,0.1576099
65b3be7e048c91426e271ded,112,2,2024-02-27T13:22:32.077Z,french_648.wav,0,poule,296,24,5,4,english,m,0,0.0,45.21338473,1.3610165
65b3be7e048c91426e271ded,112,2,2024-02-27T13:22:32.077Z,french_648.wav,0,poule,296,24,5,4,english,m,1,0.1,35.84509453,0.40626065
65b3be7e048c91426e271ded,112,2,2024-02-27T13:22:32.077Z,french_648.wav,0,poule,296,24,5,4,english,m,2,0.2,-67.01500747,0.74636895
65b3be7e048c91426e271ded,112,2,2024-02-27T13:22:32.077Z,french_648.wav,0,poule,296,24,5,4,english,m,3,0.25666667,-57.94291625,1.66903202
65b3be7e048c91426e271ded,113,2,2024-02-27T13:22:32.077Z,french_894.wav,0,poule,902,24,5,4,english,m,0,0.0,34.15690998,0.96571794
65b3be7e048c91426e271ded,113,2,2024-02-27T13:22:32.077Z,french_894.wav,0,poule,902,24,5,4,english,m,1,0.1,66.60232679,0.73360337
65b3be7e048c91426e271ded,113,2,2024-02-27T13:22:32.077Z,french_894.wav,0,poule,902,24,5,4,english,m,2,0.2,79.95982278,1.43440198
65b3be7e048c91426e271ded,113,2,2024-02-27T13:22:32.077Z,french_894.wav,0,poule,902,24,5,4,english,m,3,0.25666667,-20.39269858,0.64269279
65b3be7e048c91426e271ded,114,2,2024-02-27T13:22:32.077Z,french_198.wav,0,pull,439,24,5,4,english,m,0,0.0,72.51067349,0.65547069
65b3be7e048c91426e271ded,114,2,2024-02-27T13:22:32.077Z,french_198.wav,0,pull,439,24,5,4,english,m,1,0.1,26.15359829,0.30610144
65b3be7e048c91426e271ded,114,2,2024-02-27T13:22:32.077Z,french_198.wav,0,pull,439,24,5,4,english,m,2,0.2,-38.06500424,0.27462822
65b3be7e048c91426e271ded,114,2,2024-02-27T13:22:32.077Z,french_198.wav,0,pull,439,24,5,4,english,m,3,0.25666667,-63.59150526,1.37790723
65b3be7e048c91426e271ded,115,2,2024-02-27T13:22:32.077Z,french_489.wav,0,poule,455,24,5,4,english,m,0,0.0,0.49645075,0.76062229
65b3be7e048c91426e271ded,115,2,2024-02-27T13:22:32.077Z,french_489.wav,0,poule,455,24,5,4,english,m,1,0.1,-49.42249353,1.72041063
65b3be7e048c91426e271ded,115,2,2024-02-27T13:22:32.077Z,french_489.wav,0,poule,455,24,5,4,english,m,2,0.2,3.0196593,0.72496435
65b3be7e048c91426e271ded,115,2,2024-02-27T13:22:32.077Z,french_489.wav,0,poule,455,24,5,4,english,m,3,0.25666667,11.9492669,0.84736567
65b3be7e048c91426e271ded,116,2,2024-02-27T13:22:32.077Z,french_56.wav,0,pull,400,24,5,4,english,m,0,0.0,-45.81384366,0.89556329
65b3be7e048c91426e271ded,116,2,2024-02-27T13:22:32.077Z,french_56.wav,0,pull,400,24,5,4,english,m,1,0.1,-31.22745768,1.16444889
65b3be7e048c91426e271ded,116,2,2024-02-27T13:22:32.077Z,french_56.wav,0,pull,400,24,5,4,english,m,2,0.2,7.07301694,0.03247946
65b3be7e048c91426e271ded,116,2,2024-02-27T13:22:32.077Z,french_56.wav,0,pull,400,24,5,4,english,m,3,0.25666667,85.51747291,0.10908846
65b3be7e048c91426e271ded,117,2,2024-02-27T13:22:32.077Z,french_726.wav,0,poule,274,24,5,4,english,m,0,0.0,24.00791096,1.57962765
65b3be7e048c91426e271ded,117,2,2024-02-27T13:22:32.077Z,french_726.wav,0,poule,274,24,5,4,english,m,1,0.1,-92.28715444,0.67026409
65b3be7e048c91426e271ded,117,2,2024-02-27T13:22:32.077Z,french_726.wav,0,poule,274,24,5,4,english,m,2,0.2,-14.16316682,0.1799528
65b3be7e048c91426e271ded,117,2,2024-02-27T13:22:32.077Z,french_726.wav,0,poule,274,24,5,4,english,m,3,0.25666667,30.70182153,1.72405897
65b3be7e048c91426e271ded,118,2,2024-02-27T13:22:32.077Z,french_448.wav,0,poule,205,24,5,4,english,m,0,0.0,31.66119151,0.87276462
65b3be7e048c91426e271ded,118,2,2024-02-27T13:22:32.077Z,french_448.wav,0,poule,205,24,5,4,english,m,1,0.1,20.17093967,1.08469616
65b3be7e048c91426e271ded,118,2,2024-02-27T13:22:32.077Z,french_448.wav,0,poule,205,24,5,4,english,m,2,0.2,-46.84568686,1.99629221
65b3be7e048c91426e271ded,118,2,2024-02-27T13:22:32.077Z,french_448.wav,0,poule,205,24,5,4,english,m,3,0.25666667,10.399138,0.44449425
65b3be7e048c91426e271ded,119,2,2024-02-27T13:22:32.077Z,french_612.wav,0,pull,450,24,5,4,english,m,0,0.0,43.10783066,0.49686358
65b3be7e048c91426e271ded,119,2,2024-02-27T13:22:32.077Z,french_612.wav,0,pull,450,24,5,4,english,m,1,0.1,-4.14995098,1.10500502
65b3be7e048c91426e271ded,119,2,2024-02-27T13:22:32.077Z,french_612.wav,0,pull,450,24,5,4,english,m,2,0.2,22.17563662,0.22222502
65b3be7e048c91426e271ded,119,2,2024-02-27T13:22:32.077Z,french_612.wav,0,pull,450,24,5,4,english,m,3,0.25666667,-48.75850842,1.14111641
65b3be7e048c91426e271ded,120,2,2024-02-27T13:22:32.077Z,french_708.wav,0,poule,496,24,5,4,english,m,0,0.0,77.88438146,0.30850898
65b3be7e048c91426e271ded,120,2,2024-02-27T13:22:32.077Z,french_708.wav,0,poule,496,24,5,4,english,m,1,0.1,-89.66132416,1.49064351
65b3be7e048c91426e271ded,120,2,2024-02-27T13:22:32.077Z,french_708.wav,0,poule,496,24,5,4,english,m,2,0.2,66.08375885,1.28629193
65b3be7e048c91426e271ded,120,2,2024-02-27T13:22:32.077Z,french_708.wav,0,poule,496,24,5,4,english,m,3,0.25666667,-39.93161414,1.01533724
65b3be7e048c91426e271ded,121,2,2024-02-27T13:22:32.077Z,french_981.wav,0,poule,314,24,5,4,english,m,0,0.0,-1.54223553,0.66538198
65b3be7e048c91426e271ded,121,2,2024-02-27T13:22:32.077Z,french_981.wav,0,poule,314,24,5,4,english,m,1,0.1,-78.86121057,1.42802268
65b3be7e048c91426e271ded,121,2,2024-02-27T13:22:32.077Z,french_981.wav,0,poule,314,24,5,4,english,m,2,0.2,-33.48141771,0.92303184
65b3be7e048c91426e271ded,121,2,2024-02-27T13:22:32.077Z,french_981.wav,0,poule,314,24,5,4,english,m,3,0.25666667,-47.78773965,0.82545089
65b3be7e048c91426e271ded,122,2,2024-02-27T13:22:32.077Z,french_258.wav,0,poule,336,24,5,4,english,m,0,0.0,49.87761594,0.27922365
65b3be7e048c91426e271ded,122,2,2024-02-27T13:22:32.077Z,french_258.wav,0,poule,336,24,5,4,english,m,1,0.1,-83.77774399,1.89432374
65b3be7e048c91426e271ded,122,2,2024-02-27T13:22:32.077Z,french_258.wav,0,poule,336,24,5,4,english,m,2,0.2,58.69904626,0.22934206
65b3be7e048c91426e271ded,122,2,2024-02-27T13:22:32.077Z,french_258.wav,0,poule,336,24,5,4,english,m,3,0.25666667,-57.68721695,0.35615934
65b3be7e048c91426e271ded,123,2,2024-02-27T13:22:32.077Z,french_698.wav,0,poule,337,24,5,4,english,m,0,0.0,77.87531809,1.86418809
65b3be7e048c91426e271ded,123,2,2024-02-27T13:22:32.077Z,french_698.wav,0,poule,337,24,5,4,english,m,1,0.1,-26.89699032,0.30357323
65b3be7e048c91426e271ded,123,2,2024-02-27T13:22:32.077Z,french_698.wav,0,poule,337,24,5,4,english,m,2,0.2,-54.93316964,1.97458381
65b3be7e048c91426e271ded,123,2,2024-02-27T13:22:32.077Z,french_698.wav,0,poule,337,24,5,4,english,m,3,0.25666667,-94.94644501,1.01877906
65b3be7e048c91426e271ded,124,2,2024-02-27T13:22:32.077Z,french_71.wav,0,poule,336,24,5,4,english,m,0,0.0,-97.29707499,0.6163898
65b3be7e048c91426e271ded,124,2,2024-02-27T13:22:32.077Z,french_71.wav,0,poule,336,24,5,4,english,m,1,0.1,41.74238765,1.06775198
65b3be7e048c91426e271ded,124,2,2024-02-27T13:22:32.077Z,french_71.wav,0,poule,336,24,5,4,english,m,2,0.2,-91.89336592,1.31906527
65b3be7e048c91426e271ded,124,2,2024-02-27T13:22:32.077Z,french_71.wav,0,poule,336,24,5,4,english,m,3,0.25666667,53.06515209,0.58556407
65b3be7e048c91426e271ded,125,2,2024-02-27T13:22:32.077Z,french_416.wav,0,poule,265,24,5,4,english,m,0,0.0,27.68943274,1.77963231
65b3be7e048c91426e271ded,125,2,2024-02-27T13:22:32.077Z,french_416.wav,0,poule,265,24,5,4,english,m,1,0.1,-10.10461599,1.68240888
65b3be7e048c91426e271ded,125,2,2024-02-27T13:22:32.077Z,french_416.wav,0,poule,265,24,5,4,english,m,2,0.2,24.64183683,1.38997073
65b3be7e048c91426e271ded,125,2,2024-02-27T13:22:32.077Z,french_416.wav,0,poule,265,24,5,4,english,m,3,0.25666667,96.08137129,0.64151937
65b3be7e048c91426e271ded,126,2,2024-02-27T13:22:32.077Z,french_342.wav,0,pull,890,24,5,4,english,m,0,0.0,-84.22246184,0.80111929
65b3be7e048c91426e271ded,126,2,2024-02-27T13:22:32.077Z,french_342.wav,0,pull,890,24,5,4,english,m,1,0.1,-88.55202377,0.92289162
65b3be7e048c91426e271ded,126,2,2024-02-27T13:22:32.077Z,french_342.wav,0,pull,890,24,5,4,english,m,2,0.2,12.74462997,0.96187701
65b3be7e048c91426e271ded,126,2,2024-02-27T13:22:32.077Z,french_342.wav,0,pull,890,24,5,4,english,m,3,0.25666667,-73.67155113,0.57764427
65b3be7e048c91426e271ded,127,2,2024-02-27T13:22:32.077Z,french_815.wav,0,pull,919,24,5,4,english,m,0,0.0,-30.97778369,1.45421986
65b3be7e048c91426e271ded,127,2,2024-02-27T13:22:32.077Z,french_815.wav,0,pull,919,24,5,4,english,m,1,0.1,-10.3506413,0.28044698
65b3be7e048c91426e271ded,127,2,2024-02-27T13:22:32.077Z,french_815.wav,0,pull,919,24,5,4,english,m,2,0.2,61.86726268,1.88309962
65b3be7e048c91426e271ded,127,2,2024-02-27T13:22:32.077Z,french_815.wav,0,pull,919,24,5,4,english,m,3,0.25666667,-32.12586702,1.86356454
65b3be7e048c91426e271ded,128,2,2024-02-27T13:22:32.077Z,french_876.wav,0,poule,220,24,5,4,english,m,0,0.0,-63.60663495,1.31328738
65b3be7e048c91426e271ded,128,2,2024-02-27T13:22:32.077Z,french_876.wav,0,poule,220,24,5,4,english,m,1,0.1,-33.069551,1.53761103
65b3be7e048c91426e271ded,128,2,2024-02-27T13:22:32.077Z,french_876.wav,0,poule,220,24,5,4,english,m,2,0.2,44.38072254,1.15738415
65b3be7e048c91426e271ded,128,2,2024-02-27T13:22:32.077Z,french_876.wav,0,poule,220,24,5,4,english,m,3,0.25666667,3.25210733,1.33428182
65b3be7e048c91426e271ded,129,2,2024-02-27T13:22:32.077Z,french_673.wav,0,poule,239,24,5,4,english,m,0,0.0,97.1433432,1.2603
65b3be7e048c91426e271ded,129,2,2024-02-27T13:22:32.077Z,french_673.wav,0,poule,239,24,5,4,english,m,1,0.1,1.59516127,0.42137615
65b3be7e048c91426e271ded,129,2,2024-02-27T13:22:32.077Z,french_673.wav,0,poule,239,24,5,4,english,m,2,0.2,27.02161491,0.87652171
65b3be7e048c91426e271ded,129,2,2024-02-27T13:22:32.077Z,french_673.wav,0,poule,239,24,5,4,english,m,3,0.25666667,62.92522021,1.1230089
65b3be7e048c91426e271ded,130,2,2024-02-27T13:22:32.077Z,french_162.wav,0,poule,247,24,5,4,english,m,0,0.0,-20.03052962,1.70466969
65b3be7e048c91426e271ded,130,2,2024-02-27T13:22:32.077Z,french_162.wav,0,poule,247,24,5,4,english,m,1,0.1,-35.11860261,0.77666831
65b3be7e048c91426e271ded,130,2,2024-02-27T13:22:32.077Z,french_162.wav,0,poule,247,24,5,4,english,m,2,0.2,20.80868131,1.88915568
65b3be7e048c91426e271ded,130,2,2024-02-27T13:22:32.077Z,french_162.wav,0,poule,247,24,5,4,english,m,3,0.25666667,50.74802705,1.69994842
65b3be7e048c91426e271ded,131,2,2024-02-27T13:22:32.077Z,french_302.wav,0,poule,1165,24,5,4,english,m,0,0.0,8.4067376,0.06791418
65b3be7e048c91426e271ded,131,2,2024-02-27T13:22:32.077Z,french_302.wav,0,poule,1165,24,5,4,english,m,1,0.1,-29.32780789,1.46578571
65b3be7e048c91426e271ded,131,2,2024-02-27T13:22:32.077Z,french_302.wav,0,poule,1165,24,5,4,english,m,2,0.2,-43.35590711,1.81098556
65b3be7e048c91426e271ded,131,2,2024-02-27T13:22:32.077Z,french_302.wav,0,poule,1165,24,5,4,english,m,3,0.25666667,-44.50549756,1.40235265
65b3be7e048c91426e271ded,132,2,2024-02-27T13:22:32.077Z,french_151.wav,0,poule,432,24,5,4,english,m,0,0.0,71.76568175,1.0902049
65b3be7e048c91426e271ded,132,2,2024-02-27T13:22:32.077Z,french_151.wav,0,poule,432,24,5,4,english,m,1,0.1,-74.84502799,0.763019
65b3be7e048c91426e271ded,132,2,2024-02-27T13:22:32.077Z,french_151.wav,0,poule,432,24,5,4,english,m,2,0.2,-35.2682716,0.78938414
65b3be7e048c91426e271ded,132,2,2024-02-27T13:22:32.077Z,french_151.wav,0,poule,432,24,5,4,english,m,3,0.25666667,-20.9501034,0.23047004
65b3be7e048c91426e271ded,133,2,2024-02-27T13:22:32.077Z,french_669.wav,0,poule,382,24,5,4,english,m,0,0.0,0.0785638242,1.32851713
65b3be7e048c91426e271ded,133,2,2024-02-27T13:22:32.077Z,french_669.wav,0,poule,382,24,5,4,english,m,1,0.1,6.42084207,1.65603836
65b3be7e048c91426e271ded,133,2,2024-02-27T13:22:32.077Z,french_669.wav,0,poule,382,24,5,4,english,m,2,0.2,84.3922519,1.32676382
65b3be7e048c91426e271ded,133,2,2024-02-27T13:22:32.077Z,french_669.wav,0,poule,382,24,5,4,english,m,3,0.256666667,1.87399725,0.80161972
65b3be7e048c91426e271ded,134,2,2024-02-27T13:22:32.077Z,french_320.wav,0,pull,331,24,5,4,english,m,0,0.0,-12.08882056,1.76987467
65b3be7e048c91426e271ded,134,2,2024-02-27T13:22:32.077Z,french_320.wav,0,pull,331,24,5,4,english,m,1,0.1,-69.15560276,1.70079501
65b3be7e048c91426e271ded,134,2,2024-02-27T13:22:32.077Z,french_320.wav,0,pull,331,24,5,4,english,m,2,0.2,33.30000548,0.4524157
65b3be7e048c91426e271ded,134,2,2024-02-27T13:22:32.077Z,french_320.wav,0,pull,331,24,5,4,english,m,3,0.25666667,-65.44816773,0.78128465
65b3be7e048c91426e271ded,135,2,2024-02-27T13:22:32.077Z,french_20.wav,0,pull,264,24,5,4,english,m,0,0.0,-78.24291845,1.07200279
65b3be7e048c91426e271ded,135,2,2024-02-27T13:22:32.077Z,french_20.wav,0,pull,264,24,5,4,english,m,1,0.1,-38.50442353,1.52694999
65b3be7e048c91426e271ded,135,2,2024-02-27T13:22:32.077Z,french_20.wav,0,pull,264,24,5,4,english,m,2,0.2,8.39731749,0.86133356
65b3be7e048c91426e271ded,135,2,2024-02-27T13:22:32.077Z,french_20.wav,0,pull,264,24,5,4,english,m,3,0.25666667,-43.87764948,0.74788424
65b3be7e048c91426e271ded,136,2,2024-02-27T13:22:32.077Z,french_217.wav,0,poule,336,24,5,4,english,m,0,0.0,-8.63904718,0.91131932
65b3be7e048c91426e271ded,136,2,2024-02-27T13:22:32.077Z,french_217.wav,0,poule,336,24,5,4,english,m,1,0.1,71.12460489,1.66035555
65b3be7e048c91426e271ded,136,2,2024-02-27T13:22:32.077Z,french_217.wav,0,poule,336,24,5,4,english,m,2,0.2,81.48384407,0.95248702
65b3be7e048c91426e271ded,136,2,2024-02-27T13:22:32.077Z,french_217.wav,0,poule,336,24,5,4,english,m,3,0.25666667,64.01477431,0.54451157
65b3be7e048c91426e271ded,137,2,2024-02-27T13:22:32.077Z,french_362.wav,0,poule,300,24,5,4,english,m,0,0.0,-5.18125688,1.66521149
65b3be7e048c91426e271ded,137,2,2024-02-27T13:22:32.077Z,french_362.wav,0,poule,300,24,5,4,english,m,1,0.1,-33.24228679,1.63330091
65b3be7e048c91426e271ded,137,2,2024-02-27T13:22:32.077Z,french_362.wav,0,poule,300,24,5,4,english,m,2,0.2,13.99395474,0.18995652
65b3be7e048c91426e271ded,137,2,2024-02-27T13:22:32.077Z,french_362.wav,0,poule,300,24,5,4,english,m,3,0.25666667,-44.70505318,0.66219279
65b3be7e048c91426e271ded,138,2,2024-02-27T13:22:32.077Z,french_310.wav,0,poule,268,24,5,4,english,m,0,0.0,-83.78338178,0.11877442
65b3be7e048c91426e271ded,138,2,2024-02-27T13:22:32.077Z,french_310.wav,0,poule,268,24,5,4,english,m,1,0.1,-13.73891655,1.32851017
65b3be7e048c91426e271ded,138,2,2024-02-27T13:22:32.077Z,french_310.wav,0,poule,268,24,5,4,english,m,2,0.2,58.07821313,0.76082745
65b3be7e048c91426e271ded,138,2,2024-02-27T13:22:32.077Z,french_310.wav,0,poule,268,24,5,4,english,m,3,0.25666667,26.26954934,1.37378881
65b3be7e048c91426e271ded,139,2,2024-02-27T13:22:32.077Z,french_421.wav,0,pull,611,24,5,4,english,m,0,0.0,97.07315942,0.55056447
65b3be7e048c91426e271ded,139,2,2024-02-27T13:22:32.077Z,french_421.wav,0,pull,611,24,5,4,english,m,1,0.1,-83.39673754,1.15764891
65b3be7e048c91426e271ded,139,2,2024-02-27T13:22:32.077Z,french_421.wav,0,pull,611,24,5,4,english,m,2,0.2,82.21564407,0.98396665
65b3be7e048c91426e271ded,139,2,2024-02-27T13:22:32.077Z,french_421.wav,0,pull,611,24,5,4,english,m,3,0.25666667,-4.22049535,0.77781273
65b3be7e048c91426e271ded,140,2,2024-02-27T13:22:32.077Z,french_210.wav,0,pull,505,24,5,4,english,m,0,0.0,68.99377403,1.59687847
65b3be7e048c91426e271ded,140,2,2024-02-27T13:22:32.077Z,french_210.wav,0,pull,505,24,5,4,english,m,1,0.1,17.92188754,0.67113491
65b3be7e048c91426e271ded,140,2,2024-02-27T13:22:32.077Z,french_210.wav,0,pull,505,24,5,4,english,m,2,0.2,87.00714336,1.30631186
65b3be7e048c91426e271ded,140,2,2024-02-27T13:22:32.077Z,french_210.wav,0,pull,505,24,5,4,english,m,3,0.25666667,69.75485878,0.1897549
65b3be7e048c91426e271ded,141,2,2024-02-27T13:22:32.077Z,french_469.wav,0,pull,452,24,5,4,english,m,0,0.0,66.71351684,0.70736983
65b3be7e048c91426e271ded,141,2,2024-02-27T13:22:32.077Z,french_469.wav,0,pull,452,24,5,4,english,m,1,0.1,-62.03219977,0.37939516
65b3be7e048c91426e271ded,141,2,2024-02-27T13:22:32.077Z,french_469.wav,0,pull,452,24,5,4,english,m,2,0.2,3.50074433,0.65236
65b3be7e048c91426e271ded,141,2,2024-02-27T13:22:32.077Z,french_469.wav,0,pull,452,24,5,4,english,m,3,0.25666667,58.03584826,0.94960182
65b3be7e048c91426e271ded,142,2,2024-02-27T13:22:32.077Z,french_132.wav,0,poule,550,24,5,4,english,m,0,0.0,55.7159221,0.1336911
65b3be7e048c91426e271ded,142,2,2024-02-27T13:22:32.077Z,french_132.wav,0,poule,550,24,5,4,english,m,1,0.1,96.01047895,1.63690434
65b3be7e048c91426e271ded,142,2,2024-02-27T13:22:32.077Z,french_132.wav,0,poule,550,24,5,4,english,m,2,0.2,-30.71931346,0.7825174
65b3be7e048c91426e271ded,142,2,2024-02-27T13:22:32.077Z,french_132.wav,0,poule,550,24,5,4,english,m,3,0.25666667,34.53763016,1.49477333
65b3be7e048c91426e271ded,143,2,2024-02-27T13:22:32.077Z,french_971.wav,0,poule,850,24,5,4,english,m,0,0.0,96.00351489,1.9961872
65b3be7e048c91426e271ded,143,2,2024-02-27T13:22:32.077Z,french_971.wav,0,poule,850,24,5,4,english,m,1,0.1,-55.9328558,0.96234699
65b3be7e048c91426e271ded,143,2,2024-02-27T13:22:32.077Z,french_971.wav,0,poule,850,24,5,4,english,m,2,0.2,-62.43027521,1.29823686
65b3be7e048c91426e271ded,143,2,2024-02-27T13:22:32.077Z,french_971.wav,0,poule,850,24,5,4,english,m,3,0.25666667,67.10785382,1.44437919
65b3be7e048c91426e271ded,144,2,2024-02-27T13:22:32.077Z,french_755.wav,0,poule,284,24,5,4,english,m,0,0.0,-17.09048823,0.26038806
65b3be7e048c91426e271ded,144,2,2024-02-27T13:22:32.077Z,french_755.wav,0,poule,284,24,5,4,english,m,1,0.1,56.35208106,0.92084882
65b3be7e048c91426e271ded,144,2,2024-02-27T13:22:32.077Z,french_755.wav,0,poule,284,24,5,4,english,m,2,0.2,33.77031601,1.14499291
65b3be7e048c91426e271ded,144,2,2024-02-27T13:22:32.077Z,french_755.wav,0,poule,284,24,5,4,english,m,3,0.25666667,73.0579331,1.40582081
65b3be7e048c91426e271ded,145,2,2024-02-27T13:22:32.077Z,french_370.wav,0,poule,362,24,5,4,english,m,0,0.0,-31.30279389,1.88170435
65b3be7e048c91426e271ded,145,2,2024-02-27T13:22:32.077Z,french_370.wav,0,poule,362,24,5,4,english,m,1,0.1,96.47349065,0.75067332
65b3be7e048c91426e271ded,145,2,2024-02-27T13:22:32.077Z,french_370.wav,0,poule,362,24,5,4,english,m,2,0.2,23.18843017,1.06279648
65b3be7e048c91426e271ded,145,2,2024-02-27T13:22:32.077Z,french_370.wav,0,poule,362,24,5,4,english,m,3,0.25666667,81.62933181,0.58974769
65b3be7e048c91426e271ded,146,2,2024-02-27T13:22:32.077Z,french_54.wav,0,pull,526,24,5,4,english,m,0,0.0,77.13223303,0.44302914
65b3be7e048c91426e271ded,146,2,2024-02-27T13:22:32.077Z,french_54.wav,0,pull,526,24,5,4,english,m,1,0.1,-5.6152706,0.26201868
65b3be7e048c91426e271ded,146,2,2024-02-27T13:22:32.077Z,french_54.wav,0,pull,526,24,5,4,english,m,2,0.2,22.05383838,0.27892
65b3be7e048c91426e271ded,146,2,2024-02-27T13:22:32.077Z,french_54.wav,0,pull,526,24,5,4,english,m,3,0.25666667,-9.52451309,0.30908576
65b3be7e048c91426e271ded,147,2,2024-02-27T13:22:32.077Z,french_986.wav,0,pull,596,24,5,4,english,m,0,0.0,-69.96795985,1.93285955
65b3be7e048c91426e271ded,147,2,2024-02-27T13:22:32.077Z,french_986.wav,0,pull,596,24,5,4,english,m,1,0.1,-65.30377544,1.55838575
65b3be7e048c91426e271ded,147,2,2024-02-27T13:22:32.077Z,french_986.wav,0,pull,596,24,5,4,english,m,2,0.2,27.38987225,0.12645153
65b3be7e048c91426e271ded,147,2,2024-02-27T13:22:32.077Z,french_986.wav,0,pull,596,24,5,4,english,m,3,0.25666667,-55.80740264,0.78072242
65b3be7e048c91426e271ded,148,2,2024-02-27T13:22:32.077Z,french_183.wav,0,poule,471,24,5,4,english,m,0,0.0,-70.39448934,1.64690622
65b3be7e048c91426e271ded,148,2,2024-02-27T13:22:32.077Z,french_183.wav,0,poule,471,24,5,4,english,m,1,0.1,53.65669982,0.19500459
65b3be7e048c91426e271ded,148,2,2024-02-27T13:22:32.077Z,french_183.wav,0,poule,471,24,5,4,english,m,2,0.2,-2.56135136,1.70333754
65b3be7e048c91426e271ded,148,2,2024-02-27T13:22:32.077Z,french_183.wav,0,poule,471,24,5,4,english,m,3,0.25666667,49.12124255,0.71175446
65b3be7e048c91426e271ded,149,2,2024-02-27T13:22:32.077Z,french_534.wav,0,poule,276,24,5,4,english,m,0,0.0,96.41776506,0.28463844
65b3be7e048c91426e271ded,149,2,2024-02-27T13:22:32.077Z,french_534.wav,0,poule,276,24,5,4,english,m,1,0.1,-53.52749338,1.69872517
65b3be7e048c91426e271ded,149,2,2024-02-27T13:22:32.077Z,french_534.wav,0,poule,276,24,5,4,english,m,2,0.2,51.10087415,0.80798533
65b3be7e048c91426e271ded,149,2,2024-02-27T13:22:32.077Z,french_534.wav,0,poule,276,24,5,4,english,m,3,0.25666667,27.39654188,1.79838566
65b3be7e048c91426e271ded,150,3,2024-02-27T13:22:32.077Z,french_428.wav,0,pull,958,24,5,4,english,m,0,0.0,32.54087273,1.95600578
65b3be7e048c91426e271ded,150,3,2024-02-27T13:22:32.077Z,french_428.wav,0,pull,958,24,5,4,english,m,1,0.1,-45.07567034,1.3753822
65b3be7e048c91426e271ded,150,3,2024-02-27T13:22:32.077Z,french_428.wav,0,pull,958,24,5,4,english,m,2,0.2,23.18683175,0.5862849
65b3be7e048c91426e271ded,150,3,2024-02-27T13:22:32.077Z,french_428.wav,0,pull,958,24,5,4,english,m,3,0.25666667,-58.08389968,0.11110367
65b3be7e048c91426e271ded,151,3,2024-02-27T13:22:32.077Z,french_261.wav,0,pull,595,24,5,4,english,m,0,0.0,-67.20699789,0.47660487
65b3be7e048c91426e271ded,151,3,2024-02-27T13:22:32.077Z,french_261.wav,0,pull,595,24,5,4,english,m,1,0.1,49.58913881,0.48219997
65b3be7e048c91426e271ded,151,3,2024-02-27T13:22:32.077Z,french_261.wav,0,pull,595,24,5,4,english,m,2,0.2,-41.06882289,1.35396927
65b3be7e048c91426e271ded,151,3,2024-02-27T13:22:32.077Z,french_261.wav,0,pull,595,24,5,4,english,m,3,0.25666667,25.85265167,1.38442255
65b3be7e048c91426e271ded,152,3,2024-02-27T13:22:32.077Z,french_126.wav,0,poule,392,24,5,4,english,m,0,0.0,92.90369484,0.56379558
65b3be7e048c91426e271ded,152,3,2024-02-27T13:22:32.077Z,french_126.wav,0,poule,392,24,5,4,english,m,1,0.1,25.09820179,1.73295328
65b3be7e048c91426e271ded,152,3,2024-02-27T13:22:32.077Z,french_126.wav,0,poule,392,24,5,4,english,m,2,0.2,92.10026461,0.28067586
65b3be7e048c91426e271ded,152,3,2024-02-27T13:22:32.077Z,french_126.wav,0,poule,392,24,5,4,english,m,3,0.25666667,-27.205087,0.82028398
65b3be7e048c91426e271ded,153,3,2024-02-27T13:22:32.077Z,french_41.wav,0,poule,272,24,5,4,english,m,0,0.0,-11.6612147,0.49328208
65b3be7e048c91426e271ded,153,3,2024-02-27T13:22:32.077Z,french_41.wav,0,poule,272,24,5,4,english,m,1,0.1,96.56624365,1.84762861
65b3be7e048c91426e271ded,153,3,2024-02-27T13:22:32.077Z,french_41.wav,0,poule,272,24,5,4,english,m,2,0.2,69.39294216,1.1434724
65b3be7e048c91426e271ded,153,3,2024-02-27T13:22:32.077Z,french_41.wav,0,poule,272,24,5,4,english,m,3,0.25666667,-30.30775932,1.13333186
65b3be7e048c91426e271ded,154,3,2024-02-27T13:22:32.077Z,french_341.wav,0,pull,587,24,5,4,english,m,0,0.0,20.04332725,1.4438644
65b3be7e048c91426e271ded,154,3,2024-02-27T13:22:32.077Z,french_341.wav,0,pull,587,24,5,4,english,m,1,0.1,-82.29685822,0.08336385
65b3be7e048c91426e271ded,154,3,2024-02-27T13:22:32.077Z,french_341.wav,0,pull,587,24,5,4,english,m,2,0.2,-35.12302466,0.04329086
65b3be7e048c91426e271ded,154,3,2024-02-27T13:22:32.077Z,french_341.wav,0,pull,587,24,5,4,english,m,3,0.25666667,58.90486556,0.76896482
65b3be7e048c91426e271ded,155,3,2024-02-27T13:22:32.077Z,french_732.wav,0,pull,524,24,5,4,english,m,0,0.0,-82.9393053,0.90840431
65b3be7e048c91426e271ded,155,3,2024-02-27T13:22:32.077Z,french_732.wav,0,pull,524,24,5,4,english,m,1,0.1,-79.22735873,0.47468339
65b3be7e048c91426e271ded,155,3,2024-02-27T13:22:32.077Z,french_732.wav,0,pull,524,24,5,4,english,m,2,0.2,-67.09796721,1.61768905
65b3be7e048c91426e271ded,155,3,2024-02-27T13:22:32.077Z,french_732.wav,0,pull,524,24,5,4,english,m,3,0.25666667,35.15971491,1.44596926
65b3be7e048c91426e271ded,156,3,2024-02-27T13:22:32.077Z,french_179.wav,0,pull,617,24,5,4,english,m,0,0.0,-38.66887761,0.36967864
65b3be7e048c91426e271ded,156,3,2024-02-27T13:22:32.077Z,french_179.wav,0,pull,617,24,5,4,english,m,1,0.1,-45.74367449,1.41588785
65b3be7e048c91426e271ded,156,3,2024-02-27T13:22:32.077Z,french_179.wav,0,pull,617,24,5,4,english,m,2,0.2,41.91599006,1.38004937
65b3be7e048c91426e271ded,156,3,2024-02-27T13:22:32.077Z,french_179.wav,0,pull,617,24,5,4,english,m,3,0.25666667,36.18860402,1.10239155
65b3be7e048c91426e271ded,157,3,2024-02-27T13:22:32.077Z,french_773.wav,0,poule,995,24,5,4,english,m,0,0.0,44.49367894,1.02864329
65b3be7e048c91426e271ded,157,3,2024-02-27T13:22:32.077Z,french_773.wav,0,poule,995,24,5,4,english,m,1,0.1,-3.70834598,1.31333622
65b3be7e048c91426e271ded,157,3,2024-02-27T13:22:32.077Z,french_773.wav,0,poule,995,24,5,4,english,m,2,0.2,10.6701804,0.86217131
65b3be7e048c91426e271ded,157,3,2024-02-27T13:22:32.077Z,french_773.wav,0,poule,995,24,5,4,english,m,3,0.25666667,36.58697532,0.61318027
65b3be7e048c91426e271ded,158,3,2024-02-27T13:22:32.077Z,french_355.wav,0,pull,581,24,5,4,english,m,0,0.0,-92.75119925,0.18544254
65b3be7e048c91426e271ded,158,3,2024-02-27T13:22:32.077Z,french_355.wav,0,pull,581,24,5,4,english,m,1,0.1,77.20775246,0.07031399
65b3be7e048c91426e271ded,158,3,2024-02-27T13:22:32.077Z,french_355.wav,0,pull,581,24,5,4,english,m,2,0.2,-51.05688592,0.46666342
65b3be7e048c91426e271ded,158,3,2024-02-27T13:22:32.077Z,french_355.wav,0,pull,581,24,5,4,english,m,3,0.25666667,27.03743598,1.78468618
65b3be7e048c91426e271ded,159,3,2024-02-27T13:22:32.077Z,french_364.wav,0,poule,271,24,5,4,english,m,0,0.0,-32.92421433,1.35253812
65b3be7e048c91426e271ded,159,3,2024-02-27T13:22:32.077Z,french_364.wav,0,poule,271,24,5,4,english,m,1,0.1,-56.96078069,1.83722727
65b3be7e048c91426e271ded,159,3,2024-02-27T13:22:32.077Z,french_364.wav,0,poule,271,24,5,4,english,m,2,0.2,44.72635853,1.43933089
65b3be7e048c91426e271ded,159,3,2024-02-27T13:22:32.077Z,french_364.wav,0,poule,271,24,5,4,english,m,3,0.25666667,23.55157996,1.1354083
65b3be7e048c91426e271ded,160,3,2024-02-27T13:22:32.077Z,french_761.wav,0,poule,452,24,5,4,english,m,0,0.0,-26.32638144,1.05429599
65b3be7e048c91426e271ded,160,3,2024-02-27T13:22:32.077Z,french_761.wav,0,poule,452,24,5,4,english,m,1,0.1,78.13411122,0.90631559
65b3be7e048c91426e271ded,160,3,2024-02-27T13:22:32.077Z,french_761.wav,0,poule,452,24,5,4,english,m,2,0.2,-6.36477673,1.36732306
65b3be7e048c91426e271ded,160,3,2024-02-27T13:22:32.077Z,french_761.wav,0,poule,452,24,5,4,english,m,3,0.25666667,-77.19672863,0.83755281
65b3be7e048c91426e271ded,161,3,2024-02-27T13:22:32.077Z,french_499.wav,0,poule,508,24,5,4,english,m,0,0.0,24.28229917,0.76159538
65b3be7e048c91426e271ded,161,3,2024-02-27T13:22:32.077Z,french_499.wav,0,poule,508,24,5,4,english,m,1,0.1,-90.85236303,0.50536641
65b3be7e048c91426e271ded,161,3,2024-02-27T13:22:32.077Z,french_499.wav,0,poule,508,24,5,4,english,m,2,0.2,-60.29957953,0.99158085
65b3be7e048c91426e271ded,161,3,2024-02-27T13:22:32.077Z,french_499.wav,0,poule,508,24,5,4,english,m,3,0.25666667,91.79807534,1.05465089
65b3be7e048c91426e271ded,162,3,2024-02-27T13:22:32.077Z,french_962.wav,0,poule,467,24,5,4,english,m,0,0.0,-23.88621243,0.58686494
65b3be7e048c91426e271ded,162,3,2024-02-27T13:22:32.077Z,french_962.wav,0,poule,467,24,5,4,english,m,1,0.1,-2.32674089,1.96763724
65b3be7e048c91426e271ded,162,3,2024-02-27T13:22:32.077Z,french_962.wav,0,poule,467,24,5,4,english,m,2,0.2,99.5739753,0.1339284
65b3be7e048c91426e271ded,162,3,2024-02-27T13:22:32.077Z,french_962.wav,0,poule,467,24,5,4,english,m,3,0.25666667,-60.89946795,0.14371278
65b3be7e048c91426e271ded,163,3,2024-02-27T13:22:32.077Z,french_348.wav,0,poule,349,24,5,4,english,m,0,0.0,68.47734878,1.61227716
65b3be7e048c91426e271ded,163,3,2024-02-27T13:22:32.077Z,french_348.wav,0,poule,349,24,5,4,english,m,1,0.1,54.05190865,0.93770463
65b3be7e048c91426e271ded,163,3,2024-02-27T13:22:32.077Z,french_348.wav,0,poule,349,24,5,4,english,m,2,0.2,0.19125453,1.53689085
65b3be7e048c91426e271ded,163,3,2024-02-27T13:22:32.077Z,french_348.wav,0,poule,349,24,5,4,english,m,3,0.25666667,-34.65909089,1.17337711
65b3be7e048c91426e271ded,164,3,2024-02-27T13:22:32.077Z,french_508.wav,0,pull,535,24,5,4,english,m,0,0.0,40.98112686,1.35724839
65b3be7e048c91426e271ded,164,3,2024-02-27T13:22:32.077Z,french_508.wav,0,pull,535,24,5,4,english,m,1,0.1,-56.96831063,1.54051685
65b3be7e048c91426e271ded,164,3,2024-02-27T13:22:32.077Z,french_508.wav,0,pull,535,24,5,4,english,m,2,0.2,-35.39284842,1.20443674
65b3be7e048c91426e271ded,164,3,2024-02-27T13:22:32.077Z,french_508.wav,0,pull,535,24,5,4,english,m,3,0.25666667,-19.97238517,1.82942033
65b3be7e048c91426e271ded,165,3,2024-02-27T13:22:32.077Z,french_977.wav,0,pull,274,24,5,4,english,m,0,0.0,-23.34946859,1.58788712
65b3be7e048c91426e271ded,165,3,2024-02-27T13:22:32.077Z,french_977.wav,0,pull,274,24,5,4,english,m,1,0.1,-74.17160997,0.25032328
65b3be7e048c91426e271ded,165,3,2024-02-27T13:22:32.077Z,french_977.wav,0,pull,274,24,5,4,english,m,2,0.2,31.43852713,0.90752219
65b3be7e048c91426e271ded,165,3,2024-02-27T13:22:32.077Z,french_977.wav,0,pull,274,24,5,4,english,m,3,0.25666667,-10.29160018,1.52460946
65b3be7e048c91426e271ded,166,3,2024-02-27T13:22:32.077Z,french_8.wav,0,poule,508,24,5,4,english,m,0,0.0,75.36204911,1.20802323
65b3be7e048c91426e271ded,166,3,2024-02-27T13:22:32.077Z,french_8.wav,0,poule,508,24,5,4,english,m,1,0.1,99.77980072,1.04694521
65b3be7e048c91426e271ded,166,3,2024-02-27T13:22:32.077Z,french_8.wav,0,poule,508,24,5,4,english,m,2,0.2,31.87407215,1.95307637
65b3be7e048c91426e271ded,166,3,2024-02-27T13:22:32.077Z,french_8.wav,0,poule,508,24,5,4,english,m,3,0.25666667,-3.14162979,0.34441347
65b3be7e048c91426e271ded,167,3,2024-02-27T13:22:32.077Z,french_714.wav,0,poule,8497,24,5,4,english,m,0,0.0,77.35355583,0.35690042
65b3be7e048c91426e271ded,167,3,2024-02-27T13:22:32.077Z,french_714.wav,0,poule,8497,24,5,4,english,m,1,0.1,-16.5812175,0.7400083
65b3be7e048c91426e271ded,167,3,2024-02-27T13:22:32.077Z,french_714.wav,0,poule,8497,24,5,4,english,m,2,0.2,-79.42314022,1.17849399
65b3be7e048c91426e271ded,167,3,2024-02-27T13:22:32.077Z,french_714.wav,0,poule,8497,24,5,4,english,m,3,0.25666667,64.71981705,1.38365213
65b3be7e048c91426e271ded,168,3,2024-02-27T13:22:32.077Z,french_175.wav,0,pull,697,24,5,4,english,m,0,0.0,-66.64800697,0.89831181
65b3be7e048c91426e271ded,168,3,2024-02-27T13:22:32.077Z,french_175.wav,0,pull,697,24,5,4,english,m,1,0.1,55.8136762,1.16054297
65b3be7e048c91426e271ded,168,3,2024-02-27T13:22:32.077Z,french_175.wav,0,pull,697,24,5,4,english,m,2,0.2,13.86880033,0.04267506
65b3be7e048c91426e271ded,168,3,2024-02-27T13:22:32.077Z,french_175.wav,0,pull,697,24,5,4,english,m,3,0.25666667,79.77573594,1.48091244
65b3be7e048c91426e271ded,169,3,2024-02-27T13:22:32.077Z,french_42.wav,0,pull,392,24,5,4,english,m,0,0.0,-62.21237173,0.70589884
65b3be7e048c91426e271ded,169,3,2024-02-27T13:22:32.077Z,french_42.wav,0,pull,392,24,5,4,english,m,1,0.1,-98.4992591,0.40467669
65b3be7e048c91426e271ded,169,3,2024-02-27T13:22:32.077Z,french_42.wav,0,pull,392,24,5,4,english,m,2,0.2,97.73183718,0.72488221
65b3be7e048c91426e271ded,169,3,2024-02-27T13:22:32.077Z,french_42.wav,0,pull,392,24,5,4,english,m,3,0.25666667,-56.73891221,0.44273829
65b3be7e048c91426e271ded,170,3,2024-02-27T13:22:32.077Z,french_947.wav,0,poule,659,24,5,4,english,m,0,0.0,-44.48466948,0.06372519
65b3be7e048c91426e271ded,170,3,2024-02-27T13:22:32.077Z,french_947.wav,0,poule,659,24,5,4,english,m,1,0.1,21.49635037,0.1513717
65b3be7e048c91426e271ded,170,3,2024-02-27T13:22:32.077Z,french_947.wav,0,poule,659,24,5,4,english,m,2,0.2,52.91188767,1.07040488
65b3be7e048c91426e271ded,170,3,2024-02-27T13:22:32.077Z,french_947.wav,0,poule,659,24,5,4,english,m,3,0.25666667,23.38430508,1.60411559
65b3be7e048c91426e271ded,171,3,2024-02-27T13:22:32.077Z,french_237.wav,0,poule,644,24,5,4,english,m,0,0.0,-1.09426196,0.40664609
65b3be7e048c91426e271ded,171,3,2024-02-27T13:22:32.077Z,french_237.wav,0,poule,644,24,5,4,english,m,1,0.1,-48.49856075,0.23529618
65b3be7e048c91426e271ded,171,3,2024-02-27T13:22:32.077Z,french_237.wav,0,poule,644,24,5,4,english,m,2,0.2,36.42993093,0.05363011
65b3be7e048c91426e271ded,171,3,2024-02-27T13:22:32.077Z,french_237.wav,0,poule,644,24,5,4,english,m,3,0.25666667,-47.65767162,1.34950367
65b3be7e048c91426e271ded,172,3,2024-02-27T13:22:32.077Z,french_404.wav,0,poule,365,24,5,4,english,m,0,0.0,-69.94435752,1.52233517
65b3be7e048c91426e271ded,172,3,2024-02-27T13:22:32.077Z,french_404.wav,0,poule,365,24,5,4,english,m,1,0.1,-71.78209065,0.64310095
65b3be7e048c91426e271ded,172,3,2024-02-27T13:22:32.077Z,french_404.wav,0,poule,365,24,5,4,english,m,2,0.2,1.54660235,1.70982079
65b3be7e048c91426e271ded,172,3,2024-02-27T13:22:32.077Z,french_404.wav,0,poule,365,24,5,4,english,m,3,0.25666667,-64.99062427,0.43662649
65b3be7e048c91426e271ded,173,3,2024-02-27T13:22:32.077Z,french_144.wav,0,poule,1086,24,5,4,english,m,0,0.0,54.7439873,1.65699933
65b3be7e048c91426e271ded,173,3,2024-02-27T13:22:32.077Z,french_144.wav,0,poule,1086,24,5,4,english,m,1,0.1,-90.40840953,0.10946834
65b3be7e048c91426e271ded,173,3,2024-02-27T13:22:32.077Z,french_144.wav,0,poule,1086,24,5,4,english,m,2,0.2,-23.8496949,0.63660565
65b3be7e048c91426e271ded,173,3,2024-02-27T13:22:32.077Z,french_144.wav,0,poule,1086,24,5,4,english,m,3,0.25666667,9.69074846,0.31092992
65b3be7e048c91426e271ded,174,3,2024-02-27T13:22:32.077Z,french_905.wav,0,poule,377,24,5,4,english,m,0,0.0,87.86620346,1.28585996
65b3be7e048c91426e271ded,174,3,2024-02-27T13:22:32.077Z,french_905.wav,0,poule,377,24,5,4,english,m,1,0.1,17.88859649,0.57714405
65b3be7e048c91426e271ded,174,3,2024-02-27T13:22:32.077Z,french_905.wav,0,poule,377,24,5,4,english,m,2,0.2,51.58456374,0.3219524
65b3be7e048c91426e271ded,174,3,2024-02-27T13:22:32.077Z,french_905.wav,0,poule,377,24,5,4,english,m,3,0.25666667,-98.76806622,1.69480445
65b3be7e048c91426e271ded,175,3,2024-02-27T13:22:32.077Z,french_678.wav,0,poule,837,24,5,4,english,m,0,0.0,8.99494286,0.31277465
65b3be7e048c91426e271ded,175,3,2024-02-27T13:22:32.077Z,french_678.wav,0,poule,837,24,5,4,english,m,1,0.1,56.3447022,0.04822955
65b3be7e048c91426e271ded,175,3,2024-02-27T13:22:32.077Z,french_678.wav,0,poule,837,24,5,4,english,m,2,0.2,-85.36803825,0.03738606
65b3be7e048c91426e271ded,175,3,2024-02-27T13:22:32.077Z,french_678.wav,0,poule,837,24,5,4,english,m,3,0.25666667,-65.39277698,1.60364947
65b3be7e048c91426e271ded,176,3,2024-02-27T13:22:32.077Z,french_847.wav,0,pull,348,24,5,4,english,m,0,0.0,-8.33122073,1.64160395
65b3be7e048c91426e271ded,176,3,2024-02-27T13:22:32.077Z,french_847.wav,0,pull,348,24,5,4,english,m,1,0.1,28.51239659,0.11991739
65b3be7e048c91426e271ded,176,3,2024-02-27T13:22:32.077Z,french_847.wav,0,pull,348,24,5,4,english,m,2,0.2,-26.33136573,1.12824789
65b3be7e048c91426e271ded,176,3,2024-02-27T13:22:32.077Z,french_847.wav,0,pull,348,24,5,4,english,m,3,0.25666667,21.45038454,0.68287375
65b3be7e048c91426e271ded,177,3,2024-02-27T13:22:32.077Z,french_908.wav,0,pull,274,24,5,4,english,m,0,0.0,-17.448813,1.41004623
65b3be7e048c91426e271ded,177,3,2024-02-27T13:22:32.077Z,french_908.wav,0,pull,274,24,5,4,english,m,1,0.1,35.46481843,0.76159164
65b3be7e048c91426e271ded,177,3,2024-02-27T13:22:32.077Z,french_908.wav,0,pull,274,24,5,4,english,m,2,0.2,-20.0899606,1.03892063
65b3be7e048c91426e271ded,177,3,2024-02-27T13:22:32.077Z,french_908.wav,0,pull,274,24,5,4,english,m,3,0.25666667,-29.56589343,1.03966959
65b3be7e048c91426e271ded,178,3,2024-02-27T13:22:32.077Z,french_652.wav,0,pull,294,24,5,4,english,m,0,0.0,19.60271983,1.92708098
65b3be7e048c91426e271ded,178,3,2024-02-27T13:22:32.077Z,french_652.wav,0,pull,294,24,5,4,english,m,1,0.1,-55.33376602,1.28238944
65b3be7e048c91426e271ded,178,3,2024-02-27T13:22:32.077Z,french_652.wav,0,pull,294,24,5,4,english,m,2,0.2,42.10956493,0.03244996
65b3be7e048c91426e271ded,178,3,2024-02-27T13:22:32.077Z,french_652.wav,0,pull,294,24,5,4,english,m,3,0.25666667,-47.80028189,1.59505934
65b3be7e048c91426e271ded,179,3,2024-02-27T13:22:32.077Z,french_602.wav,0,poule,610,24,5,4,english,m,0,0.0,88.5156033,1.15034926
65b3be7e048c91426e271ded,179,3,2024-02-27T13:22:32.077Z,french_602.wav,0,poule,610,24,5,4,english,m,1,0.1,50.37840389,0.70361943
65b3be7e048c91426e271ded,179,3,2024-02-27T13:22:32.077Z,french_602.wav,0,poule,610,24,5,4,english,m,2,0.2,41.99983627,1.85629911
65b3be7e048c91426e271ded,179,3,2024-02-27T13:22:32.077Z,french_602.wav,0,poule,610,24,5,4,english,m,3,0.25666667,11.33520808,0.32194213
65b3be7e048c91426e271ded,180,3,2024-02-27T13:22:32.077Z,french_551.wav,0,poule,908,24,5,4,english,m,0,0.0,-87.08357851,1.2328931
65b3be7e048c91426e271ded,180,3,2024-02-27T13:22:32.077Z,french_551.wav,0,poule,908,24,5,4,english,m,1,0.1,71.56090061,1.28136219
65b3be7e048c91426e271ded,180,3,2024-02-27T13:22:32.077Z,french_551.wav,0,poule,908,24,5,4,english,m,2,0.2,-46.55712742,0.3781059
65b3be7e048c91426e271ded,180,3,2024-02-27T13:22:32.077Z,french_551.wav,0,poule,908,24,5,4,english,m,3,0.25666667,-57.93002391,1.42095582
65b3be7e048c91426e271ded,181,3,2024-02-27T13:22:32.077Z,french_207.wav,0,poule,327,24,5,4,english,m,0,0.0,15.24625839,0.95120839
65b3be7e048c91426e271ded,181,3,2024-02-27T13:22:32.077Z,french_207.wav,0,poule,327,24,5,4,english,m,1,0.1,68.60229744,1.50295804
65b3be7e048c91426e271ded,181,3,2024-02-27T13:22:32.077Z,french_207.wav,0,poule,327,24,5,4,english,m,2,0.2,51.04898438,0.44335537
65b3be7e048c91426e271ded,181,3,2024-02-27T13:22:32.077Z,french_207.wav,0,poule,327,24,5,4,english,m,3,0.25666667,8.99799409,1.65047569
65b3be7e048c91426e271ded,182,3,2024-02-27T13:22:32.077Z,french_525.wav,0,poule,332,24,5,4,english,m,0,0.0,-55.71805546,1.48564319
65b3be7e048c91426e271ded,182,3,2024-02-27T13:22:32.077Z,french_525.wav,0,poule,332,24,5,4,english,m,1,0.1,69.57832018,0.7646222
65b3be7e048c91426e271ded,182,3,2024-02-27T13:22:32.077Z,french_525.wav,0,poule,332,24,5,4,english,m,2,0.2,-61.51619627,1.98360061
65b3be7e048c91426e271ded,182,3,2024-02-27T13:22:32.077Z,french_525.wav,0,poule,332,24,5,4,english,m,3,0.25666667,-40.26288332,1.91122687
65b3be7e048c91426e271ded,183,3,2024-02-27T13:22:32.077Z,french_31.wav,0,poule,470,24,5,4,english,m,0,0.0,-16.52506352,1.57904125
65b3be7e048c91426e271ded,183,3,2024-02-27T13:22:32.077Z,french_31.wav,0,poule,470,24,5,4,english,m,1,0.1,-80.19736258,0.88688051
65b3be7e048c91426e271ded,183,3,2024-02-27T13:22:32.077Z,french_31.wav,0,poule,470,24,5,4,english,m,2,0.2,-47.04996605,0.44579633
65b3be7e048c91426e271ded,183,3,2024-02-27T13:22:32.077Z,french_31.wav,0,poule,470,24,5,4,english,m,3,0.25666667,35.27279848,1.71139476
65b3be7e048c91426e271ded,184,3,2024-02-27T13:22:32.077Z,french_691.wav,0,poule,788,24,5,4,english,m,0,0.0,89.02514599,1.04651451
65b3be7e048c91426e271ded,184,3,2024-02-27T13:22:32.077Z,french_691.wav,0,poule,788,24,5,4,english,m,1,0.1,84.72414094,1.61938954
65b3be7e048c91426e271ded,184,3,2024-02-27T13:22:32.077Z,french_691.wav,0,poule,788,24,5,4,english,m,2,0.2,-3.6265137,1.34588415
65b3be7e048c91426e271ded,184,3,2024-02-27T13:22:32.077Z,french_691.wav,0,poule,788,24,5,4,english,m,3,0.25666667,-99.35319265,1.50620009
65b3be7e048c91426e271ded,185,3,2024-02-27T13:22:32.077Z,french_97.wav,0,pull,669,24,5,4,english,m,0,0.0,-26.25195718,1.78322942
65b3be7e048c91426e271ded,185,3,2024-02-27T13:22:32.077Z,french_97.wav,0,pull,669,24,5,4,english,m,1,0.1,46.36733761,0.61428926
65b3be7e048c91426e271ded,185,3,2024-02-27T13:22:32.077Z,french_97.wav,0,pull,669,24,5,4,english,m,2,0.2,-70.05850246,0.23760427
65b3be7e048c91426e271ded,185,3,2024-02-27T13:22:32.077Z,french_97.wav,0,pull,669,24,5,4,english,m,3,0.25666667,-12.16166803,0.84541126
65b3be7e048c91426e271ded,186,3,2024-02-27T13:22:32.077Z,french_378.wav,0,pull,315,24,5,4,english,m,0,0.0,74.25757507,1.44636003
65b3be7e048c91426e271ded,186,3,2024-02-27T13:22:32.077Z,french_378.wav,0,pull,315,24,5,4,english,m,1,0.1,69.54270197,0.18429149
65b3be7e048c91426e271ded,186,3,2024-02-27T13:22:32.077Z,french_378.wav,0,pull,315,24,5,4,english,m,2,0.2,91.83328043,0.75177649
65b3be7e048c91426e271ded,186,3,2024-02-27T13:22:32.077Z,french_378.wav,0,pull,315,24,5,4,english,m,3,0.25666667,65.12199987,0.49263706
65b3be7e048c91426e271ded,187,3,2024-02-27T13:22:32.077Z,french_357.wav,0,pull,294,24,5,4,english,m,0,0.0,-39.34197693,1.60610182
65b3be7e048c91426e271ded,187,3,2024-02-27T13:22:32.077Z,french_357.wav,0,pull,294,24,5,4,english,m,1,0.1,71.15894406,0.3952593
65b3be7e048c91426e271ded,187,3,2024-02-27T13:22:32.077Z,french_357.wav,0,pull,294,24,5,4,english,m,2,0.2,-59.30154436,0.60654741
65b3be7e048c91426e271ded,187,3,2024-02-27T13:22:32.077Z,french_357.wav,0,pull,294,24,5,4,english,m,3,0.25666667,60.48174113,0.43480054
65b3be7e048c91426e271ded,188,3,2024-02-27T13:22:32.077Z,french_168.wav,0,pull,285,24,5,4,english,m,0,0.0,-23.56976883,0.91307932
65b3be7e048c91426e271ded,188,3,2024-02-27T13:22:32.077Z,french_168.wav,0,pull,285,24,5,4,english,m,1,0.1,67.89102786,0.95001528
65b3be7e048c91426e271ded,188,3,2024-02-27T13:22:32.077Z,french_168.wav,0,pull,285,24,5,4,english,m,2,0.2,12.82073925,0.95057972
65b3be7e048c91426e271ded,188,3,2024-02-27T13:22:32.077Z,french_168.wav,0,pull,285,24,5,4,english,m,3,0.25666667,-47.11825728,1.60486422
65b3be7e048c91426e271ded,189,3,2024-02-27T13:22:32.077Z,french_222.wav,0,pull,578,24,5,4,english,m,0,0.0,-98.35523197,0.13834953
65b3be7e048c91426e271ded,189,3,2024-02-27T13:22:32.077Z,french_222.wav,0,pull,578,24,5,4,english,m,1,0.1,61.03285987,0.55930016
65b3be7e048c91426e271ded,189,3,2024-02-27T13:22:32.077Z,french_222.wav,0,pull,578,24,5,4,english,m,2,0.2,-86.01422932,0.40370114
65b3be7e048c91426e271ded,189,3,2024-02-27T13:22:32.077Z,french_222.wav,0,pull,578,24,5,4,english,m,3,0.25666667,61.26386047,0.21495758
65b3be7e048c91426e271ded,190,3,2024-02-27T13:22:32.077Z,french_14.wav,0,poule,616,24,5,4,english,m,0,0.0,29.04259121,1.27596418
65b3be7e048c91426e271ded,190,3,2024-02-27T13:22:32.077Z,french_14.wav,0,poule,616,24,5,4,english,m,1,0.1,-13.93862831,1.81664743
65b3be7e048c91426e271ded,190,3,2024-02-27T13:22:32.077Z,french_14.wav,0,poule,616,24,5,4,english,m,2,0.2,-3.57455278,1.61822265
65b3be7e048c91426e271ded,190,3,2024-02-27T13:22:32.077Z,french_14.wav,0,poule,616,24,5,4,english,m,3,0.25666667,14.81088412,1.58848758
65b3be7e048c91426e271ded,191,3,2024-02-27T13:22:32.077Z,french_330.wav,0,poule,302,24,5,4,english,m,0,0.0,-46.98301203,1.92315583
65b3be7e048c91426e271ded,191,3,2024-02-27T13:22:32.077Z,french_330.wav,0,poule,302,24,5,4,english,m,1,0.1,55.18277966,0.64158591
65b3be7e048c91426e271ded,191,3,2024-02-27T13:22:32.077Z,french_330.wav,0,poule,302,24,5,4,english,m,2,0.2,68.01781419,0.71457858
65b3be7e048c91426e271ded,191,3,2024-02-27T13:22:32.077Z,french_330.wav,0,poule,302,24,5,4,english,m,3,0.25666667,-65.13341665,0.26661962
