subj,trial,block,date,stim,stim_order,response,rt,age,english,french,language,sex,param_index,segment,pitch,stretch
60752e7ef1c74a9a2b30f485,0,0,2024-02-27T15:26:44.199Z,french_413.wav,0,poule,4018,32,5,5,english,m,0,0.0,-15.90568805,0.35618922
60752e7ef1c74a9a2b30f485,0,0,2024-02-27T15:26:44.199Z,french_413.wav,0,poule,4018,32,5,5,english,m,1,0.1,76.04965913,1.72047272
60752e7ef1c74a9a2b30f485,0,0,2024-02-27T15:26:44.199Z,french_413.wav,0,poule,4018,32,5,5,english,m,2,0.2,55.08996682,1.40872317
60752e7ef1c74a9a2b30f485,0,0,2024-02-27T15:26:44.199Z,french_413.wav,0,poule,4018,32,5,5,english,m,3,0.25666667,17.39731584,1.8089724
60752e7ef1c74a9a2b30f485,1,0,2024-02-27T15:26:44.199Z,french_504.wav,0,pull,1166,32,5,5,english,m,0,0.0,-0.09953376,1.58426169
60752e7ef1c74a9a2b30f485,1,0,2024-02-27T15:26:44.199Z,french_504.wav,0,pull,1166,32,5,5,english,m,1,0.1,-56.24331475,0.92396286
60752e7ef1c74a9a2b30f485,1,0,2024-02-27T15:26:44.199Z,french_504.wav,0,pull,1166,32,5,5,english,m,2,0.2,-79.12350098,0.70640993
60752e7ef1c74a9a2b30f485,1,0,2024-02-27T15:26:44.199Z,french_504.wav,0,pull,1166,32,5,5,english,m,3,0.25666667,64.25656878,0.80299587
60752e7ef1c74a9a2b30f485,2,0,2024-02-27T15:26:44.199Z,french_479.wav,0,poule,1583,32,5,5,english,m,0,0.0,-77.56228832,0.23971003
60752e7ef1c74a9a2b30f485,2,0,2024-02-27T15:26:44.199Z,french_479.wav,0,poule,1583,32,5,5,english,m,1,0.1,-51.14246902,1.41057828
60752e7ef1c74a9a2b30f485,2,0,2024-02-27T15:26:44.199Z,french_479.wav,0,poule,1583,32,5,5,english,m,2,0.2,54.51803315,0.5803481
60752e7ef1c74a9a2b30f485,2,0,2024-02-27T15:26:44.199Z,french_479.wav,0,poule,1583,32,5,5,english,m,3,0.25666667,-8.31356421,0.39274068
60752e7ef1c74a9a2b30f485,3,0,2024-02-27T15:26:44.199Z,french_370.wav,0,poule,1235,32,5,5,english,m,0,0.0,-31.30279389,1.88170435
60752e7ef1c74a9a2b30f485,3,0,2024-02-27T15:26:44.199Z,french_370.wav,0,poule,1235,32,5,5,english,m,1,0.1,96.47349065,0.75067332
60752e7ef1c74a9a2b30f485,3,0,2024-02-27T15:26:44.199Z,french_370.wav,0,poule,1235,32,5,5,english,m,2,0.2,23.18843017,1.06279648
60752e7ef1c74a9a2b30f485,3,0,2024-02-27T15:26:44.199Z,french_370.wav,0,poule,1235,32,5,5,english,m,3,0.25666667,81.62933181,0.58974769
60752e7ef1c74a9a2b30f485,4,0,2024-02-27T15:26:44.199Z,french_321.wav,0,poule,467,32,5,5,english,m,0,0.0,-11.01764706,1.39443046
60752e7ef1c74a9a2b30f485,4,0,2024-02-27T15:26:44.199Z,french_321.wav,0,poule,467,32,5,5,english,m,1,0.1,9.90480799,1.51913173
60752e7ef1c74a9a2b30f485,4,0,2024-02-27T15:26:44.199Z,french_321.wav,0,poule,467,32,5,5,english,m,2,0.2,44.10153768,0.74961169
60752e7ef1c74a9a2b30f485,4,0,2024-02-27T15:26:44.199Z,french_321.wav,0,poule,467,32,5,5,english,m,3,0.25666667,10.91862898,1.74221707
60752e7ef1c74a9a2b30f485,5,0,2024-02-27T15:26:44.199Z,french_312.wav,0,poule,541,32,5,5,english,m,0,0.0,-19.98952993,1.92157149
60752e7ef1c74a9a2b30f485,5,0,2024-02-27T15:26:44.199Z,french_312.wav,0,poule,541,32,5,5,english,m,1,0.1,50.70617954,0.53263035
60752e7ef1c74a9a2b30f485,5,0,2024-02-27T15:26:44.199Z,french_312.wav,0,poule,541,32,5,5,english,m,2,0.2,80.27383631,1.8452111
60752e7ef1c74a9a2b30f485,5,0,2024-02-27T15:26:44.199Z,french_312.wav,0,poule,541,32,5,5,english,m,3,0.25666667,31.55502425,1.73122835
60752e7ef1c74a9a2b30f485,6,0,2024-02-27T15:26:44.199Z,french_82.wav,0,poule,287,32,5,5,english,m,0,0.0,82.26293442,0.95636636
60752e7ef1c74a9a2b30f485,6,0,2024-02-27T15:26:44.199Z,french_82.wav,0,poule,287,32,5,5,english,m,1,0.1,-13.98955844,0.8765529
60752e7ef1c74a9a2b30f485,6,0,2024-02-27T15:26:44.199Z,french_82.wav,0,poule,287,32,5,5,english,m,2,0.2,44.8739745,0.75785774
60752e7ef1c74a9a2b30f485,6,0,2024-02-27T15:26:44.199Z,french_82.wav,0,poule,287,32,5,5,english,m,3,0.25666667,23.31967993,0.26363467
60752e7ef1c74a9a2b30f485,7,0,2024-02-27T15:26:44.199Z,french_819.wav,0,poule,312,32,5,5,english,m,0,0.0,10.23888344,1.93351894
60752e7ef1c74a9a2b30f485,7,0,2024-02-27T15:26:44.199Z,french_819.wav,0,poule,312,32,5,5,english,m,1,0.1,14.33129562,0.24790788
60752e7ef1c74a9a2b30f485,7,0,2024-02-27T15:26:44.199Z,french_819.wav,0,poule,312,32,5,5,english,m,2,0.2,-57.61493264,1.58463495
60752e7ef1c74a9a2b30f485,7,0,2024-02-27T15:26:44.199Z,french_819.wav,0,poule,312,32,5,5,english,m,3,0.25666667,33.17012155,0.31192511
60752e7ef1c74a9a2b30f485,8,0,2024-02-27T15:26:44.199Z,french_822.wav,0,poule,728,32,5,5,english,m,0,0.0,70.1141555,0.03091404
60752e7ef1c74a9a2b30f485,8,0,2024-02-27T15:26:44.199Z,french_822.wav,0,poule,728,32,5,5,english,m,1,0.1,-32.80370271,1.54599653
60752e7ef1c74a9a2b30f485,8,0,2024-02-27T15:26:44.199Z,french_822.wav,0,poule,728,32,5,5,english,m,2,0.2,9.36864383,0.45983016
60752e7ef1c74a9a2b30f485,8,0,2024-02-27T15:26:44.199Z,french_822.wav,0,poule,728,32,5,5,english,m,3,0.25666667,-70.41865943,0.57036726
60752e7ef1c74a9a2b30f485,9,0,2024-02-27T15:26:44.199Z,french_414.wav,0,poule,498,32,5,5,english,m,0,0.0,-53.65137821,1.15122316
60752e7ef1c74a9a2b30f485,9,0,2024-02-27T15:26:44.199Z,french_414.wav,0,poule,498,32,5,5,english,m,1,0.1,61.14227183,1.54420741
60752e7ef1c74a9a2b30f485,9,0,2024-02-27T15:26:44.199Z,french_414.wav,0,poule,498,32,5,5,english,m,2,0.2,-13.28017505,1.48861563
60752e7ef1c74a9a2b30f485,9,0,2024-02-27T15:26:44.199Z,french_414.wav,0,poule,498,32,5,5,english,m,3,0.25666667,99.20914295,0.34805763
60752e7ef1c74a9a2b30f485,10,0,2024-02-27T15:26:44.199Z,french_173.wav,0,poule,471,32,5,5,english,m,0,0.0,-85.34625679,1.0505287
60752e7ef1c74a9a2b30f485,10,0,2024-02-27T15:26:44.199Z,french_173.wav,0,poule,471,32,5,5,english,m,1,0.1,19.71799215,1.50206547
60752e7ef1c74a9a2b30f485,10,0,2024-02-27T15:26:44.199Z,french_173.wav,0,poule,471,32,5,5,english,m,2,0.2,-84.96079432,1.53807785
60752e7ef1c74a9a2b30f485,10,0,2024-02-27T15:26:44.199Z,french_173.wav,0,poule,471,32,5,5,english,m,3,0.25666667,-20.27996547,1.54027091
60752e7ef1c74a9a2b30f485,11,0,2024-02-27T15:26:44.199Z,french_377.wav,0,poule,386,32,5,5,english,m,0,0.0,99.29202042,1.14982617
60752e7ef1c74a9a2b30f485,11,0,2024-02-27T15:26:44.199Z,french_377.wav,0,poule,386,32,5,5,english,m,1,0.1,26.86177352,1.68513437
60752e7ef1c74a9a2b30f485,11,0,2024-02-27T15:26:44.199Z,french_377.wav,0,poule,386,32,5,5,english,m,2,0.2,-57.22110681,0.38363532
60752e7ef1c74a9a2b30f485,11,0,2024-02-27T15:26:44.199Z,french_377.wav,0,poule,386,32,5,5,english,m,3,0.25666667,67.5545455,0.68728301
60752e7ef1c74a9a2b30f485,12,0,2024-02-27T15:26:44.199Z,french_630.wav,0,poule,369,32,5,5,english,m,0,0.0,77.73428331,1.3363399
60752e7ef1c74a9a2b30f485,12,0,2024-02-27T15:26:44.199Z,french_630.wav,0,poule,369,32,5,5,english,m,1,0.1,-25.60495453,1.21399003
60752e7ef1c74a9a2b30f485,12,0,2024-02-27T15:26:44.199Z,french_630.wav,0,poule,369,32,5,5,english,m,2,0.2,64.05787884,0.69039687
60752e7ef1c74a9a2b30f485,12,0,2024-02-27T15:26:44.199Z,french_630.wav,0,poule,369,32,5,5,english,m,3,0.25666667,12.38181906,0.92340198
60752e7ef1c74a9a2b30f485,13,0,2024-02-27T15:26:44.199Z,french_929.wav,0,poule,839,32,5,5,english,m,0,0.0,-0.81023728,1.80594317
60752e7ef1c74a9a2b30f485,13,0,2024-02-27T15:26:44.199Z,french_929.wav,0,poule,839,32,5,5,english,m,1,0.1,49.23140571,0.75886247
60752e7ef1c74a9a2b30f485,13,0,2024-02-27T15:26:44.199Z,french_929.wav,0,poule,839,32,5,5,english,m,2,0.2,-9.18427249,0.13714517
60752e7ef1c74a9a2b30f485,13,0,2024-02-27T15:26:44.199Z,french_929.wav,0,poule,839,32,5,5,english,m,3,0.25666667,2.49300226,0.57622003
60752e7ef1c74a9a2b30f485,14,0,2024-02-27T15:26:44.199Z,french_802.wav,0,poule,506,32,5,5,english,m,0,0.0,-73.24347689,0.39190156
60752e7ef1c74a9a2b30f485,14,0,2024-02-27T15:26:44.199Z,french_802.wav,0,poule,506,32,5,5,english,m,1,0.1,14.85977478,1.18064228
60752e7ef1c74a9a2b30f485,14,0,2024-02-27T15:26:44.199Z,french_802.wav,0,poule,506,32,5,5,english,m,2,0.2,-45.72901481,1.4654249
60752e7ef1c74a9a2b30f485,14,0,2024-02-27T15:26:44.199Z,french_802.wav,0,poule,506,32,5,5,english,m,3,0.25666667,-78.69015161,0.6030906
60752e7ef1c74a9a2b30f485,15,0,2024-02-27T15:26:44.199Z,french_877.wav,0,poule,545,32,5,5,english,m,0,0.0,-23.96574217,0.96253444
60752e7ef1c74a9a2b30f485,15,0,2024-02-27T15:26:44.199Z,french_877.wav,0,poule,545,32,5,5,english,m,1,0.1,51.07186547,1.01009898
60752e7ef1c74a9a2b30f485,15,0,2024-02-27T15:26:44.199Z,french_877.wav,0,poule,545,32,5,5,english,m,2,0.2,26.38223439,1.26042149
60752e7ef1c74a9a2b30f485,15,0,2024-02-27T15:26:44.199Z,french_877.wav,0,poule,545,32,5,5,english,m,3,0.25666667,57.01482149,0.37917076
60752e7ef1c74a9a2b30f485,16,0,2024-02-27T15:26:44.199Z,french_522.wav,0,poule,449,32,5,5,english,m,0,0.0,-33.95775035,0.92167055
60752e7ef1c74a9a2b30f485,16,0,2024-02-27T15:26:44.199Z,french_522.wav,0,poule,449,32,5,5,english,m,1,0.1,-8.89346692,1.03421615
60752e7ef1c74a9a2b30f485,16,0,2024-02-27T15:26:44.199Z,french_522.wav,0,poule,449,32,5,5,english,m,2,0.2,-13.71087049,0.39118917
60752e7ef1c74a9a2b30f485,16,0,2024-02-27T15:26:44.199Z,french_522.wav,0,poule,449,32,5,5,english,m,3,0.25666667,29.03245504,1.12010972
60752e7ef1c74a9a2b30f485,17,0,2024-02-27T15:26:44.199Z,french_565.wav,0,poule,417,32,5,5,english,m,0,0.0,50.78822436,1.00864226
60752e7ef1c74a9a2b30f485,17,0,2024-02-27T15:26:44.199Z,french_565.wav,0,poule,417,32,5,5,english,m,1,0.1,-75.93967217,1.52231663
60752e7ef1c74a9a2b30f485,17,0,2024-02-27T15:26:44.199Z,french_565.wav,0,poule,417,32,5,5,english,m,2,0.2,-58.95969425,0.24874103
60752e7ef1c74a9a2b30f485,17,0,2024-02-27T15:26:44.199Z,french_565.wav,0,poule,417,32,5,5,english,m,3,0.25666667,-53.32673619,1.47271882
60752e7ef1c74a9a2b30f485,18,0,2024-02-27T15:26:44.199Z,french_860.wav,0,poule,285,32,5,5,english,m,0,0.0,33.37389434,1.87718004
60752e7ef1c74a9a2b30f485,18,0,2024-02-27T15:26:44.199Z,french_860.wav,0,poule,285,32,5,5,english,m,1,0.1,66.22312498,1.50950791
60752e7ef1c74a9a2b30f485,18,0,2024-02-27T15:26:44.199Z,french_860.wav,0,poule,285,32,5,5,english,m,2,0.2,-4.57961146,0.09437067
60752e7ef1c74a9a2b30f485,18,0,2024-02-27T15:26:44.199Z,french_860.wav,0,poule,285,32,5,5,english,m,3,0.25666667,50.69207221,1.19183747
60752e7ef1c74a9a2b30f485,19,0,2024-02-27T15:26:44.199Z,french_839.wav,0,poule,245,32,5,5,english,m,0,0.0,11.03740457,0.76467652
60752e7ef1c74a9a2b30f485,19,0,2024-02-27T15:26:44.199Z,french_839.wav,0,poule,245,32,5,5,english,m,1,0.1,23.46119987,0.76268055
60752e7ef1c74a9a2b30f485,19,0,2024-02-27T15:26:44.199Z,french_839.wav,0,poule,245,32,5,5,english,m,2,0.2,-0.31614798,1.64444165
60752e7ef1c74a9a2b30f485,19,0,2024-02-27T15:26:44.199Z,french_839.wav,0,poule,245,32,5,5,english,m,3,0.25666667,62.63183259,0.69482811
60752e7ef1c74a9a2b30f485,20,0,2024-02-27T15:26:44.199Z,french_31.wav,0,poule,257,32,5,5,english,m,0,0.0,-16.52506352,1.57904125
60752e7ef1c74a9a2b30f485,20,0,2024-02-27T15:26:44.199Z,french_31.wav,0,poule,257,32,5,5,english,m,1,0.1,-80.19736258,0.88688051
60752e7ef1c74a9a2b30f485,20,0,2024-02-27T15:26:44.199Z,french_31.wav,0,poule,257,32,5,5,english,m,2,0.2,-47.04996605,0.44579633
60752e7ef1c74a9a2b30f485,20,0,2024-02-27T15:26:44.199Z,french_31.wav,0,poule,257,32,5,5,english,m,3,0.25666667,35.27279848,1.71139476
60752e7ef1c74a9a2b30f485,21,0,2024-02-27T15:26:44.199Z,french_801.wav,0,poule,280,32,5,5,english,m,0,0.0,-2.50424847,1.53837519
60752e7ef1c74a9a2b30f485,21,0,2024-02-27T15:26:44.199Z,french_801.wav,0,poule,280,32,5,5,english,m,1,0.1,-38.14130366,1.1394832
60752e7ef1c74a9a2b30f485,21,0,2024-02-27T15:26:44.199Z,french_801.wav,0,poule,280,32,5,5,english,m,2,0.2,29.8899248,1.04638934
60752e7ef1c74a9a2b30f485,21,0,2024-02-27T15:26:44.199Z,french_801.wav,0,poule,280,32,5,5,english,m,3,0.25666667,6.94729426,1.11851907
60752e7ef1c74a9a2b30f485,22,0,2024-02-27T15:26:44.199Z,french_34.wav,0,poule,115,32,5,5,english,m,0,0.0,-97.24360174,1.95744133
60752e7ef1c74a9a2b30f485,22,0,2024-02-27T15:26:44.199Z,french_34.wav,0,poule,115,32,5,5,english,m,1,0.1,62.38297295,1.24423752
60752e7ef1c74a9a2b30f485,22,0,2024-02-27T15:26:44.199Z,french_34.wav,0,poule,115,32,5,5,english,m,2,0.2,-49.09622703,1.91649641
60752e7ef1c74a9a2b30f485,22,0,2024-02-27T15:26:44.199Z,french_34.wav,0,poule,115,32,5,5,english,m,3,0.25666667,-40.35720841,1.03651442
60752e7ef1c74a9a2b30f485,23,0,2024-02-27T15:26:44.199Z,french_406.wav,0,poule,226,32,5,5,english,m,0,0.0,58.13533855,1.29537269
60752e7ef1c74a9a2b30f485,23,0,2024-02-27T15:26:44.199Z,french_406.wav,0,poule,226,32,5,5,english,m,1,0.1,16.77938971,1.03128378
60752e7ef1c74a9a2b30f485,23,0,2024-02-27T15:26:44.199Z,french_406.wav,0,poule,226,32,5,5,english,m,2,0.2,-34.29610563,1.90878176
60752e7ef1c74a9a2b30f485,23,0,2024-02-27T15:26:44.199Z,french_406.wav,0,poule,226,32,5,5,english,m,3,0.25666667,5.14727068,1.43946259
60752e7ef1c74a9a2b30f485,24,0,2024-02-27T15:26:44.199Z,french_656.wav,0,poule,503,32,5,5,english,m,0,0.0,-58.27241095,0.65184251
60752e7ef1c74a9a2b30f485,24,0,2024-02-27T15:26:44.199Z,french_656.wav,0,poule,503,32,5,5,english,m,1,0.1,5.28471923,0.59376501
60752e7ef1c74a9a2b30f485,24,0,2024-02-27T15:26:44.199Z,french_656.wav,0,poule,503,32,5,5,english,m,2,0.2,-0.12743408,1.90668759
60752e7ef1c74a9a2b30f485,24,0,2024-02-27T15:26:44.199Z,french_656.wav,0,poule,503,32,5,5,english,m,3,0.25666667,84.54596147,1.25760212
60752e7ef1c74a9a2b30f485,25,0,2024-02-27T15:26:44.199Z,french_730.wav,0,poule,294,32,5,5,english,m,0,0.0,45.92676741,0.18014666
60752e7ef1c74a9a2b30f485,25,0,2024-02-27T15:26:44.199Z,french_730.wav,0,poule,294,32,5,5,english,m,1,0.1,-44.36449205,1.39371349
60752e7ef1c74a9a2b30f485,25,0,2024-02-27T15:26:44.199Z,french_730.wav,0,poule,294,32,5,5,english,m,2,0.2,-0.92451291,1.11032992
60752e7ef1c74a9a2b30f485,25,0,2024-02-27T15:26:44.199Z,french_730.wav,0,poule,294,32,5,5,english,m,3,0.25666667,30.80646356,1.142585
60752e7ef1c74a9a2b30f485,26,0,2024-02-27T15:26:44.199Z,french_340.wav,0,poule,505,32,5,5,english,m,0,0.0,-77.74428769,1.5012345
60752e7ef1c74a9a2b30f485,26,0,2024-02-27T15:26:44.199Z,french_340.wav,0,poule,505,32,5,5,english,m,1,0.1,-23.36816436,1.72338521
60752e7ef1c74a9a2b30f485,26,0,2024-02-27T15:26:44.199Z,french_340.wav,0,poule,505,32,5,5,english,m,2,0.2,-44.47255335,0.55046319
60752e7ef1c74a9a2b30f485,26,0,2024-02-27T15:26:44.199Z,french_340.wav,0,poule,505,32,5,5,english,m,3,0.25666667,-51.35474548,0.98182936
60752e7ef1c74a9a2b30f485,27,0,2024-02-27T15:26:44.199Z,french_727.wav,0,poule,610,32,5,5,english,m,0,0.0,-15.29396541,0.40840987
60752e7ef1c74a9a2b30f485,27,0,2024-02-27T15:26:44.199Z,french_727.wav,0,poule,610,32,5,5,english,m,1,0.1,-26.29552155,0.3000398
60752e7ef1c74a9a2b30f485,27,0,2024-02-27T15:26:44.199Z,french_727.wav,0,poule,610,32,5,5,english,m,2,0.2,79.97121571,1.00640838
60752e7ef1c74a9a2b30f485,27,0,2024-02-27T15:26:44.199Z,french_727.wav,0,poule,610,32,5,5,english,m,3,0.25666667,55.89998316,1.06507384
60752e7ef1c74a9a2b30f485,28,0,2024-02-27T15:26:44.199Z,french_489.wav,0,poule,338,32,5,5,english,m,0,0.0,0.49645075,0.76062229
60752e7ef1c74a9a2b30f485,28,0,2024-02-27T15:26:44.199Z,french_489.wav,0,poule,338,32,5,5,english,m,1,0.1,-49.42249353,1.72041063
60752e7ef1c74a9a2b30f485,28,0,2024-02-27T15:26:44.199Z,french_489.wav,0,poule,338,32,5,5,english,m,2,0.2,3.0196593,0.72496435
60752e7ef1c74a9a2b30f485,28,0,2024-02-27T15:26:44.199Z,french_489.wav,0,poule,338,32,5,5,english,m,3,0.25666667,11.9492669,0.84736567
60752e7ef1c74a9a2b30f485,29,0,2024-02-27T15:26:44.199Z,french_721.wav,0,poule,302,32,5,5,english,m,0,0.0,83.32262744,0.77898197
60752e7ef1c74a9a2b30f485,29,0,2024-02-27T15:26:44.199Z,french_721.wav,0,poule,302,32,5,5,english,m,1,0.1,53.43911967,1.2749748
60752e7ef1c74a9a2b30f485,29,0,2024-02-27T15:26:44.199Z,french_721.wav,0,poule,302,32,5,5,english,m,2,0.2,45.88272958,1.13618558
60752e7ef1c74a9a2b30f485,29,0,2024-02-27T15:26:44.199Z,french_721.wav,0,poule,302,32,5,5,english,m,3,0.25666667,34.59804534,1.96642304
60752e7ef1c74a9a2b30f485,30,0,2024-02-27T15:26:44.199Z,french_836.wav,0,poule,1187,32,5,5,english,m,0,0.0,40.23641464,0.42377088
60752e7ef1c74a9a2b30f485,30,0,2024-02-27T15:26:44.199Z,french_836.wav,0,poule,1187,32,5,5,english,m,1,0.1,53.79535187,0.63943013
60752e7ef1c74a9a2b30f485,30,0,2024-02-27T15:26:44.199Z,french_836.wav,0,poule,1187,32,5,5,english,m,2,0.2,-4.0789246,1.19242466
60752e7ef1c74a9a2b30f485,30,0,2024-02-27T15:26:44.199Z,french_836.wav,0,poule,1187,32,5,5,english,m,3,0.25666667,3.8536211,1.488673
60752e7ef1c74a9a2b30f485,31,0,2024-02-27T15:26:44.199Z,french_990.wav,0,poule,524,32,5,5,english,m,0,0.0,31.68812365,0.81704568
60752e7ef1c74a9a2b30f485,31,0,2024-02-27T15:26:44.199Z,french_990.wav,0,poule,524,32,5,5,english,m,1,0.1,-82.48323459,1.80008391
60752e7ef1c74a9a2b30f485,31,0,2024-02-27T15:26:44.199Z,french_990.wav,0,poule,524,32,5,5,english,m,2,0.2,39.0525666,1.73012532
60752e7ef1c74a9a2b30f485,31,0,2024-02-27T15:26:44.199Z,french_990.wav,0,poule,524,32,5,5,english,m,3,0.25666667,-59.77120272,0.71793452
60752e7ef1c74a9a2b30f485,32,0,2024-02-27T15:26:44.199Z,french_872.wav,0,poule,329,32,5,5,english,m,0,0.0,85.31192626,1.27180188
60752e7ef1c74a9a2b30f485,32,0,2024-02-27T15:26:44.199Z,french_872.wav,0,poule,329,32,5,5,english,m,1,0.1,-62.96284321,0.82867252
60752e7ef1c74a9a2b30f485,32,0,2024-02-27T15:26:44.199Z,french_872.wav,0,poule,329,32,5,5,english,m,2,0.2,93.26127986,1.69740624
60752e7ef1c74a9a2b30f485,32,0,2024-02-27T15:26:44.199Z,french_872.wav,0,poule,329,32,5,5,english,m,3,0.25666667,48.13314647,0.31258738
60752e7ef1c74a9a2b30f485,33,0,2024-02-27T15:26:44.199Z,french_544.wav,0,poule,1159,32,5,5,english,m,0,0.0,-53.15565046,1.35860228
60752e7ef1c74a9a2b30f485,33,0,2024-02-27T15:26:44.199Z,french_544.wav,0,poule,1159,32,5,5,english,m,1,0.1,-92.4791724,0.93453098
60752e7ef1c74a9a2b30f485,33,0,2024-02-27T15:26:44.199Z,french_544.wav,0,poule,1159,32,5,5,english,m,2,0.2,38.15839594,0.5056151
60752e7ef1c74a9a2b30f485,33,0,2024-02-27T15:26:44.199Z,french_544.wav,0,poule,1159,32,5,5,english,m,3,0.25666667,24.38113977,1.47508
60752e7ef1c74a9a2b30f485,34,0,2024-02-27T15:26:44.199Z,french_355.wav,0,pull,733,32,5,5,english,m,0,0.0,-92.75119925,0.18544254
60752e7ef1c74a9a2b30f485,34,0,2024-02-27T15:26:44.199Z,french_355.wav,0,pull,733,32,5,5,english,m,1,0.1,77.20775246,0.07031399
60752e7ef1c74a9a2b30f485,34,0,2024-02-27T15:26:44.199Z,french_355.wav,0,pull,733,32,5,5,english,m,2,0.2,-51.05688592,0.46666342
60752e7ef1c74a9a2b30f485,34,0,2024-02-27T15:26:44.199Z,french_355.wav,0,pull,733,32,5,5,english,m,3,0.25666667,27.03743598,1.78468618
60752e7ef1c74a9a2b30f485,35,0,2024-02-27T15:26:44.199Z,french_714.wav,0,poule,413,32,5,5,english,m,0,0.0,77.35355583,0.35690042
60752e7ef1c74a9a2b30f485,35,0,2024-02-27T15:26:44.199Z,french_714.wav,0,poule,413,32,5,5,english,m,1,0.1,-16.5812175,0.7400083
60752e7ef1c74a9a2b30f485,35,0,2024-02-27T15:26:44.199Z,french_714.wav,0,poule,413,32,5,5,english,m,2,0.2,-79.42314022,1.17849399
60752e7ef1c74a9a2b30f485,35,0,2024-02-27T15:26:44.199Z,french_714.wav,0,poule,413,32,5,5,english,m,3,0.25666667,64.71981705,1.38365213
60752e7ef1c74a9a2b30f485,36,0,2024-02-27T15:26:44.199Z,french_686.wav,0,poule,487,32,5,5,english,m,0,0.0,20.49516986,1.86861476
60752e7ef1c74a9a2b30f485,36,0,2024-02-27T15:26:44.199Z,french_686.wav,0,poule,487,32,5,5,english,m,1,0.1,27.4040505,1.87689714
60752e7ef1c74a9a2b30f485,36,0,2024-02-27T15:26:44.199Z,french_686.wav,0,poule,487,32,5,5,english,m,2,0.2,31.96095965,0.80940067
60752e7ef1c74a9a2b30f485,36,0,2024-02-27T15:26:44.199Z,french_686.wav,0,poule,487,32,5,5,english,m,3,0.25666667,61.08066052,0.04075967
60752e7ef1c74a9a2b30f485,37,0,2024-02-27T15:26:44.199Z,french_221.wav,0,poule,581,32,5,5,english,m,0,0.0,-51.4093514,1.39236456
60752e7ef1c74a9a2b30f485,37,0,2024-02-27T15:26:44.199Z,french_221.wav,0,poule,581,32,5,5,english,m,1,0.1,-69.26159538,1.1318895
60752e7ef1c74a9a2b30f485,37,0,2024-02-27T15:26:44.199Z,french_221.wav,0,poule,581,32,5,5,english,m,2,0.2,-72.79183118,0.94601275
60752e7ef1c74a9a2b30f485,37,0,2024-02-27T15:26:44.199Z,french_221.wav,0,poule,581,32,5,5,english,m,3,0.25666667,34.31828887,1.80964418
60752e7ef1c74a9a2b30f485,38,0,2024-02-27T15:26:44.199Z,french_590.wav,0,pull,720,32,5,5,english,m,0,0.0,-77.28287391,1.10563408
60752e7ef1c74a9a2b30f485,38,0,2024-02-27T15:26:44.199Z,french_590.wav,0,pull,720,32,5,5,english,m,1,0.1,-59.34931175,0.27897949
60752e7ef1c74a9a2b30f485,38,0,2024-02-27T15:26:44.199Z,french_590.wav,0,pull,720,32,5,5,english,m,2,0.2,-59.15957395,1.42245938
60752e7ef1c74a9a2b30f485,38,0,2024-02-27T15:26:44.199Z,french_590.wav,0,pull,720,32,5,5,english,m,3,0.25666667,88.90935082,0.18524725
60752e7ef1c74a9a2b30f485,39,0,2024-02-27T15:26:44.199Z,french_843.wav,0,poule,718,32,5,5,english,m,0,0.0,13.6803361,0.65425976
60752e7ef1c74a9a2b30f485,39,0,2024-02-27T15:26:44.199Z,french_843.wav,0,poule,718,32,5,5,english,m,1,0.1,92.02668438,1.47814853
60752e7ef1c74a9a2b30f485,39,0,2024-02-27T15:26:44.199Z,french_843.wav,0,poule,718,32,5,5,english,m,2,0.2,-93.52604538,0.78236369
60752e7ef1c74a9a2b30f485,39,0,2024-02-27T15:26:44.199Z,french_843.wav,0,poule,718,32,5,5,english,m,3,0.25666667,-12.7136852,0.52413001
60752e7ef1c74a9a2b30f485,40,0,2024-02-27T15:26:44.199Z,french_672.wav,0,pull,686,32,5,5,english,m,0,0.0,-6.36877595,1.19503778
60752e7ef1c74a9a2b30f485,40,0,2024-02-27T15:26:44.199Z,french_672.wav,0,pull,686,32,5,5,english,m,1,0.1,45.21137281,0.09977323
60752e7ef1c74a9a2b30f485,40,0,2024-02-27T15:26:44.199Z,french_672.wav,0,pull,686,32,5,5,english,m,2,0.2,80.52737907,0.72738581
60752e7ef1c74a9a2b30f485,40,0,2024-02-27T15:26:44.199Z,french_672.wav,0,pull,686,32,5,5,english,m,3,0.25666667,83.07440583,0.28099012
60752e7ef1c74a9a2b30f485,41,0,2024-02-27T15:26:44.199Z,french_330.wav,0,pull,702,32,5,5,english,m,0,0.0,-46.98301203,1.92315583
60752e7ef1c74a9a2b30f485,41,0,2024-02-27T15:26:44.199Z,french_330.wav,0,pull,702,32,5,5,english,m,1,0.1,55.18277966,0.64158591
60752e7ef1c74a9a2b30f485,41,0,2024-02-27T15:26:44.199Z,french_330.wav,0,pull,702,32,5,5,english,m,2,0.2,68.01781419,0.71457858
60752e7ef1c74a9a2b30f485,41,0,2024-02-27T15:26:44.199Z,french_330.wav,0,pull,702,32,5,5,english,m,3,0.25666667,-65.13341665,0.26661962
60752e7ef1c74a9a2b30f485,42,0,2024-02-27T15:26:44.199Z,french_191.wav,0,poule,832,32,5,5,english,m,0,0.0,61.70033847,1.87867126
60752e7ef1c74a9a2b30f485,42,0,2024-02-27T15:26:44.199Z,french_191.wav,0,poule,832,32,5,5,english,m,1,0.1,-19.77100541,0.40395676
60752e7ef1c74a9a2b30f485,42,0,2024-02-27T15:26:44.199Z,french_191.wav,0,poule,832,32,5,5,english,m,2,0.2,-44.48193137,1.14362057
60752e7ef1c74a9a2b30f485,42,0,2024-02-27T15:26:44.199Z,french_191.wav,0,poule,832,32,5,5,english,m,3,0.25666667,-92.19007218,1.68692384
60752e7ef1c74a9a2b30f485,43,0,2024-02-27T15:26:44.199Z,french_402.wav,0,poule,461,32,5,5,english,m,0,0.0,-15.06976312,1.40090564
60752e7ef1c74a9a2b30f485,43,0,2024-02-27T15:26:44.199Z,french_402.wav,0,poule,461,32,5,5,english,m,1,0.1,-35.17937665,1.12974732
60752e7ef1c74a9a2b30f485,43,0,2024-02-27T15:26:44.199Z,french_402.wav,0,poule,461,32,5,5,english,m,2,0.2,-39.80354227,1.04756912
60752e7ef1c74a9a2b30f485,43,0,2024-02-27T15:26:44.199Z,french_402.wav,0,poule,461,32,5,5,english,m,3,0.25666667,-27.78014644,0.16748103
60752e7ef1c74a9a2b30f485,44,0,2024-02-27T15:26:44.199Z,french_150.wav,0,poule,426,32,5,5,english,m,0,0.0,8.70975457,0.6151883
60752e7ef1c74a9a2b30f485,44,0,2024-02-27T15:26:44.199Z,french_150.wav,0,poule,426,32,5,5,english,m,1,0.1,-27.10460474,1.35739255
60752e7ef1c74a9a2b30f485,44,0,2024-02-27T15:26:44.199Z,french_150.wav,0,poule,426,32,5,5,english,m,2,0.2,-81.59186784,1.42530839
60752e7ef1c74a9a2b30f485,44,0,2024-02-27T15:26:44.199Z,french_150.wav,0,poule,426,32,5,5,english,m,3,0.25666667,-72.54184128,0.64697028
60752e7ef1c74a9a2b30f485,45,0,2024-02-27T15:26:44.199Z,french_557.wav,0,poule,255,32,5,5,english,m,0,0.0,-4.17762648,0.38732741
60752e7ef1c74a9a2b30f485,45,0,2024-02-27T15:26:44.199Z,french_557.wav,0,poule,255,32,5,5,english,m,1,0.1,91.9464138,1.58225164
60752e7ef1c74a9a2b30f485,45,0,2024-02-27T15:26:44.199Z,french_557.wav,0,poule,255,32,5,5,english,m,2,0.2,-21.05895405,1.02633772
60752e7ef1c74a9a2b30f485,45,0,2024-02-27T15:26:44.199Z,french_557.wav,0,poule,255,32,5,5,english,m,3,0.25666667,45.17146044,0.5187484
60752e7ef1c74a9a2b30f485,46,0,2024-02-27T15:26:44.199Z,french_782.wav,0,pull,471,32,5,5,english,m,0,0.0,-22.12019493,0.33541309
60752e7ef1c74a9a2b30f485,46,0,2024-02-27T15:26:44.199Z,french_782.wav,0,pull,471,32,5,5,english,m,1,0.1,4.49416446,0.60665876
60752e7ef1c74a9a2b30f485,46,0,2024-02-27T15:26:44.199Z,french_782.wav,0,pull,471,32,5,5,english,m,2,0.2,95.81757258,0.65040298
60752e7ef1c74a9a2b30f485,46,0,2024-02-27T15:26:44.199Z,french_782.wav,0,pull,471,32,5,5,english,m,3,0.25666667,37.17912971,0.93901734
60752e7ef1c74a9a2b30f485,47,0,2024-02-27T15:26:44.199Z,french_417.wav,0,poule,294,32,5,5,english,m,0,0.0,-52.68130191,1.49469738
60752e7ef1c74a9a2b30f485,47,0,2024-02-27T15:26:44.199Z,french_417.wav,0,poule,294,32,5,5,english,m,1,0.1,73.91368418,1.06358835
60752e7ef1c74a9a2b30f485,47,0,2024-02-27T15:26:44.199Z,french_417.wav,0,poule,294,32,5,5,english,m,2,0.2,7.73324389,1.12421265
60752e7ef1c74a9a2b30f485,47,0,2024-02-27T15:26:44.199Z,french_417.wav,0,poule,294,32,5,5,english,m,3,0.25666667,92.88066518,0.65436219
60752e7ef1c74a9a2b30f485,48,0,2024-02-27T15:26:44.199Z,french_424.wav,0,poule,326,32,5,5,english,m,0,0.0,61.39777876,0.24361375
60752e7ef1c74a9a2b30f485,48,0,2024-02-27T15:26:44.199Z,french_424.wav,0,poule,326,32,5,5,english,m,1,0.1,-8.76552132,1.04711526
60752e7ef1c74a9a2b30f485,48,0,2024-02-27T15:26:44.199Z,french_424.wav,0,poule,326,32,5,5,english,m,2,0.2,33.4280736,1.33335174
60752e7ef1c74a9a2b30f485,48,0,2024-02-27T15:26:44.199Z,french_424.wav,0,poule,326,32,5,5,english,m,3,0.25666667,8.6823295,0.59077303
60752e7ef1c74a9a2b30f485,49,0,2024-02-27T15:26:44.199Z,french_986.wav,0,poule,1120,32,5,5,english,m,0,0.0,-69.96795985,1.93285955
60752e7ef1c74a9a2b30f485,49,0,2024-02-27T15:26:44.199Z,french_986.wav,0,poule,1120,32,5,5,english,m,1,0.1,-65.30377544,1.55838575
60752e7ef1c74a9a2b30f485,49,0,2024-02-27T15:26:44.199Z,french_986.wav,0,poule,1120,32,5,5,english,m,2,0.2,27.38987225,0.12645153
60752e7ef1c74a9a2b30f485,49,0,2024-02-27T15:26:44.199Z,french_986.wav,0,poule,1120,32,5,5,english,m,3,0.25666667,-55.80740264,0.78072242
60752e7ef1c74a9a2b30f485,50,1,2024-02-27T15:26:44.199Z,french_494.wav,0,poule,590,32,5,5,english,m,0,0.0,-13.98983301,1.71774812
60752e7ef1c74a9a2b30f485,50,1,2024-02-27T15:26:44.199Z,french_494.wav,0,poule,590,32,5,5,english,m,1,0.1,-42.16987525,1.14165471
60752e7ef1c74a9a2b30f485,50,1,2024-02-27T15:26:44.199Z,french_494.wav,0,poule,590,32,5,5,english,m,2,0.2,38.88383452,0.86838156
60752e7ef1c74a9a2b30f485,50,1,2024-02-27T15:26:44.199Z,french_494.wav,0,poule,590,32,5,5,english,m,3,0.25666667,78.77057746,1.71181958
60752e7ef1c74a9a2b30f485,51,1,2024-02-27T15:26:44.199Z,french_708.wav,0,poule,279,32,5,5,english,m,0,0.0,77.88438146,0.30850898
60752e7ef1c74a9a2b30f485,51,1,2024-02-27T15:26:44.199Z,french_708.wav,0,poule,279,32,5,5,english,m,1,0.1,-89.66132416,1.49064351
60752e7ef1c74a9a2b30f485,51,1,2024-02-27T15:26:44.199Z,french_708.wav,0,poule,279,32,5,5,english,m,2,0.2,66.08375885,1.28629193
60752e7ef1c74a9a2b30f485,51,1,2024-02-27T15:26:44.199Z,french_708.wav,0,poule,279,32,5,5,english,m,3,0.25666667,-39.93161414,1.01533724
60752e7ef1c74a9a2b30f485,52,1,2024-02-27T15:26:44.199Z,french_423.wav,0,pull,491,32,5,5,english,m,0,0.0,80.03290271,0.31618382
60752e7ef1c74a9a2b30f485,52,1,2024-02-27T15:26:44.199Z,french_423.wav,0,pull,491,32,5,5,english,m,1,0.1,-33.72349736,0.81153422
60752e7ef1c74a9a2b30f485,52,1,2024-02-27T15:26:44.199Z,french_423.wav,0,pull,491,32,5,5,english,m,2,0.2,-38.14858153,0.21197718
60752e7ef1c74a9a2b30f485,52,1,2024-02-27T15:26:44.199Z,french_423.wav,0,pull,491,32,5,5,english,m,3,0.25666667,-48.66398852,0.41633142
60752e7ef1c74a9a2b30f485,53,1,2024-02-27T15:26:44.199Z,french_486.wav,0,pull,549,32,5,5,english,m,0,0.0,-65.13732965,0.7755652
60752e7ef1c74a9a2b30f485,53,1,2024-02-27T15:26:44.199Z,french_486.wav,0,pull,549,32,5,5,english,m,1,0.1,-93.57114331,0.9577819
60752e7ef1c74a9a2b30f485,53,1,2024-02-27T15:26:44.199Z,french_486.wav,0,pull,549,32,5,5,english,m,2,0.2,-51.69797787,0.68553835
60752e7ef1c74a9a2b30f485,53,1,2024-02-27T15:26:44.199Z,french_486.wav,0,pull,549,32,5,5,english,m,3,0.25666667,-3.30938414,0.55056833
60752e7ef1c74a9a2b30f485,54,1,2024-02-27T15:26:44.199Z,french_177.wav,0,pull,824,32,5,5,english,m,0,0.0,-69.89314337,1.41470617
60752e7ef1c74a9a2b30f485,54,1,2024-02-27T15:26:44.199Z,french_177.wav,0,pull,824,32,5,5,english,m,1,0.1,8.10824913,0.24806543
60752e7ef1c74a9a2b30f485,54,1,2024-02-27T15:26:44.199Z,french_177.wav,0,pull,824,32,5,5,english,m,2,0.2,41.02901981,1.01013957
60752e7ef1c74a9a2b30f485,54,1,2024-02-27T15:26:44.199Z,french_177.wav,0,pull,824,32,5,5,english,m,3,0.25666667,-9.46888932,0.18165289
60752e7ef1c74a9a2b30f485,55,1,2024-02-27T15:26:44.199Z,french_435.wav,0,poule,286,32,5,5,english,m,0,0.0,-69.76325337,1.8844701
60752e7ef1c74a9a2b30f485,55,1,2024-02-27T15:26:44.199Z,french_435.wav,0,poule,286,32,5,5,english,m,1,0.1,47.38197985,1.37326168
60752e7ef1c74a9a2b30f485,55,1,2024-02-27T15:26:44.199Z,french_435.wav,0,poule,286,32,5,5,english,m,2,0.2,-46.68992054,0.23230631
60752e7ef1c74a9a2b30f485,55,1,2024-02-27T15:26:44.199Z,french_435.wav,0,poule,286,32,5,5,english,m,3,0.25666667,49.41050132,0.56533705
60752e7ef1c74a9a2b30f485,56,1,2024-02-27T15:26:44.199Z,french_245.wav,0,poule,642,32,5,5,english,m,0,0.0,-61.74573417,0.99313774
60752e7ef1c74a9a2b30f485,56,1,2024-02-27T15:26:44.199Z,french_245.wav,0,poule,642,32,5,5,english,m,1,0.1,71.88692077,1.19752892
60752e7ef1c74a9a2b30f485,56,1,2024-02-27T15:26:44.199Z,french_245.wav,0,poule,642,32,5,5,english,m,2,0.2,-28.60272728,1.585112
60752e7ef1c74a9a2b30f485,56,1,2024-02-27T15:26:44.199Z,french_245.wav,0,poule,642,32,5,5,english,m,3,0.25666667,-6.96353839,1.16753586
60752e7ef1c74a9a2b30f485,57,1,2024-02-27T15:26:44.199Z,french_912.wav,0,poule,452,32,5,5,english,m,0,0.0,-0.0923206,1.34654061
60752e7ef1c74a9a2b30f485,57,1,2024-02-27T15:26:44.199Z,french_912.wav,0,poule,452,32,5,5,english,m,1,0.1,-62.03539144,1.69101872
60752e7ef1c74a9a2b30f485,57,1,2024-02-27T15:26:44.199Z,french_912.wav,0,poule,452,32,5,5,english,m,2,0.2,9.48123132,1.27014765
60752e7ef1c74a9a2b30f485,57,1,2024-02-27T15:26:44.199Z,french_912.wav,0,poule,452,32,5,5,english,m,3,0.25666667,-88.73464781,0.10640649
60752e7ef1c74a9a2b30f485,58,1,2024-02-27T15:26:44.199Z,french_923.wav,0,poule,478,32,5,5,english,m,0,0.0,-57.84523262,1.35677253
60752e7ef1c74a9a2b30f485,58,1,2024-02-27T15:26:44.199Z,french_923.wav,0,poule,478,32,5,5,english,m,1,0.1,-15.65652506,1.1280373
60752e7ef1c74a9a2b30f485,58,1,2024-02-27T15:26:44.199Z,french_923.wav,0,poule,478,32,5,5,english,m,2,0.2,37.84243464,1.38752537
60752e7ef1c74a9a2b30f485,58,1,2024-02-27T15:26:44.199Z,french_923.wav,0,poule,478,32,5,5,english,m,3,0.25666667,15.41728704,1.42596606
60752e7ef1c74a9a2b30f485,59,1,2024-02-27T15:26:44.199Z,french_99.wav,0,poule,772,32,5,5,english,m,0,0.0,82.47343156,0.8791919
60752e7ef1c74a9a2b30f485,59,1,2024-02-27T15:26:44.199Z,french_99.wav,0,poule,772,32,5,5,english,m,1,0.1,79.23143861,0.93561146
60752e7ef1c74a9a2b30f485,59,1,2024-02-27T15:26:44.199Z,french_99.wav,0,poule,772,32,5,5,english,m,2,0.2,34.81001375,1.15477002
60752e7ef1c74a9a2b30f485,59,1,2024-02-27T15:26:44.199Z,french_99.wav,0,poule,772,32,5,5,english,m,3,0.25666667,28.26612214,0.77336938
60752e7ef1c74a9a2b30f485,60,1,2024-02-27T15:26:44.199Z,french_17.wav,0,pull,838,32,5,5,english,m,0,0.0,61.86852427,1.05769551
60752e7ef1c74a9a2b30f485,60,1,2024-02-27T15:26:44.199Z,french_17.wav,0,pull,838,32,5,5,english,m,1,0.1,14.81642836,0.81667418
60752e7ef1c74a9a2b30f485,60,1,2024-02-27T15:26:44.199Z,french_17.wav,0,pull,838,32,5,5,english,m,2,0.2,-8.48865215,0.51249479
60752e7ef1c74a9a2b30f485,60,1,2024-02-27T15:26:44.199Z,french_17.wav,0,pull,838,32,5,5,english,m,3,0.25666667,71.68336874,0.29939213
60752e7ef1c74a9a2b30f485,61,1,2024-02-27T15:26:44.199Z,french_725.wav,0,poule,259,32,5,5,english,m,0,0.0,61.28532458,0.86285292
60752e7ef1c74a9a2b30f485,61,1,2024-02-27T15:26:44.199Z,french_725.wav,0,poule,259,32,5,5,english,m,1,0.1,25.43953492,0.5175718
60752e7ef1c74a9a2b30f485,61,1,2024-02-27T15:26:44.199Z,french_725.wav,0,poule,259,32,5,5,english,m,2,0.2,31.92964858,1.72668514
60752e7ef1c74a9a2b30f485,61,1,2024-02-27T15:26:44.199Z,french_725.wav,0,poule,259,32,5,5,english,m,3,0.25666667,-96.80759498,1.79225728
60752e7ef1c74a9a2b30f485,62,1,2024-02-27T15:26:44.199Z,french_141.wav,0,poule,297,32,5,5,english,m,0,0.0,88.60100695,0.97838459
60752e7ef1c74a9a2b30f485,62,1,2024-02-27T15:26:44.199Z,french_141.wav,0,poule,297,32,5,5,english,m,1,0.1,68.96819773,1.47503319
60752e7ef1c74a9a2b30f485,62,1,2024-02-27T15:26:44.199Z,french_141.wav,0,poule,297,32,5,5,english,m,2,0.2,1.7368606,1.40537453
60752e7ef1c74a9a2b30f485,62,1,2024-02-27T15:26:44.199Z,french_141.wav,0,poule,297,32,5,5,english,m,3,0.25666667,19.36556264,0.305772
60752e7ef1c74a9a2b30f485,63,1,2024-02-27T15:26:44.199Z,french_392.wav,0,pull,519,32,5,5,english,m,0,0.0,-11.14407327,1.55151156
60752e7ef1c74a9a2b30f485,63,1,2024-02-27T15:26:44.199Z,french_392.wav,0,pull,519,32,5,5,english,m,1,0.1,-20.38505303,0.49285085
60752e7ef1c74a9a2b30f485,63,1,2024-02-27T15:26:44.199Z,french_392.wav,0,pull,519,32,5,5,english,m,2,0.2,21.27154916,0.56092788
60752e7ef1c74a9a2b30f485,63,1,2024-02-27T15:26:44.199Z,french_392.wav,0,pull,519,32,5,5,english,m,3,0.25666667,-29.54267832,1.54424804
60752e7ef1c74a9a2b30f485,64,1,2024-02-27T15:26:44.199Z,french_93.wav,0,pull,534,32,5,5,english,m,0,0.0,23.57211404,0.62732128
60752e7ef1c74a9a2b30f485,64,1,2024-02-27T15:26:44.199Z,french_93.wav,0,pull,534,32,5,5,english,m,1,0.1,-16.15934767,0.10811818
60752e7ef1c74a9a2b30f485,64,1,2024-02-27T15:26:44.199Z,french_93.wav,0,pull,534,32,5,5,english,m,2,0.2,25.54711871,0.30787392
60752e7ef1c74a9a2b30f485,64,1,2024-02-27T15:26:44.199Z,french_93.wav,0,pull,534,32,5,5,english,m,3,0.25666667,65.09284613,1.57978374
60752e7ef1c74a9a2b30f485,65,1,2024-02-27T15:26:44.199Z,french_196.wav,0,poule,441,32,5,5,english,m,0,0.0,-51.30508497,1.16005851
60752e7ef1c74a9a2b30f485,65,1,2024-02-27T15:26:44.199Z,french_196.wav,0,poule,441,32,5,5,english,m,1,0.1,89.17651026,0.87725998
60752e7ef1c74a9a2b30f485,65,1,2024-02-27T15:26:44.199Z,french_196.wav,0,poule,441,32,5,5,english,m,2,0.2,77.92993737,1.23506332
60752e7ef1c74a9a2b30f485,65,1,2024-02-27T15:26:44.199Z,french_196.wav,0,poule,441,32,5,5,english,m,3,0.25666667,-86.11962375,1.33141167
60752e7ef1c74a9a2b30f485,66,1,2024-02-27T15:26:44.199Z,french_144.wav,0,pull,469,32,5,5,english,m,0,0.0,54.7439873,1.65699933
60752e7ef1c74a9a2b30f485,66,1,2024-02-27T15:26:44.199Z,french_144.wav,0,pull,469,32,5,5,english,m,1,0.1,-90.40840953,0.10946834
60752e7ef1c74a9a2b30f485,66,1,2024-02-27T15:26:44.199Z,french_144.wav,0,pull,469,32,5,5,english,m,2,0.2,-23.8496949,0.63660565
60752e7ef1c74a9a2b30f485,66,1,2024-02-27T15:26:44.199Z,french_144.wav,0,pull,469,32,5,5,english,m,3,0.25666667,9.69074846,0.31092992
60752e7ef1c74a9a2b30f485,67,1,2024-02-27T15:26:44.199Z,french_964.wav,0,poule,417,32,5,5,english,m,0,0.0,-56.07629317,1.19943116
60752e7ef1c74a9a2b30f485,67,1,2024-02-27T15:26:44.199Z,french_964.wav,0,poule,417,32,5,5,english,m,1,0.1,-19.45500988,0.89458005
60752e7ef1c74a9a2b30f485,67,1,2024-02-27T15:26:44.199Z,french_964.wav,0,poule,417,32,5,5,english,m,2,0.2,97.83653085,1.94180509
60752e7ef1c74a9a2b30f485,67,1,2024-02-27T15:26:44.199Z,french_964.wav,0,poule,417,32,5,5,english,m,3,0.25666667,70.5600413,0.3273771
60752e7ef1c74a9a2b30f485,68,1,2024-02-27T15:26:44.199Z,french_825.wav,0,poule,910,32,5,5,english,m,0,0.0,84.83698811,1.37161619
60752e7ef1c74a9a2b30f485,68,1,2024-02-27T15:26:44.199Z,french_825.wav,0,poule,910,32,5,5,english,m,1,0.1,58.10246948,1.88160769
60752e7ef1c74a9a2b30f485,68,1,2024-02-27T15:26:44.199Z,french_825.wav,0,poule,910,32,5,5,english,m,2,0.2,95.28795352,0.7228962
60752e7ef1c74a9a2b30f485,68,1,2024-02-27T15:26:44.199Z,french_825.wav,0,poule,910,32,5,5,english,m,3,0.25666667,40.96055212,1.18109596
60752e7ef1c74a9a2b30f485,69,1,2024-02-27T15:26:44.199Z,french_935.wav,0,poule,271,32,5,5,english,m,0,0.0,-44.99349069,1.17032266
60752e7ef1c74a9a2b30f485,69,1,2024-02-27T15:26:44.199Z,french_935.wav,0,poule,271,32,5,5,english,m,1,0.1,-36.99771552,1.41237049
60752e7ef1c74a9a2b30f485,69,1,2024-02-27T15:26:44.199Z,french_935.wav,0,poule,271,32,5,5,english,m,2,0.2,73.94933819,0.72245199
60752e7ef1c74a9a2b30f485,69,1,2024-02-27T15:26:44.199Z,french_935.wav,0,poule,271,32,5,5,english,m,3,0.25666667,99.03349287,1.64210213
60752e7ef1c74a9a2b30f485,70,1,2024-02-27T15:26:44.199Z,french_846.wav,0,poule,316,32,5,5,english,m,0,0.0,70.67693031,1.34255937
60752e7ef1c74a9a2b30f485,70,1,2024-02-27T15:26:44.199Z,french_846.wav,0,poule,316,32,5,5,english,m,1,0.1,-66.50397015,0.4230684
60752e7ef1c74a9a2b30f485,70,1,2024-02-27T15:26:44.199Z,french_846.wav,0,poule,316,32,5,5,english,m,2,0.2,37.81388611,1.53749893
60752e7ef1c74a9a2b30f485,70,1,2024-02-27T15:26:44.199Z,french_846.wav,0,poule,316,32,5,5,english,m,3,0.25666667,-25.90764661,0.57819313
60752e7ef1c74a9a2b30f485,71,1,2024-02-27T15:26:44.199Z,french_987.wav,0,pull,636,32,5,5,english,m,0,0.0,29.59235099,0.62183529
60752e7ef1c74a9a2b30f485,71,1,2024-02-27T15:26:44.199Z,french_987.wav,0,pull,636,32,5,5,english,m,1,0.1,34.94187385,0.21370909
60752e7ef1c74a9a2b30f485,71,1,2024-02-27T15:26:44.199Z,french_987.wav,0,pull,636,32,5,5,english,m,2,0.2,50.69614072,0.33639435
60752e7ef1c74a9a2b30f485,71,1,2024-02-27T15:26:44.199Z,french_987.wav,0,pull,636,32,5,5,english,m,3,0.25666667,30.08512425,1.23768731
60752e7ef1c74a9a2b30f485,72,1,2024-02-27T15:26:44.199Z,french_832.wav,0,poule,266,32,5,5,english,m,0,0.0,72.4957568,1.55241154
60752e7ef1c74a9a2b30f485,72,1,2024-02-27T15:26:44.199Z,french_832.wav,0,poule,266,32,5,5,english,m,1,0.1,-42.52759542,0.51342339
60752e7ef1c74a9a2b30f485,72,1,2024-02-27T15:26:44.199Z,french_832.wav,0,poule,266,32,5,5,english,m,2,0.2,-19.34515336,1.23436829
60752e7ef1c74a9a2b30f485,72,1,2024-02-27T15:26:44.199Z,french_832.wav,0,poule,266,32,5,5,english,m,3,0.25666667,29.69631954,0.63501701
60752e7ef1c74a9a2b30f485,73,1,2024-02-27T15:26:44.199Z,french_154.wav,0,poule,1001,32,5,5,english,m,0,0.0,-35.77368222,0.10248514
60752e7ef1c74a9a2b30f485,73,1,2024-02-27T15:26:44.199Z,french_154.wav,0,poule,1001,32,5,5,english,m,1,0.1,5.93918526,0.42084566
60752e7ef1c74a9a2b30f485,73,1,2024-02-27T15:26:44.199Z,french_154.wav,0,poule,1001,32,5,5,english,m,2,0.2,36.13172948,1.29147589
60752e7ef1c74a9a2b30f485,73,1,2024-02-27T15:26:44.199Z,french_154.wav,0,poule,1001,32,5,5,english,m,3,0.25666667,-52.77395679,0.60791213
60752e7ef1c74a9a2b30f485,74,1,2024-02-27T15:26:44.199Z,french_344.wav,0,pull,670,32,5,5,english,m,0,0.0,52.58849346,0.27482393
60752e7ef1c74a9a2b30f485,74,1,2024-02-27T15:26:44.199Z,french_344.wav,0,pull,670,32,5,5,english,m,1,0.1,-22.3140036,0.23105003
60752e7ef1c74a9a2b30f485,74,1,2024-02-27T15:26:44.199Z,french_344.wav,0,pull,670,32,5,5,english,m,2,0.2,-66.1637605,0.54206464
60752e7ef1c74a9a2b30f485,74,1,2024-02-27T15:26:44.199Z,french_344.wav,0,pull,670,32,5,5,english,m,3,0.25666667,-23.8196401,1.18246439
60752e7ef1c74a9a2b30f485,75,1,2024-02-27T15:26:44.199Z,french_151.wav,0,poule,1255,32,5,5,english,m,0,0.0,71.76568175,1.0902049
60752e7ef1c74a9a2b30f485,75,1,2024-02-27T15:26:44.199Z,french_151.wav,0,poule,1255,32,5,5,english,m,1,0.1,-74.84502799,0.763019
60752e7ef1c74a9a2b30f485,75,1,2024-02-27T15:26:44.199Z,french_151.wav,0,poule,1255,32,5,5,english,m,2,0.2,-35.2682716,0.78938414
60752e7ef1c74a9a2b30f485,75,1,2024-02-27T15:26:44.199Z,french_151.wav,0,poule,1255,32,5,5,english,m,3,0.25666667,-20.9501034,0.23047004
60752e7ef1c74a9a2b30f485,76,1,2024-02-27T15:26:44.199Z,french_18.wav,0,poule,717,32,5,5,english,m,0,0.0,29.29326365,1.56476478
60752e7ef1c74a9a2b30f485,76,1,2024-02-27T15:26:44.199Z,french_18.wav,0,poule,717,32,5,5,english,m,1,0.1,-65.9497706,0.7748919
60752e7ef1c74a9a2b30f485,76,1,2024-02-27T15:26:44.199Z,french_18.wav,0,poule,717,32,5,5,english,m,2,0.2,-68.38187686,0.73946843
60752e7ef1c74a9a2b30f485,76,1,2024-02-27T15:26:44.199Z,french_18.wav,0,poule,717,32,5,5,english,m,3,0.25666667,26.32477662,1.33435109
60752e7ef1c74a9a2b30f485,77,1,2024-02-27T15:26:44.199Z,french_471.wav,0,poule,386,32,5,5,english,m,0,0.0,35.47460752,0.77553755
60752e7ef1c74a9a2b30f485,77,1,2024-02-27T15:26:44.199Z,french_471.wav,0,poule,386,32,5,5,english,m,1,0.1,-49.00208302,1.38730058
60752e7ef1c74a9a2b30f485,77,1,2024-02-27T15:26:44.199Z,french_471.wav,0,poule,386,32,5,5,english,m,2,0.2,47.17677121,0.98156507
60752e7ef1c74a9a2b30f485,77,1,2024-02-27T15:26:44.199Z,french_471.wav,0,poule,386,32,5,5,english,m,3,0.25666667,64.34433074,0.66404961
60752e7ef1c74a9a2b30f485,78,1,2024-02-27T15:26:44.199Z,french_809.wav,0,poule,1062,32,5,5,english,m,0,0.0,-35.34138518,0.91250327
60752e7ef1c74a9a2b30f485,78,1,2024-02-27T15:26:44.199Z,french_809.wav,0,poule,1062,32,5,5,english,m,1,0.1,-27.53268432,1.55486221
60752e7ef1c74a9a2b30f485,78,1,2024-02-27T15:26:44.199Z,french_809.wav,0,poule,1062,32,5,5,english,m,2,0.2,-4.59062168,0.05513513
60752e7ef1c74a9a2b30f485,78,1,2024-02-27T15:26:44.199Z,french_809.wav,0,poule,1062,32,5,5,english,m,3,0.25666667,54.17413939,0.74937359
60752e7ef1c74a9a2b30f485,79,1,2024-02-27T15:26:44.199Z,french_578.wav,0,poule,415,32,5,5,english,m,0,0.0,-7.38817871,1.21970749
60752e7ef1c74a9a2b30f485,79,1,2024-02-27T15:26:44.199Z,french_578.wav,0,poule,415,32,5,5,english,m,1,0.1,-62.82402322,1.48191428
60752e7ef1c74a9a2b30f485,79,1,2024-02-27T15:26:44.199Z,french_578.wav,0,poule,415,32,5,5,english,m,2,0.2,-74.03812343,0.32639168
60752e7ef1c74a9a2b30f485,79,1,2024-02-27T15:26:44.199Z,french_578.wav,0,poule,415,32,5,5,english,m,3,0.25666667,-40.1929109,0.05147762
60752e7ef1c74a9a2b30f485,80,1,2024-02-27T15:26:44.199Z,french_138.wav,0,poule,213,32,5,5,english,m,0,0.0,52.19266886,1.6075583
60752e7ef1c74a9a2b30f485,80,1,2024-02-27T15:26:44.199Z,french_138.wav,0,poule,213,32,5,5,english,m,1,0.1,-20.87110469,1.57175316
60752e7ef1c74a9a2b30f485,80,1,2024-02-27T15:26:44.199Z,french_138.wav,0,poule,213,32,5,5,english,m,2,0.2,-63.85285305,0.73019834
60752e7ef1c74a9a2b30f485,80,1,2024-02-27T15:26:44.199Z,french_138.wav,0,poule,213,32,5,5,english,m,3,0.25666667,35.09837538,0.12473077
60752e7ef1c74a9a2b30f485,81,1,2024-02-27T15:26:44.199Z,french_20.wav,0,poule,196,32,5,5,english,m,0,0.0,-78.24291845,1.07200279
60752e7ef1c74a9a2b30f485,81,1,2024-02-27T15:26:44.199Z,french_20.wav,0,poule,196,32,5,5,english,m,1,0.1,-38.50442353,1.52694999
60752e7ef1c74a9a2b30f485,81,1,2024-02-27T15:26:44.199Z,french_20.wav,0,poule,196,32,5,5,english,m,2,0.2,8.39731749,0.86133356
60752e7ef1c74a9a2b30f485,81,1,2024-02-27T15:26:44.199Z,french_20.wav,0,poule,196,32,5,5,english,m,3,0.25666667,-43.87764948,0.74788424
60752e7ef1c74a9a2b30f485,82,1,2024-02-27T15:26:44.199Z,french_646.wav,0,pull,516,32,5,5,english,m,0,0.0,98.47808426,1.66300853
60752e7ef1c74a9a2b30f485,82,1,2024-02-27T15:26:44.199Z,french_646.wav,0,pull,516,32,5,5,english,m,1,0.1,98.7741611,0.58876545
60752e7ef1c74a9a2b30f485,82,1,2024-02-27T15:26:44.199Z,french_646.wav,0,pull,516,32,5,5,english,m,2,0.2,-51.76092723,0.47940067
60752e7ef1c74a9a2b30f485,82,1,2024-02-27T15:26:44.199Z,french_646.wav,0,pull,516,32,5,5,english,m,3,0.25666667,53.55118827,0.48942216
60752e7ef1c74a9a2b30f485,83,1,2024-02-27T15:26:44.199Z,french_509.wav,0,poule,424,32,5,5,english,m,0,0.0,98.86127545,0.38470371
60752e7ef1c74a9a2b30f485,83,1,2024-02-27T15:26:44.199Z,french_509.wav,0,poule,424,32,5,5,english,m,1,0.1,-58.47415861,0.77077576
60752e7ef1c74a9a2b30f485,83,1,2024-02-27T15:26:44.199Z,french_509.wav,0,poule,424,32,5,5,english,m,2,0.2,23.95425933,1.30836253
60752e7ef1c74a9a2b30f485,83,1,2024-02-27T15:26:44.199Z,french_509.wav,0,poule,424,32,5,5,english,m,3,0.25666667,74.34097669,1.2187589
60752e7ef1c74a9a2b30f485,84,1,2024-02-27T15:26:44.199Z,french_895.wav,0,poule,743,32,5,5,english,m,0,0.0,52.32100115,0.06001912
60752e7ef1c74a9a2b30f485,84,1,2024-02-27T15:26:44.199Z,french_895.wav,0,poule,743,32,5,5,english,m,1,0.1,-68.39097894,0.92594104
60752e7ef1c74a9a2b30f485,84,1,2024-02-27T15:26:44.199Z,french_895.wav,0,poule,743,32,5,5,english,m,2,0.2,86.56169168,1.18275101
60752e7ef1c74a9a2b30f485,84,1,2024-02-27T15:26:44.199Z,french_895.wav,0,poule,743,32,5,5,english,m,3,0.25666667,-55.69575084,0.90868208
60752e7ef1c74a9a2b30f485,85,1,2024-02-27T15:26:44.199Z,french_388.wav,0,poule,643,32,5,5,english,m,0,0.0,-56.99851318,0.76802497
60752e7ef1c74a9a2b30f485,85,1,2024-02-27T15:26:44.199Z,french_388.wav,0,poule,643,32,5,5,english,m,1,0.1,-28.42117093,1.07190306
60752e7ef1c74a9a2b30f485,85,1,2024-02-27T15:26:44.199Z,french_388.wav,0,poule,643,32,5,5,english,m,2,0.2,-17.37440647,0.91030877
60752e7ef1c74a9a2b30f485,85,1,2024-02-27T15:26:44.199Z,french_388.wav,0,poule,643,32,5,5,english,m,3,0.25666667,19.5608334,0.1576099
60752e7ef1c74a9a2b30f485,86,1,2024-02-27T15:26:44.199Z,french_640.wav,0,poule,370,32,5,5,english,m,0,0.0,-15.56807975,1.93294171
60752e7ef1c74a9a2b30f485,86,1,2024-02-27T15:26:44.199Z,french_640.wav,0,poule,370,32,5,5,english,m,1,0.1,54.79262645,1.3982646
60752e7ef1c74a9a2b30f485,86,1,2024-02-27T15:26:44.199Z,french_640.wav,0,poule,370,32,5,5,english,m,2,0.2,-80.20485071,1.35271381
60752e7ef1c74a9a2b30f485,86,1,2024-02-27T15:26:44.199Z,french_640.wav,0,poule,370,32,5,5,english,m,3,0.25666667,-47.69326323,0.1240569
60752e7ef1c74a9a2b30f485,87,1,2024-02-27T15:26:44.199Z,french_358.wav,0,poule,300,32,5,5,english,m,0,0.0,-21.88755711,1.21014447
60752e7ef1c74a9a2b30f485,87,1,2024-02-27T15:26:44.199Z,french_358.wav,0,poule,300,32,5,5,english,m,1,0.1,-5.628981,1.2650669
60752e7ef1c74a9a2b30f485,87,1,2024-02-27T15:26:44.199Z,french_358.wav,0,poule,300,32,5,5,english,m,2,0.2,-60.01307733,0.97277603
60752e7ef1c74a9a2b30f485,87,1,2024-02-27T15:26:44.199Z,french_358.wav,0,poule,300,32,5,5,english,m,3,0.25666667,65.58947466,0.28969343
60752e7ef1c74a9a2b30f485,88,1,2024-02-27T15:26:44.199Z,french_403.wav,0,poule,210,32,5,5,english,m,0,0.0,-74.59140771,1.12132674
60752e7ef1c74a9a2b30f485,88,1,2024-02-27T15:26:44.199Z,french_403.wav,0,poule,210,32,5,5,english,m,1,0.1,29.14043257,1.20077734
60752e7ef1c74a9a2b30f485,88,1,2024-02-27T15:26:44.199Z,french_403.wav,0,poule,210,32,5,5,english,m,2,0.2,37.28402081,0.75804668
60752e7ef1c74a9a2b30f485,88,1,2024-02-27T15:26:44.199Z,french_403.wav,0,poule,210,32,5,5,english,m,3,0.25666667,-66.4238982,0.86443687
60752e7ef1c74a9a2b30f485,89,1,2024-02-27T15:26:44.199Z,french_541.wav,0,poule,300,32,5,5,english,m,0,0.0,53.31308138,1.84251248
60752e7ef1c74a9a2b30f485,89,1,2024-02-27T15:26:44.199Z,french_541.wav,0,poule,300,32,5,5,english,m,1,0.1,48.16539561,0.97729738
60752e7ef1c74a9a2b30f485,89,1,2024-02-27T15:26:44.199Z,french_541.wav,0,poule,300,32,5,5,english,m,2,0.2,-38.85260984,1.28801687
60752e7ef1c74a9a2b30f485,89,1,2024-02-27T15:26:44.199Z,french_541.wav,0,poule,300,32,5,5,english,m,3,0.25666667,47.13501746,0.86548213
60752e7ef1c74a9a2b30f485,90,1,2024-02-27T15:26:44.199Z,french_702.wav,0,poule,163,32,5,5,english,m,0,0.0,-53.8337347,0.65995653
60752e7ef1c74a9a2b30f485,90,1,2024-02-27T15:26:44.199Z,french_702.wav,0,poule,163,32,5,5,english,m,1,0.1,13.17722269,1.48591365
60752e7ef1c74a9a2b30f485,90,1,2024-02-27T15:26:44.199Z,french_702.wav,0,poule,163,32,5,5,english,m,2,0.2,-63.63948694,1.16262137
60752e7ef1c74a9a2b30f485,90,1,2024-02-27T15:26:44.199Z,french_702.wav,0,poule,163,32,5,5,english,m,3,0.25666667,-7.77006894,1.49403865
60752e7ef1c74a9a2b30f485,91,1,2024-02-27T15:26:44.199Z,french_507.wav,0,poule,436,32,5,5,english,m,0,0.0,-39.00130205,0.88980729
60752e7ef1c74a9a2b30f485,91,1,2024-02-27T15:26:44.199Z,french_507.wav,0,poule,436,32,5,5,english,m,1,0.1,8.15448279,1.12034654
60752e7ef1c74a9a2b30f485,91,1,2024-02-27T15:26:44.199Z,french_507.wav,0,poule,436,32,5,5,english,m,2,0.2,-39.88004764,1.15006522
60752e7ef1c74a9a2b30f485,91,1,2024-02-27T15:26:44.199Z,french_507.wav,0,poule,436,32,5,5,english,m,3,0.25666667,66.54300966,1.10945683
60752e7ef1c74a9a2b30f485,92,1,2024-02-27T15:26:44.199Z,french_311.wav,0,poule,185,32,5,5,english,m,0,0.0,-11.62830293,1.293503
60752e7ef1c74a9a2b30f485,92,1,2024-02-27T15:26:44.199Z,french_311.wav,0,poule,185,32,5,5,english,m,1,0.1,56.07764908,1.34330607
60752e7ef1c74a9a2b30f485,92,1,2024-02-27T15:26:44.199Z,french_311.wav,0,poule,185,32,5,5,english,m,2,0.2,-9.52866726,1.07022137
60752e7ef1c74a9a2b30f485,92,1,2024-02-27T15:26:44.199Z,french_311.wav,0,poule,185,32,5,5,english,m,3,0.25666667,52.78176644,0.99072219
60752e7ef1c74a9a2b30f485,93,1,2024-02-27T15:26:44.199Z,french_356.wav,0,poule,304,32,5,5,english,m,0,0.0,-28.24477507,0.35227097
60752e7ef1c74a9a2b30f485,93,1,2024-02-27T15:26:44.199Z,french_356.wav,0,poule,304,32,5,5,english,m,1,0.1,-36.63699676,1.16218152
60752e7ef1c74a9a2b30f485,93,1,2024-02-27T15:26:44.199Z,french_356.wav,0,poule,304,32,5,5,english,m,2,0.2,67.9524461,1.82395355
60752e7ef1c74a9a2b30f485,93,1,2024-02-27T15:26:44.199Z,french_356.wav,0,poule,304,32,5,5,english,m,3,0.25666667,8.53170414,1.63669257
60752e7ef1c74a9a2b30f485,94,1,2024-02-27T15:26:44.199Z,french_788.wav,0,pull,387,32,5,5,english,m,0,0.0,-49.59093674,1.03975343
60752e7ef1c74a9a2b30f485,94,1,2024-02-27T15:26:44.199Z,french_788.wav,0,pull,387,32,5,5,english,m,1,0.1,-37.12859592,0.12530513
60752e7ef1c74a9a2b30f485,94,1,2024-02-27T15:26:44.199Z,french_788.wav,0,pull,387,32,5,5,english,m,2,0.2,78.06548219,0.40268526
60752e7ef1c74a9a2b30f485,94,1,2024-02-27T15:26:44.199Z,french_788.wav,0,pull,387,32,5,5,english,m,3,0.25666667,52.38730842,1.72021211
60752e7ef1c74a9a2b30f485,95,1,2024-02-27T15:26:44.199Z,french_515.wav,0,pull,571,32,5,5,english,m,0,0.0,90.1787868,1.05169603
60752e7ef1c74a9a2b30f485,95,1,2024-02-27T15:26:44.199Z,french_515.wav,0,pull,571,32,5,5,english,m,1,0.1,95.19464712,0.16234368
60752e7ef1c74a9a2b30f485,95,1,2024-02-27T15:26:44.199Z,french_515.wav,0,pull,571,32,5,5,english,m,2,0.2,-71.09612906,1.85560054
60752e7ef1c74a9a2b30f485,95,1,2024-02-27T15:26:44.199Z,french_515.wav,0,pull,571,32,5,5,english,m,3,0.25666667,86.48037909,0.23492468
60752e7ef1c74a9a2b30f485,96,1,2024-02-27T15:26:44.199Z,french_375.wav,0,poule,574,32,5,5,english,m,0,0.0,25.91972282,0.89929791
60752e7ef1c74a9a2b30f485,96,1,2024-02-27T15:26:44.199Z,french_375.wav,0,poule,574,32,5,5,english,m,1,0.1,-60.98407933,0.6101435
60752e7ef1c74a9a2b30f485,96,1,2024-02-27T15:26:44.199Z,french_375.wav,0,poule,574,32,5,5,english,m,2,0.2,-55.02276561,1.65353502
60752e7ef1c74a9a2b30f485,96,1,2024-02-27T15:26:44.199Z,french_375.wav,0,poule,574,32,5,5,english,m,3,0.25666667,50.70039074,0.66964756
60752e7ef1c74a9a2b30f485,97,1,2024-02-27T15:26:44.199Z,french_960.wav,0,pull,903,32,5,5,english,m,0,0.0,-21.44081237,0.51475761
60752e7ef1c74a9a2b30f485,97,1,2024-02-27T15:26:44.199Z,french_960.wav,0,pull,903,32,5,5,english,m,1,0.1,-88.4923718,1.11613408
60752e7ef1c74a9a2b30f485,97,1,2024-02-27T15:26:44.199Z,french_960.wav,0,pull,903,32,5,5,english,m,2,0.2,38.79957112,0.09358172
60752e7ef1c74a9a2b30f485,97,1,2024-02-27T15:26:44.199Z,french_960.wav,0,pull,903,32,5,5,english,m,3,0.25666667,-94.67313386,1.96196729
60752e7ef1c74a9a2b30f485,98,1,2024-02-27T15:26:44.199Z,french_511.wav,0,poule,269,32,5,5,english,m,0,0.0,-19.9871771,1.33271467
60752e7ef1c74a9a2b30f485,98,1,2024-02-27T15:26:44.199Z,french_511.wav,0,poule,269,32,5,5,english,m,1,0.1,-61.98813266,1.54343533
60752e7ef1c74a9a2b30f485,98,1,2024-02-27T15:26:44.199Z,french_511.wav,0,poule,269,32,5,5,english,m,2,0.2,-51.99144191,1.11888865
60752e7ef1c74a9a2b30f485,98,1,2024-02-27T15:26:44.199Z,french_511.wav,0,poule,269,32,5,5,english,m,3,0.25666667,26.5419494,1.56196296
60752e7ef1c74a9a2b30f485,99,1,2024-02-27T15:26:44.199Z,french_542.wav,0,poule,1034,32,5,5,english,m,0,0.0,88.21755363,1.84211071
60752e7ef1c74a9a2b30f485,99,1,2024-02-27T15:26:44.199Z,french_542.wav,0,poule,1034,32,5,5,english,m,1,0.1,59.97016865,1.57396898
60752e7ef1c74a9a2b30f485,99,1,2024-02-27T15:26:44.199Z,french_542.wav,0,poule,1034,32,5,5,english,m,2,0.2,-54.94167031,1.14268549
60752e7ef1c74a9a2b30f485,99,1,2024-02-27T15:26:44.199Z,french_542.wav,0,poule,1034,32,5,5,english,m,3,0.25666667,-74.88408835,1.52682198
60752e7ef1c74a9a2b30f485,100,2,2024-02-27T15:26:44.199Z,french_313.wav,0,poule,342,32,5,5,english,m,0,0.0,50.15458506,0.55380102
60752e7ef1c74a9a2b30f485,100,2,2024-02-27T15:26:44.199Z,french_313.wav,0,poule,342,32,5,5,english,m,1,0.1,2.46815661,0.88494107
60752e7ef1c74a9a2b30f485,100,2,2024-02-27T15:26:44.199Z,french_313.wav,0,poule,342,32,5,5,english,m,2,0.2,44.14025365,0.65214702
60752e7ef1c74a9a2b30f485,100,2,2024-02-27T15:26:44.199Z,french_313.wav,0,poule,342,32,5,5,english,m,3,0.25666667,-56.8276357,0.5616472
60752e7ef1c74a9a2b30f485,101,2,2024-02-27T15:26:44.199Z,french_785.wav,0,poule,336,32,5,5,english,m,0,0.0,-85.51822201,1.39201941
60752e7ef1c74a9a2b30f485,101,2,2024-02-27T15:26:44.199Z,french_785.wav,0,poule,336,32,5,5,english,m,1,0.1,-3.83792251,0.93814534
60752e7ef1c74a9a2b30f485,101,2,2024-02-27T15:26:44.199Z,french_785.wav,0,poule,336,32,5,5,english,m,2,0.2,45.88945115,0.59493864
60752e7ef1c74a9a2b30f485,101,2,2024-02-27T15:26:44.199Z,french_785.wav,0,poule,336,32,5,5,english,m,3,0.25666667,38.51931882,0.08649149
60752e7ef1c74a9a2b30f485,102,2,2024-02-27T15:26:44.199Z,french_900.wav,0,poule,326,32,5,5,english,m,0,0.0,-40.26137712,1.52095516
60752e7ef1c74a9a2b30f485,102,2,2024-02-27T15:26:44.199Z,french_900.wav,0,poule,326,32,5,5,english,m,1,0.1,-58.52959628,0.45545329
60752e7ef1c74a9a2b30f485,102,2,2024-02-27T15:26:44.199Z,french_900.wav,0,poule,326,32,5,5,english,m,2,0.2,-9.02711279,1.45244251
60752e7ef1c74a9a2b30f485,102,2,2024-02-27T15:26:44.199Z,french_900.wav,0,poule,326,32,5,5,english,m,3,0.25666667,-16.09488558,1.49180456
60752e7ef1c74a9a2b30f485,103,2,2024-02-27T15:26:44.199Z,french_166.wav,0,poule,195,32,5,5,english,m,0,0.0,-13.71320418,1.40282364
60752e7ef1c74a9a2b30f485,103,2,2024-02-27T15:26:44.199Z,french_166.wav,0,poule,195,32,5,5,english,m,1,0.1,-74.77814183,0.51226478
60752e7ef1c74a9a2b30f485,103,2,2024-02-27T15:26:44.199Z,french_166.wav,0,poule,195,32,5,5,english,m,2,0.2,42.48534987,1.59981073
60752e7ef1c74a9a2b30f485,103,2,2024-02-27T15:26:44.199Z,french_166.wav,0,poule,195,32,5,5,english,m,3,0.25666667,-48.97271451,1.00485648
60752e7ef1c74a9a2b30f485,104,2,2024-02-27T15:26:44.199Z,french_462.wav,0,poule,267,32,5,5,english,m,0,0.0,-21.95394664,1.87011175
60752e7ef1c74a9a2b30f485,104,2,2024-02-27T15:26:44.199Z,french_462.wav,0,poule,267,32,5,5,english,m,1,0.1,40.83343907,1.54087482
60752e7ef1c74a9a2b30f485,104,2,2024-02-27T15:26:44.199Z,french_462.wav,0,poule,267,32,5,5,english,m,2,0.2,-14.27053038,0.9591328
60752e7ef1c74a9a2b30f485,104,2,2024-02-27T15:26:44.199Z,french_462.wav,0,poule,267,32,5,5,english,m,3,0.25666667,85.20745493,0.45105527
60752e7ef1c74a9a2b30f485,105,2,2024-02-27T15:26:44.199Z,french_523.wav,0,poule,253,32,5,5,english,m,0,0.0,-20.54401218,1.01178449
60752e7ef1c74a9a2b30f485,105,2,2024-02-27T15:26:44.199Z,french_523.wav,0,poule,253,32,5,5,english,m,1,0.1,-64.61887171,1.79283511
60752e7ef1c74a9a2b30f485,105,2,2024-02-27T15:26:44.199Z,french_523.wav,0,poule,253,32,5,5,english,m,2,0.2,-56.67652055,0.92711934
60752e7ef1c74a9a2b30f485,105,2,2024-02-27T15:26:44.199Z,french_523.wav,0,poule,253,32,5,5,english,m,3,0.25666667,-29.90055738,1.0186138
60752e7ef1c74a9a2b30f485,106,2,2024-02-27T15:26:44.199Z,french_691.wav,0,poule,185,32,5,5,english,m,0,0.0,89.02514599,1.04651451
60752e7ef1c74a9a2b30f485,106,2,2024-02-27T15:26:44.199Z,french_691.wav,0,poule,185,32,5,5,english,m,1,0.1,84.72414094,1.61938954
60752e7ef1c74a9a2b30f485,106,2,2024-02-27T15:26:44.199Z,french_691.wav,0,poule,185,32,5,5,english,m,2,0.2,-3.6265137,1.34588415
60752e7ef1c74a9a2b30f485,106,2,2024-02-27T15:26:44.199Z,french_691.wav,0,poule,185,32,5,5,english,m,3,0.25666667,-99.35319265,1.50620009
60752e7ef1c74a9a2b30f485,107,2,2024-02-27T15:26:44.199Z,french_480.wav,0,poule,209,32,5,5,english,m,0,0.0,60.74421865,1.29752088
60752e7ef1c74a9a2b30f485,107,2,2024-02-27T15:26:44.199Z,french_480.wav,0,poule,209,32,5,5,english,m,1,0.1,-29.59792655,1.96700759
60752e7ef1c74a9a2b30f485,107,2,2024-02-27T15:26:44.199Z,french_480.wav,0,poule,209,32,5,5,english,m,2,0.2,62.18386975,1.69632814
60752e7ef1c74a9a2b30f485,107,2,2024-02-27T15:26:44.199Z,french_480.wav,0,poule,209,32,5,5,english,m,3,0.25666667,-29.20855136,1.65374165
60752e7ef1c74a9a2b30f485,108,2,2024-02-27T15:26:44.199Z,french_418.wav,0,poule,435,32,5,5,english,m,0,0.0,69.65568707,1.45647369
60752e7ef1c74a9a2b30f485,108,2,2024-02-27T15:26:44.199Z,french_418.wav,0,poule,435,32,5,5,english,m,1,0.1,-73.62960571,0.96644453
60752e7ef1c74a9a2b30f485,108,2,2024-02-27T15:26:44.199Z,french_418.wav,0,poule,435,32,5,5,english,m,2,0.2,-12.19608601,0.59086709
60752e7ef1c74a9a2b30f485,108,2,2024-02-27T15:26:44.199Z,french_418.wav,0,poule,435,32,5,5,english,m,3,0.25666667,31.099867,1.25987346
60752e7ef1c74a9a2b30f485,109,2,2024-02-27T15:26:44.199Z,french_280.wav,0,poule,738,32,5,5,english,m,0,0.0,-67.41100242,0.87165921
60752e7ef1c74a9a2b30f485,109,2,2024-02-27T15:26:44.199Z,french_280.wav,0,poule,738,32,5,5,english,m,1,0.1,-0.65291527,0.40210454
60752e7ef1c74a9a2b30f485,109,2,2024-02-27T15:26:44.199Z,french_280.wav,0,poule,738,32,5,5,english,m,2,0.2,-45.07946214,0.8560963
60752e7ef1c74a9a2b30f485,109,2,2024-02-27T15:26:44.199Z,french_280.wav,0,poule,738,32,5,5,english,m,3,0.25666667,-37.24252155,1.09108247
60752e7ef1c74a9a2b30f485,110,2,2024-02-27T15:26:44.199Z,french_754.wav,0,pull,1518,32,5,5,english,m,0,0.0,11.6644261,0.15061695
60752e7ef1c74a9a2b30f485,110,2,2024-02-27T15:26:44.199Z,french_754.wav,0,pull,1518,32,5,5,english,m,1,0.1,5.00985124,0.57469516
60752e7ef1c74a9a2b30f485,110,2,2024-02-27T15:26:44.199Z,french_754.wav,0,pull,1518,32,5,5,english,m,2,0.2,23.99974903,0.45412791
60752e7ef1c74a9a2b30f485,110,2,2024-02-27T15:26:44.199Z,french_754.wav,0,pull,1518,32,5,5,english,m,3,0.25666667,23.77807811,0.27591884
60752e7ef1c74a9a2b30f485,111,2,2024-02-27T15:26:44.199Z,french_805.wav,0,poule,413,32,5,5,english,m,0,0.0,21.15897581,1.3244225
60752e7ef1c74a9a2b30f485,111,2,2024-02-27T15:26:44.199Z,french_805.wav,0,poule,413,32,5,5,english,m,1,0.1,-84.51795283,0.68750265
60752e7ef1c74a9a2b30f485,111,2,2024-02-27T15:26:44.199Z,french_805.wav,0,poule,413,32,5,5,english,m,2,0.2,72.20878309,0.56084624
60752e7ef1c74a9a2b30f485,111,2,2024-02-27T15:26:44.199Z,french_805.wav,0,poule,413,32,5,5,english,m,3,0.25666667,-28.14016055,0.45412894
60752e7ef1c74a9a2b30f485,112,2,2024-02-27T15:26:44.199Z,french_230.wav,0,poule,881,32,5,5,english,m,0,0.0,-41.35992563,1.74508263
60752e7ef1c74a9a2b30f485,112,2,2024-02-27T15:26:44.199Z,french_230.wav,0,poule,881,32,5,5,english,m,1,0.1,43.67449439,0.13993269
60752e7ef1c74a9a2b30f485,112,2,2024-02-27T15:26:44.199Z,french_230.wav,0,poule,881,32,5,5,english,m,2,0.2,25.98311508,0.94473259
60752e7ef1c74a9a2b30f485,112,2,2024-02-27T15:26:44.199Z,french_230.wav,0,poule,881,32,5,5,english,m,3,0.25666667,-21.63443629,1.52757814
60752e7ef1c74a9a2b30f485,113,2,2024-02-27T15:26:44.199Z,french_146.wav,0,pull,611,32,5,5,english,m,0,0.0,2.88911392,0.44051244
60752e7ef1c74a9a2b30f485,113,2,2024-02-27T15:26:44.199Z,french_146.wav,0,pull,611,32,5,5,english,m,1,0.1,20.34035446,0.76269488
60752e7ef1c74a9a2b30f485,113,2,2024-02-27T15:26:44.199Z,french_146.wav,0,pull,611,32,5,5,english,m,2,0.2,-17.47138226,0.12643706
60752e7ef1c74a9a2b30f485,113,2,2024-02-27T15:26:44.199Z,french_146.wav,0,pull,611,32,5,5,english,m,3,0.25666667,-15.1567399,0.55905625
60752e7ef1c74a9a2b30f485,114,2,2024-02-27T15:26:44.199Z,french_98.wav,0,pull,552,32,5,5,english,m,0,0.0,-5.34356544,0.47275823
60752e7ef1c74a9a2b30f485,114,2,2024-02-27T15:26:44.199Z,french_98.wav,0,pull,552,32,5,5,english,m,1,0.1,-51.77157259,0.98771666
60752e7ef1c74a9a2b30f485,114,2,2024-02-27T15:26:44.199Z,french_98.wav,0,pull,552,32,5,5,english,m,2,0.2,16.6615471,0.01400035
60752e7ef1c74a9a2b30f485,114,2,2024-02-27T15:26:44.199Z,french_98.wav,0,pull,552,32,5,5,english,m,3,0.25666667,-37.68560636,0.42827786
60752e7ef1c74a9a2b30f485,115,2,2024-02-27T15:26:44.199Z,french_685.wav,0,poule,282,32,5,5,english,m,0,0.0,-62.74714371,1.57330944
60752e7ef1c74a9a2b30f485,115,2,2024-02-27T15:26:44.199Z,french_685.wav,0,poule,282,32,5,5,english,m,1,0.1,48.52467862,1.34151114
60752e7ef1c74a9a2b30f485,115,2,2024-02-27T15:26:44.199Z,french_685.wav,0,poule,282,32,5,5,english,m,2,0.2,4.749694,0.18097188
60752e7ef1c74a9a2b30f485,115,2,2024-02-27T15:26:44.199Z,french_685.wav,0,poule,282,32,5,5,english,m,3,0.25666667,88.03032973,0.30113467
60752e7ef1c74a9a2b30f485,116,2,2024-02-27T15:26:44.199Z,french_189.wav,0,pull,399,32,5,5,english,m,0,0.0,25.45363348,0.70243048
60752e7ef1c74a9a2b30f485,116,2,2024-02-27T15:26:44.199Z,french_189.wav,0,pull,399,32,5,5,english,m,1,0.1,10.19219643,0.78977161
60752e7ef1c74a9a2b30f485,116,2,2024-02-27T15:26:44.199Z,french_189.wav,0,pull,399,32,5,5,english,m,2,0.2,79.32306783,0.18017453
60752e7ef1c74a9a2b30f485,116,2,2024-02-27T15:26:44.199Z,french_189.wav,0,pull,399,32,5,5,english,m,3,0.25666667,77.27494318,0.76350619
60752e7ef1c74a9a2b30f485,117,2,2024-02-27T15:26:44.199Z,french_287.wav,0,poule,612,32,5,5,english,m,0,0.0,-6.24804435,1.11596696
60752e7ef1c74a9a2b30f485,117,2,2024-02-27T15:26:44.199Z,french_287.wav,0,poule,612,32,5,5,english,m,1,0.1,-47.42967866,0.08887129
60752e7ef1c74a9a2b30f485,117,2,2024-02-27T15:26:44.199Z,french_287.wav,0,poule,612,32,5,5,english,m,2,0.2,-83.16585562,1.70974676
60752e7ef1c74a9a2b30f485,117,2,2024-02-27T15:26:44.199Z,french_287.wav,0,poule,612,32,5,5,english,m,3,0.25666667,77.49694817,0.42476907
60752e7ef1c74a9a2b30f485,118,2,2024-02-27T15:26:44.199Z,french_955.wav,0,poule,963,32,5,5,english,m,0,0.0,49.41572239,1.13440167
60752e7ef1c74a9a2b30f485,118,2,2024-02-27T15:26:44.199Z,french_955.wav,0,poule,963,32,5,5,english,m,1,0.1,75.37923123,1.49278765
60752e7ef1c74a9a2b30f485,118,2,2024-02-27T15:26:44.199Z,french_955.wav,0,poule,963,32,5,5,english,m,2,0.2,0.1370905,0.20624254
60752e7ef1c74a9a2b30f485,118,2,2024-02-27T15:26:44.199Z,french_955.wav,0,poule,963,32,5,5,english,m,3,0.25666667,22.03577701,0.01599226
60752e7ef1c74a9a2b30f485,119,2,2024-02-27T15:26:44.199Z,french_791.wav,0,pull,524,32,5,5,english,m,0,0.0,-81.64215326,0.09493453
60752e7ef1c74a9a2b30f485,119,2,2024-02-27T15:26:44.199Z,french_791.wav,0,pull,524,32,5,5,english,m,1,0.1,84.74526907,0.0053506
60752e7ef1c74a9a2b30f485,119,2,2024-02-27T15:26:44.199Z,french_791.wav,0,pull,524,32,5,5,english,m,2,0.2,-10.10354349,1.61132934
60752e7ef1c74a9a2b30f485,119,2,2024-02-27T15:26:44.199Z,french_791.wav,0,pull,524,32,5,5,english,m,3,0.25666667,-10.14583619,1.39802197
60752e7ef1c74a9a2b30f485,120,2,2024-02-27T15:26:44.199Z,french_665.wav,0,poule,1036,32,5,5,english,m,0,0.0,1.77078633,0.29838278
60752e7ef1c74a9a2b30f485,120,2,2024-02-27T15:26:44.199Z,french_665.wav,0,poule,1036,32,5,5,english,m,1,0.1,-95.60257374,0.72198918
60752e7ef1c74a9a2b30f485,120,2,2024-02-27T15:26:44.199Z,french_665.wav,0,poule,1036,32,5,5,english,m,2,0.2,-26.21333041,0.91284695
60752e7ef1c74a9a2b30f485,120,2,2024-02-27T15:26:44.199Z,french_665.wav,0,poule,1036,32,5,5,english,m,3,0.25666667,-67.7705493,0.52625369
60752e7ef1c74a9a2b30f485,121,2,2024-02-27T15:26:44.199Z,french_188.wav,0,poule,604,32,5,5,english,m,0,0.0,49.6210254,1.07409835
60752e7ef1c74a9a2b30f485,121,2,2024-02-27T15:26:44.199Z,french_188.wav,0,poule,604,32,5,5,english,m,1,0.1,-51.2490581,0.05018037
60752e7ef1c74a9a2b30f485,121,2,2024-02-27T15:26:44.199Z,french_188.wav,0,poule,604,32,5,5,english,m,2,0.2,40.00177065,1.57813661
60752e7ef1c74a9a2b30f485,121,2,2024-02-27T15:26:44.199Z,french_188.wav,0,poule,604,32,5,5,english,m,3,0.25666667,-3.28540475,0.4516863
60752e7ef1c74a9a2b30f485,122,2,2024-02-27T15:26:44.199Z,french_376.wav,0,poule,564,32,5,5,english,m,0,0.0,-29.78300729,1.32478843
60752e7ef1c74a9a2b30f485,122,2,2024-02-27T15:26:44.199Z,french_376.wav,0,poule,564,32,5,5,english,m,1,0.1,-14.6608331,1.46487259
60752e7ef1c74a9a2b30f485,122,2,2024-02-27T15:26:44.199Z,french_376.wav,0,poule,564,32,5,5,english,m,2,0.2,93.91149251,1.42207254
60752e7ef1c74a9a2b30f485,122,2,2024-02-27T15:26:44.199Z,french_376.wav,0,poule,564,32,5,5,english,m,3,0.25666667,61.08695399,1.23206205
60752e7ef1c74a9a2b30f485,123,2,2024-02-27T15:26:44.199Z,french_496.wav,0,pull,683,32,5,5,english,m,0,0.0,95.35910422,1.71732874
60752e7ef1c74a9a2b30f485,123,2,2024-02-27T15:26:44.199Z,french_496.wav,0,pull,683,32,5,5,english,m,1,0.1,-6.65722592,0.79073406
60752e7ef1c74a9a2b30f485,123,2,2024-02-27T15:26:44.199Z,french_496.wav,0,pull,683,32,5,5,english,m,2,0.2,-0.21871516,0.34583293
60752e7ef1c74a9a2b30f485,123,2,2024-02-27T15:26:44.199Z,french_496.wav,0,pull,683,32,5,5,english,m,3,0.25666667,-55.34055424,0.39020762
60752e7ef1c74a9a2b30f485,124,2,2024-02-27T15:26:44.199Z,french_570.wav,0,pull,540,32,5,5,english,m,0,0.0,-73.07970403,1.97071113
60752e7ef1c74a9a2b30f485,124,2,2024-02-27T15:26:44.199Z,french_570.wav,0,pull,540,32,5,5,english,m,1,0.1,-29.06072458,1.64236312
60752e7ef1c74a9a2b30f485,124,2,2024-02-27T15:26:44.199Z,french_570.wav,0,pull,540,32,5,5,english,m,2,0.2,-25.44054287,0.27343611
60752e7ef1c74a9a2b30f485,124,2,2024-02-27T15:26:44.199Z,french_570.wav,0,pull,540,32,5,5,english,m,3,0.25666667,96.93308839,1.31029171
60752e7ef1c74a9a2b30f485,125,2,2024-02-27T15:26:44.199Z,french_161.wav,0,pull,559,32,5,5,english,m,0,0.0,61.58397479,1.02686065
60752e7ef1c74a9a2b30f485,125,2,2024-02-27T15:26:44.199Z,french_161.wav,0,pull,559,32,5,5,english,m,1,0.1,44.64347815,1.42523068
60752e7ef1c74a9a2b30f485,125,2,2024-02-27T15:26:44.199Z,french_161.wav,0,pull,559,32,5,5,english,m,2,0.2,-11.65199572,0.36377374
60752e7ef1c74a9a2b30f485,125,2,2024-02-27T15:26:44.199Z,french_161.wav,0,pull,559,32,5,5,english,m,3,0.25666667,76.59463145,0.41836879
60752e7ef1c74a9a2b30f485,126,2,2024-02-27T15:26:44.199Z,french_661.wav,0,poule,589,32,5,5,english,m,0,0.0,34.1047988,1.29957539
60752e7ef1c74a9a2b30f485,126,2,2024-02-27T15:26:44.199Z,french_661.wav,0,poule,589,32,5,5,english,m,1,0.1,-45.42737183,0.81809843
60752e7ef1c74a9a2b30f485,126,2,2024-02-27T15:26:44.199Z,french_661.wav,0,poule,589,32,5,5,english,m,2,0.2,-32.96226792,1.39938296
60752e7ef1c74a9a2b30f485,126,2,2024-02-27T15:26:44.199Z,french_661.wav,0,poule,589,32,5,5,english,m,3,0.25666667,51.87575508,1.33634107
60752e7ef1c74a9a2b30f485,127,2,2024-02-27T15:26:44.199Z,french_607.wav,0,poule,595,32,5,5,english,m,0,0.0,86.31857573,1.61060215
60752e7ef1c74a9a2b30f485,127,2,2024-02-27T15:26:44.199Z,french_607.wav,0,poule,595,32,5,5,english,m,1,0.1,-46.02697415,1.76940735
60752e7ef1c74a9a2b30f485,127,2,2024-02-27T15:26:44.199Z,french_607.wav,0,poule,595,32,5,5,english,m,2,0.2,45.41214831,0.70600977
60752e7ef1c74a9a2b30f485,127,2,2024-02-27T15:26:44.199Z,french_607.wav,0,poule,595,32,5,5,english,m,3,0.25666667,58.05056059,0.79164166
60752e7ef1c74a9a2b30f485,128,2,2024-02-27T15:26:44.199Z,french_244.wav,0,pull,706,32,5,5,english,m,0,0.0,-1.19097064,0.99374935
60752e7ef1c74a9a2b30f485,128,2,2024-02-27T15:26:44.199Z,french_244.wav,0,pull,706,32,5,5,english,m,1,0.1,-92.85229973,0.05831089
60752e7ef1c74a9a2b30f485,128,2,2024-02-27T15:26:44.199Z,french_244.wav,0,pull,706,32,5,5,english,m,2,0.2,-96.93666457,1.01399938
60752e7ef1c74a9a2b30f485,128,2,2024-02-27T15:26:44.199Z,french_244.wav,0,pull,706,32,5,5,english,m,3,0.25666667,-48.92774089,0.05507298
60752e7ef1c74a9a2b30f485,129,2,2024-02-27T15:26:44.199Z,french_584.wav,0,poule,319,32,5,5,english,m,0,0.0,69.79321503,1.17746001
60752e7ef1c74a9a2b30f485,129,2,2024-02-27T15:26:44.199Z,french_584.wav,0,poule,319,32,5,5,english,m,1,0.1,-52.7276802,1.52318031
60752e7ef1c74a9a2b30f485,129,2,2024-02-27T15:26:44.199Z,french_584.wav,0,poule,319,32,5,5,english,m,2,0.2,-55.3142281,1.91796719
60752e7ef1c74a9a2b30f485,129,2,2024-02-27T15:26:44.199Z,french_584.wav,0,poule,319,32,5,5,english,m,3,0.25666667,-51.83811077,0.8668783
60752e7ef1c74a9a2b30f485,130,2,2024-02-27T15:26:44.199Z,french_153.wav,0,pull,684,32,5,5,english,m,0,0.0,47.87386837,0.75426526
60752e7ef1c74a9a2b30f485,130,2,2024-02-27T15:26:44.199Z,french_153.wav,0,pull,684,32,5,5,english,m,1,0.1,7.07648522,1.23801955
60752e7ef1c74a9a2b30f485,130,2,2024-02-27T15:26:44.199Z,french_153.wav,0,pull,684,32,5,5,english,m,2,0.2,20.87760624,0.38230121
60752e7ef1c74a9a2b30f485,130,2,2024-02-27T15:26:44.199Z,french_153.wav,0,pull,684,32,5,5,english,m,3,0.25666667,-54.47130494,0.58190832
60752e7ef1c74a9a2b30f485,131,2,2024-02-27T15:26:44.199Z,french_219.wav,0,poule,475,32,5,5,english,m,0,0.0,-98.78648146,1.35832625
60752e7ef1c74a9a2b30f485,131,2,2024-02-27T15:26:44.199Z,french_219.wav,0,poule,475,32,5,5,english,m,1,0.1,-54.51672601,0.9105506
60752e7ef1c74a9a2b30f485,131,2,2024-02-27T15:26:44.199Z,french_219.wav,0,poule,475,32,5,5,english,m,2,0.2,75.82451993,0.22027405
60752e7ef1c74a9a2b30f485,131,2,2024-02-27T15:26:44.199Z,french_219.wav,0,poule,475,32,5,5,english,m,3,0.25666667,42.52821499,1.53742188
60752e7ef1c74a9a2b30f485,132,2,2024-02-27T15:26:44.199Z,french_540.wav,0,poule,369,32,5,5,english,m,0,0.0,64.41538276,0.51709462
60752e7ef1c74a9a2b30f485,132,2,2024-02-27T15:26:44.199Z,french_540.wav,0,poule,369,32,5,5,english,m,1,0.1,17.02048616,1.30376576
60752e7ef1c74a9a2b30f485,132,2,2024-02-27T15:26:44.199Z,french_540.wav,0,poule,369,32,5,5,english,m,2,0.2,-33.22379056,0.40148031
60752e7ef1c74a9a2b30f485,132,2,2024-02-27T15:26:44.199Z,french_540.wav,0,poule,369,32,5,5,english,m,3,0.25666667,6.66749413,1.14865781
60752e7ef1c74a9a2b30f485,133,2,2024-02-27T15:26:44.199Z,french_773.wav,0,poule,308,32,5,5,english,m,0,0.0,44.49367894,1.02864329
60752e7ef1c74a9a2b30f485,133,2,2024-02-27T15:26:44.199Z,french_773.wav,0,poule,308,32,5,5,english,m,1,0.1,-3.70834598,1.31333622
60752e7ef1c74a9a2b30f485,133,2,2024-02-27T15:26:44.199Z,french_773.wav,0,poule,308,32,5,5,english,m,2,0.2,10.6701804,0.86217131
60752e7ef1c74a9a2b30f485,133,2,2024-02-27T15:26:44.199Z,french_773.wav,0,poule,308,32,5,5,english,m,3,0.25666667,36.58697532,0.61318027
60752e7ef1c74a9a2b30f485,134,2,2024-02-27T15:26:44.199Z,french_868.wav,0,poule,181,32,5,5,english,m,0,0.0,-35.95288605,1.76613711
60752e7ef1c74a9a2b30f485,134,2,2024-02-27T15:26:44.199Z,french_868.wav,0,poule,181,32,5,5,english,m,1,0.1,-17.44977395,1.66440326
60752e7ef1c74a9a2b30f485,134,2,2024-02-27T15:26:44.199Z,french_868.wav,0,poule,181,32,5,5,english,m,2,0.2,-64.01864585,0.72417379
60752e7ef1c74a9a2b30f485,134,2,2024-02-27T15:26:44.199Z,french_868.wav,0,poule,181,32,5,5,english,m,3,0.25666667,14.1526891,0.87347262
60752e7ef1c74a9a2b30f485,135,2,2024-02-27T15:26:44.199Z,french_419.wav,0,poule,80,32,5,5,english,m,0,0.0,-42.00575778,0.81351681
60752e7ef1c74a9a2b30f485,135,2,2024-02-27T15:26:44.199Z,french_419.wav,0,poule,80,32,5,5,english,m,1,0.1,-35.26826913,1.62056968
60752e7ef1c74a9a2b30f485,135,2,2024-02-27T15:26:44.199Z,french_419.wav,0,poule,80,32,5,5,english,m,2,0.2,-18.10946272,1.68465097
60752e7ef1c74a9a2b30f485,135,2,2024-02-27T15:26:44.199Z,french_419.wav,0,poule,80,32,5,5,english,m,3,0.25666667,-2.55322937,1.07803679
60752e7ef1c74a9a2b30f485,136,2,2024-02-27T15:26:44.199Z,french_716.wav,0,pull,554,32,5,5,english,m,0,0.0,84.94340614,0.02480266
60752e7ef1c74a9a2b30f485,136,2,2024-02-27T15:26:44.199Z,french_716.wav,0,pull,554,32,5,5,english,m,1,0.1,-26.42004262,1.84645248
60752e7ef1c74a9a2b30f485,136,2,2024-02-27T15:26:44.199Z,french_716.wav,0,pull,554,32,5,5,english,m,2,0.2,43.13419589,1.11902957
60752e7ef1c74a9a2b30f485,136,2,2024-02-27T15:26:44.199Z,french_716.wav,0,pull,554,32,5,5,english,m,3,0.25666667,70.01736472,1.71178302
60752e7ef1c74a9a2b30f485,137,2,2024-02-27T15:26:44.199Z,french_609.wav,0,poule,379,32,5,5,english,m,0,0.0,11.6890167,1.75568789
60752e7ef1c74a9a2b30f485,137,2,2024-02-27T15:26:44.199Z,french_609.wav,0,poule,379,32,5,5,english,m,1,0.1,-35.50971605,1.50542158
60752e7ef1c74a9a2b30f485,137,2,2024-02-27T15:26:44.199Z,french_609.wav,0,poule,379,32,5,5,english,m,2,0.2,-98.47760025,0.96032408
60752e7ef1c74a9a2b30f485,137,2,2024-02-27T15:26:44.199Z,french_609.wav,0,poule,379,32,5,5,english,m,3,0.25666667,-64.00925784,1.1186533
60752e7ef1c74a9a2b30f485,138,2,2024-02-27T15:26:44.199Z,french_248.wav,0,poule,355,32,5,5,english,m,0,0.0,-72.14952141,0.31572296
60752e7ef1c74a9a2b30f485,138,2,2024-02-27T15:26:44.199Z,french_248.wav,0,poule,355,32,5,5,english,m,1,0.1,-0.62089361,0.98183681
60752e7ef1c74a9a2b30f485,138,2,2024-02-27T15:26:44.199Z,french_248.wav,0,poule,355,32,5,5,english,m,2,0.2,-1.54726874,1.57355183
60752e7ef1c74a9a2b30f485,138,2,2024-02-27T15:26:44.199Z,french_248.wav,0,poule,355,32,5,5,english,m,3,0.25666667,-50.42909266,0.39982355
60752e7ef1c74a9a2b30f485,139,2,2024-02-27T15:26:44.199Z,french_952.wav,0,poule,199,32,5,5,english,m,0,0.0,89.6944408,1.65049473
60752e7ef1c74a9a2b30f485,139,2,2024-02-27T15:26:44.199Z,french_952.wav,0,poule,199,32,5,5,english,m,1,0.1,29.6191185,0.9962644
60752e7ef1c74a9a2b30f485,139,2,2024-02-27T15:26:44.199Z,french_952.wav,0,poule,199,32,5,5,english,m,2,0.2,82.60414553,0.25471402
60752e7ef1c74a9a2b30f485,139,2,2024-02-27T15:26:44.199Z,french_952.wav,0,poule,199,32,5,5,english,m,3,0.25666667,-20.57336344,0.85149117
60752e7ef1c74a9a2b30f485,140,2,2024-02-27T15:26:44.199Z,french_690.wav,0,poule,296,32,5,5,english,m,0,0.0,79.01312907,1.49686193
60752e7ef1c74a9a2b30f485,140,2,2024-02-27T15:26:44.199Z,french_690.wav,0,poule,296,32,5,5,english,m,1,0.1,-50.63616883,0.92741038
60752e7ef1c74a9a2b30f485,140,2,2024-02-27T15:26:44.199Z,french_690.wav,0,poule,296,32,5,5,english,m,2,0.2,19.49439666,0.30770403
60752e7ef1c74a9a2b30f485,140,2,2024-02-27T15:26:44.199Z,french_690.wav,0,poule,296,32,5,5,english,m,3,0.25666667,-20.64233715,0.53460579
60752e7ef1c74a9a2b30f485,141,2,2024-02-27T15:26:44.199Z,french_750.wav,0,poule,242,32,5,5,english,m,0,0.0,36.16157767,1.69010054
60752e7ef1c74a9a2b30f485,141,2,2024-02-27T15:26:44.199Z,french_750.wav,0,poule,242,32,5,5,english,m,1,0.1,-94.09249833,0.7877665
60752e7ef1c74a9a2b30f485,141,2,2024-02-27T15:26:44.199Z,french_750.wav,0,poule,242,32,5,5,english,m,2,0.2,97.07405484,0.99353813
60752e7ef1c74a9a2b30f485,141,2,2024-02-27T15:26:44.199Z,french_750.wav,0,poule,242,32,5,5,english,m,3,0.25666667,-8.28043626,0.64245914
60752e7ef1c74a9a2b30f485,142,2,2024-02-27T15:26:44.199Z,french_306.wav,0,poule,202,32,5,5,english,m,0,0.0,22.4772117,0.91979461
60752e7ef1c74a9a2b30f485,142,2,2024-02-27T15:26:44.199Z,french_306.wav,0,poule,202,32,5,5,english,m,1,0.1,-23.30683659,1.83006101
60752e7ef1c74a9a2b30f485,142,2,2024-02-27T15:26:44.199Z,french_306.wav,0,poule,202,32,5,5,english,m,2,0.2,-85.44667034,1.25602607
60752e7ef1c74a9a2b30f485,142,2,2024-02-27T15:26:44.199Z,french_306.wav,0,poule,202,32,5,5,english,m,3,0.25666667,-79.47374411,0.84497865
60752e7ef1c74a9a2b30f485,143,2,2024-02-27T15:26:44.199Z,french_564.wav,0,poule,399,32,5,5,english,m,0,0.0,-42.85760261,0.14777183
60752e7ef1c74a9a2b30f485,143,2,2024-02-27T15:26:44.199Z,french_564.wav,0,poule,399,32,5,5,english,m,1,0.1,78.12316343,1.08229262
60752e7ef1c74a9a2b30f485,143,2,2024-02-27T15:26:44.199Z,french_564.wav,0,poule,399,32,5,5,english,m,2,0.2,32.53186734,0.52251513
60752e7ef1c74a9a2b30f485,143,2,2024-02-27T15:26:44.199Z,french_564.wav,0,poule,399,32,5,5,english,m,3,0.25666667,60.20924512,1.40255579
60752e7ef1c74a9a2b30f485,144,2,2024-02-27T15:26:44.199Z,french_30.wav,0,poule,139,32,5,5,english,m,0,0.0,76.62673318,0.98317975
60752e7ef1c74a9a2b30f485,144,2,2024-02-27T15:26:44.199Z,french_30.wav,0,poule,139,32,5,5,english,m,1,0.1,68.4553342,1.99903841
60752e7ef1c74a9a2b30f485,144,2,2024-02-27T15:26:44.199Z,french_30.wav,0,poule,139,32,5,5,english,m,2,0.2,55.51592845,1.19167606
60752e7ef1c74a9a2b30f485,144,2,2024-02-27T15:26:44.199Z,french_30.wav,0,poule,139,32,5,5,english,m,3,0.25666667,80.18190702,0.01328513
60752e7ef1c74a9a2b30f485,145,2,2024-02-27T15:26:44.199Z,french_694.wav,0,poule,115,32,5,5,english,m,0,0.0,17.77218449,1.83585748
60752e7ef1c74a9a2b30f485,145,2,2024-02-27T15:26:44.199Z,french_694.wav,0,poule,115,32,5,5,english,m,1,0.1,99.46599521,0.80026037
60752e7ef1c74a9a2b30f485,145,2,2024-02-27T15:26:44.199Z,french_694.wav,0,poule,115,32,5,5,english,m,2,0.2,-15.42512366,1.77531791
60752e7ef1c74a9a2b30f485,145,2,2024-02-27T15:26:44.199Z,french_694.wav,0,poule,115,32,5,5,english,m,3,0.25666667,-86.21441247,1.07868716
60752e7ef1c74a9a2b30f485,146,2,2024-02-27T15:26:44.199Z,french_49.wav,0,poule,214,32,5,5,english,m,0,0.0,-34.40531311,0.38592943
60752e7ef1c74a9a2b30f485,146,2,2024-02-27T15:26:44.199Z,french_49.wav,0,poule,214,32,5,5,english,m,1,0.1,-47.89713654,0.82636765
60752e7ef1c74a9a2b30f485,146,2,2024-02-27T15:26:44.199Z,french_49.wav,0,poule,214,32,5,5,english,m,2,0.2,1.74747298,1.60738751
60752e7ef1c74a9a2b30f485,146,2,2024-02-27T15:26:44.199Z,french_49.wav,0,poule,214,32,5,5,english,m,3,0.25666667,24.1153847,0.61367061
60752e7ef1c74a9a2b30f485,147,2,2024-02-27T15:26:44.199Z,french_407.wav,0,poule,32,32,5,5,english,m,0,0.0,-57.6292462,1.8651924
60752e7ef1c74a9a2b30f485,147,2,2024-02-27T15:26:44.199Z,french_407.wav,0,poule,32,32,5,5,english,m,1,0.1,-25.10683904,1.55880725
60752e7ef1c74a9a2b30f485,147,2,2024-02-27T15:26:44.199Z,french_407.wav,0,poule,32,32,5,5,english,m,2,0.2,13.09742102,1.30220718
60752e7ef1c74a9a2b30f485,147,2,2024-02-27T15:26:44.199Z,french_407.wav,0,poule,32,32,5,5,english,m,3,0.25666667,-8.98604593,1.55663467
60752e7ef1c74a9a2b30f485,148,2,2024-02-27T15:26:44.199Z,french_51.wav,0,pull,466,32,5,5,english,m,0,0.0,47.2980437,1.21993379
60752e7ef1c74a9a2b30f485,148,2,2024-02-27T15:26:44.199Z,french_51.wav,0,pull,466,32,5,5,english,m,1,0.1,-20.71065167,0.59290242
60752e7ef1c74a9a2b30f485,148,2,2024-02-27T15:26:44.199Z,french_51.wav,0,pull,466,32,5,5,english,m,2,0.2,-59.15578969,0.43795747
60752e7ef1c74a9a2b30f485,148,2,2024-02-27T15:26:44.199Z,french_51.wav,0,pull,466,32,5,5,english,m,3,0.25666667,47.97190204,1.09780803
60752e7ef1c74a9a2b30f485,149,2,2024-02-27T15:26:44.199Z,french_883.wav,0,poule,105,32,5,5,english,m,0,0.0,79.42425648,0.82987007
60752e7ef1c74a9a2b30f485,149,2,2024-02-27T15:26:44.199Z,french_883.wav,0,poule,105,32,5,5,english,m,1,0.1,-55.57656198,1.06788753
60752e7ef1c74a9a2b30f485,149,2,2024-02-27T15:26:44.199Z,french_883.wav,0,poule,105,32,5,5,english,m,2,0.2,-42.3009185,1.49414105
60752e7ef1c74a9a2b30f485,149,2,2024-02-27T15:26:44.199Z,french_883.wav,0,poule,105,32,5,5,english,m,3,0.25666667,9.11567641,1.30049822
60752e7ef1c74a9a2b30f485,150,3,2024-02-27T15:26:44.199Z,french_965.wav,0,poule,95,32,5,5,english,m,0,0.0,40.44340114,0.70170615
60752e7ef1c74a9a2b30f485,150,3,2024-02-27T15:26:44.199Z,french_965.wav,0,poule,95,32,5,5,english,m,1,0.1,-11.08391972,1.63180194
60752e7ef1c74a9a2b30f485,150,3,2024-02-27T15:26:44.199Z,french_965.wav,0,poule,95,32,5,5,english,m,2,0.2,-2.7382686,1.33837455
60752e7ef1c74a9a2b30f485,150,3,2024-02-27T15:26:44.199Z,french_965.wav,0,poule,95,32,5,5,english,m,3,0.25666667,-30.15899093,1.47207372
60752e7ef1c74a9a2b30f485,151,3,2024-02-27T15:26:44.199Z,french_813.wav,0,pull,419,32,5,5,english,m,0,0.0,-37.07388554,0.1380457
60752e7ef1c74a9a2b30f485,151,3,2024-02-27T15:26:44.199Z,french_813.wav,0,pull,419,32,5,5,english,m,1,0.1,74.87893645,0.44333359
60752e7ef1c74a9a2b30f485,151,3,2024-02-27T15:26:44.199Z,french_813.wav,0,pull,419,32,5,5,english,m,2,0.2,-91.66198227,0.5462976
60752e7ef1c74a9a2b30f485,151,3,2024-02-27T15:26:44.199Z,french_813.wav,0,pull,419,32,5,5,english,m,3,0.25666667,81.38219901,1.94163826
60752e7ef1c74a9a2b30f485,152,3,2024-02-27T15:26:44.199Z,french_636.wav,0,poule,173,32,5,5,english,m,0,0.0,79.1724471,0.8082817
60752e7ef1c74a9a2b30f485,152,3,2024-02-27T15:26:44.199Z,french_636.wav,0,poule,173,32,5,5,english,m,1,0.1,25.25700376,1.50975093
60752e7ef1c74a9a2b30f485,152,3,2024-02-27T15:26:44.199Z,french_636.wav,0,poule,173,32,5,5,english,m,2,0.2,72.37529148,0.99206968
60752e7ef1c74a9a2b30f485,152,3,2024-02-27T15:26:44.199Z,french_636.wav,0,poule,173,32,5,5,english,m,3,0.25666667,12.21946345,0.17038819
60752e7ef1c74a9a2b30f485,153,3,2024-02-27T15:26:44.199Z,french_86.wav,0,poule,231,32,5,5,english,m,0,0.0,-13.34839912,1.5394535
60752e7ef1c74a9a2b30f485,153,3,2024-02-27T15:26:44.199Z,french_86.wav,0,poule,231,32,5,5,english,m,1,0.1,-0.15074382,0.88064418
60752e7ef1c74a9a2b30f485,153,3,2024-02-27T15:26:44.199Z,french_86.wav,0,poule,231,32,5,5,english,m,2,0.2,25.45831569,1.66652907
60752e7ef1c74a9a2b30f485,153,3,2024-02-27T15:26:44.199Z,french_86.wav,0,poule,231,32,5,5,english,m,3,0.25666667,48.27326553,0.20293469
60752e7ef1c74a9a2b30f485,154,3,2024-02-27T15:26:44.199Z,french_397.wav,0,poule,171,32,5,5,english,m,0,0.0,-13.81470081,1.26162917
60752e7ef1c74a9a2b30f485,154,3,2024-02-27T15:26:44.199Z,french_397.wav,0,poule,171,32,5,5,english,m,1,0.1,50.38281738,1.19612478
60752e7ef1c74a9a2b30f485,154,3,2024-02-27T15:26:44.199Z,french_397.wav,0,poule,171,32,5,5,english,m,2,0.2,50.22980228,1.02842354
60752e7ef1c74a9a2b30f485,154,3,2024-02-27T15:26:44.199Z,french_397.wav,0,poule,171,32,5,5,english,m,3,0.25666667,-83.86271009,0.53389444
60752e7ef1c74a9a2b30f485,155,3,2024-02-27T15:26:44.199Z,french_1.wav,0,poule,304,32,5,5,english,m,0,0.0,91.87409443,0.51984737
60752e7ef1c74a9a2b30f485,155,3,2024-02-27T15:26:44.199Z,french_1.wav,0,poule,304,32,5,5,english,m,1,0.1,-48.89112434,0.07214845
60752e7ef1c74a9a2b30f485,155,3,2024-02-27T15:26:44.199Z,french_1.wav,0,poule,304,32,5,5,english,m,2,0.2,27.67932603,1.75660136
60752e7ef1c74a9a2b30f485,155,3,2024-02-27T15:26:44.199Z,french_1.wav,0,poule,304,32,5,5,english,m,3,0.25666667,13.64945055,0.58315139
60752e7ef1c74a9a2b30f485,156,3,2024-02-27T15:26:44.199Z,french_277.wav,0,poule,205,32,5,5,english,m,0,0.0,25.76771762,1.36859257
60752e7ef1c74a9a2b30f485,156,3,2024-02-27T15:26:44.199Z,french_277.wav,0,poule,205,32,5,5,english,m,1,0.1,-70.25975294,1.02052852
60752e7ef1c74a9a2b30f485,156,3,2024-02-27T15:26:44.199Z,french_277.wav,0,poule,205,32,5,5,english,m,2,0.2,-52.96477311,1.14771146
60752e7ef1c74a9a2b30f485,156,3,2024-02-27T15:26:44.199Z,french_277.wav,0,poule,205,32,5,5,english,m,3,0.25666667,41.51950841,0.3441713
60752e7ef1c74a9a2b30f485,157,3,2024-02-27T15:26:44.199Z,french_755.wav,0,poule,182,32,5,5,english,m,0,0.0,-17.09048823,0.26038806
60752e7ef1c74a9a2b30f485,157,3,2024-02-27T15:26:44.199Z,french_755.wav,0,poule,182,32,5,5,english,m,1,0.1,56.35208106,0.92084882
60752e7ef1c74a9a2b30f485,157,3,2024-02-27T15:26:44.199Z,french_755.wav,0,poule,182,32,5,5,english,m,2,0.2,33.77031601,1.14499291
60752e7ef1c74a9a2b30f485,157,3,2024-02-27T15:26:44.199Z,french_755.wav,0,poule,182,32,5,5,english,m,3,0.25666667,73.0579331,1.40582081
60752e7ef1c74a9a2b30f485,158,3,2024-02-27T15:26:44.199Z,french_276.wav,0,poule,237,32,5,5,english,m,0,0.0,-30.59490391,1.59191255
60752e7ef1c74a9a2b30f485,158,3,2024-02-27T15:26:44.199Z,french_276.wav,0,poule,237,32,5,5,english,m,1,0.1,35.14119383,1.08920427
60752e7ef1c74a9a2b30f485,158,3,2024-02-27T15:26:44.199Z,french_276.wav,0,poule,237,32,5,5,english,m,2,0.2,-47.54137466,1.15204711
60752e7ef1c74a9a2b30f485,158,3,2024-02-27T15:26:44.199Z,french_276.wav,0,poule,237,32,5,5,english,m,3,0.25666667,-36.46330553,0.56107217
60752e7ef1c74a9a2b30f485,159,3,2024-02-27T15:26:44.199Z,french_894.wav,0,poule,172,32,5,5,english,m,0,0.0,34.15690998,0.96571794
60752e7ef1c74a9a2b30f485,159,3,2024-02-27T15:26:44.199Z,french_894.wav,0,poule,172,32,5,5,english,m,1,0.1,66.60232679,0.73360337
60752e7ef1c74a9a2b30f485,159,3,2024-02-27T15:26:44.199Z,french_894.wav,0,poule,172,32,5,5,english,m,2,0.2,79.95982278,1.43440198
60752e7ef1c74a9a2b30f485,159,3,2024-02-27T15:26:44.199Z,french_894.wav,0,poule,172,32,5,5,english,m,3,0.25666667,-20.39269858,0.64269279
60752e7ef1c74a9a2b30f485,160,3,2024-02-27T15:26:44.199Z,french_143.wav,0,pull,545,32,5,5,english,m,0,0.0,-46.09253598,1.27633083
60752e7ef1c74a9a2b30f485,160,3,2024-02-27T15:26:44.199Z,french_143.wav,0,pull,545,32,5,5,english,m,1,0.1,41.21858491,0.28919458
60752e7ef1c74a9a2b30f485,160,3,2024-02-27T15:26:44.199Z,french_143.wav,0,pull,545,32,5,5,english,m,2,0.2,10.38405582,0.61917155
60752e7ef1c74a9a2b30f485,160,3,2024-02-27T15:26:44.199Z,french_143.wav,0,pull,545,32,5,5,english,m,3,0.25666667,-99.98168054,0.37925836
60752e7ef1c74a9a2b30f485,161,3,2024-02-27T15:26:44.199Z,french_459.wav,0,poule,196,32,5,5,english,m,0,0.0,4.79398058,1.10654006
60752e7ef1c74a9a2b30f485,161,3,2024-02-27T15:26:44.199Z,french_459.wav,0,poule,196,32,5,5,english,m,1,0.1,85.90612859,1.2996969
60752e7ef1c74a9a2b30f485,161,3,2024-02-27T15:26:44.199Z,french_459.wav,0,poule,196,32,5,5,english,m,2,0.2,-69.41023595,0.20520219
60752e7ef1c74a9a2b30f485,161,3,2024-02-27T15:26:44.199Z,french_459.wav,0,poule,196,32,5,5,english,m,3,0.25666667,-22.07588814,1.17361701
60752e7ef1c74a9a2b30f485,162,3,2024-02-27T15:26:44.199Z,french_118.wav,0,poule,247,32,5,5,english,m,0,0.0,26.93316006,1.47067426
60752e7ef1c74a9a2b30f485,162,3,2024-02-27T15:26:44.199Z,french_118.wav,0,poule,247,32,5,5,english,m,1,0.1,-22.92967869,1.58231537
60752e7ef1c74a9a2b30f485,162,3,2024-02-27T15:26:44.199Z,french_118.wav,0,poule,247,32,5,5,english,m,2,0.2,-61.93287208,1.01494319
60752e7ef1c74a9a2b30f485,162,3,2024-02-27T15:26:44.199Z,french_118.wav,0,poule,247,32,5,5,english,m,3,0.25666667,-97.08418949,0.71977579
60752e7ef1c74a9a2b30f485,163,3,2024-02-27T15:26:44.199Z,french_482.wav,0,poule,107,32,5,5,english,m,0,0.0,30.59556471,1.3609553
60752e7ef1c74a9a2b30f485,163,3,2024-02-27T15:26:44.199Z,french_482.wav,0,poule,107,32,5,5,english,m,1,0.1,-28.15674373,1.03507415
60752e7ef1c74a9a2b30f485,163,3,2024-02-27T15:26:44.199Z,french_482.wav,0,poule,107,32,5,5,english,m,2,0.2,-30.08163346,1.60461159
60752e7ef1c74a9a2b30f485,163,3,2024-02-27T15:26:44.199Z,french_482.wav,0,poule,107,32,5,5,english,m,3,0.25666667,89.23902938,0.68082645
60752e7ef1c74a9a2b30f485,164,3,2024-02-27T15:26:44.199Z,french_395.wav,0,poule,155,32,5,5,english,m,0,0.0,53.54317287,1.78210887
60752e7ef1c74a9a2b30f485,164,3,2024-02-27T15:26:44.199Z,french_395.wav,0,poule,155,32,5,5,english,m,1,0.1,-58.7899365,0.28539332
60752e7ef1c74a9a2b30f485,164,3,2024-02-27T15:26:44.199Z,french_395.wav,0,poule,155,32,5,5,english,m,2,0.2,-16.29959602,1.44255764
60752e7ef1c74a9a2b30f485,164,3,2024-02-27T15:26:44.199Z,french_395.wav,0,poule,155,32,5,5,english,m,3,0.25666667,-29.17949613,0.93749012
60752e7ef1c74a9a2b30f485,165,3,2024-02-27T15:26:44.199Z,french_256.wav,0,poule,182,32,5,5,english,m,0,0.0,34.00641445,1.19838094
60752e7ef1c74a9a2b30f485,165,3,2024-02-27T15:26:44.199Z,french_256.wav,0,poule,182,32,5,5,english,m,1,0.1,78.12380502,0.9412232
60752e7ef1c74a9a2b30f485,165,3,2024-02-27T15:26:44.199Z,french_256.wav,0,poule,182,32,5,5,english,m,2,0.2,84.97245465,1.34630265
60752e7ef1c74a9a2b30f485,165,3,2024-02-27T15:26:44.199Z,french_256.wav,0,poule,182,32,5,5,english,m,3,0.25666667,29.4187394,1.86077871
60752e7ef1c74a9a2b30f485,166,3,2024-02-27T15:26:44.199Z,french_275.wav,0,poule,166,32,5,5,english,m,0,0.0,-71.45872278,0.56157087
60752e7ef1c74a9a2b30f485,166,3,2024-02-27T15:26:44.199Z,french_275.wav,0,poule,166,32,5,5,english,m,1,0.1,50.23093754,1.03531052
60752e7ef1c74a9a2b30f485,166,3,2024-02-27T15:26:44.199Z,french_275.wav,0,poule,166,32,5,5,english,m,2,0.2,82.04936404,1.31605034
60752e7ef1c74a9a2b30f485,166,3,2024-02-27T15:26:44.199Z,french_275.wav,0,poule,166,32,5,5,english,m,3,0.25666667,-63.35862329,0.72936955
60752e7ef1c74a9a2b30f485,167,3,2024-02-27T15:26:44.199Z,french_787.wav,0,pull,371,32,5,5,english,m,0,0.0,-96.56930436,0.95025141
60752e7ef1c74a9a2b30f485,167,3,2024-02-27T15:26:44.199Z,french_787.wav,0,pull,371,32,5,5,english,m,1,0.1,-14.18878177,1.10577547
60752e7ef1c74a9a2b30f485,167,3,2024-02-27T15:26:44.199Z,french_787.wav,0,pull,371,32,5,5,english,m,2,0.2,-34.79884993,0.4132657
60752e7ef1c74a9a2b30f485,167,3,2024-02-27T15:26:44.199Z,french_787.wav,0,pull,371,32,5,5,english,m,3,0.25666667,-70.75211023,0.64958401
60752e7ef1c74a9a2b30f485,168,3,2024-02-27T15:26:44.199Z,french_940.wav,0,poule,101,32,5,5,english,m,0,0.0,60.64207397,1.38818271
60752e7ef1c74a9a2b30f485,168,3,2024-02-27T15:26:44.199Z,french_940.wav,0,poule,101,32,5,5,english,m,1,0.1,-16.07257124,1.64047706
60752e7ef1c74a9a2b30f485,168,3,2024-02-27T15:26:44.199Z,french_940.wav,0,poule,101,32,5,5,english,m,2,0.2,-38.93693506,1.31963125
60752e7ef1c74a9a2b30f485,168,3,2024-02-27T15:26:44.199Z,french_940.wav,0,poule,101,32,5,5,english,m,3,0.25666667,-22.19838027,1.73227719
60752e7ef1c74a9a2b30f485,169,3,2024-02-27T15:26:44.199Z,french_933.wav,0,poule,296,32,5,5,english,m,0,0.0,-24.27897726,0.66366025
60752e7ef1c74a9a2b30f485,169,3,2024-02-27T15:26:44.199Z,french_933.wav,0,poule,296,32,5,5,english,m,1,0.1,45.4380102,1.16686233
60752e7ef1c74a9a2b30f485,169,3,2024-02-27T15:26:44.199Z,french_933.wav,0,poule,296,32,5,5,english,m,2,0.2,44.52165476,0.86083852
60752e7ef1c74a9a2b30f485,169,3,2024-02-27T15:26:44.199Z,french_933.wav,0,poule,296,32,5,5,english,m,3,0.25666667,11.96128215,1.88972919
60752e7ef1c74a9a2b30f485,170,3,2024-02-27T15:26:44.199Z,french_365.wav,0,pull,253,32,5,5,english,m,0,0.0,-98.04571794,1.18023288
60752e7ef1c74a9a2b30f485,170,3,2024-02-27T15:26:44.199Z,french_365.wav,0,pull,253,32,5,5,english,m,1,0.1,-73.67698607,1.95707288
60752e7ef1c74a9a2b30f485,170,3,2024-02-27T15:26:44.199Z,french_365.wav,0,pull,253,32,5,5,english,m,2,0.2,-96.43604562,0.58641449
60752e7ef1c74a9a2b30f485,170,3,2024-02-27T15:26:44.199Z,french_365.wav,0,pull,253,32,5,5,english,m,3,0.25666667,37.7893414,1.65360278
60752e7ef1c74a9a2b30f485,171,3,2024-02-27T15:26:44.199Z,french_384.wav,0,pull,698,32,5,5,english,m,0,0.0,96.27107524,0.63462189
60752e7ef1c74a9a2b30f485,171,3,2024-02-27T15:26:44.199Z,french_384.wav,0,pull,698,32,5,5,english,m,1,0.1,31.19825585,1.63064356
60752e7ef1c74a9a2b30f485,171,3,2024-02-27T15:26:44.199Z,french_384.wav,0,pull,698,32,5,5,english,m,2,0.2,59.60884037,0.96291672
60752e7ef1c74a9a2b30f485,171,3,2024-02-27T15:26:44.199Z,french_384.wav,0,pull,698,32,5,5,english,m,3,0.25666667,90.96213602,1.24636593
60752e7ef1c74a9a2b30f485,172,3,2024-02-27T15:26:44.199Z,french_516.wav,0,poule,108,32,5,5,english,m,0,0.0,-18.05376101,1.88602221
60752e7ef1c74a9a2b30f485,172,3,2024-02-27T15:26:44.199Z,french_516.wav,0,poule,108,32,5,5,english,m,1,0.1,46.96361083,1.82153179
60752e7ef1c74a9a2b30f485,172,3,2024-02-27T15:26:44.199Z,french_516.wav,0,poule,108,32,5,5,english,m,2,0.2,63.85228851,1.94475993
60752e7ef1c74a9a2b30f485,172,3,2024-02-27T15:26:44.199Z,french_516.wav,0,poule,108,32,5,5,english,m,3,0.25666667,-69.83202403,1.41132457
60752e7ef1c74a9a2b30f485,173,3,2024-02-27T15:26:44.199Z,french_820.wav,0,poule,408,32,5,5,english,m,0,0.0,-23.2512771,0.85914582
60752e7ef1c74a9a2b30f485,173,3,2024-02-27T15:26:44.199Z,french_820.wav,0,poule,408,32,5,5,english,m,1,0.1,-3.42093224,1.44867235
60752e7ef1c74a9a2b30f485,173,3,2024-02-27T15:26:44.199Z,french_820.wav,0,poule,408,32,5,5,english,m,2,0.2,-78.83822409,1.61907263
60752e7ef1c74a9a2b30f485,173,3,2024-02-27T15:26:44.199Z,french_820.wav,0,poule,408,32,5,5,english,m,3,0.25666667,-24.79307177,1.11055267
60752e7ef1c74a9a2b30f485,174,3,2024-02-27T15:26:44.199Z,french_314.wav,0,pull,516,32,5,5,english,m,0,0.0,-41.28420355,0.77087466
60752e7ef1c74a9a2b30f485,174,3,2024-02-27T15:26:44.199Z,french_314.wav,0,pull,516,32,5,5,english,m,1,0.1,38.91630458,0.23409115
60752e7ef1c74a9a2b30f485,174,3,2024-02-27T15:26:44.199Z,french_314.wav,0,pull,516,32,5,5,english,m,2,0.2,24.93775916,0.53304912
60752e7ef1c74a9a2b30f485,174,3,2024-02-27T15:26:44.199Z,french_314.wav,0,pull,516,32,5,5,english,m,3,0.25666667,33.33111791,0.84036245
60752e7ef1c74a9a2b30f485,175,3,2024-02-27T15:26:44.199Z,french_740.wav,0,poule,196,32,5,5,english,m,0,0.0,-63.22643447,1.41698272
60752e7ef1c74a9a2b30f485,175,3,2024-02-27T15:26:44.199Z,french_740.wav,0,poule,196,32,5,5,english,m,1,0.1,-76.79793208,1.15791198
60752e7ef1c74a9a2b30f485,175,3,2024-02-27T15:26:44.199Z,french_740.wav,0,poule,196,32,5,5,english,m,2,0.2,-90.89358737,1.97460827
60752e7ef1c74a9a2b30f485,175,3,2024-02-27T15:26:44.199Z,french_740.wav,0,poule,196,32,5,5,english,m,3,0.25666667,-87.57687491,0.61281255
60752e7ef1c74a9a2b30f485,176,3,2024-02-27T15:26:44.199Z,french_41.wav,0,poule,553,32,5,5,english,m,0,0.0,-11.6612147,0.49328208
60752e7ef1c74a9a2b30f485,176,3,2024-02-27T15:26:44.199Z,french_41.wav,0,poule,553,32,5,5,english,m,1,0.1,96.56624365,1.84762861
60752e7ef1c74a9a2b30f485,176,3,2024-02-27T15:26:44.199Z,french_41.wav,0,poule,553,32,5,5,english,m,2,0.2,69.39294216,1.1434724
60752e7ef1c74a9a2b30f485,176,3,2024-02-27T15:26:44.199Z,french_41.wav,0,poule,553,32,5,5,english,m,3,0.25666667,-30.30775932,1.13333186
60752e7ef1c74a9a2b30f485,177,3,2024-02-27T15:26:44.199Z,french_857.wav,0,poule,302,32,5,5,english,m,0,0.0,40.93487779,1.95936394
60752e7ef1c74a9a2b30f485,177,3,2024-02-27T15:26:44.199Z,french_857.wav,0,poule,302,32,5,5,english,m,1,0.1,-17.75235864,1.43648621
60752e7ef1c74a9a2b30f485,177,3,2024-02-27T15:26:44.199Z,french_857.wav,0,poule,302,32,5,5,english,m,2,0.2,39.31370365,1.12127335
60752e7ef1c74a9a2b30f485,177,3,2024-02-27T15:26:44.199Z,french_857.wav,0,poule,302,32,5,5,english,m,3,0.25666667,-10.04228362,0.40363044
60752e7ef1c74a9a2b30f485,178,3,2024-02-27T15:26:44.199Z,french_362.wav,0,poule,264,32,5,5,english,m,0,0.0,-5.18125688,1.66521149
60752e7ef1c74a9a2b30f485,178,3,2024-02-27T15:26:44.199Z,french_362.wav,0,poule,264,32,5,5,english,m,1,0.1,-33.24228679,1.63330091
60752e7ef1c74a9a2b30f485,178,3,2024-02-27T15:26:44.199Z,french_362.wav,0,poule,264,32,5,5,english,m,2,0.2,13.99395474,0.18995652
60752e7ef1c74a9a2b30f485,178,3,2024-02-27T15:26:44.199Z,french_362.wav,0,poule,264,32,5,5,english,m,3,0.25666667,-44.70505318,0.66219279
60752e7ef1c74a9a2b30f485,179,3,2024-02-27T15:26:44.199Z,french_848.wav,0,poule,123,32,5,5,english,m,0,0.0,-60.99605007,1.01059702
60752e7ef1c74a9a2b30f485,179,3,2024-02-27T15:26:44.199Z,french_848.wav,0,poule,123,32,5,5,english,m,1,0.1,-27.05939135,1.98581859
60752e7ef1c74a9a2b30f485,179,3,2024-02-27T15:26:44.199Z,french_848.wav,0,poule,123,32,5,5,english,m,2,0.2,-10.58439289,0.30142011
60752e7ef1c74a9a2b30f485,179,3,2024-02-27T15:26:44.199Z,french_848.wav,0,poule,123,32,5,5,english,m,3,0.25666667,-17.47548333,1.16939553
60752e7ef1c74a9a2b30f485,180,3,2024-02-27T15:26:44.199Z,french_139.wav,0,poule,290,32,5,5,english,m,0,0.0,55.8945715,0.94357116
60752e7ef1c74a9a2b30f485,180,3,2024-02-27T15:26:44.199Z,french_139.wav,0,poule,290,32,5,5,english,m,1,0.1,-37.58065727,0.51247941
60752e7ef1c74a9a2b30f485,180,3,2024-02-27T15:26:44.199Z,french_139.wav,0,poule,290,32,5,5,english,m,2,0.2,-36.76334563,1.17002066
60752e7ef1c74a9a2b30f485,180,3,2024-02-27T15:26:44.199Z,french_139.wav,0,poule,290,32,5,5,english,m,3,0.25666667,4.9296063,0.00285273
60752e7ef1c74a9a2b30f485,181,3,2024-02-27T15:26:44.199Z,french_944.wav,0,pull,470,32,5,5,english,m,0,0.0,-8.30121602,1.41077405
60752e7ef1c74a9a2b30f485,181,3,2024-02-27T15:26:44.199Z,french_944.wav,0,pull,470,32,5,5,english,m,1,0.1,15.19990023,0.52690475
60752e7ef1c74a9a2b30f485,181,3,2024-02-27T15:26:44.199Z,french_944.wav,0,pull,470,32,5,5,english,m,2,0.2,-34.54061483,0.23733031
60752e7ef1c74a9a2b30f485,181,3,2024-02-27T15:26:44.199Z,french_944.wav,0,pull,470,32,5,5,english,m,3,0.25666667,-24.04483863,1.49354387
60752e7ef1c74a9a2b30f485,182,3,2024-02-27T15:26:44.199Z,french_704.wav,0,poule,93,32,5,5,english,m,0,0.0,47.78235411,1.53952375
60752e7ef1c74a9a2b30f485,182,3,2024-02-27T15:26:44.199Z,french_704.wav,0,poule,93,32,5,5,english,m,1,0.1,-55.43932,1.15285736
60752e7ef1c74a9a2b30f485,182,3,2024-02-27T15:26:44.199Z,french_704.wav,0,poule,93,32,5,5,english,m,2,0.2,-4.4200676,1.9057017
60752e7ef1c74a9a2b30f485,182,3,2024-02-27T15:26:44.199Z,french_704.wav,0,poule,93,32,5,5,english,m,3,0.25666667,92.51428674,1.54517481
60752e7ef1c74a9a2b30f485,183,3,2024-02-27T15:26:44.199Z,french_136.wav,0,poule,311,32,5,5,english,m,0,0.0,-19.24670356,0.58320819
60752e7ef1c74a9a2b30f485,183,3,2024-02-27T15:26:44.199Z,french_136.wav,0,poule,311,32,5,5,english,m,1,0.1,-19.07264886,1.75711633
60752e7ef1c74a9a2b30f485,183,3,2024-02-27T15:26:44.199Z,french_136.wav,0,poule,311,32,5,5,english,m,2,0.2,-15.66011034,0.20485265
60752e7ef1c74a9a2b30f485,183,3,2024-02-27T15:26:44.199Z,french_136.wav,0,poule,311,32,5,5,english,m,3,0.25666667,-21.38655245,0.63500763
60752e7ef1c74a9a2b30f485,184,3,2024-02-27T15:26:44.199Z,french_408.wav,0,poule,858,32,5,5,english,m,0,0.0,-97.26027128,0.27661041
60752e7ef1c74a9a2b30f485,184,3,2024-02-27T15:26:44.199Z,french_408.wav,0,poule,858,32,5,5,english,m,1,0.1,85.50928544,0.07889603
60752e7ef1c74a9a2b30f485,184,3,2024-02-27T15:26:44.199Z,french_408.wav,0,poule,858,32,5,5,english,m,2,0.2,52.29826895,1.21380046
60752e7ef1c74a9a2b30f485,184,3,2024-02-27T15:26:44.199Z,french_408.wav,0,poule,858,32,5,5,english,m,3,0.25666667,54.6689314,1.65990502
60752e7ef1c74a9a2b30f485,185,3,2024-02-27T15:26:44.199Z,french_793.wav,0,pull,479,32,5,5,english,m,0,0.0,24.81509803,0.12690374
60752e7ef1c74a9a2b30f485,185,3,2024-02-27T15:26:44.199Z,french_793.wav,0,pull,479,32,5,5,english,m,1,0.1,-63.66512484,0.60816637
60752e7ef1c74a9a2b30f485,185,3,2024-02-27T15:26:44.199Z,french_793.wav,0,pull,479,32,5,5,english,m,2,0.2,-35.07665133,0.42682998
60752e7ef1c74a9a2b30f485,185,3,2024-02-27T15:26:44.199Z,french_793.wav,0,pull,479,32,5,5,english,m,3,0.25666667,-2.30327069,0.74050477
60752e7ef1c74a9a2b30f485,186,3,2024-02-27T15:26:44.199Z,french_910.wav,0,poule,256,32,5,5,english,m,0,0.0,-48.65293901,0.34246772
60752e7ef1c74a9a2b30f485,186,3,2024-02-27T15:26:44.199Z,french_910.wav,0,poule,256,32,5,5,english,m,1,0.1,-4.89021115,1.03510625
60752e7ef1c74a9a2b30f485,186,3,2024-02-27T15:26:44.199Z,french_910.wav,0,poule,256,32,5,5,english,m,2,0.2,-57.2651588,1.59317518
60752e7ef1c74a9a2b30f485,186,3,2024-02-27T15:26:44.199Z,french_910.wav,0,poule,256,32,5,5,english,m,3,0.25666667,-57.53771148,0.91667414
60752e7ef1c74a9a2b30f485,187,3,2024-02-27T15:26:44.199Z,french_554.wav,0,poule,647,32,5,5,english,m,0,0.0,-31.9650703,1.45983082
60752e7ef1c74a9a2b30f485,187,3,2024-02-27T15:26:44.199Z,french_554.wav,0,poule,647,32,5,5,english,m,1,0.1,78.95364823,0.40013818
60752e7ef1c74a9a2b30f485,187,3,2024-02-27T15:26:44.199Z,french_554.wav,0,poule,647,32,5,5,english,m,2,0.2,-0.5294376,0.96374115
60752e7ef1c74a9a2b30f485,187,3,2024-02-27T15:26:44.199Z,french_554.wav,0,poule,647,32,5,5,english,m,3,0.25666667,-36.78296127,1.20732856
60752e7ef1c74a9a2b30f485,188,3,2024-02-27T15:26:44.199Z,french_68.wav,0,poule,578,32,5,5,english,m,0,0.0,58.83829029,1.80244508
60752e7ef1c74a9a2b30f485,188,3,2024-02-27T15:26:44.199Z,french_68.wav,0,poule,578,32,5,5,english,m,1,0.1,77.59339865,1.3442738
60752e7ef1c74a9a2b30f485,188,3,2024-02-27T15:26:44.199Z,french_68.wav,0,poule,578,32,5,5,english,m,2,0.2,-73.88341881,1.16581557
60752e7ef1c74a9a2b30f485,188,3,2024-02-27T15:26:44.199Z,french_68.wav,0,poule,578,32,5,5,english,m,3,0.25666667,-24.56901296,0.71132336
60752e7ef1c74a9a2b30f485,189,3,2024-02-27T15:26:44.199Z,french_742.wav,0,poule,338,32,5,5,english,m,0,0.0,70.50155873,0.93659897
60752e7ef1c74a9a2b30f485,189,3,2024-02-27T15:26:44.199Z,french_742.wav,0,poule,338,32,5,5,english,m,1,0.1,-40.99625843,1.14125333
60752e7ef1c74a9a2b30f485,189,3,2024-02-27T15:26:44.199Z,french_742.wav,0,poule,338,32,5,5,english,m,2,0.2,6.68379951,1.25957194
60752e7ef1c74a9a2b30f485,189,3,2024-02-27T15:26:44.199Z,french_742.wav,0,poule,338,32,5,5,english,m,3,0.25666667,-76.31698705,0.86761951
60752e7ef1c74a9a2b30f485,190,3,2024-02-27T15:26:44.199Z,french_992.wav,0,poule,178,32,5,5,english,m,0,0.0,88.64163737,1.670281
60752e7ef1c74a9a2b30f485,190,3,2024-02-27T15:26:44.199Z,french_992.wav,0,poule,178,32,5,5,english,m,1,0.1,46.51622821,0.7447474
60752e7ef1c74a9a2b30f485,190,3,2024-02-27T15:26:44.199Z,french_992.wav,0,poule,178,32,5,5,english,m,2,0.2,89.40723484,0.87778012
60752e7ef1c74a9a2b30f485,190,3,2024-02-27T15:26:44.199Z,french_992.wav,0,poule,178,32,5,5,english,m,3,0.25666667,-7.16948766,1.06303204
60752e7ef1c74a9a2b30f485,191,3,2024-02-27T15:26:44.199Z,french_200.wav,0,poule,137,32,5,5,english,m,0,0.0,-10.65818699,0.95052916
60752e7ef1c74a9a2b30f485,191,3,2024-02-27T15:26:44.199Z,french_200.wav,0,poule,137,32,5,5,english,m,1,0.1,-8.96413357,0.11424824
60752e7ef1c74a9a2b30f485,191,3,2024-02-27T15:26:44.199Z,french_200.wav,0,poule,137,32,5,5,english,m,2,0.2,-78.89627616,1.718039
