subj,trial,block,date,stim,stim_order,response,rt,age,english,french,language,sex,param_index,segment,pitch,stretch
652ae31c79fb620c91ac5724,0,0,2024-02-27T13:52:53.228Z,french_773.wav,0,poule,3057,25,5,3,English,m,0,0.0,44.49367894,1.02864329
652ae31c79fb620c91ac5724,0,0,2024-02-27T13:52:53.228Z,french_773.wav,0,poule,3057,25,5,3,English,m,1,0.1,-3.70834598,1.31333622
652ae31c79fb620c91ac5724,0,0,2024-02-27T13:52:53.228Z,french_773.wav,0,poule,3057,25,5,3,English,m,2,0.2,10.6701804,0.86217131
652ae31c79fb620c91ac5724,0,0,2024-02-27T13:52:53.228Z,french_773.wav,0,poule,3057,25,5,3,English,m,3,0.25666667,36.58697532,0.61318027
652ae31c79fb620c91ac5724,1,0,2024-02-27T13:52:53.228Z,french_639.wav,0,poule,1211,25,5,3,English,m,0,0.0,11.64385005,1.86180111
652ae31c79fb620c91ac5724,1,0,2024-02-27T13:52:53.228Z,french_639.wav,0,poule,1211,25,5,3,English,m,1,0.1,-83.53772589,1.31531339
652ae31c79fb620c91ac5724,1,0,2024-02-27T13:52:53.228Z,french_639.wav,0,poule,1211,25,5,3,English,m,2,0.2,-26.70113898,0.16484712
652ae31c79fb620c91ac5724,1,0,2024-02-27T13:52:53.228Z,french_639.wav,0,poule,1211,25,5,3,English,m,3,0.25666667,-28.21717215,0.08923993
652ae31c79fb620c91ac5724,2,0,2024-02-27T13:52:53.228Z,french_276.wav,0,poule,1759,25,5,3,English,m,0,0.0,-30.59490391,1.59191255
652ae31c79fb620c91ac5724,2,0,2024-02-27T13:52:53.228Z,french_276.wav,0,poule,1759,25,5,3,English,m,1,0.1,35.14119383,1.08920427
652ae31c79fb620c91ac5724,2,0,2024-02-27T13:52:53.228Z,french_276.wav,0,poule,1759,25,5,3,English,m,2,0.2,-47.54137466,1.15204711
652ae31c79fb620c91ac5724,2,0,2024-02-27T13:52:53.228Z,french_276.wav,0,poule,1759,25,5,3,English,m,3,0.25666667,-36.46330553,0.56107217
652ae31c79fb620c91ac5724,3,0,2024-02-27T13:57:10.378Z,french_377.wav,0,poule,2004,25,5,3,English,m,0,0.0,99.29202042,1.14982617
652ae31c79fb620c91ac5724,3,0,2024-02-27T13:57:10.378Z,french_377.wav,0,poule,2004,25,5,3,English,m,1,0.1,26.86177352,1.68513437
652ae31c79fb620c91ac5724,3,0,2024-02-27T13:57:10.378Z,french_377.wav,0,poule,2004,25,5,3,English,m,2,0.2,-57.22110681,0.38363532
652ae31c79fb620c91ac5724,3,0,2024-02-27T13:57:10.378Z,french_377.wav,0,poule,2004,25,5,3,English,m,3,0.25666667,67.5545455,0.68728301
652ae31c79fb620c91ac5724,4,0,2024-02-27T13:57:10.378Z,french_256.wav,0,poule,1393,25,5,3,English,m,0,0.0,34.00641445,1.19838094
652ae31c79fb620c91ac5724,4,0,2024-02-27T13:57:10.378Z,french_256.wav,0,poule,1393,25,5,3,English,m,1,0.1,78.12380502,0.9412232
652ae31c79fb620c91ac5724,4,0,2024-02-27T13:57:10.378Z,french_256.wav,0,poule,1393,25,5,3,English,m,2,0.2,84.97245465,1.34630265
652ae31c79fb620c91ac5724,4,0,2024-02-27T13:57:10.378Z,french_256.wav,0,poule,1393,25,5,3,English,m,3,0.25666667,29.4187394,1.86077871
652ae31c79fb620c91ac5724,5,0,2024-02-27T13:57:10.378Z,french_575.wav,0,poule,1652,25,5,3,English,m,0,0.0,32.80241223,0.38229386
652ae31c79fb620c91ac5724,5,0,2024-02-27T13:57:10.378Z,french_575.wav,0,poule,1652,25,5,3,English,m,1,0.1,11.70984026,0.34252019
652ae31c79fb620c91ac5724,5,0,2024-02-27T13:57:10.378Z,french_575.wav,0,poule,1652,25,5,3,English,m,2,0.2,-24.23897751,1.12781483
652ae31c79fb620c91ac5724,5,0,2024-02-27T13:57:10.378Z,french_575.wav,0,poule,1652,25,5,3,English,m,3,0.25666667,5.92669397,1.51292739
652ae31c79fb620c91ac5724,6,0,2024-02-27T13:57:10.378Z,french_734.wav,0,poule,3651,25,5,3,English,m,0,0.0,24.54171911,0.95806039
652ae31c79fb620c91ac5724,6,0,2024-02-27T13:57:10.378Z,french_734.wav,0,poule,3651,25,5,3,English,m,1,0.1,62.00217695,1.43009574
652ae31c79fb620c91ac5724,6,0,2024-02-27T13:57:10.378Z,french_734.wav,0,poule,3651,25,5,3,English,m,2,0.2,-55.547606,0.47319646
652ae31c79fb620c91ac5724,6,0,2024-02-27T13:57:10.378Z,french_734.wav,0,poule,3651,25,5,3,English,m,3,0.25666667,25.07561383,0.83118698
652ae31c79fb620c91ac5724,7,0,2024-02-27T13:57:10.378Z,french_75.wav,0,pull,2669,25,5,3,English,m,0,0.0,-2.54190785,0.75594209
652ae31c79fb620c91ac5724,7,0,2024-02-27T13:57:10.378Z,french_75.wav,0,pull,2669,25,5,3,English,m,1,0.1,-18.79561653,0.77713134
652ae31c79fb620c91ac5724,7,0,2024-02-27T13:57:10.378Z,french_75.wav,0,pull,2669,25,5,3,English,m,2,0.2,-63.16754008,0.0667883
652ae31c79fb620c91ac5724,7,0,2024-02-27T13:57:10.378Z,french_75.wav,0,pull,2669,25,5,3,English,m,3,0.25666667,-38.64547488,0.54855801
652ae31c79fb620c91ac5724,8,0,2024-02-27T13:57:10.378Z,french_668.wav,0,poule,1100,25,5,3,English,m,0,0.0,44.4696917,0.61167569
652ae31c79fb620c91ac5724,8,0,2024-02-27T13:57:10.378Z,french_668.wav,0,poule,1100,25,5,3,English,m,1,0.1,63.48880943,0.96933631
652ae31c79fb620c91ac5724,8,0,2024-02-27T13:57:10.378Z,french_668.wav,0,poule,1100,25,5,3,English,m,2,0.2,96.50351719,1.39779359
652ae31c79fb620c91ac5724,8,0,2024-02-27T13:57:10.378Z,french_668.wav,0,poule,1100,25,5,3,English,m,3,0.25666667,-38.26923088,1.779663
652ae31c79fb620c91ac5724,9,0,2024-02-27T13:57:10.378Z,french_758.wav,0,poule,760,25,5,3,English,m,0,0.0,45.30317447,1.53591398
652ae31c79fb620c91ac5724,9,0,2024-02-27T13:57:10.378Z,french_758.wav,0,poule,760,25,5,3,English,m,1,0.1,37.35504147,1.00413053
652ae31c79fb620c91ac5724,9,0,2024-02-27T13:57:10.378Z,french_758.wav,0,poule,760,25,5,3,English,m,2,0.2,-7.74982346,1.59140772
652ae31c79fb620c91ac5724,9,0,2024-02-27T13:57:10.378Z,french_758.wav,0,poule,760,25,5,3,English,m,3,0.25666667,-75.22654498,0.76456646
652ae31c79fb620c91ac5724,10,0,2024-02-27T13:57:10.378Z,french_437.wav,0,poule,540,25,5,3,English,m,0,0.0,59.70067771,0.22659206
652ae31c79fb620c91ac5724,10,0,2024-02-27T13:57:10.378Z,french_437.wav,0,poule,540,25,5,3,English,m,1,0.1,78.61233767,0.85429053
652ae31c79fb620c91ac5724,10,0,2024-02-27T13:57:10.378Z,french_437.wav,0,poule,540,25,5,3,English,m,2,0.2,76.18154157,1.36297282
652ae31c79fb620c91ac5724,10,0,2024-02-27T13:57:10.378Z,french_437.wav,0,poule,540,25,5,3,English,m,3,0.25666667,-54.28538078,1.46039745
652ae31c79fb620c91ac5724,11,0,2024-02-27T13:57:10.378Z,french_31.wav,0,poule,629,25,5,3,English,m,0,0.0,-16.52506352,1.57904125
652ae31c79fb620c91ac5724,11,0,2024-02-27T13:57:10.378Z,french_31.wav,0,poule,629,25,5,3,English,m,1,0.1,-80.19736258,0.88688051
652ae31c79fb620c91ac5724,11,0,2024-02-27T13:57:10.378Z,french_31.wav,0,poule,629,25,5,3,English,m,2,0.2,-47.04996605,0.44579633
652ae31c79fb620c91ac5724,11,0,2024-02-27T13:57:10.378Z,french_31.wav,0,poule,629,25,5,3,English,m,3,0.25666667,35.27279848,1.71139476
652ae31c79fb620c91ac5724,12,0,2024-02-27T13:57:10.378Z,french_902.wav,0,poule,544,25,5,3,English,m,0,0.0,27.03523978,0.1459181
652ae31c79fb620c91ac5724,12,0,2024-02-27T13:57:10.378Z,french_902.wav,0,poule,544,25,5,3,English,m,1,0.1,-67.54213764,1.3453624
652ae31c79fb620c91ac5724,12,0,2024-02-27T13:57:10.378Z,french_902.wav,0,poule,544,25,5,3,English,m,2,0.2,21.7683879,1.83277685
652ae31c79fb620c91ac5724,12,0,2024-02-27T13:57:10.378Z,french_902.wav,0,poule,544,25,5,3,English,m,3,0.25666667,-96.90742585,0.52631336
652ae31c79fb620c91ac5724,13,0,2024-02-27T13:57:10.378Z,french_809.wav,0,pull,1196,25,5,3,English,m,0,0.0,-35.34138518,0.91250327
652ae31c79fb620c91ac5724,13,0,2024-02-27T13:57:10.378Z,french_809.wav,0,pull,1196,25,5,3,English,m,1,0.1,-27.53268432,1.55486221
652ae31c79fb620c91ac5724,13,0,2024-02-27T13:57:10.378Z,french_809.wav,0,pull,1196,25,5,3,English,m,2,0.2,-4.59062168,0.05513513
652ae31c79fb620c91ac5724,13,0,2024-02-27T13:57:10.378Z,french_809.wav,0,pull,1196,25,5,3,English,m,3,0.25666667,54.17413939,0.74937359
652ae31c79fb620c91ac5724,14,0,2024-02-27T13:57:10.378Z,french_436.wav,0,pull,677,25,5,3,English,m,0,0.0,21.52139078,0.27861971
652ae31c79fb620c91ac5724,14,0,2024-02-27T13:57:10.378Z,french_436.wav,0,pull,677,25,5,3,English,m,1,0.1,91.02122448,0.31750307
652ae31c79fb620c91ac5724,14,0,2024-02-27T13:57:10.378Z,french_436.wav,0,pull,677,25,5,3,English,m,2,0.2,28.53627776,0.35857003
652ae31c79fb620c91ac5724,14,0,2024-02-27T13:57:10.378Z,french_436.wav,0,pull,677,25,5,3,English,m,3,0.25666667,-78.88687792,1.70163595
652ae31c79fb620c91ac5724,15,0,2024-02-27T13:57:10.378Z,french_354.wav,0,poule,426,25,5,3,English,m,0,0.0,-52.94558073,1.79880208
652ae31c79fb620c91ac5724,15,0,2024-02-27T13:57:10.378Z,french_354.wav,0,poule,426,25,5,3,English,m,1,0.1,92.39955521,1.0939287
652ae31c79fb620c91ac5724,15,0,2024-02-27T13:57:10.378Z,french_354.wav,0,poule,426,25,5,3,English,m,2,0.2,-42.31606849,0.57130202
652ae31c79fb620c91ac5724,15,0,2024-02-27T13:57:10.378Z,french_354.wav,0,poule,426,25,5,3,English,m,3,0.25666667,97.06976377,1.82278353
652ae31c79fb620c91ac5724,16,0,2024-02-27T13:57:10.378Z,french_252.wav,0,poule,425,25,5,3,English,m,0,0.0,-68.3996329,0.41781817
652ae31c79fb620c91ac5724,16,0,2024-02-27T13:57:10.378Z,french_252.wav,0,poule,425,25,5,3,English,m,1,0.1,79.02734002,1.03502761
652ae31c79fb620c91ac5724,16,0,2024-02-27T13:57:10.378Z,french_252.wav,0,poule,425,25,5,3,English,m,2,0.2,-18.50805447,0.82044901
652ae31c79fb620c91ac5724,16,0,2024-02-27T13:57:10.378Z,french_252.wav,0,poule,425,25,5,3,English,m,3,0.25666667,-85.84066145,1.09163249
652ae31c79fb620c91ac5724,17,0,2024-02-27T13:57:10.378Z,french_402.wav,0,poule,499,25,5,3,English,m,0,0.0,-15.06976312,1.40090564
652ae31c79fb620c91ac5724,17,0,2024-02-27T13:57:10.378Z,french_402.wav,0,poule,499,25,5,3,English,m,1,0.1,-35.17937665,1.12974732
652ae31c79fb620c91ac5724,17,0,2024-02-27T13:57:10.378Z,french_402.wav,0,poule,499,25,5,3,English,m,2,0.2,-39.80354227,1.04756912
652ae31c79fb620c91ac5724,17,0,2024-02-27T13:57:10.378Z,french_402.wav,0,poule,499,25,5,3,English,m,3,0.25666667,-27.78014644,0.16748103
652ae31c79fb620c91ac5724,18,0,2024-02-27T13:57:10.378Z,french_866.wav,0,poule,667,25,5,3,English,m,0,0.0,-60.69074585,1.64484001
652ae31c79fb620c91ac5724,18,0,2024-02-27T13:57:10.378Z,french_866.wav,0,poule,667,25,5,3,English,m,1,0.1,-41.67968152,0.19415831
652ae31c79fb620c91ac5724,18,0,2024-02-27T13:57:10.378Z,french_866.wav,0,poule,667,25,5,3,English,m,2,0.2,-8.99838874,1.20864699
652ae31c79fb620c91ac5724,18,0,2024-02-27T13:57:10.378Z,french_866.wav,0,poule,667,25,5,3,English,m,3,0.25666667,40.83736488,0.81730442
652ae31c79fb620c91ac5724,19,0,2024-02-27T13:57:10.378Z,french_404.wav,0,poule,322,25,5,3,English,m,0,0.0,-69.94435752,1.52233517
652ae31c79fb620c91ac5724,19,0,2024-02-27T13:57:10.378Z,french_404.wav,0,poule,322,25,5,3,English,m,1,0.1,-71.78209065,0.64310095
652ae31c79fb620c91ac5724,19,0,2024-02-27T13:57:10.378Z,french_404.wav,0,poule,322,25,5,3,English,m,2,0.2,1.54660235,1.70982079
652ae31c79fb620c91ac5724,19,0,2024-02-27T13:57:10.378Z,french_404.wav,0,poule,322,25,5,3,English,m,3,0.25666667,-64.99062427,0.43662649
652ae31c79fb620c91ac5724,20,0,2024-02-27T13:57:10.378Z,french_527.wav,0,poule,473,25,5,3,English,m,0,0.0,97.81644093,0.09503525
652ae31c79fb620c91ac5724,20,0,2024-02-27T13:57:10.378Z,french_527.wav,0,poule,473,25,5,3,English,m,1,0.1,68.05004199,0.33267387
652ae31c79fb620c91ac5724,20,0,2024-02-27T13:57:10.378Z,french_527.wav,0,poule,473,25,5,3,English,m,2,0.2,-44.05597581,1.51053464
652ae31c79fb620c91ac5724,20,0,2024-02-27T13:57:10.378Z,french_527.wav,0,poule,473,25,5,3,English,m,3,0.25666667,40.91945638,1.37458991
652ae31c79fb620c91ac5724,21,0,2024-02-27T13:57:10.378Z,french_525.wav,0,poule,683,25,5,3,English,m,0,0.0,-55.71805546,1.48564319
652ae31c79fb620c91ac5724,21,0,2024-02-27T13:57:10.378Z,french_525.wav,0,poule,683,25,5,3,English,m,1,0.1,69.57832018,0.7646222
652ae31c79fb620c91ac5724,21,0,2024-02-27T13:57:10.378Z,french_525.wav,0,poule,683,25,5,3,English,m,2,0.2,-61.51619627,1.98360061
652ae31c79fb620c91ac5724,21,0,2024-02-27T13:57:10.378Z,french_525.wav,0,poule,683,25,5,3,English,m,3,0.25666667,-40.26288332,1.91122687
652ae31c79fb620c91ac5724,22,0,2024-02-27T13:57:10.378Z,french_603.wav,0,poule,494,25,5,3,English,m,0,0.0,59.84554137,1.0661988
652ae31c79fb620c91ac5724,22,0,2024-02-27T13:57:10.378Z,french_603.wav,0,poule,494,25,5,3,English,m,1,0.1,16.50437024,1.9988244
652ae31c79fb620c91ac5724,22,0,2024-02-27T13:57:10.378Z,french_603.wav,0,poule,494,25,5,3,English,m,2,0.2,38.82252298,0.61428719
652ae31c79fb620c91ac5724,22,0,2024-02-27T13:57:10.378Z,french_603.wav,0,poule,494,25,5,3,English,m,3,0.25666667,25.72688984,0.58715273
652ae31c79fb620c91ac5724,23,0,2024-02-27T13:57:10.378Z,french_216.wav,0,poule,461,25,5,3,English,m,0,0.0,94.47877999,1.14166801
652ae31c79fb620c91ac5724,23,0,2024-02-27T13:57:10.378Z,french_216.wav,0,poule,461,25,5,3,English,m,1,0.1,-35.64680956,0.96477388
652ae31c79fb620c91ac5724,23,0,2024-02-27T13:57:10.378Z,french_216.wav,0,poule,461,25,5,3,English,m,2,0.2,-6.49582042,1.30348701
652ae31c79fb620c91ac5724,23,0,2024-02-27T13:57:10.378Z,french_216.wav,0,poule,461,25,5,3,English,m,3,0.25666667,88.58272088,1.4092971
652ae31c79fb620c91ac5724,24,0,2024-02-27T13:57:10.378Z,french_782.wav,0,pull,1890,25,5,3,English,m,0,0.0,-22.12019493,0.33541309
652ae31c79fb620c91ac5724,24,0,2024-02-27T13:57:10.378Z,french_782.wav,0,pull,1890,25,5,3,English,m,1,0.1,4.49416446,0.60665876
652ae31c79fb620c91ac5724,24,0,2024-02-27T13:57:10.378Z,french_782.wav,0,pull,1890,25,5,3,English,m,2,0.2,95.81757258,0.65040298
652ae31c79fb620c91ac5724,24,0,2024-02-27T13:57:10.378Z,french_782.wav,0,pull,1890,25,5,3,English,m,3,0.25666667,37.17912971,0.93901734
652ae31c79fb620c91ac5724,25,0,2024-02-27T13:57:10.378Z,french_209.wav,0,poule,2172,25,5,3,English,m,0,0.0,39.72931143,1.72926101
652ae31c79fb620c91ac5724,25,0,2024-02-27T13:57:10.378Z,french_209.wav,0,poule,2172,25,5,3,English,m,1,0.1,-11.10080972,1.89016293
652ae31c79fb620c91ac5724,25,0,2024-02-27T13:57:10.378Z,french_209.wav,0,poule,2172,25,5,3,English,m,2,0.2,-43.22344663,1.93253512
652ae31c79fb620c91ac5724,25,0,2024-02-27T13:57:10.378Z,french_209.wav,0,poule,2172,25,5,3,English,m,3,0.25666667,-3.52460634,0.82956566
652ae31c79fb620c91ac5724,26,0,2024-02-27T13:57:10.378Z,french_887.wav,0,poule,829,25,5,3,English,m,0,0.0,68.65167503,1.16380924
652ae31c79fb620c91ac5724,26,0,2024-02-27T13:57:10.378Z,french_887.wav,0,poule,829,25,5,3,English,m,1,0.1,-55.72044546,1.74073633
652ae31c79fb620c91ac5724,26,0,2024-02-27T13:57:10.378Z,french_887.wav,0,poule,829,25,5,3,English,m,2,0.2,-97.59121662,1.00138394
652ae31c79fb620c91ac5724,26,0,2024-02-27T13:57:10.378Z,french_887.wav,0,poule,829,25,5,3,English,m,3,0.25666667,-40.12897823,1.21780512
652ae31c79fb620c91ac5724,27,0,2024-02-27T13:57:10.378Z,french_530.wav,0,pull,757,25,5,3,English,m,0,0.0,-48.266975,0.22885815
652ae31c79fb620c91ac5724,27,0,2024-02-27T13:57:10.378Z,french_530.wav,0,pull,757,25,5,3,English,m,1,0.1,10.53522492,0.99708564
652ae31c79fb620c91ac5724,27,0,2024-02-27T13:57:10.378Z,french_530.wav,0,pull,757,25,5,3,English,m,2,0.2,-70.81391458,0.43471164
652ae31c79fb620c91ac5724,27,0,2024-02-27T13:57:10.378Z,french_530.wav,0,pull,757,25,5,3,English,m,3,0.25666667,-13.69241617,0.61022423
652ae31c79fb620c91ac5724,28,0,2024-02-27T13:57:10.378Z,french_358.wav,0,poule,476,25,5,3,English,m,0,0.0,-21.88755711,1.21014447
652ae31c79fb620c91ac5724,28,0,2024-02-27T13:57:10.378Z,french_358.wav,0,poule,476,25,5,3,English,m,1,0.1,-5.628981,1.2650669
652ae31c79fb620c91ac5724,28,0,2024-02-27T13:57:10.378Z,french_358.wav,0,poule,476,25,5,3,English,m,2,0.2,-60.01307733,0.97277603
652ae31c79fb620c91ac5724,28,0,2024-02-27T13:57:10.378Z,french_358.wav,0,poule,476,25,5,3,English,m,3,0.25666667,65.58947466,0.28969343
652ae31c79fb620c91ac5724,29,0,2024-02-27T13:57:10.378Z,french_859.wav,0,poule,370,25,5,3,English,m,0,0.0,52.92786792,1.14238893
652ae31c79fb620c91ac5724,29,0,2024-02-27T13:57:10.378Z,french_859.wav,0,poule,370,25,5,3,English,m,1,0.1,18.54274392,1.12707434
652ae31c79fb620c91ac5724,29,0,2024-02-27T13:57:10.378Z,french_859.wav,0,poule,370,25,5,3,English,m,2,0.2,-25.06242892,1.93999144
652ae31c79fb620c91ac5724,29,0,2024-02-27T13:57:10.378Z,french_859.wav,0,poule,370,25,5,3,English,m,3,0.25666667,0.70946668,1.31682519
652ae31c79fb620c91ac5724,30,0,2024-02-27T13:57:10.378Z,french_704.wav,0,poule,380,25,5,3,English,m,0,0.0,47.78235411,1.53952375
652ae31c79fb620c91ac5724,30,0,2024-02-27T13:57:10.378Z,french_704.wav,0,poule,380,25,5,3,English,m,1,0.1,-55.43932,1.15285736
652ae31c79fb620c91ac5724,30,0,2024-02-27T13:57:10.378Z,french_704.wav,0,poule,380,25,5,3,English,m,2,0.2,-4.4200676,1.9057017
652ae31c79fb620c91ac5724,30,0,2024-02-27T13:57:10.378Z,french_704.wav,0,poule,380,25,5,3,English,m,3,0.25666667,92.51428674,1.54517481
652ae31c79fb620c91ac5724,31,0,2024-02-27T13:57:10.378Z,french_180.wav,0,poule,401,25,5,3,English,m,0,0.0,51.39712435,0.88084927
652ae31c79fb620c91ac5724,31,0,2024-02-27T13:57:10.378Z,french_180.wav,0,poule,401,25,5,3,English,m,1,0.1,1.53552767,1.20367685
652ae31c79fb620c91ac5724,31,0,2024-02-27T13:57:10.378Z,french_180.wav,0,poule,401,25,5,3,English,m,2,0.2,26.54664149,0.46174189
652ae31c79fb620c91ac5724,31,0,2024-02-27T13:57:10.378Z,french_180.wav,0,poule,401,25,5,3,English,m,3,0.25666667,87.56909972,1.40614512
652ae31c79fb620c91ac5724,32,0,2024-02-27T13:57:10.378Z,french_508.wav,0,poule,435,25,5,3,English,m,0,0.0,40.98112686,1.35724839
652ae31c79fb620c91ac5724,32,0,2024-02-27T13:57:10.378Z,french_508.wav,0,poule,435,25,5,3,English,m,1,0.1,-56.96831063,1.54051685
652ae31c79fb620c91ac5724,32,0,2024-02-27T13:57:10.378Z,french_508.wav,0,poule,435,25,5,3,English,m,2,0.2,-35.39284842,1.20443674
652ae31c79fb620c91ac5724,32,0,2024-02-27T13:57:10.378Z,french_508.wav,0,poule,435,25,5,3,English,m,3,0.25666667,-19.97238517,1.82942033
652ae31c79fb620c91ac5724,33,0,2024-02-27T13:57:10.378Z,french_418.wav,0,poule,2515,25,5,3,English,m,0,0.0,69.65568707,1.45647369
652ae31c79fb620c91ac5724,33,0,2024-02-27T13:57:10.378Z,french_418.wav,0,poule,2515,25,5,3,English,m,1,0.1,-73.62960571,0.96644453
652ae31c79fb620c91ac5724,33,0,2024-02-27T13:57:10.378Z,french_418.wav,0,poule,2515,25,5,3,English,m,2,0.2,-12.19608601,0.59086709
652ae31c79fb620c91ac5724,33,0,2024-02-27T13:57:10.378Z,french_418.wav,0,poule,2515,25,5,3,English,m,3,0.25666667,31.099867,1.25987346
652ae31c79fb620c91ac5724,34,0,2024-02-27T13:57:10.378Z,french_806.wav,0,poule,1340,25,5,3,English,m,0,0.0,97.26957313,1.48673004
652ae31c79fb620c91ac5724,34,0,2024-02-27T13:57:10.378Z,french_806.wav,0,poule,1340,25,5,3,English,m,1,0.1,79.44562669,1.9967546
652ae31c79fb620c91ac5724,34,0,2024-02-27T13:57:10.378Z,french_806.wav,0,poule,1340,25,5,3,English,m,2,0.2,79.77586719,0.9238106
652ae31c79fb620c91ac5724,34,0,2024-02-27T13:57:10.378Z,french_806.wav,0,poule,1340,25,5,3,English,m,3,0.25666667,-46.2684083,1.39755131
652ae31c79fb620c91ac5724,35,0,2024-02-27T13:57:10.378Z,french_714.wav,0,pull,489,25,5,3,English,m,0,0.0,77.35355583,0.35690042
652ae31c79fb620c91ac5724,35,0,2024-02-27T13:57:10.378Z,french_714.wav,0,pull,489,25,5,3,English,m,1,0.1,-16.5812175,0.7400083
652ae31c79fb620c91ac5724,35,0,2024-02-27T13:57:10.378Z,french_714.wav,0,pull,489,25,5,3,English,m,2,0.2,-79.42314022,1.17849399
652ae31c79fb620c91ac5724,35,0,2024-02-27T13:57:10.378Z,french_714.wav,0,pull,489,25,5,3,English,m,3,0.25666667,64.71981705,1.38365213
652ae31c79fb620c91ac5724,36,0,2024-02-27T13:57:10.378Z,french_798.wav,0,poule,852,25,5,3,English,m,0,0.0,80.80013175,1.56222047
652ae31c79fb620c91ac5724,36,0,2024-02-27T13:57:10.378Z,french_798.wav,0,poule,852,25,5,3,English,m,1,0.1,8.18850232,1.67765441
652ae31c79fb620c91ac5724,36,0,2024-02-27T13:57:10.378Z,french_798.wav,0,poule,852,25,5,3,English,m,2,0.2,-10.54144101,1.93747014
652ae31c79fb620c91ac5724,36,0,2024-02-27T13:57:10.378Z,french_798.wav,0,poule,852,25,5,3,English,m,3,0.25666667,26.86908184,1.76378238
652ae31c79fb620c91ac5724,37,0,2024-02-27T13:57:10.378Z,french_84.wav,0,poule,374,25,5,3,English,m,0,0.0,-54.85806939,1.84853156
652ae31c79fb620c91ac5724,37,0,2024-02-27T13:57:10.378Z,french_84.wav,0,poule,374,25,5,3,English,m,1,0.1,52.61671493,1.627657
652ae31c79fb620c91ac5724,37,0,2024-02-27T13:57:10.378Z,french_84.wav,0,poule,374,25,5,3,English,m,2,0.2,-3.50081054,1.36210905
652ae31c79fb620c91ac5724,37,0,2024-02-27T13:57:10.378Z,french_84.wav,0,poule,374,25,5,3,English,m,3,0.25666667,-40.76156086,0.69575672
652ae31c79fb620c91ac5724,38,0,2024-02-27T13:57:10.378Z,french_931.wav,0,poule,384,25,5,3,English,m,0,0.0,64.75046939,1.51932084
652ae31c79fb620c91ac5724,38,0,2024-02-27T13:57:10.378Z,french_931.wav,0,poule,384,25,5,3,English,m,1,0.1,-55.9473081,1.08335674
652ae31c79fb620c91ac5724,38,0,2024-02-27T13:57:10.378Z,french_931.wav,0,poule,384,25,5,3,English,m,2,0.2,32.85596214,0.78781639
652ae31c79fb620c91ac5724,38,0,2024-02-27T13:57:10.378Z,french_931.wav,0,poule,384,25,5,3,English,m,3,0.25666667,-89.33798771,0.66435238
652ae31c79fb620c91ac5724,39,0,2024-02-27T13:57:10.378Z,french_96.wav,0,poule,429,25,5,3,English,m,0,0.0,-35.67204937,1.29614461
652ae31c79fb620c91ac5724,39,0,2024-02-27T13:57:10.378Z,french_96.wav,0,poule,429,25,5,3,English,m,1,0.1,-14.5967046,0.74963508
652ae31c79fb620c91ac5724,39,0,2024-02-27T13:57:10.378Z,french_96.wav,0,poule,429,25,5,3,English,m,2,0.2,23.77171322,0.96397917
652ae31c79fb620c91ac5724,39,0,2024-02-27T13:57:10.378Z,french_96.wav,0,poule,429,25,5,3,English,m,3,0.25666667,-43.45086892,0.69619931
652ae31c79fb620c91ac5724,40,0,2024-02-27T13:57:10.378Z,french_921.wav,0,poule,840,25,5,3,English,m,0,0.0,24.11125356,1.60122976
652ae31c79fb620c91ac5724,40,0,2024-02-27T13:57:10.378Z,french_921.wav,0,poule,840,25,5,3,English,m,1,0.1,37.62729467,0.45720022
652ae31c79fb620c91ac5724,40,0,2024-02-27T13:57:10.378Z,french_921.wav,0,poule,840,25,5,3,English,m,2,0.2,-94.55025244,1.67775241
652ae31c79fb620c91ac5724,40,0,2024-02-27T13:57:10.378Z,french_921.wav,0,poule,840,25,5,3,English,m,3,0.25666667,10.27679313,0.96598245
652ae31c79fb620c91ac5724,41,0,2024-02-27T13:57:10.378Z,french_67.wav,0,poule,425,25,5,3,English,m,0,0.0,-85.58948589,0.63200809
652ae31c79fb620c91ac5724,41,0,2024-02-27T13:57:10.378Z,french_67.wav,0,poule,425,25,5,3,English,m,1,0.1,13.09838054,1.95867716
652ae31c79fb620c91ac5724,41,0,2024-02-27T13:57:10.378Z,french_67.wav,0,poule,425,25,5,3,English,m,2,0.2,-56.56906679,0.48937635
652ae31c79fb620c91ac5724,41,0,2024-02-27T13:57:10.378Z,french_67.wav,0,poule,425,25,5,3,English,m,3,0.25666667,57.4599261,1.24156625
652ae31c79fb620c91ac5724,42,0,2024-02-27T13:57:10.378Z,french_751.wav,0,pull,712,25,5,3,English,m,0,0.0,43.14158788,0.5897858
652ae31c79fb620c91ac5724,42,0,2024-02-27T13:57:10.378Z,french_751.wav,0,pull,712,25,5,3,English,m,1,0.1,18.43858874,0.77618244
652ae31c79fb620c91ac5724,42,0,2024-02-27T13:57:10.378Z,french_751.wav,0,pull,712,25,5,3,English,m,2,0.2,79.49995567,1.33641446
652ae31c79fb620c91ac5724,42,0,2024-02-27T13:57:10.378Z,french_751.wav,0,pull,712,25,5,3,English,m,3,0.25666667,54.04463095,0.80537668
652ae31c79fb620c91ac5724,43,0,2024-02-27T13:57:10.378Z,french_620.wav,0,poule,586,25,5,3,English,m,0,0.0,-75.53708421,1.75028991
652ae31c79fb620c91ac5724,43,0,2024-02-27T13:57:10.378Z,french_620.wav,0,poule,586,25,5,3,English,m,1,0.1,4.57362866,1.1712224
652ae31c79fb620c91ac5724,43,0,2024-02-27T13:57:10.378Z,french_620.wav,0,poule,586,25,5,3,English,m,2,0.2,-79.19764782,1.92554269
652ae31c79fb620c91ac5724,43,0,2024-02-27T13:57:10.378Z,french_620.wav,0,poule,586,25,5,3,English,m,3,0.25666667,-82.06470668,1.1477244
652ae31c79fb620c91ac5724,44,0,2024-02-27T13:57:10.378Z,french_805.wav,0,pull,655,25,5,3,English,m,0,0.0,21.15897581,1.3244225
652ae31c79fb620c91ac5724,44,0,2024-02-27T13:57:10.378Z,french_805.wav,0,pull,655,25,5,3,English,m,1,0.1,-84.51795283,0.68750265
652ae31c79fb620c91ac5724,44,0,2024-02-27T13:57:10.378Z,french_805.wav,0,pull,655,25,5,3,English,m,2,0.2,72.20878309,0.56084624
652ae31c79fb620c91ac5724,44,0,2024-02-27T13:57:10.378Z,french_805.wav,0,pull,655,25,5,3,English,m,3,0.25666667,-28.14016055,0.45412894
652ae31c79fb620c91ac5724,45,0,2024-02-27T13:57:10.378Z,french_526.wav,0,poule,391,25,5,3,English,m,0,0.0,88.08406442,1.10890049
652ae31c79fb620c91ac5724,45,0,2024-02-27T13:57:10.378Z,french_526.wav,0,poule,391,25,5,3,English,m,1,0.1,34.72799638,1.05741796
652ae31c79fb620c91ac5724,45,0,2024-02-27T13:57:10.378Z,french_526.wav,0,poule,391,25,5,3,English,m,2,0.2,4.2178472,1.4706377
652ae31c79fb620c91ac5724,45,0,2024-02-27T13:57:10.378Z,french_526.wav,0,poule,391,25,5,3,English,m,3,0.25666667,90.74946068,0.12061003
652ae31c79fb620c91ac5724,46,0,2024-02-27T13:57:10.378Z,french_197.wav,0,pull,613,25,5,3,English,m,0,0.0,-6.69305154,1.22063961
652ae31c79fb620c91ac5724,46,0,2024-02-27T13:57:10.378Z,french_197.wav,0,pull,613,25,5,3,English,m,1,0.1,23.33285596,0.20505699
652ae31c79fb620c91ac5724,46,0,2024-02-27T13:57:10.378Z,french_197.wav,0,pull,613,25,5,3,English,m,2,0.2,-47.26714808,1.45150796
652ae31c79fb620c91ac5724,46,0,2024-02-27T13:57:10.378Z,french_197.wav,0,pull,613,25,5,3,English,m,3,0.25666667,-64.80738279,0.00954455
652ae31c79fb620c91ac5724,47,0,2024-02-27T13:57:10.378Z,french_448.wav,0,poule,500,25,5,3,English,m,0,0.0,31.66119151,0.87276462
652ae31c79fb620c91ac5724,47,0,2024-02-27T13:57:10.378Z,french_448.wav,0,poule,500,25,5,3,English,m,1,0.1,20.17093967,1.08469616
652ae31c79fb620c91ac5724,47,0,2024-02-27T13:57:10.378Z,french_448.wav,0,poule,500,25,5,3,English,m,2,0.2,-46.84568686,1.99629221
652ae31c79fb620c91ac5724,47,0,2024-02-27T13:57:10.378Z,french_448.wav,0,poule,500,25,5,3,English,m,3,0.25666667,10.399138,0.44449425
652ae31c79fb620c91ac5724,48,0,2024-02-27T13:57:10.378Z,french_347.wav,0,poule,397,25,5,3,English,m,0,0.0,-50.57249908,1.7558536
652ae31c79fb620c91ac5724,48,0,2024-02-27T13:57:10.378Z,french_347.wav,0,poule,397,25,5,3,English,m,1,0.1,-0.96259157,0.42717605
652ae31c79fb620c91ac5724,48,0,2024-02-27T13:57:10.378Z,french_347.wav,0,poule,397,25,5,3,English,m,2,0.2,56.28626554,1.32943016
652ae31c79fb620c91ac5724,48,0,2024-02-27T13:57:10.378Z,french_347.wav,0,poule,397,25,5,3,English,m,3,0.25666667,46.89576118,0.4771217
652ae31c79fb620c91ac5724,49,0,2024-02-27T13:57:10.378Z,french_711.wav,0,poule,473,25,5,3,English,m,0,0.0,35.46622773,1.8142291
652ae31c79fb620c91ac5724,49,0,2024-02-27T13:57:10.378Z,french_711.wav,0,poule,473,25,5,3,English,m,1,0.1,62.41897997,1.39339975
652ae31c79fb620c91ac5724,49,0,2024-02-27T13:57:10.378Z,french_711.wav,0,poule,473,25,5,3,English,m,2,0.2,-12.16405894,1.57822467
652ae31c79fb620c91ac5724,49,0,2024-02-27T13:57:10.378Z,french_711.wav,0,poule,473,25,5,3,English,m,3,0.25666667,23.8007589,1.63044315
652ae31c79fb620c91ac5724,50,1,2024-02-27T13:57:10.378Z,french_571.wav,0,poule,432,25,5,3,English,m,0,0.0,31.56469904,0.97268691
652ae31c79fb620c91ac5724,50,1,2024-02-27T13:57:10.378Z,french_571.wav,0,poule,432,25,5,3,English,m,1,0.1,44.5277229,1.62706688
652ae31c79fb620c91ac5724,50,1,2024-02-27T13:57:10.378Z,french_571.wav,0,poule,432,25,5,3,English,m,2,0.2,41.67262287,1.42821868
652ae31c79fb620c91ac5724,50,1,2024-02-27T13:57:10.378Z,french_571.wav,0,poule,432,25,5,3,English,m,3,0.25666667,9.54247743,0.83693393
652ae31c79fb620c91ac5724,51,1,2024-02-27T13:57:10.378Z,french_237.wav,0,pull,715,25,5,3,English,m,0,0.0,-1.09426196,0.40664609
652ae31c79fb620c91ac5724,51,1,2024-02-27T13:57:10.378Z,french_237.wav,0,pull,715,25,5,3,English,m,1,0.1,-48.49856075,0.23529618
652ae31c79fb620c91ac5724,51,1,2024-02-27T13:57:10.378Z,french_237.wav,0,pull,715,25,5,3,English,m,2,0.2,36.42993093,0.05363011
652ae31c79fb620c91ac5724,51,1,2024-02-27T13:57:10.378Z,french_237.wav,0,pull,715,25,5,3,English,m,3,0.25666667,-47.65767162,1.34950367
652ae31c79fb620c91ac5724,52,1,2024-02-27T13:57:10.378Z,french_267.wav,0,poule,345,25,5,3,English,m,0,0.0,-65.51042118,0.47900721
652ae31c79fb620c91ac5724,52,1,2024-02-27T13:57:10.378Z,french_267.wav,0,poule,345,25,5,3,English,m,1,0.1,15.6710232,1.08471332
652ae31c79fb620c91ac5724,52,1,2024-02-27T13:57:10.378Z,french_267.wav,0,poule,345,25,5,3,English,m,2,0.2,-16.59501764,0.49268798
652ae31c79fb620c91ac5724,52,1,2024-02-27T13:57:10.378Z,french_267.wav,0,poule,345,25,5,3,English,m,3,0.25666667,49.75287867,1.54023863
652ae31c79fb620c91ac5724,53,1,2024-02-27T13:57:10.378Z,french_80.wav,0,poule,473,25,5,3,English,m,0,0.0,-4.85614904,0.67500586
652ae31c79fb620c91ac5724,53,1,2024-02-27T13:57:10.378Z,french_80.wav,0,poule,473,25,5,3,English,m,1,0.1,-36.95221558,0.10692408
652ae31c79fb620c91ac5724,53,1,2024-02-27T13:57:10.378Z,french_80.wav,0,poule,473,25,5,3,English,m,2,0.2,-16.65007611,1.27299782
652ae31c79fb620c91ac5724,53,1,2024-02-27T13:57:10.378Z,french_80.wav,0,poule,473,25,5,3,English,m,3,0.25666667,57.44018977,0.9780754
652ae31c79fb620c91ac5724,54,1,2024-02-27T13:57:10.378Z,french_566.wav,0,poule,575,25,5,3,English,m,0,0.0,64.79843522,1.40647024
652ae31c79fb620c91ac5724,54,1,2024-02-27T13:57:10.378Z,french_566.wav,0,poule,575,25,5,3,English,m,1,0.1,34.55507538,1.25726542
652ae31c79fb620c91ac5724,54,1,2024-02-27T13:57:10.378Z,french_566.wav,0,poule,575,25,5,3,English,m,2,0.2,88.9191899,0.22445964
652ae31c79fb620c91ac5724,54,1,2024-02-27T13:57:10.378Z,french_566.wav,0,poule,575,25,5,3,English,m,3,0.25666667,20.7211509,0.73474601
652ae31c79fb620c91ac5724,55,1,2024-02-27T13:57:10.378Z,french_659.wav,0,poule,630,25,5,3,English,m,0,0.0,85.50464417,1.33522586
652ae31c79fb620c91ac5724,55,1,2024-02-27T13:57:10.378Z,french_659.wav,0,poule,630,25,5,3,English,m,1,0.1,65.46448613,1.79413259
652ae31c79fb620c91ac5724,55,1,2024-02-27T13:57:10.378Z,french_659.wav,0,poule,630,25,5,3,English,m,2,0.2,39.40171471,1.57337642
652ae31c79fb620c91ac5724,55,1,2024-02-27T13:57:10.378Z,french_659.wav,0,poule,630,25,5,3,English,m,3,0.25666667,-2.24011696,0.55895062
652ae31c79fb620c91ac5724,56,1,2024-02-27T13:57:10.378Z,french_125.wav,0,poule,341,25,5,3,English,m,0,0.0,-5.4163583,1.55997732
652ae31c79fb620c91ac5724,56,1,2024-02-27T13:57:10.378Z,french_125.wav,0,poule,341,25,5,3,English,m,1,0.1,-78.82020266,1.46538696
652ae31c79fb620c91ac5724,56,1,2024-02-27T13:57:10.378Z,french_125.wav,0,poule,341,25,5,3,English,m,2,0.2,7.21605105,1.19887704
652ae31c79fb620c91ac5724,56,1,2024-02-27T13:57:10.378Z,french_125.wav,0,poule,341,25,5,3,English,m,3,0.25666667,-41.55982592,1.01520467
652ae31c79fb620c91ac5724,57,1,2024-02-27T13:57:10.378Z,french_135.wav,0,poule,281,25,5,3,English,m,0,0.0,-14.44114523,1.1198793
652ae31c79fb620c91ac5724,57,1,2024-02-27T13:57:10.378Z,french_135.wav,0,poule,281,25,5,3,English,m,1,0.1,22.88033262,0.12707755
652ae31c79fb620c91ac5724,57,1,2024-02-27T13:57:10.378Z,french_135.wav,0,poule,281,25,5,3,English,m,2,0.2,45.87784319,1.72429487
652ae31c79fb620c91ac5724,57,1,2024-02-27T13:57:10.378Z,french_135.wav,0,poule,281,25,5,3,English,m,3,0.25666667,14.60103067,0.79769027
652ae31c79fb620c91ac5724,58,1,2024-02-27T13:57:10.378Z,french_73.wav,0,poule,295,25,5,3,English,m,0,0.0,79.91377479,0.94290919
652ae31c79fb620c91ac5724,58,1,2024-02-27T13:57:10.378Z,french_73.wav,0,poule,295,25,5,3,English,m,1,0.1,21.44914026,0.58511712
652ae31c79fb620c91ac5724,58,1,2024-02-27T13:57:10.378Z,french_73.wav,0,poule,295,25,5,3,English,m,2,0.2,94.23892751,1.07660977
652ae31c79fb620c91ac5724,58,1,2024-02-27T13:57:10.378Z,french_73.wav,0,poule,295,25,5,3,English,m,3,0.25666667,-26.36168046,0.0399298
652ae31c79fb620c91ac5724,59,1,2024-02-27T13:57:10.378Z,french_557.wav,0,poule,365,25,5,3,English,m,0,0.0,-4.17762648,0.38732741
652ae31c79fb620c91ac5724,59,1,2024-02-27T13:57:10.378Z,french_557.wav,0,poule,365,25,5,3,English,m,1,0.1,91.9464138,1.58225164
652ae31c79fb620c91ac5724,59,1,2024-02-27T13:57:10.378Z,french_557.wav,0,poule,365,25,5,3,English,m,2,0.2,-21.05895405,1.02633772
652ae31c79fb620c91ac5724,59,1,2024-02-27T13:57:10.378Z,french_557.wav,0,poule,365,25,5,3,English,m,3,0.25666667,45.17146044,0.5187484
652ae31c79fb620c91ac5724,60,1,2024-02-27T13:57:10.378Z,french_803.wav,0,poule,510,25,5,3,English,m,0,0.0,52.60083548,1.16065927
652ae31c79fb620c91ac5724,60,1,2024-02-27T13:57:10.378Z,french_803.wav,0,poule,510,25,5,3,English,m,1,0.1,69.87806401,1.31848068
652ae31c79fb620c91ac5724,60,1,2024-02-27T13:57:10.378Z,french_803.wav,0,poule,510,25,5,3,English,m,2,0.2,-5.78457695,1.09352717
652ae31c79fb620c91ac5724,60,1,2024-02-27T13:57:10.378Z,french_803.wav,0,poule,510,25,5,3,English,m,3,0.25666667,80.81591727,0.48205773
652ae31c79fb620c91ac5724,61,1,2024-02-27T13:57:10.378Z,french_493.wav,0,poule,1486,25,5,3,English,m,0,0.0,-68.32294441,0.52835731
652ae31c79fb620c91ac5724,61,1,2024-02-27T13:57:10.378Z,french_493.wav,0,poule,1486,25,5,3,English,m,1,0.1,-10.78892258,0.49612748
652ae31c79fb620c91ac5724,61,1,2024-02-27T13:57:10.378Z,french_493.wav,0,poule,1486,25,5,3,English,m,2,0.2,91.72278204,1.46473376
652ae31c79fb620c91ac5724,61,1,2024-02-27T13:57:10.378Z,french_493.wav,0,poule,1486,25,5,3,English,m,3,0.25666667,-45.09260027,1.2872874
652ae31c79fb620c91ac5724,62,1,2024-02-27T13:57:10.378Z,french_799.wav,0,poule,423,25,5,3,English,m,0,0.0,-36.40535669,1.51597666
652ae31c79fb620c91ac5724,62,1,2024-02-27T13:57:10.378Z,french_799.wav,0,poule,423,25,5,3,English,m,1,0.1,61.69828746,0.87708619
652ae31c79fb620c91ac5724,62,1,2024-02-27T13:57:10.378Z,french_799.wav,0,poule,423,25,5,3,English,m,2,0.2,66.97541187,1.35480731
652ae31c79fb620c91ac5724,62,1,2024-02-27T13:57:10.378Z,french_799.wav,0,poule,423,25,5,3,English,m,3,0.25666667,-86.21475416,0.58642825
652ae31c79fb620c91ac5724,63,1,2024-02-27T13:57:10.378Z,french_198.wav,0,pull,570,25,5,3,English,m,0,0.0,72.51067349,0.65547069
652ae31c79fb620c91ac5724,63,1,2024-02-27T13:57:10.378Z,french_198.wav,0,pull,570,25,5,3,English,m,1,0.1,26.15359829,0.30610144
652ae31c79fb620c91ac5724,63,1,2024-02-27T13:57:10.378Z,french_198.wav,0,pull,570,25,5,3,English,m,2,0.2,-38.06500424,0.27462822
652ae31c79fb620c91ac5724,63,1,2024-02-27T13:57:10.378Z,french_198.wav,0,pull,570,25,5,3,English,m,3,0.25666667,-63.59150526,1.37790723
652ae31c79fb620c91ac5724,64,1,2024-02-27T13:57:10.378Z,french_458.wav,0,pull,897,25,5,3,English,m,0,0.0,13.7688173,1.1950835
652ae31c79fb620c91ac5724,64,1,2024-02-27T13:57:10.378Z,french_458.wav,0,pull,897,25,5,3,English,m,1,0.1,19.53863665,0.33129566
652ae31c79fb620c91ac5724,64,1,2024-02-27T13:57:10.378Z,french_458.wav,0,pull,897,25,5,3,English,m,2,0.2,-90.92797006,0.65773392
652ae31c79fb620c91ac5724,64,1,2024-02-27T13:57:10.378Z,french_458.wav,0,pull,897,25,5,3,English,m,3,0.25666667,55.23452131,1.54778139
652ae31c79fb620c91ac5724,65,1,2024-02-27T13:57:10.378Z,french_423.wav,0,pull,470,25,5,3,English,m,0,0.0,80.03290271,0.31618382
652ae31c79fb620c91ac5724,65,1,2024-02-27T13:57:10.378Z,french_423.wav,0,pull,470,25,5,3,English,m,1,0.1,-33.72349736,0.81153422
652ae31c79fb620c91ac5724,65,1,2024-02-27T13:57:10.378Z,french_423.wav,0,pull,470,25,5,3,English,m,2,0.2,-38.14858153,0.21197718
652ae31c79fb620c91ac5724,65,1,2024-02-27T13:57:10.378Z,french_423.wav,0,pull,470,25,5,3,English,m,3,0.25666667,-48.66398852,0.41633142
652ae31c79fb620c91ac5724,66,1,2024-02-27T13:57:10.378Z,french_411.wav,0,poule,413,25,5,3,English,m,0,0.0,65.70741219,1.12073031
652ae31c79fb620c91ac5724,66,1,2024-02-27T13:57:10.378Z,french_411.wav,0,poule,413,25,5,3,English,m,1,0.1,9.47903784,1.20345695
652ae31c79fb620c91ac5724,66,1,2024-02-27T13:57:10.378Z,french_411.wav,0,poule,413,25,5,3,English,m,2,0.2,88.46874173,1.7567893
652ae31c79fb620c91ac5724,66,1,2024-02-27T13:57:10.378Z,french_411.wav,0,poule,413,25,5,3,English,m,3,0.25666667,-33.05830924,0.68949127
652ae31c79fb620c91ac5724,67,1,2024-02-27T13:57:10.378Z,french_439.wav,0,pull,584,25,5,3,English,m,0,0.0,66.25011988,1.00096297
652ae31c79fb620c91ac5724,67,1,2024-02-27T13:57:10.378Z,french_439.wav,0,pull,584,25,5,3,English,m,1,0.1,46.32034445,0.12322103
652ae31c79fb620c91ac5724,67,1,2024-02-27T13:57:10.378Z,french_439.wav,0,pull,584,25,5,3,English,m,2,0.2,38.26264731,1.5814324
652ae31c79fb620c91ac5724,67,1,2024-02-27T13:57:10.378Z,french_439.wav,0,pull,584,25,5,3,English,m,3,0.25666667,-42.53278778,0.06125751
652ae31c79fb620c91ac5724,68,1,2024-02-27T13:57:10.378Z,french_238.wav,0,pull,1223,25,5,3,English,m,0,0.0,-7.77377299,1.79398275
652ae31c79fb620c91ac5724,68,1,2024-02-27T13:57:10.378Z,french_238.wav,0,pull,1223,25,5,3,English,m,1,0.1,24.08862247,0.12404774
652ae31c79fb620c91ac5724,68,1,2024-02-27T13:57:10.378Z,french_238.wav,0,pull,1223,25,5,3,English,m,2,0.2,87.10581208,0.76943839
652ae31c79fb620c91ac5724,68,1,2024-02-27T13:57:10.378Z,french_238.wav,0,pull,1223,25,5,3,English,m,3,0.25666667,73.57906518,1.68164748
652ae31c79fb620c91ac5724,69,1,2024-02-27T13:57:10.378Z,french_875.wav,0,poule,740,25,5,3,English,m,0,0.0,-21.85805239,1.53415162
652ae31c79fb620c91ac5724,69,1,2024-02-27T13:57:10.378Z,french_875.wav,0,poule,740,25,5,3,English,m,1,0.1,89.69626046,1.00812403
652ae31c79fb620c91ac5724,69,1,2024-02-27T13:57:10.378Z,french_875.wav,0,poule,740,25,5,3,English,m,2,0.2,-30.27044373,0.85877698
652ae31c79fb620c91ac5724,69,1,2024-02-27T13:57:10.378Z,french_875.wav,0,poule,740,25,5,3,English,m,3,0.25666667,34.72149061,1.23447623
652ae31c79fb620c91ac5724,70,1,2024-02-27T13:57:10.378Z,french_421.wav,0,poule,332,25,5,3,English,m,0,0.0,97.07315942,0.55056447
652ae31c79fb620c91ac5724,70,1,2024-02-27T13:57:10.378Z,french_421.wav,0,poule,332,25,5,3,English,m,1,0.1,-83.39673754,1.15764891
652ae31c79fb620c91ac5724,70,1,2024-02-27T13:57:10.378Z,french_421.wav,0,poule,332,25,5,3,English,m,2,0.2,82.21564407,0.98396665
652ae31c79fb620c91ac5724,70,1,2024-02-27T13:57:10.378Z,french_421.wav,0,poule,332,25,5,3,English,m,3,0.25666667,-4.22049535,0.77781273
652ae31c79fb620c91ac5724,71,1,2024-02-27T13:57:10.378Z,french_121.wav,0,poule,319,25,5,3,English,m,0,0.0,35.32035933,0.75756688
652ae31c79fb620c91ac5724,71,1,2024-02-27T13:57:10.378Z,french_121.wav,0,poule,319,25,5,3,English,m,1,0.1,-67.07725169,1.37771724
652ae31c79fb620c91ac5724,71,1,2024-02-27T13:57:10.378Z,french_121.wav,0,poule,319,25,5,3,English,m,2,0.2,83.36951387,1.17860501
652ae31c79fb620c91ac5724,71,1,2024-02-27T13:57:10.378Z,french_121.wav,0,poule,319,25,5,3,English,m,3,0.25666667,37.65048559,1.25500134
652ae31c79fb620c91ac5724,72,1,2024-02-27T13:57:10.378Z,french_858.wav,0,poule,753,25,5,3,English,m,0,0.0,-70.8749608,0.88986318
652ae31c79fb620c91ac5724,72,1,2024-02-27T13:57:10.378Z,french_858.wav,0,poule,753,25,5,3,English,m,1,0.1,-68.92821451,0.34092676
652ae31c79fb620c91ac5724,72,1,2024-02-27T13:57:10.378Z,french_858.wav,0,poule,753,25,5,3,English,m,2,0.2,48.1063746,0.38776381
652ae31c79fb620c91ac5724,72,1,2024-02-27T13:57:10.378Z,french_858.wav,0,poule,753,25,5,3,English,m,3,0.25666667,0.98463207,1.26771376
652ae31c79fb620c91ac5724,73,1,2024-02-27T13:57:10.378Z,french_998.wav,0,poule,412,25,5,3,English,m,0,0.0,41.25843424,1.12001973
652ae31c79fb620c91ac5724,73,1,2024-02-27T13:57:10.378Z,french_998.wav,0,poule,412,25,5,3,English,m,1,0.1,16.31759718,1.22226563
652ae31c79fb620c91ac5724,73,1,2024-02-27T13:57:10.378Z,french_998.wav,0,poule,412,25,5,3,English,m,2,0.2,-45.05489169,1.68799636
652ae31c79fb620c91ac5724,73,1,2024-02-27T13:57:10.378Z,french_998.wav,0,poule,412,25,5,3,English,m,3,0.25666667,-0.1364182,0.6107462
652ae31c79fb620c91ac5724,74,1,2024-02-27T13:57:10.378Z,french_146.wav,0,pull,702,25,5,3,English,m,0,0.0,2.88911392,0.44051244
652ae31c79fb620c91ac5724,74,1,2024-02-27T13:57:10.378Z,french_146.wav,0,pull,702,25,5,3,English,m,1,0.1,20.34035446,0.76269488
652ae31c79fb620c91ac5724,74,1,2024-02-27T13:57:10.378Z,french_146.wav,0,pull,702,25,5,3,English,m,2,0.2,-17.47138226,0.12643706
652ae31c79fb620c91ac5724,74,1,2024-02-27T13:57:10.378Z,french_146.wav,0,pull,702,25,5,3,English,m,3,0.25666667,-15.1567399,0.55905625
652ae31c79fb620c91ac5724,75,1,2024-02-27T13:57:10.378Z,french_670.wav,0,poule,334,25,5,3,English,m,0,0.0,-38.80852857,0.18324618
652ae31c79fb620c91ac5724,75,1,2024-02-27T13:57:10.378Z,french_670.wav,0,poule,334,25,5,3,English,m,1,0.1,-8.64332938,0.81857347
652ae31c79fb620c91ac5724,75,1,2024-02-27T13:57:10.378Z,french_670.wav,0,poule,334,25,5,3,English,m,2,0.2,-55.35683075,1.27404838
652ae31c79fb620c91ac5724,75,1,2024-02-27T13:57:10.378Z,french_670.wav,0,poule,334,25,5,3,English,m,3,0.25666667,17.57735741,1.12537981
652ae31c79fb620c91ac5724,76,1,2024-02-27T13:57:10.378Z,french_814.wav,0,pull,806,25,5,3,English,m,0,0.0,83.0056253,1.4499936
652ae31c79fb620c91ac5724,76,1,2024-02-27T13:57:10.378Z,french_814.wav,0,pull,806,25,5,3,English,m,1,0.1,-71.4586846,0.77595229
652ae31c79fb620c91ac5724,76,1,2024-02-27T13:57:10.378Z,french_814.wav,0,pull,806,25,5,3,English,m,2,0.2,12.63844789,0.21302651
652ae31c79fb620c91ac5724,76,1,2024-02-27T13:57:10.378Z,french_814.wav,0,pull,806,25,5,3,English,m,3,0.25666667,12.39326704,0.16177964
652ae31c79fb620c91ac5724,77,1,2024-02-27T13:57:10.378Z,french_705.wav,0,pull,382,25,5,3,English,m,0,0.0,-31.52083019,1.71356233
652ae31c79fb620c91ac5724,77,1,2024-02-27T13:57:10.378Z,french_705.wav,0,pull,382,25,5,3,English,m,1,0.1,93.24854214,0.26324818
652ae31c79fb620c91ac5724,77,1,2024-02-27T13:57:10.378Z,french_705.wav,0,pull,382,25,5,3,English,m,2,0.2,-36.26217339,0.66385994
652ae31c79fb620c91ac5724,77,1,2024-02-27T13:57:10.378Z,french_705.wav,0,pull,382,25,5,3,English,m,3,0.25666667,58.31905924,1.85027868
652ae31c79fb620c91ac5724,78,1,2024-02-27T13:57:10.378Z,french_889.wav,0,poule,320,25,5,3,English,m,0,0.0,-11.44618348,1.60032155
652ae31c79fb620c91ac5724,78,1,2024-02-27T13:57:10.378Z,french_889.wav,0,poule,320,25,5,3,English,m,1,0.1,14.52697714,0.84860504
652ae31c79fb620c91ac5724,78,1,2024-02-27T13:57:10.378Z,french_889.wav,0,poule,320,25,5,3,English,m,2,0.2,-51.60315894,1.67734449
652ae31c79fb620c91ac5724,78,1,2024-02-27T13:57:10.378Z,french_889.wav,0,poule,320,25,5,3,English,m,3,0.25666667,40.16126686,0.04411269
652ae31c79fb620c91ac5724,79,1,2024-02-27T13:57:10.378Z,french_218.wav,0,poule,506,25,5,3,English,m,0,0.0,50.58163299,1.39700525
652ae31c79fb620c91ac5724,79,1,2024-02-27T13:57:10.378Z,french_218.wav,0,poule,506,25,5,3,English,m,1,0.1,-62.47432707,0.24728847
652ae31c79fb620c91ac5724,79,1,2024-02-27T13:57:10.378Z,french_218.wav,0,poule,506,25,5,3,English,m,2,0.2,-11.24403131,1.10420939
652ae31c79fb620c91ac5724,79,1,2024-02-27T13:57:10.378Z,french_218.wav,0,poule,506,25,5,3,English,m,3,0.25666667,-76.23808147,0.34157158
652ae31c79fb620c91ac5724,80,1,2024-02-27T13:57:10.378Z,french_309.wav,0,poule,385,25,5,3,English,m,0,0.0,-43.78964232,0.29425556
652ae31c79fb620c91ac5724,80,1,2024-02-27T13:57:10.378Z,french_309.wav,0,poule,385,25,5,3,English,m,1,0.1,78.2069368,1.94220297
652ae31c79fb620c91ac5724,80,1,2024-02-27T13:57:10.378Z,french_309.wav,0,poule,385,25,5,3,English,m,2,0.2,-31.15110399,1.27018493
652ae31c79fb620c91ac5724,80,1,2024-02-27T13:57:10.378Z,french_309.wav,0,poule,385,25,5,3,English,m,3,0.25666667,-73.94684578,1.0788176
652ae31c79fb620c91ac5724,81,1,2024-02-27T13:57:10.378Z,french_510.wav,0,poule,815,25,5,3,English,m,0,0.0,-82.87799208,0.24901575
652ae31c79fb620c91ac5724,81,1,2024-02-27T13:57:10.378Z,french_510.wav,0,poule,815,25,5,3,English,m,1,0.1,65.34741866,0.57837344
652ae31c79fb620c91ac5724,81,1,2024-02-27T13:57:10.378Z,french_510.wav,0,poule,815,25,5,3,English,m,2,0.2,-27.05880307,0.73430832
652ae31c79fb620c91ac5724,81,1,2024-02-27T13:57:10.378Z,french_510.wav,0,poule,815,25,5,3,English,m,3,0.25666667,51.91290048,0.23551409
652ae31c79fb620c91ac5724,82,1,2024-02-27T13:57:10.378Z,french_932.wav,0,poule,363,25,5,3,English,m,0,0.0,-46.06723632,0.59994833
652ae31c79fb620c91ac5724,82,1,2024-02-27T13:57:10.378Z,french_932.wav,0,poule,363,25,5,3,English,m,1,0.1,66.80974186,1.29573715
652ae31c79fb620c91ac5724,82,1,2024-02-27T13:57:10.378Z,french_932.wav,0,poule,363,25,5,3,English,m,2,0.2,39.28685727,0.97302603
652ae31c79fb620c91ac5724,82,1,2024-02-27T13:57:10.378Z,french_932.wav,0,poule,363,25,5,3,English,m,3,0.25666667,-66.26323275,1.65300799
652ae31c79fb620c91ac5724,83,1,2024-02-27T13:57:10.378Z,french_92.wav,0,poule,437,25,5,3,English,m,0,0.0,59.20081487,1.21926368
652ae31c79fb620c91ac5724,83,1,2024-02-27T13:57:10.378Z,french_92.wav,0,poule,437,25,5,3,English,m,1,0.1,95.6548793,1.56053314
652ae31c79fb620c91ac5724,83,1,2024-02-27T13:57:10.378Z,french_92.wav,0,poule,437,25,5,3,English,m,2,0.2,-36.19224385,1.38632022
652ae31c79fb620c91ac5724,83,1,2024-02-27T13:57:10.378Z,french_92.wav,0,poule,437,25,5,3,English,m,3,0.25666667,68.24894855,1.29084252
652ae31c79fb620c91ac5724,84,1,2024-02-27T13:57:10.378Z,french_294.wav,0,poule,368,25,5,3,English,m,0,0.0,18.73906337,1.13845915
652ae31c79fb620c91ac5724,84,1,2024-02-27T13:57:10.378Z,french_294.wav,0,poule,368,25,5,3,English,m,1,0.1,4.75064209,1.03898668
652ae31c79fb620c91ac5724,84,1,2024-02-27T13:57:10.378Z,french_294.wav,0,poule,368,25,5,3,English,m,2,0.2,-81.40088776,1.62818909
652ae31c79fb620c91ac5724,84,1,2024-02-27T13:57:10.378Z,french_294.wav,0,poule,368,25,5,3,English,m,3,0.25666667,-89.40929498,0.49616963
652ae31c79fb620c91ac5724,85,1,2024-02-27T13:57:10.378Z,french_220.wav,0,poule,655,25,5,3,English,m,0,0.0,99.39862809,1.95391084
652ae31c79fb620c91ac5724,85,1,2024-02-27T13:57:10.378Z,french_220.wav,0,poule,655,25,5,3,English,m,1,0.1,-16.44954754,1.60430152
652ae31c79fb620c91ac5724,85,1,2024-02-27T13:57:10.378Z,french_220.wav,0,poule,655,25,5,3,English,m,2,0.2,-73.93109837,1.1953066
652ae31c79fb620c91ac5724,85,1,2024-02-27T13:57:10.378Z,french_220.wav,0,poule,655,25,5,3,English,m,3,0.25666667,-37.75571533,0.34699919
652ae31c79fb620c91ac5724,86,1,2024-02-27T13:57:10.378Z,french_194.wav,0,poule,268,25,5,3,English,m,0,0.0,82.45325258,0.54112087
652ae31c79fb620c91ac5724,86,1,2024-02-27T13:57:10.378Z,french_194.wav,0,poule,268,25,5,3,English,m,1,0.1,88.9094727,0.47601939
652ae31c79fb620c91ac5724,86,1,2024-02-27T13:57:10.378Z,french_194.wav,0,poule,268,25,5,3,English,m,2,0.2,-44.07936747,1.71905709
652ae31c79fb620c91ac5724,86,1,2024-02-27T13:57:10.378Z,french_194.wav,0,poule,268,25,5,3,English,m,3,0.25666667,97.80970813,1.16289195
652ae31c79fb620c91ac5724,87,1,2024-02-27T13:57:10.378Z,french_341.wav,0,pull,668,25,5,3,English,m,0,0.0,20.04332725,1.4438644
652ae31c79fb620c91ac5724,87,1,2024-02-27T13:57:10.378Z,french_341.wav,0,pull,668,25,5,3,English,m,1,0.1,-82.29685822,0.08336385
652ae31c79fb620c91ac5724,87,1,2024-02-27T13:57:10.378Z,french_341.wav,0,pull,668,25,5,3,English,m,2,0.2,-35.12302466,0.04329086
652ae31c79fb620c91ac5724,87,1,2024-02-27T13:57:10.378Z,french_341.wav,0,pull,668,25,5,3,English,m,3,0.25666667,58.90486556,0.76896482
652ae31c79fb620c91ac5724,88,1,2024-02-27T13:57:10.378Z,french_533.wav,0,poule,402,25,5,3,English,m,0,0.0,16.04004141,1.94214745
652ae31c79fb620c91ac5724,88,1,2024-02-27T13:57:10.378Z,french_533.wav,0,poule,402,25,5,3,English,m,1,0.1,56.74964814,0.96958639
652ae31c79fb620c91ac5724,88,1,2024-02-27T13:57:10.378Z,french_533.wav,0,poule,402,25,5,3,English,m,2,0.2,94.00728235,1.49563925
652ae31c79fb620c91ac5724,88,1,2024-02-27T13:57:10.378Z,french_533.wav,0,poule,402,25,5,3,English,m,3,0.25666667,-15.92685786,1.75047909
652ae31c79fb620c91ac5724,89,1,2024-02-27T13:57:10.378Z,french_362.wav,0,poule,388,25,5,3,English,m,0,0.0,-5.18125688,1.66521149
652ae31c79fb620c91ac5724,89,1,2024-02-27T13:57:10.378Z,french_362.wav,0,poule,388,25,5,3,English,m,1,0.1,-33.24228679,1.63330091
652ae31c79fb620c91ac5724,89,1,2024-02-27T13:57:10.378Z,french_362.wav,0,poule,388,25,5,3,English,m,2,0.2,13.99395474,0.18995652
652ae31c79fb620c91ac5724,89,1,2024-02-27T13:57:10.378Z,french_362.wav,0,poule,388,25,5,3,English,m,3,0.25666667,-44.70505318,0.66219279
652ae31c79fb620c91ac5724,90,1,2024-02-27T13:57:10.378Z,french_989.wav,0,poule,962,25,5,3,English,m,0,0.0,9.12508282,1.4573698
652ae31c79fb620c91ac5724,90,1,2024-02-27T13:57:10.378Z,french_989.wav,0,poule,962,25,5,3,English,m,1,0.1,-26.45358769,0.87656303
652ae31c79fb620c91ac5724,90,1,2024-02-27T13:57:10.378Z,french_989.wav,0,poule,962,25,5,3,English,m,2,0.2,-51.08796106,0.58961018
652ae31c79fb620c91ac5724,90,1,2024-02-27T13:57:10.378Z,french_989.wav,0,poule,962,25,5,3,English,m,3,0.25666667,-22.70445117,1.46090447
652ae31c79fb620c91ac5724,91,1,2024-02-27T13:57:10.378Z,french_490.wav,0,poule,286,25,5,3,English,m,0,0.0,-77.54246231,1.03559912
652ae31c79fb620c91ac5724,91,1,2024-02-27T13:57:10.378Z,french_490.wav,0,poule,286,25,5,3,English,m,1,0.1,-0.13066058,0.94588293
652ae31c79fb620c91ac5724,91,1,2024-02-27T13:57:10.378Z,french_490.wav,0,poule,286,25,5,3,English,m,2,0.2,-90.37490593,1.16449319
652ae31c79fb620c91ac5724,91,1,2024-02-27T13:57:10.378Z,french_490.wav,0,poule,286,25,5,3,English,m,3,0.25666667,62.21960288,1.46557017
652ae31c79fb620c91ac5724,92,1,2024-02-27T13:57:10.378Z,french_314.wav,0,pull,1379,25,5,3,English,m,0,0.0,-41.28420355,0.77087466
652ae31c79fb620c91ac5724,92,1,2024-02-27T13:57:10.378Z,french_314.wav,0,pull,1379,25,5,3,English,m,1,0.1,38.91630458,0.23409115
652ae31c79fb620c91ac5724,92,1,2024-02-27T13:57:10.378Z,french_314.wav,0,pull,1379,25,5,3,English,m,2,0.2,24.93775916,0.53304912
652ae31c79fb620c91ac5724,92,1,2024-02-27T13:57:10.378Z,french_314.wav,0,pull,1379,25,5,3,English,m,3,0.25666667,33.33111791,0.84036245
652ae31c79fb620c91ac5724,93,1,2024-02-27T13:57:10.378Z,french_681.wav,0,poule,412,25,5,3,English,m,0,0.0,-28.020652,0.15084138
652ae31c79fb620c91ac5724,93,1,2024-02-27T13:57:10.378Z,french_681.wav,0,poule,412,25,5,3,English,m,1,0.1,-7.04160788,1.22079629
652ae31c79fb620c91ac5724,93,1,2024-02-27T13:57:10.378Z,french_681.wav,0,poule,412,25,5,3,English,m,2,0.2,53.5795515,1.97804896
652ae31c79fb620c91ac5724,93,1,2024-02-27T13:57:10.378Z,french_681.wav,0,poule,412,25,5,3,English,m,3,0.25666667,-33.12503676,0.44897499
652ae31c79fb620c91ac5724,94,1,2024-02-27T13:57:10.378Z,french_322.wav,0,pull,830,25,5,3,English,m,0,0.0,11.21723197,0.46669198
652ae31c79fb620c91ac5724,94,1,2024-02-27T13:57:10.378Z,french_322.wav,0,pull,830,25,5,3,English,m,1,0.1,71.99064207,0.00506582
652ae31c79fb620c91ac5724,94,1,2024-02-27T13:57:10.378Z,french_322.wav,0,pull,830,25,5,3,English,m,2,0.2,-70.2949895,0.23170645
652ae31c79fb620c91ac5724,94,1,2024-02-27T13:57:10.378Z,french_322.wav,0,pull,830,25,5,3,English,m,3,0.25666667,-90.37135255,0.39597554
652ae31c79fb620c91ac5724,95,1,2024-02-27T13:57:10.378Z,french_605.wav,0,poule,743,25,5,3,English,m,0,0.0,-36.16596328,1.67360444
652ae31c79fb620c91ac5724,95,1,2024-02-27T13:57:10.378Z,french_605.wav,0,poule,743,25,5,3,English,m,1,0.1,-79.4068097,0.60127341
652ae31c79fb620c91ac5724,95,1,2024-02-27T13:57:10.378Z,french_605.wav,0,poule,743,25,5,3,English,m,2,0.2,-61.39154049,0.37070459
652ae31c79fb620c91ac5724,95,1,2024-02-27T13:57:10.378Z,french_605.wav,0,poule,743,25,5,3,English,m,3,0.25666667,44.72298118,1.73994467
652ae31c79fb620c91ac5724,96,1,2024-02-27T13:57:10.378Z,french_885.wav,0,poule,481,25,5,3,English,m,0,0.0,33.82264354,0.94046277
652ae31c79fb620c91ac5724,96,1,2024-02-27T13:57:10.378Z,french_885.wav,0,poule,481,25,5,3,English,m,1,0.1,-17.07734064,0.79714646
652ae31c79fb620c91ac5724,96,1,2024-02-27T13:57:10.378Z,french_885.wav,0,poule,481,25,5,3,English,m,2,0.2,-15.93967404,1.26873891
652ae31c79fb620c91ac5724,96,1,2024-02-27T13:57:10.378Z,french_885.wav,0,poule,481,25,5,3,English,m,3,0.25666667,58.67746901,1.69592015
652ae31c79fb620c91ac5724,97,1,2024-02-27T13:57:10.378Z,french_742.wav,0,poule,361,25,5,3,English,m,0,0.0,70.50155873,0.93659897
652ae31c79fb620c91ac5724,97,1,2024-02-27T13:57:10.378Z,french_742.wav,0,poule,361,25,5,3,English,m,1,0.1,-40.99625843,1.14125333
652ae31c79fb620c91ac5724,97,1,2024-02-27T13:57:10.378Z,french_742.wav,0,poule,361,25,5,3,English,m,2,0.2,6.68379951,1.25957194
652ae31c79fb620c91ac5724,97,1,2024-02-27T13:57:10.378Z,french_742.wav,0,poule,361,25,5,3,English,m,3,0.25666667,-76.31698705,0.86761951
652ae31c79fb620c91ac5724,98,1,2024-02-27T13:57:10.378Z,french_89.wav,0,poule,757,25,5,3,English,m,0,0.0,-79.59355323,1.69180454
652ae31c79fb620c91ac5724,98,1,2024-02-27T13:57:10.378Z,french_89.wav,0,poule,757,25,5,3,English,m,1,0.1,-86.9945706,1.08047967
652ae31c79fb620c91ac5724,98,1,2024-02-27T13:57:10.378Z,french_89.wav,0,poule,757,25,5,3,English,m,2,0.2,81.38410409,1.92177075
652ae31c79fb620c91ac5724,98,1,2024-02-27T13:57:10.378Z,french_89.wav,0,poule,757,25,5,3,English,m,3,0.25666667,-11.31628481,1.93759104
652ae31c79fb620c91ac5724,99,1,2024-02-27T13:57:10.378Z,french_471.wav,0,poule,288,25,5,3,English,m,0,0.0,35.47460752,0.77553755
652ae31c79fb620c91ac5724,99,1,2024-02-27T13:57:10.378Z,french_471.wav,0,poule,288,25,5,3,English,m,1,0.1,-49.00208302,1.38730058
652ae31c79fb620c91ac5724,99,1,2024-02-27T13:57:10.378Z,french_471.wav,0,poule,288,25,5,3,English,m,2,0.2,47.17677121,0.98156507
652ae31c79fb620c91ac5724,99,1,2024-02-27T13:57:10.378Z,french_471.wav,0,poule,288,25,5,3,English,m,3,0.25666667,64.34433074,0.66404961
652ae31c79fb620c91ac5724,100,2,2024-02-27T13:57:10.378Z,french_47.wav,0,pull,974,25,5,3,English,m,0,0.0,85.02614504,1.30132326
652ae31c79fb620c91ac5724,100,2,2024-02-27T13:57:10.378Z,french_47.wav,0,pull,974,25,5,3,English,m,1,0.1,79.4123752,0.75427136
652ae31c79fb620c91ac5724,100,2,2024-02-27T13:57:10.378Z,french_47.wav,0,pull,974,25,5,3,English,m,2,0.2,52.99117024,0.35196824
652ae31c79fb620c91ac5724,100,2,2024-02-27T13:57:10.378Z,french_47.wav,0,pull,974,25,5,3,English,m,3,0.25666667,-70.6267891,0.96175292
652ae31c79fb620c91ac5724,101,2,2024-02-27T13:57:10.378Z,french_520.wav,0,pull,881,25,5,3,English,m,0,0.0,-93.2931023,0.41573501
652ae31c79fb620c91ac5724,101,2,2024-02-27T13:57:10.378Z,french_520.wav,0,pull,881,25,5,3,English,m,1,0.1,13.33088057,0.24185226
652ae31c79fb620c91ac5724,101,2,2024-02-27T13:57:10.378Z,french_520.wav,0,pull,881,25,5,3,English,m,2,0.2,-27.94628904,0.74385359
652ae31c79fb620c91ac5724,101,2,2024-02-27T13:57:10.378Z,french_520.wav,0,pull,881,25,5,3,English,m,3,0.25666667,-1.59677094,0.80521135
652ae31c79fb620c91ac5724,102,2,2024-02-27T13:57:10.378Z,french_279.wav,0,poule,359,25,5,3,English,m,0,0.0,-82.72654322,1.91034617
652ae31c79fb620c91ac5724,102,2,2024-02-27T13:57:10.378Z,french_279.wav,0,poule,359,25,5,3,English,m,1,0.1,51.19533055,0.35578453
652ae31c79fb620c91ac5724,102,2,2024-02-27T13:57:10.378Z,french_279.wav,0,poule,359,25,5,3,English,m,2,0.2,81.3850192,1.45645662
652ae31c79fb620c91ac5724,102,2,2024-02-27T13:57:10.378Z,french_279.wav,0,poule,359,25,5,3,English,m,3,0.25666667,12.9967417,1.34605049
652ae31c79fb620c91ac5724,103,2,2024-02-27T13:57:10.378Z,french_1000.wav,0,poule,365,25,5,3,English,m,0,0.0,-14.94486739,0.60674079
652ae31c79fb620c91ac5724,103,2,2024-02-27T13:57:10.378Z,french_1000.wav,0,poule,365,25,5,3,English,m,1,0.1,-3.70752284,0.18450848
652ae31c79fb620c91ac5724,103,2,2024-02-27T13:57:10.378Z,french_1000.wav,0,poule,365,25,5,3,English,m,2,0.2,-14.04083749,1.64475948
652ae31c79fb620c91ac5724,103,2,2024-02-27T13:57:10.378Z,french_1000.wav,0,poule,365,25,5,3,English,m,3,0.25666667,-29.27941665,0.26397745
652ae31c79fb620c91ac5724,104,2,2024-02-27T13:57:10.378Z,french_716.wav,0,pull,530,25,5,3,English,m,0,0.0,84.94340614,0.02480266
652ae31c79fb620c91ac5724,104,2,2024-02-27T13:57:10.378Z,french_716.wav,0,pull,530,25,5,3,English,m,1,0.1,-26.42004262,1.84645248
652ae31c79fb620c91ac5724,104,2,2024-02-27T13:57:10.378Z,french_716.wav,0,pull,530,25,5,3,English,m,2,0.2,43.13419589,1.11902957
652ae31c79fb620c91ac5724,104,2,2024-02-27T13:57:10.378Z,french_716.wav,0,pull,530,25,5,3,English,m,3,0.25666667,70.01736472,1.71178302
652ae31c79fb620c91ac5724,105,2,2024-02-27T13:57:10.378Z,french_202.wav,0,poule,1896,25,5,3,English,m,0,0.0,13.54970771,0.17477243
652ae31c79fb620c91ac5724,105,2,2024-02-27T13:57:10.378Z,french_202.wav,0,poule,1896,25,5,3,English,m,1,0.1,96.46591802,0.30528336
652ae31c79fb620c91ac5724,105,2,2024-02-27T13:57:10.378Z,french_202.wav,0,poule,1896,25,5,3,English,m,2,0.2,96.13650215,0.41819952
652ae31c79fb620c91ac5724,105,2,2024-02-27T13:57:10.378Z,french_202.wav,0,poule,1896,25,5,3,English,m,3,0.25666667,-35.2772524,1.86493567
652ae31c79fb620c91ac5724,106,2,2024-02-27T13:57:10.378Z,french_923.wav,0,poule,492,25,5,3,English,m,0,0.0,-57.84523262,1.35677253
652ae31c79fb620c91ac5724,106,2,2024-02-27T13:57:10.378Z,french_923.wav,0,poule,492,25,5,3,English,m,1,0.1,-15.65652506,1.1280373
652ae31c79fb620c91ac5724,106,2,2024-02-27T13:57:10.378Z,french_923.wav,0,poule,492,25,5,3,English,m,2,0.2,37.84243464,1.38752537
652ae31c79fb620c91ac5724,106,2,2024-02-27T13:57:10.378Z,french_923.wav,0,poule,492,25,5,3,English,m,3,0.25666667,15.41728704,1.42596606
652ae31c79fb620c91ac5724,107,2,2024-02-27T13:57:10.378Z,french_822.wav,0,pull,620,25,5,3,English,m,0,0.0,70.1141555,0.03091404
652ae31c79fb620c91ac5724,107,2,2024-02-27T13:57:10.378Z,french_822.wav,0,pull,620,25,5,3,English,m,1,0.1,-32.80370271,1.54599653
652ae31c79fb620c91ac5724,107,2,2024-02-27T13:57:10.378Z,french_822.wav,0,pull,620,25,5,3,English,m,2,0.2,9.36864383,0.45983016
652ae31c79fb620c91ac5724,107,2,2024-02-27T13:57:10.378Z,french_822.wav,0,pull,620,25,5,3,English,m,3,0.25666667,-70.41865943,0.57036726
652ae31c79fb620c91ac5724,108,2,2024-02-27T13:57:10.378Z,french_230.wav,0,poule,326,25,5,3,English,m,0,0.0,-41.35992563,1.74508263
652ae31c79fb620c91ac5724,108,2,2024-02-27T13:57:10.378Z,french_230.wav,0,poule,326,25,5,3,English,m,1,0.1,43.67449439,0.13993269
652ae31c79fb620c91ac5724,108,2,2024-02-27T13:57:10.378Z,french_230.wav,0,poule,326,25,5,3,English,m,2,0.2,25.98311508,0.94473259
652ae31c79fb620c91ac5724,108,2,2024-02-27T13:57:10.378Z,french_230.wav,0,poule,326,25,5,3,English,m,3,0.25666667,-21.63443629,1.52757814
652ae31c79fb620c91ac5724,109,2,2024-02-27T13:57:10.378Z,french_11.wav,0,poule,504,25,5,3,English,m,0,0.0,-27.01625533,0.65463853
652ae31c79fb620c91ac5724,109,2,2024-02-27T13:57:10.378Z,french_11.wav,0,poule,504,25,5,3,English,m,1,0.1,30.5454192,0.82547758
652ae31c79fb620c91ac5724,109,2,2024-02-27T13:57:10.378Z,french_11.wav,0,poule,504,25,5,3,English,m,2,0.2,-10.3355652,1.18020414
652ae31c79fb620c91ac5724,109,2,2024-02-27T13:57:10.378Z,french_11.wav,0,poule,504,25,5,3,English,m,3,0.25666667,-1.40658107,0.75245655
652ae31c79fb620c91ac5724,110,2,2024-02-27T13:57:10.378Z,french_192.wav,0,poule,331,25,5,3,English,m,0,0.0,73.17690414,1.47156363
652ae31c79fb620c91ac5724,110,2,2024-02-27T13:57:10.378Z,french_192.wav,0,poule,331,25,5,3,English,m,1,0.1,14.65884197,0.92412776
652ae31c79fb620c91ac5724,110,2,2024-02-27T13:57:10.378Z,french_192.wav,0,poule,331,25,5,3,English,m,2,0.2,-6.29840632,0.27182316
652ae31c79fb620c91ac5724,110,2,2024-02-27T13:57:10.378Z,french_192.wav,0,poule,331,25,5,3,English,m,3,0.25666667,-32.28340249,1.34820636
652ae31c79fb620c91ac5724,111,2,2024-02-27T13:57:10.378Z,french_248.wav,0,poule,477,25,5,3,English,m,0,0.0,-72.14952141,0.31572296
652ae31c79fb620c91ac5724,111,2,2024-02-27T13:57:10.378Z,french_248.wav,0,poule,477,25,5,3,English,m,1,0.1,-0.62089361,0.98183681
652ae31c79fb620c91ac5724,111,2,2024-02-27T13:57:10.378Z,french_248.wav,0,poule,477,25,5,3,English,m,2,0.2,-1.54726874,1.57355183
652ae31c79fb620c91ac5724,111,2,2024-02-27T13:57:10.378Z,french_248.wav,0,poule,477,25,5,3,English,m,3,0.25666667,-50.42909266,0.39982355
652ae31c79fb620c91ac5724,112,2,2024-02-27T13:57:10.378Z,french_874.wav,0,poule,487,25,5,3,English,m,0,0.0,-35.96007818,0.94126631
652ae31c79fb620c91ac5724,112,2,2024-02-27T13:57:10.378Z,french_874.wav,0,poule,487,25,5,3,English,m,1,0.1,93.27546243,1.47253108
652ae31c79fb620c91ac5724,112,2,2024-02-27T13:57:10.378Z,french_874.wav,0,poule,487,25,5,3,English,m,2,0.2,-82.54110259,1.71868685
652ae31c79fb620c91ac5724,112,2,2024-02-27T13:57:10.378Z,french_874.wav,0,poule,487,25,5,3,English,m,3,0.25666667,1.86870901,0.93280664
652ae31c79fb620c91ac5724,113,2,2024-02-27T13:57:10.378Z,french_193.wav,0,poule,392,25,5,3,English,m,0,0.0,-28.32639357,1.40536398
652ae31c79fb620c91ac5724,113,2,2024-02-27T13:57:10.378Z,french_193.wav,0,poule,392,25,5,3,English,m,1,0.1,-28.26139456,0.96467568
652ae31c79fb620c91ac5724,113,2,2024-02-27T13:57:10.378Z,french_193.wav,0,poule,392,25,5,3,English,m,2,0.2,-57.21870996,1.12687293
652ae31c79fb620c91ac5724,113,2,2024-02-27T13:57:10.378Z,french_193.wav,0,poule,392,25,5,3,English,m,3,0.25666667,-51.4120543,0.49094377
652ae31c79fb620c91ac5724,114,2,2024-02-27T13:57:10.378Z,french_365.wav,0,poule,336,25,5,3,English,m,0,0.0,-98.04571794,1.18023288
652ae31c79fb620c91ac5724,114,2,2024-02-27T13:57:10.378Z,french_365.wav,0,poule,336,25,5,3,English,m,1,0.1,-73.67698607,1.95707288
652ae31c79fb620c91ac5724,114,2,2024-02-27T13:57:10.378Z,french_365.wav,0,poule,336,25,5,3,English,m,2,0.2,-96.43604562,0.58641449
652ae31c79fb620c91ac5724,114,2,2024-02-27T13:57:10.378Z,french_365.wav,0,poule,336,25,5,3,English,m,3,0.25666667,37.7893414,1.65360278
652ae31c79fb620c91ac5724,115,2,2024-02-27T13:57:10.378Z,french_740.wav,0,poule,694,25,5,3,English,m,0,0.0,-63.22643447,1.41698272
652ae31c79fb620c91ac5724,115,2,2024-02-27T13:57:10.378Z,french_740.wav,0,poule,694,25,5,3,English,m,1,0.1,-76.79793208,1.15791198
652ae31c79fb620c91ac5724,115,2,2024-02-27T13:57:10.378Z,french_740.wav,0,poule,694,25,5,3,English,m,2,0.2,-90.89358737,1.97460827
652ae31c79fb620c91ac5724,115,2,2024-02-27T13:57:10.378Z,french_740.wav,0,poule,694,25,5,3,English,m,3,0.25666667,-87.57687491,0.61281255
652ae31c79fb620c91ac5724,116,2,2024-02-27T13:57:10.378Z,french_46.wav,0,poule,241,25,5,3,English,m,0,0.0,-59.72524318,1.59606806
652ae31c79fb620c91ac5724,116,2,2024-02-27T13:57:10.378Z,french_46.wav,0,poule,241,25,5,3,English,m,1,0.1,-28.22082853,1.01173367
652ae31c79fb620c91ac5724,116,2,2024-02-27T13:57:10.378Z,french_46.wav,0,poule,241,25,5,3,English,m,2,0.2,2.0739194,0.40164164
652ae31c79fb620c91ac5724,116,2,2024-02-27T13:57:10.378Z,french_46.wav,0,poule,241,25,5,3,English,m,3,0.25666667,-12.25343829,1.6352238
652ae31c79fb620c91ac5724,117,2,2024-02-27T13:57:10.378Z,french_211.wav,0,poule,334,25,5,3,English,m,0,0.0,26.09911827,0.38797522
652ae31c79fb620c91ac5724,117,2,2024-02-27T13:57:10.378Z,french_211.wav,0,poule,334,25,5,3,English,m,1,0.1,37.88219535,0.97106999
652ae31c79fb620c91ac5724,117,2,2024-02-27T13:57:10.378Z,french_211.wav,0,poule,334,25,5,3,English,m,2,0.2,25.3370042,0.82384696
652ae31c79fb620c91ac5724,117,2,2024-02-27T13:57:10.378Z,french_211.wav,0,poule,334,25,5,3,English,m,3,0.25666667,-31.50750366,0.88987221
652ae31c79fb620c91ac5724,118,2,2024-02-27T13:57:10.378Z,french_376.wav,0,poule,292,25,5,3,English,m,0,0.0,-29.78300729,1.32478843
652ae31c79fb620c91ac5724,118,2,2024-02-27T13:57:10.378Z,french_376.wav,0,poule,292,25,5,3,English,m,1,0.1,-14.6608331,1.46487259
652ae31c79fb620c91ac5724,118,2,2024-02-27T13:57:10.378Z,french_376.wav,0,poule,292,25,5,3,English,m,2,0.2,93.91149251,1.42207254
652ae31c79fb620c91ac5724,118,2,2024-02-27T13:57:10.378Z,french_376.wav,0,poule,292,25,5,3,English,m,3,0.25666667,61.08695399,1.23206205
652ae31c79fb620c91ac5724,119,2,2024-02-27T13:57:10.378Z,french_328.wav,0,poule,1185,25,5,3,English,m,0,0.0,-82.86069205,0.98291516
652ae31c79fb620c91ac5724,119,2,2024-02-27T13:57:10.378Z,french_328.wav,0,poule,1185,25,5,3,English,m,1,0.1,-76.70984367,1.53428028
652ae31c79fb620c91ac5724,119,2,2024-02-27T13:57:10.378Z,french_328.wav,0,poule,1185,25,5,3,English,m,2,0.2,-82.63579977,1.97086095
652ae31c79fb620c91ac5724,119,2,2024-02-27T13:57:10.378Z,french_328.wav,0,poule,1185,25,5,3,English,m,3,0.25666667,-88.21582145,0.71580661
652ae31c79fb620c91ac5724,120,2,2024-02-27T13:57:10.378Z,french_355.wav,0,pull,539,25,5,3,English,m,0,0.0,-92.75119925,0.18544254
652ae31c79fb620c91ac5724,120,2,2024-02-27T13:57:10.378Z,french_355.wav,0,pull,539,25,5,3,English,m,1,0.1,77.20775246,0.07031399
652ae31c79fb620c91ac5724,120,2,2024-02-27T13:57:10.378Z,french_355.wav,0,pull,539,25,5,3,English,m,2,0.2,-51.05688592,0.46666342
652ae31c79fb620c91ac5724,120,2,2024-02-27T13:57:10.378Z,french_355.wav,0,pull,539,25,5,3,English,m,3,0.25666667,27.03743598,1.78468618
652ae31c79fb620c91ac5724,121,2,2024-02-27T13:57:10.378Z,french_380.wav,0,poule,481,25,5,3,English,m,0,0.0,24.49292531,0.14533116
652ae31c79fb620c91ac5724,121,2,2024-02-27T13:57:10.378Z,french_380.wav,0,poule,481,25,5,3,English,m,1,0.1,-93.89933718,1.07880785
652ae31c79fb620c91ac5724,121,2,2024-02-27T13:57:10.378Z,french_380.wav,0,poule,481,25,5,3,English,m,2,0.2,-85.93529796,1.01737492
652ae31c79fb620c91ac5724,121,2,2024-02-27T13:57:10.378Z,french_380.wav,0,poule,481,25,5,3,English,m,3,0.25666667,58.85582409,1.87499145
652ae31c79fb620c91ac5724,122,2,2024-02-27T13:57:10.378Z,french_948.wav,0,poule,271,25,5,3,English,m,0,0.0,54.2755123,0.60698289
652ae31c79fb620c91ac5724,122,2,2024-02-27T13:57:10.378Z,french_948.wav,0,poule,271,25,5,3,English,m,1,0.1,-26.53776759,1.07019337
652ae31c79fb620c91ac5724,122,2,2024-02-27T13:57:10.378Z,french_948.wav,0,poule,271,25,5,3,English,m,2,0.2,-51.24045856,1.47276383
652ae31c79fb620c91ac5724,122,2,2024-02-27T13:57:10.378Z,french_948.wav,0,poule,271,25,5,3,English,m,3,0.25666667,84.11086463,1.01044713
652ae31c79fb620c91ac5724,123,2,2024-02-27T13:57:10.378Z,french_126.wav,0,poule,402,25,5,3,English,m,0,0.0,92.90369484,0.56379558
652ae31c79fb620c91ac5724,123,2,2024-02-27T13:57:10.378Z,french_126.wav,0,poule,402,25,5,3,English,m,1,0.1,25.09820179,1.73295328
652ae31c79fb620c91ac5724,123,2,2024-02-27T13:57:10.378Z,french_126.wav,0,poule,402,25,5,3,English,m,2,0.2,92.10026461,0.28067586
652ae31c79fb620c91ac5724,123,2,2024-02-27T13:57:10.378Z,french_126.wav,0,poule,402,25,5,3,English,m,3,0.25666667,-27.205087,0.82028398
652ae31c79fb620c91ac5724,124,2,2024-02-27T13:57:10.378Z,french_529.wav,0,poule,249,25,5,3,English,m,0,0.0,54.97727121,0.19662293
652ae31c79fb620c91ac5724,124,2,2024-02-27T13:57:10.378Z,french_529.wav,0,poule,249,25,5,3,English,m,1,0.1,-15.05833494,1.39103506
652ae31c79fb620c91ac5724,124,2,2024-02-27T13:57:10.378Z,french_529.wav,0,poule,249,25,5,3,English,m,2,0.2,4.35581279,0.62492467
652ae31c79fb620c91ac5724,124,2,2024-02-27T13:57:10.378Z,french_529.wav,0,poule,249,25,5,3,English,m,3,0.25666667,-47.03433584,1.10830727
652ae31c79fb620c91ac5724,125,2,2024-02-27T13:57:10.378Z,french_516.wav,0,poule,424,25,5,3,English,m,0,0.0,-18.05376101,1.88602221
652ae31c79fb620c91ac5724,125,2,2024-02-27T13:57:10.378Z,french_516.wav,0,poule,424,25,5,3,English,m,1,0.1,46.96361083,1.82153179
652ae31c79fb620c91ac5724,125,2,2024-02-27T13:57:10.378Z,french_516.wav,0,poule,424,25,5,3,English,m,2,0.2,63.85228851,1.94475993
652ae31c79fb620c91ac5724,125,2,2024-02-27T13:57:10.378Z,french_516.wav,0,poule,424,25,5,3,English,m,3,0.25666667,-69.83202403,1.41132457
652ae31c79fb620c91ac5724,126,2,2024-02-27T13:57:10.378Z,french_466.wav,0,poule,485,25,5,3,English,m,0,0.0,73.58992944,1.41071494
652ae31c79fb620c91ac5724,126,2,2024-02-27T13:57:10.378Z,french_466.wav,0,poule,485,25,5,3,English,m,1,0.1,63.97983353,0.05598534
652ae31c79fb620c91ac5724,126,2,2024-02-27T13:57:10.378Z,french_466.wav,0,poule,485,25,5,3,English,m,2,0.2,36.10141743,1.99104708
652ae31c79fb620c91ac5724,126,2,2024-02-27T13:57:10.378Z,french_466.wav,0,poule,485,25,5,3,English,m,3,0.25666667,-59.38235663,0.89990448
652ae31c79fb620c91ac5724,127,2,2024-02-27T13:57:10.378Z,french_389.wav,0,poule,419,25,5,3,English,m,0,0.0,69.62296415,1.67675408
652ae31c79fb620c91ac5724,127,2,2024-02-27T13:57:10.378Z,french_389.wav,0,poule,419,25,5,3,English,m,1,0.1,-41.49433877,1.60540147
652ae31c79fb620c91ac5724,127,2,2024-02-27T13:57:10.378Z,french_389.wav,0,poule,419,25,5,3,English,m,2,0.2,-65.025051,0.45817867
652ae31c79fb620c91ac5724,127,2,2024-02-27T13:57:10.378Z,french_389.wav,0,poule,419,25,5,3,English,m,3,0.25666667,10.9117334,1.10562968
652ae31c79fb620c91ac5724,128,2,2024-02-27T13:57:10.378Z,french_144.wav,0,poule,1263,25,5,3,English,m,0,0.0,54.7439873,1.65699933
652ae31c79fb620c91ac5724,128,2,2024-02-27T13:57:10.378Z,french_144.wav,0,poule,1263,25,5,3,English,m,1,0.1,-90.40840953,0.10946834
652ae31c79fb620c91ac5724,128,2,2024-02-27T13:57:10.378Z,french_144.wav,0,poule,1263,25,5,3,English,m,2,0.2,-23.8496949,0.63660565
652ae31c79fb620c91ac5724,128,2,2024-02-27T13:57:10.378Z,french_144.wav,0,poule,1263,25,5,3,English,m,3,0.25666667,9.69074846,0.31092992
652ae31c79fb620c91ac5724,129,2,2024-02-27T13:57:10.378Z,french_700.wav,0,poule,323,25,5,3,English,m,0,0.0,27.78595998,1.84943535
652ae31c79fb620c91ac5724,129,2,2024-02-27T13:57:10.378Z,french_700.wav,0,poule,323,25,5,3,English,m,1,0.1,-29.96160528,0.52483958
652ae31c79fb620c91ac5724,129,2,2024-02-27T13:57:10.378Z,french_700.wav,0,poule,323,25,5,3,English,m,2,0.2,60.6733782,0.55672926
652ae31c79fb620c91ac5724,129,2,2024-02-27T13:57:10.378Z,french_700.wav,0,poule,323,25,5,3,English,m,3,0.25666667,39.12324738,0.96842636
652ae31c79fb620c91ac5724,130,2,2024-02-27T13:57:10.378Z,french_728.wav,0,poule,310,25,5,3,English,m,0,0.0,-93.70742078,1.13399743
652ae31c79fb620c91ac5724,130,2,2024-02-27T13:57:10.378Z,french_728.wav,0,poule,310,25,5,3,English,m,1,0.1,-62.00989335,0.93012586
652ae31c79fb620c91ac5724,130,2,2024-02-27T13:57:10.378Z,french_728.wav,0,poule,310,25,5,3,English,m,2,0.2,72.64416852,0.78518922
652ae31c79fb620c91ac5724,130,2,2024-02-27T13:57:10.378Z,french_728.wav,0,poule,310,25,5,3,English,m,3,0.25666667,6.15605077,0.75575783
652ae31c79fb620c91ac5724,131,2,2024-02-27T13:57:10.378Z,french_33.wav,0,poule,400,25,5,3,English,m,0,0.0,57.46883034,0.51774601
652ae31c79fb620c91ac5724,131,2,2024-02-27T13:57:10.378Z,french_33.wav,0,poule,400,25,5,3,English,m,1,0.1,-37.75467747,0.34297047
652ae31c79fb620c91ac5724,131,2,2024-02-27T13:57:10.378Z,french_33.wav,0,poule,400,25,5,3,English,m,2,0.2,37.26126111,0.88429292
652ae31c79fb620c91ac5724,131,2,2024-02-27T13:57:10.378Z,french_33.wav,0,poule,400,25,5,3,English,m,3,0.25666667,30.73694303,0.45040489
652ae31c79fb620c91ac5724,132,2,2024-02-27T13:57:10.378Z,french_65.wav,0,poule,400,25,5,3,English,m,0,0.0,-17.53877645,1.80859796
652ae31c79fb620c91ac5724,132,2,2024-02-27T13:57:10.378Z,french_65.wav,0,poule,400,25,5,3,English,m,1,0.1,77.85789868,1.24255314
652ae31c79fb620c91ac5724,132,2,2024-02-27T13:57:10.378Z,french_65.wav,0,poule,400,25,5,3,English,m,2,0.2,16.40180032,1.28894604
652ae31c79fb620c91ac5724,132,2,2024-02-27T13:57:10.378Z,french_65.wav,0,poule,400,25,5,3,English,m,3,0.25666667,56.20856175,0.80043142
652ae31c79fb620c91ac5724,133,2,2024-02-27T13:57:10.378Z,french_900.wav,0,poule,250,25,5,3,English,m,0,0.0,-40.26137712,1.52095516
652ae31c79fb620c91ac5724,133,2,2024-02-27T13:57:10.378Z,french_900.wav,0,poule,250,25,5,3,English,m,1,0.1,-58.52959628,0.45545329
652ae31c79fb620c91ac5724,133,2,2024-02-27T13:57:10.378Z,french_900.wav,0,poule,250,25,5,3,English,m,2,0.2,-9.02711279,1.45244251
652ae31c79fb620c91ac5724,133,2,2024-02-27T13:57:10.378Z,french_900.wav,0,poule,250,25,5,3,English,m,3,0.25666667,-16.09488558,1.49180456
652ae31c79fb620c91ac5724,134,2,2024-02-27T13:57:10.378Z,french_949.wav,0,pull,1084,25,5,3,English,m,0,0.0,29.18752906,0.08608659
652ae31c79fb620c91ac5724,134,2,2024-02-27T13:57:10.378Z,french_949.wav,0,pull,1084,25,5,3,English,m,1,0.1,-67.27756955,1.93613179
652ae31c79fb620c91ac5724,134,2,2024-02-27T13:57:10.378Z,french_949.wav,0,pull,1084,25,5,3,English,m,2,0.2,55.26419326,0.81834021
652ae31c79fb620c91ac5724,134,2,2024-02-27T13:57:10.378Z,french_949.wav,0,pull,1084,25,5,3,English,m,3,0.25666667,11.27327126,0.09029871
652ae31c79fb620c91ac5724,135,2,2024-02-27T13:57:10.378Z,french_610.wav,0,poule,952,25,5,3,English,m,0,0.0,41.67803598,0.10564039
652ae31c79fb620c91ac5724,135,2,2024-02-27T13:57:10.378Z,french_610.wav,0,poule,952,25,5,3,English,m,1,0.1,50.6586837,1.22556883
652ae31c79fb620c91ac5724,135,2,2024-02-27T13:57:10.378Z,french_610.wav,0,poule,952,25,5,3,English,m,2,0.2,-85.20353251,1.48633574
652ae31c79fb620c91ac5724,135,2,2024-02-27T13:57:10.378Z,french_610.wav,0,poule,952,25,5,3,English,m,3,0.25666667,-12.88596769,1.12124299
652ae31c79fb620c91ac5724,136,2,2024-02-27T13:57:10.378Z,french_32.wav,0,poule,767,25,5,3,English,m,0,0.0,-95.97477456,1.5242089
652ae31c79fb620c91ac5724,136,2,2024-02-27T13:57:10.378Z,french_32.wav,0,poule,767,25,5,3,English,m,1,0.1,-25.31572866,0.2047991
652ae31c79fb620c91ac5724,136,2,2024-02-27T13:57:10.378Z,french_32.wav,0,poule,767,25,5,3,English,m,2,0.2,-25.0492654,1.11388434
652ae31c79fb620c91ac5724,136,2,2024-02-27T13:57:10.378Z,french_32.wav,0,poule,767,25,5,3,English,m,3,0.25666667,-74.56689772,1.18772321
652ae31c79fb620c91ac5724,137,2,2024-02-27T13:57:10.378Z,french_599.wav,0,poule,361,25,5,3,English,m,0,0.0,67.35107794,1.27225877
652ae31c79fb620c91ac5724,137,2,2024-02-27T13:57:10.378Z,french_599.wav,0,poule,361,25,5,3,English,m,1,0.1,-80.59112066,1.42607556
652ae31c79fb620c91ac5724,137,2,2024-02-27T13:57:10.378Z,french_599.wav,0,poule,361,25,5,3,English,m,2,0.2,8.51369184,0.27008032
652ae31c79fb620c91ac5724,137,2,2024-02-27T13:57:10.378Z,french_599.wav,0,poule,361,25,5,3,English,m,3,0.25666667,74.29539318,0.36016313
652ae31c79fb620c91ac5724,138,2,2024-02-27T13:57:10.378Z,french_288.wav,0,poule,431,25,5,3,English,m,0,0.0,-9.24929425,1.2144441
652ae31c79fb620c91ac5724,138,2,2024-02-27T13:57:10.378Z,french_288.wav,0,poule,431,25,5,3,English,m,1,0.1,97.18434129,0.01267679
652ae31c79fb620c91ac5724,138,2,2024-02-27T13:57:10.378Z,french_288.wav,0,poule,431,25,5,3,English,m,2,0.2,-8.99940005,1.13720482
652ae31c79fb620c91ac5724,138,2,2024-02-27T13:57:10.378Z,french_288.wav,0,poule,431,25,5,3,English,m,3,0.25666667,-80.67587563,1.56801852
652ae31c79fb620c91ac5724,139,2,2024-02-27T13:57:10.378Z,french_564.wav,0,poule,340,25,5,3,English,m,0,0.0,-42.85760261,0.14777183
652ae31c79fb620c91ac5724,139,2,2024-02-27T13:57:10.378Z,french_564.wav,0,poule,340,25,5,3,English,m,1,0.1,78.12316343,1.08229262
652ae31c79fb620c91ac5724,139,2,2024-02-27T13:57:10.378Z,french_564.wav,0,poule,340,25,5,3,English,m,2,0.2,32.53186734,0.52251513
652ae31c79fb620c91ac5724,139,2,2024-02-27T13:57:10.378Z,french_564.wav,0,poule,340,25,5,3,English,m,3,0.25666667,60.20924512,1.40255579
652ae31c79fb620c91ac5724,140,2,2024-02-27T13:57:10.378Z,french_927.wav,0,poule,419,25,5,3,English,m,0,0.0,-10.52890049,0.60201579
652ae31c79fb620c91ac5724,140,2,2024-02-27T13:57:10.378Z,french_927.wav,0,poule,419,25,5,3,English,m,1,0.1,-14.60087289,1.35124195
652ae31c79fb620c91ac5724,140,2,2024-02-27T13:57:10.378Z,french_927.wav,0,poule,419,25,5,3,English,m,2,0.2,-23.19620382,0.97713268
652ae31c79fb620c91ac5724,140,2,2024-02-27T13:57:10.378Z,french_927.wav,0,poule,419,25,5,3,English,m,3,0.25666667,-4.91748489,0.83956459
652ae31c79fb620c91ac5724,141,2,2024-02-27T13:57:10.378Z,french_90.wav,0,poule,374,25,5,3,English,m,0,0.0,-66.53104779,1.39730001
652ae31c79fb620c91ac5724,141,2,2024-02-27T13:57:10.378Z,french_90.wav,0,poule,374,25,5,3,English,m,1,0.1,5.55931872,1.52187206
652ae31c79fb620c91ac5724,141,2,2024-02-27T13:57:10.378Z,french_90.wav,0,poule,374,25,5,3,English,m,2,0.2,41.91338709,1.66100559
652ae31c79fb620c91ac5724,141,2,2024-02-27T13:57:10.378Z,french_90.wav,0,poule,374,25,5,3,English,m,3,0.25666667,-36.12417317,1.31779225
652ae31c79fb620c91ac5724,142,2,2024-02-27T13:57:10.378Z,french_452.wav,0,poule,434,25,5,3,English,m,0,0.0,-0.54521087,0.71963755
652ae31c79fb620c91ac5724,142,2,2024-02-27T13:57:10.378Z,french_452.wav,0,poule,434,25,5,3,English,m,1,0.1,21.1278642,1.49294629
652ae31c79fb620c91ac5724,142,2,2024-02-27T13:57:10.378Z,french_452.wav,0,poule,434,25,5,3,English,m,2,0.2,-42.86108881,1.86627756
652ae31c79fb620c91ac5724,142,2,2024-02-27T13:57:10.378Z,french_452.wav,0,poule,434,25,5,3,English,m,3,0.25666667,77.96430269,0.60359825
652ae31c79fb620c91ac5724,143,2,2024-02-27T13:57:10.378Z,french_940.wav,0,poule,364,25,5,3,English,m,0,0.0,60.64207397,1.38818271
652ae31c79fb620c91ac5724,143,2,2024-02-27T13:57:10.378Z,french_940.wav,0,poule,364,25,5,3,English,m,1,0.1,-16.07257124,1.64047706
652ae31c79fb620c91ac5724,143,2,2024-02-27T13:57:10.378Z,french_940.wav,0,poule,364,25,5,3,English,m,2,0.2,-38.93693506,1.31963125
652ae31c79fb620c91ac5724,143,2,2024-02-27T13:57:10.378Z,french_940.wav,0,poule,364,25,5,3,English,m,3,0.25666667,-22.19838027,1.73227719
652ae31c79fb620c91ac5724,144,2,2024-02-27T13:57:10.378Z,french_435.wav,0,pull,769,25,5,3,English,m,0,0.0,-69.76325337,1.8844701
652ae31c79fb620c91ac5724,144,2,2024-02-27T13:57:10.378Z,french_435.wav,0,pull,769,25,5,3,English,m,1,0.1,47.38197985,1.37326168
652ae31c79fb620c91ac5724,144,2,2024-02-27T13:57:10.378Z,french_435.wav,0,pull,769,25,5,3,English,m,2,0.2,-46.68992054,0.23230631
652ae31c79fb620c91ac5724,144,2,2024-02-27T13:57:10.378Z,french_435.wav,0,pull,769,25,5,3,English,m,3,0.25666667,49.41050132,0.56533705
652ae31c79fb620c91ac5724,145,2,2024-02-27T13:57:10.378Z,french_162.wav,0,poule,349,25,5,3,English,m,0,0.0,-20.03052962,1.70466969
652ae31c79fb620c91ac5724,145,2,2024-02-27T13:57:10.378Z,french_162.wav,0,poule,349,25,5,3,English,m,1,0.1,-35.11860261,0.77666831
652ae31c79fb620c91ac5724,145,2,2024-02-27T13:57:10.378Z,french_162.wav,0,poule,349,25,5,3,English,m,2,0.2,20.80868131,1.88915568
652ae31c79fb620c91ac5724,145,2,2024-02-27T13:57:10.378Z,french_162.wav,0,poule,349,25,5,3,English,m,3,0.25666667,50.74802705,1.69994842
652ae31c79fb620c91ac5724,146,2,2024-02-27T13:57:10.378Z,french_302.wav,0,poule,580,25,5,3,English,m,0,0.0,8.4067376,0.06791418
652ae31c79fb620c91ac5724,146,2,2024-02-27T13:57:10.378Z,french_302.wav,0,poule,580,25,5,3,English,m,1,0.1,-29.32780789,1.46578571
652ae31c79fb620c91ac5724,146,2,2024-02-27T13:57:10.378Z,french_302.wav,0,poule,580,25,5,3,English,m,2,0.2,-43.35590711,1.81098556
652ae31c79fb620c91ac5724,146,2,2024-02-27T13:57:10.378Z,french_302.wav,0,poule,580,25,5,3,English,m,3,0.25666667,-44.50549756,1.40235265
652ae31c79fb620c91ac5724,147,2,2024-02-27T13:57:10.378Z,french_896.wav,0,poule,705,25,5,3,English,m,0,0.0,-50.03367973,0.4350745
652ae31c79fb620c91ac5724,147,2,2024-02-27T13:57:10.378Z,french_896.wav,0,poule,705,25,5,3,English,m,1,0.1,73.95849411,1.7879982
652ae31c79fb620c91ac5724,147,2,2024-02-27T13:57:10.378Z,french_896.wav,0,poule,705,25,5,3,English,m,2,0.2,16.78858773,0.61207276
652ae31c79fb620c91ac5724,147,2,2024-02-27T13:57:10.378Z,french_896.wav,0,poule,705,25,5,3,English,m,3,0.25666667,-49.02431976,0.35432813
652ae31c79fb620c91ac5724,148,2,2024-02-27T13:57:10.378Z,french_963.wav,0,poule,248,25,5,3,English,m,0,0.0,47.65214736,0.44378955
652ae31c79fb620c91ac5724,148,2,2024-02-27T13:57:10.378Z,french_963.wav,0,poule,248,25,5,3,English,m,1,0.1,6.38608236,0.94107122
652ae31c79fb620c91ac5724,148,2,2024-02-27T13:57:10.378Z,french_963.wav,0,poule,248,25,5,3,English,m,2,0.2,90.58649254,1.48470349
652ae31c79fb620c91ac5724,148,2,2024-02-27T13:57:10.378Z,french_963.wav,0,poule,248,25,5,3,English,m,3,0.25666667,-7.76898595,1.98203536
652ae31c79fb620c91ac5724,149,2,2024-02-27T13:57:10.378Z,french_233.wav,0,pull,813,25,5,3,English,m,0,0.0,-74.05194232,1.46941626
652ae31c79fb620c91ac5724,149,2,2024-02-27T13:57:10.378Z,french_233.wav,0,pull,813,25,5,3,English,m,1,0.1,45.77276391,0.63238632
652ae31c79fb620c91ac5724,149,2,2024-02-27T13:57:10.378Z,french_233.wav,0,pull,813,25,5,3,English,m,2,0.2,-37.66213209,1.46686039
652ae31c79fb620c91ac5724,149,2,2024-02-27T13:57:10.378Z,french_233.wav,0,pull,813,25,5,3,English,m,3,0.25666667,-32.85858595,1.82755258
652ae31c79fb620c91ac5724,150,3,2024-02-27T13:57:10.378Z,french_191.wav,0,poule,1162,25,5,3,English,m,0,0.0,61.70033847,1.87867126
652ae31c79fb620c91ac5724,150,3,2024-02-27T13:57:10.378Z,french_191.wav,0,poule,1162,25,5,3,English,m,1,0.1,-19.77100541,0.40395676
652ae31c79fb620c91ac5724,150,3,2024-02-27T13:57:10.378Z,french_191.wav,0,poule,1162,25,5,3,English,m,2,0.2,-44.48193137,1.14362057
652ae31c79fb620c91ac5724,150,3,2024-02-27T13:57:10.378Z,french_191.wav,0,poule,1162,25,5,3,English,m,3,0.25666667,-92.19007218,1.68692384
652ae31c79fb620c91ac5724,151,3,2024-02-27T13:57:10.378Z,french_825.wav,0,poule,346,25,5,3,English,m,0,0.0,84.83698811,1.37161619
652ae31c79fb620c91ac5724,151,3,2024-02-27T13:57:10.378Z,french_825.wav,0,poule,346,25,5,3,English,m,1,0.1,58.10246948,1.88160769
652ae31c79fb620c91ac5724,151,3,2024-02-27T13:57:10.378Z,french_825.wav,0,poule,346,25,5,3,English,m,2,0.2,95.28795352,0.7228962
652ae31c79fb620c91ac5724,151,3,2024-02-27T13:57:10.378Z,french_825.wav,0,poule,346,25,5,3,English,m,3,0.25666667,40.96055212,1.18109596
652ae31c79fb620c91ac5724,152,3,2024-02-27T13:57:10.378Z,french_422.wav,0,poule,311,25,5,3,English,m,0,0.0,84.96144948,0.57918651
652ae31c79fb620c91ac5724,152,3,2024-02-27T13:57:10.378Z,french_422.wav,0,poule,311,25,5,3,English,m,1,0.1,-4.96569357,1.20973004
652ae31c79fb620c91ac5724,152,3,2024-02-27T13:57:10.378Z,french_422.wav,0,poule,311,25,5,3,English,m,2,0.2,9.38898655,0.40935242
652ae31c79fb620c91ac5724,152,3,2024-02-27T13:57:10.378Z,french_422.wav,0,poule,311,25,5,3,English,m,3,0.25666667,-4.34292742,0.41859168
652ae31c79fb620c91ac5724,153,3,2024-02-27T13:57:10.378Z,french_655.wav,0,poule,394,25,5,3,English,m,0,0.0,4.60078694,1.00375004
652ae31c79fb620c91ac5724,153,3,2024-02-27T13:57:10.378Z,french_655.wav,0,poule,394,25,5,3,English,m,1,0.1,90.51966262,1.23726083
652ae31c79fb620c91ac5724,153,3,2024-02-27T13:57:10.378Z,french_655.wav,0,poule,394,25,5,3,English,m,2,0.2,-72.80105835,1.08672065
652ae31c79fb620c91ac5724,153,3,2024-02-27T13:57:10.378Z,french_655.wav,0,poule,394,25,5,3,English,m,3,0.25666667,32.46228297,0.32613357
652ae31c79fb620c91ac5724,154,3,2024-02-27T13:57:10.378Z,french_973.wav,0,poule,441,25,5,3,English,m,0,0.0,-99.0384004,1.64247416
652ae31c79fb620c91ac5724,154,3,2024-02-27T13:57:10.378Z,french_973.wav,0,poule,441,25,5,3,English,m,1,0.1,40.13117567,0.98090528
652ae31c79fb620c91ac5724,154,3,2024-02-27T13:57:10.378Z,french_973.wav,0,poule,441,25,5,3,English,m,2,0.2,49.54188212,1.75566355
652ae31c79fb620c91ac5724,154,3,2024-02-27T13:57:10.378Z,french_973.wav,0,poule,441,25,5,3,English,m,3,0.25666667,89.60941169,0.64442147
652ae31c79fb620c91ac5724,155,3,2024-02-27T13:57:10.378Z,french_100.wav,0,poule,319,25,5,3,English,m,0,0.0,-35.75508116,1.72997046
652ae31c79fb620c91ac5724,155,3,2024-02-27T13:57:10.378Z,french_100.wav,0,poule,319,25,5,3,English,m,1,0.1,57.82815341,1.04300978
652ae31c79fb620c91ac5724,155,3,2024-02-27T13:57:10.378Z,french_100.wav,0,poule,319,25,5,3,English,m,2,0.2,31.92112674,1.01595182
652ae31c79fb620c91ac5724,155,3,2024-02-27T13:57:10.378Z,french_100.wav,0,poule,319,25,5,3,English,m,3,0.25666667,34.87308497,1.9286069
652ae31c79fb620c91ac5724,156,3,2024-02-27T13:57:10.378Z,french_427.wav,0,poule,453,25,5,3,English,m,0,0.0,-76.02138843,1.52776537
652ae31c79fb620c91ac5724,156,3,2024-02-27T13:57:10.378Z,french_427.wav,0,poule,453,25,5,3,English,m,1,0.1,-79.3514541,0.93213061
652ae31c79fb620c91ac5724,156,3,2024-02-27T13:57:10.378Z,french_427.wav,0,poule,453,25,5,3,English,m,2,0.2,33.13783193,1.10363763
652ae31c79fb620c91ac5724,156,3,2024-02-27T13:57:10.378Z,french_427.wav,0,poule,453,25,5,3,English,m,3,0.25666667,-70.0412192,1.44956109
652ae31c79fb620c91ac5724,157,3,2024-02-27T13:57:10.378Z,french_78.wav,0,poule,644,25,5,3,English,m,0,0.0,-36.45256911,0.98498246
652ae31c79fb620c91ac5724,157,3,2024-02-27T13:57:10.378Z,french_78.wav,0,poule,644,25,5,3,English,m,1,0.1,52.80709263,1.84515784
652ae31c79fb620c91ac5724,157,3,2024-02-27T13:57:10.378Z,french_78.wav,0,poule,644,25,5,3,English,m,2,0.2,-45.25624127,1.50799972
652ae31c79fb620c91ac5724,157,3,2024-02-27T13:57:10.378Z,french_78.wav,0,poule,644,25,5,3,English,m,3,0.25666667,18.96418323,1.61920031
652ae31c79fb620c91ac5724,158,3,2024-02-27T13:57:10.378Z,french_626.wav,0,pull,591,25,5,3,English,m,0,0.0,-93.35692854,1.28523942
652ae31c79fb620c91ac5724,158,3,2024-02-27T13:57:10.378Z,french_626.wav,0,pull,591,25,5,3,English,m,1,0.1,98.43225428,0.26610399
652ae31c79fb620c91ac5724,158,3,2024-02-27T13:57:10.378Z,french_626.wav,0,pull,591,25,5,3,English,m,2,0.2,-65.0946996,0.08304138
652ae31c79fb620c91ac5724,158,3,2024-02-27T13:57:10.378Z,french_626.wav,0,pull,591,25,5,3,English,m,3,0.25666667,62.51553639,1.47830697
652ae31c79fb620c91ac5724,159,3,2024-02-27T13:57:10.378Z,french_955.wav,0,pull,683,25,5,3,English,m,0,0.0,49.41572239,1.13440167
652ae31c79fb620c91ac5724,159,3,2024-02-27T13:57:10.378Z,french_955.wav,0,pull,683,25,5,3,English,m,1,0.1,75.37923123,1.49278765
652ae31c79fb620c91ac5724,159,3,2024-02-27T13:57:10.378Z,french_955.wav,0,pull,683,25,5,3,English,m,2,0.2,0.1370905,0.20624254
652ae31c79fb620c91ac5724,159,3,2024-02-27T13:57:10.378Z,french_955.wav,0,pull,683,25,5,3,English,m,3,0.25666667,22.03577701,0.01599226
652ae31c79fb620c91ac5724,160,3,2024-02-27T13:57:10.378Z,french_678.wav,0,pull,1101,25,5,3,English,m,0,0.0,8.99494286,0.31277465
652ae31c79fb620c91ac5724,160,3,2024-02-27T13:57:10.378Z,french_678.wav,0,pull,1101,25,5,3,English,m,1,0.1,56.3447022,0.04822955
652ae31c79fb620c91ac5724,160,3,2024-02-27T13:57:10.378Z,french_678.wav,0,pull,1101,25,5,3,English,m,2,0.2,-85.36803825,0.03738606
652ae31c79fb620c91ac5724,160,3,2024-02-27T13:57:10.378Z,french_678.wav,0,pull,1101,25,5,3,English,m,3,0.25666667,-65.39277698,1.60364947
652ae31c79fb620c91ac5724,161,3,2024-02-27T13:57:10.378Z,french_277.wav,0,poule,438,25,5,3,English,m,0,0.0,25.76771762,1.36859257
652ae31c79fb620c91ac5724,161,3,2024-02-27T13:57:10.378Z,french_277.wav,0,poule,438,25,5,3,English,m,1,0.1,-70.25975294,1.02052852
652ae31c79fb620c91ac5724,161,3,2024-02-27T13:57:10.378Z,french_277.wav,0,poule,438,25,5,3,English,m,2,0.2,-52.96477311,1.14771146
652ae31c79fb620c91ac5724,161,3,2024-02-27T13:57:10.378Z,french_277.wav,0,poule,438,25,5,3,English,m,3,0.25666667,41.51950841,0.3441713
652ae31c79fb620c91ac5724,162,3,2024-02-27T13:57:10.378Z,french_781.wav,0,poule,350,25,5,3,English,m,0,0.0,33.25938538,1.27105286
652ae31c79fb620c91ac5724,162,3,2024-02-27T13:57:10.378Z,french_781.wav,0,poule,350,25,5,3,English,m,1,0.1,-13.90292419,0.93357863
652ae31c79fb620c91ac5724,162,3,2024-02-27T13:57:10.378Z,french_781.wav,0,poule,350,25,5,3,English,m,2,0.2,-71.59350782,1.0124146
652ae31c79fb620c91ac5724,162,3,2024-02-27T13:57:10.378Z,french_781.wav,0,poule,350,25,5,3,English,m,3,0.25666667,57.07291034,0.68511696
652ae31c79fb620c91ac5724,163,3,2024-02-27T13:57:10.378Z,french_891.wav,0,pull,843,25,5,3,English,m,0,0.0,36.15157251,0.11830574
652ae31c79fb620c91ac5724,163,3,2024-02-27T13:57:10.378Z,french_891.wav,0,pull,843,25,5,3,English,m,1,0.1,9.92087077,0.00778599
652ae31c79fb620c91ac5724,163,3,2024-02-27T13:57:10.378Z,french_891.wav,0,pull,843,25,5,3,English,m,2,0.2,64.79051962,0.40739404
652ae31c79fb620c91ac5724,163,3,2024-02-27T13:57:10.378Z,french_891.wav,0,pull,843,25,5,3,English,m,3,0.25666667,25.43576317,0.71071781
652ae31c79fb620c91ac5724,164,3,2024-02-27T13:57:10.378Z,french_340.wav,0,poule,590,25,5,3,English,m,0,0.0,-77.74428769,1.5012345
652ae31c79fb620c91ac5724,164,3,2024-02-27T13:57:10.378Z,french_340.wav,0,poule,590,25,5,3,English,m,1,0.1,-23.36816436,1.72338521
652ae31c79fb620c91ac5724,164,3,2024-02-27T13:57:10.378Z,french_340.wav,0,poule,590,25,5,3,English,m,2,0.2,-44.47255335,0.55046319
652ae31c79fb620c91ac5724,164,3,2024-02-27T13:57:10.378Z,french_340.wav,0,poule,590,25,5,3,English,m,3,0.25666667,-51.35474548,0.98182936
652ae31c79fb620c91ac5724,165,3,2024-02-27T13:57:10.378Z,french_106.wav,0,poule,556,25,5,3,English,m,0,0.0,-80.93311261,0.79978414
652ae31c79fb620c91ac5724,165,3,2024-02-27T13:57:10.378Z,french_106.wav,0,poule,556,25,5,3,English,m,1,0.1,7.33604761,0.87655026
652ae31c79fb620c91ac5724,165,3,2024-02-27T13:57:10.378Z,french_106.wav,0,poule,556,25,5,3,English,m,2,0.2,53.45287064,1.02362607
652ae31c79fb620c91ac5724,165,3,2024-02-27T13:57:10.378Z,french_106.wav,0,poule,556,25,5,3,English,m,3,0.25666667,-26.77526802,1.25354946
652ae31c79fb620c91ac5724,166,3,2024-02-27T13:57:10.378Z,french_265.wav,0,poule,539,25,5,3,English,m,0,0.0,12.13424101,1.65569129
652ae31c79fb620c91ac5724,166,3,2024-02-27T13:57:10.378Z,french_265.wav,0,poule,539,25,5,3,English,m,1,0.1,31.84170149,1.94822248
652ae31c79fb620c91ac5724,166,3,2024-02-27T13:57:10.378Z,french_265.wav,0,poule,539,25,5,3,English,m,2,0.2,45.73784214,0.46939125
652ae31c79fb620c91ac5724,166,3,2024-02-27T13:57:10.378Z,french_265.wav,0,poule,539,25,5,3,English,m,3,0.25666667,35.60173059,0.82856794
652ae31c79fb620c91ac5724,167,3,2024-02-27T13:57:10.378Z,french_815.wav,0,poule,481,25,5,3,English,m,0,0.0,-30.97778369,1.45421986
652ae31c79fb620c91ac5724,167,3,2024-02-27T13:57:10.378Z,french_815.wav,0,poule,481,25,5,3,English,m,1,0.1,-10.3506413,0.28044698
652ae31c79fb620c91ac5724,167,3,2024-02-27T13:57:10.378Z,french_815.wav,0,poule,481,25,5,3,English,m,2,0.2,61.86726268,1.88309962
652ae31c79fb620c91ac5724,167,3,2024-02-27T13:57:10.378Z,french_815.wav,0,poule,481,25,5,3,English,m,3,0.25666667,-32.12586702,1.86356454
652ae31c79fb620c91ac5724,168,3,2024-02-27T13:57:10.378Z,french_997.wav,0,poule,359,25,5,3,English,m,0,0.0,70.02211451,0.23520638
652ae31c79fb620c91ac5724,168,3,2024-02-27T13:57:10.378Z,french_997.wav,0,poule,359,25,5,3,English,m,1,0.1,69.24362731,0.40856699
652ae31c79fb620c91ac5724,168,3,2024-02-27T13:57:10.378Z,french_997.wav,0,poule,359,25,5,3,English,m,2,0.2,73.007848,1.59962624
652ae31c79fb620c91ac5724,168,3,2024-02-27T13:57:10.378Z,french_997.wav,0,poule,359,25,5,3,English,m,3,0.25666667,83.15376715,0.8906701
652ae31c79fb620c91ac5724,169,3,2024-02-27T13:57:10.378Z,french_57.wav,0,poule,403,25,5,3,English,m,0,0.0,5.04798132,0.30893924
652ae31c79fb620c91ac5724,169,3,2024-02-27T13:57:10.378Z,french_57.wav,0,poule,403,25,5,3,English,m,1,0.1,34.86476391,1.37192861
652ae31c79fb620c91ac5724,169,3,2024-02-27T13:57:10.378Z,french_57.wav,0,poule,403,25,5,3,English,m,2,0.2,8.76450083,1.2366194
652ae31c79fb620c91ac5724,169,3,2024-02-27T13:57:10.378Z,french_57.wav,0,poule,403,25,5,3,English,m,3,0.25666667,-66.01533982,1.17459784
652ae31c79fb620c91ac5724,170,3,2024-02-27T13:57:10.378Z,french_934.wav,0,poule,362,25,5,3,English,m,0,0.0,-9.72159443,1.08583672
652ae31c79fb620c91ac5724,170,3,2024-02-27T13:57:10.378Z,french_934.wav,0,poule,362,25,5,3,English,m,1,0.1,-11.38125641,0.99463139
652ae31c79fb620c91ac5724,170,3,2024-02-27T13:57:10.378Z,french_934.wav,0,poule,362,25,5,3,English,m,2,0.2,-15.93762726,1.46206623
652ae31c79fb620c91ac5724,170,3,2024-02-27T13:57:10.378Z,french_934.wav,0,poule,362,25,5,3,English,m,3,0.25666667,-19.962769,1.59629023
652ae31c79fb620c91ac5724,171,3,2024-02-27T13:57:10.378Z,french_697.wav,0,poule,396,25,5,3,English,m,0,0.0,-19.8565912,1.89587242
652ae31c79fb620c91ac5724,171,3,2024-02-27T13:57:10.378Z,french_697.wav,0,poule,396,25,5,3,English,m,1,0.1,-16.18456076,0.49072185
652ae31c79fb620c91ac5724,171,3,2024-02-27T13:57:10.378Z,french_697.wav,0,poule,396,25,5,3,English,m,2,0.2,-70.77550193,1.8362568
652ae31c79fb620c91ac5724,171,3,2024-02-27T13:57:10.378Z,french_697.wav,0,poule,396,25,5,3,English,m,3,0.25666667,-81.21106402,0.50078837
652ae31c79fb620c91ac5724,172,3,2024-02-27T13:57:10.378Z,french_772.wav,0,poule,965,25,5,3,English,m,0,0.0,13.96800705,0.2991113
652ae31c79fb620c91ac5724,172,3,2024-02-27T13:57:10.378Z,french_772.wav,0,poule,965,25,5,3,English,m,1,0.1,5.87945336,0.00189684
652ae31c79fb620c91ac5724,172,3,2024-02-27T13:57:10.378Z,french_772.wav,0,poule,965,25,5,3,English,m,2,0.2,15.35769187,0.99190584
652ae31c79fb620c91ac5724,172,3,2024-02-27T13:57:10.378Z,french_772.wav,0,poule,965,25,5,3,English,m,3,0.25666667,-12.22278281,1.49955539
652ae31c79fb620c91ac5724,173,3,2024-02-27T13:57:10.378Z,french_386.wav,0,poule,560,25,5,3,English,m,0,0.0,50.68041389,0.75883449
652ae31c79fb620c91ac5724,173,3,2024-02-27T13:57:10.378Z,french_386.wav,0,poule,560,25,5,3,English,m,1,0.1,19.37586599,1.33167931
652ae31c79fb620c91ac5724,173,3,2024-02-27T13:57:10.378Z,french_386.wav,0,poule,560,25,5,3,English,m,2,0.2,0.19752764,0.89836148
652ae31c79fb620c91ac5724,173,3,2024-02-27T13:57:10.378Z,french_386.wav,0,poule,560,25,5,3,English,m,3,0.25666667,-78.73875249,0.64515466
652ae31c79fb620c91ac5724,174,3,2024-02-27T13:57:10.378Z,french_13.wav,0,poule,469,25,5,3,English,m,0,0.0,-32.13252367,0.96861247
652ae31c79fb620c91ac5724,174,3,2024-02-27T13:57:10.378Z,french_13.wav,0,poule,469,25,5,3,English,m,1,0.1,70.64746455,0.7552715
652ae31c79fb620c91ac5724,174,3,2024-02-27T13:57:10.378Z,french_13.wav,0,poule,469,25,5,3,English,m,2,0.2,-67.50971173,1.7097775
652ae31c79fb620c91ac5724,174,3,2024-02-27T13:57:10.378Z,french_13.wav,0,poule,469,25,5,3,English,m,3,0.25666667,94.74832862,1.62121013
652ae31c79fb620c91ac5724,175,3,2024-02-27T13:57:10.378Z,french_673.wav,0,poule,324,25,5,3,English,m,0,0.0,97.1433432,1.2603
652ae31c79fb620c91ac5724,175,3,2024-02-27T13:57:10.378Z,french_673.wav,0,poule,324,25,5,3,English,m,1,0.1,1.59516127,0.42137615
652ae31c79fb620c91ac5724,175,3,2024-02-27T13:57:10.378Z,french_673.wav,0,poule,324,25,5,3,English,m,2,0.2,27.02161491,0.87652171
652ae31c79fb620c91ac5724,175,3,2024-02-27T13:57:10.378Z,french_673.wav,0,poule,324,25,5,3,English,m,3,0.25666667,62.92522021,1.1230089
652ae31c79fb620c91ac5724,176,3,2024-02-27T13:57:10.378Z,french_127.wav,0,pull,1697,25,5,3,English,m,0,0.0,56.99195339,1.23888103
652ae31c79fb620c91ac5724,176,3,2024-02-27T13:57:10.378Z,french_127.wav,0,pull,1697,25,5,3,English,m,1,0.1,71.02339704,1.9853403
652ae31c79fb620c91ac5724,176,3,2024-02-27T13:57:10.378Z,french_127.wav,0,pull,1697,25,5,3,English,m,2,0.2,72.81237495,0.22936254
652ae31c79fb620c91ac5724,176,3,2024-02-27T13:57:10.378Z,french_127.wav,0,pull,1697,25,5,3,English,m,3,0.25666667,99.25740409,0.23690129
652ae31c79fb620c91ac5724,177,3,2024-02-27T13:57:10.378Z,french_834.wav,0,pull,511,25,5,3,English,m,0,0.0,-86.08965853,1.35817583
652ae31c79fb620c91ac5724,177,3,2024-02-27T13:57:10.378Z,french_834.wav,0,pull,511,25,5,3,English,m,1,0.1,69.78931281,0.2902945
652ae31c79fb620c91ac5724,177,3,2024-02-27T13:57:10.378Z,french_834.wav,0,pull,511,25,5,3,English,m,2,0.2,-42.1324214,0.84488429
652ae31c79fb620c91ac5724,177,3,2024-02-27T13:57:10.378Z,french_834.wav,0,pull,511,25,5,3,English,m,3,0.25666667,-13.11810425,0.59655356
652ae31c79fb620c91ac5724,178,3,2024-02-27T13:57:10.378Z,french_169.wav,0,pull,2061,25,5,3,English,m,0,0.0,14.47590961,1.38784349
652ae31c79fb620c91ac5724,178,3,2024-02-27T13:57:10.378Z,french_169.wav,0,pull,2061,25,5,3,English,m,1,0.1,38.07545665,1.28983767
652ae31c79fb620c91ac5724,178,3,2024-02-27T13:57:10.378Z,french_169.wav,0,pull,2061,25,5,3,English,m,2,0.2,-50.40298695,0.58936297
652ae31c79fb620c91ac5724,178,3,2024-02-27T13:57:10.378Z,french_169.wav,0,pull,2061,25,5,3,English,m,3,0.25666667,25.61467991,0.49151359
652ae31c79fb620c91ac5724,179,3,2024-02-27T13:57:10.378Z,french_683.wav,0,pull,684,25,5,3,English,m,0,0.0,21.98154849,0.17421097
652ae31c79fb620c91ac5724,179,3,2024-02-27T13:57:10.378Z,french_683.wav,0,pull,684,25,5,3,English,m,1,0.1,59.44126587,0.03094343
652ae31c79fb620c91ac5724,179,3,2024-02-27T13:57:10.378Z,french_683.wav,0,pull,684,25,5,3,English,m,2,0.2,-51.05687534,0.79924543
652ae31c79fb620c91ac5724,179,3,2024-02-27T13:57:10.378Z,french_683.wav,0,pull,684,25,5,3,English,m,3,0.25666667,-9.70916743,0.82068176
652ae31c79fb620c91ac5724,180,3,2024-02-27T13:57:10.378Z,french_937.wav,0,poule,2553,25,5,3,English,m,0,0.0,27.89553513,1.9323197
652ae31c79fb620c91ac5724,180,3,2024-02-27T13:57:10.378Z,french_937.wav,0,poule,2553,25,5,3,English,m,1,0.1,-51.2753628,1.67315664
652ae31c79fb620c91ac5724,180,3,2024-02-27T13:57:10.378Z,french_937.wav,0,poule,2553,25,5,3,English,m,2,0.2,-75.08991272,1.14592467
652ae31c79fb620c91ac5724,180,3,2024-02-27T13:57:10.378Z,french_937.wav,0,poule,2553,25,5,3,English,m,3,0.25666667,-24.40434042,1.81837395
652ae31c79fb620c91ac5724,181,3,2024-02-27T13:57:10.378Z,french_213.wav,0,poule,745,25,5,3,English,m,0,0.0,18.19792563,0.91602818
652ae31c79fb620c91ac5724,181,3,2024-02-27T13:57:10.378Z,french_213.wav,0,poule,745,25,5,3,English,m,1,0.1,59.29536603,0.93215034
652ae31c79fb620c91ac5724,181,3,2024-02-27T13:57:10.378Z,french_213.wav,0,poule,745,25,5,3,English,m,2,0.2,83.4693574,1.11468909
652ae31c79fb620c91ac5724,181,3,2024-02-27T13:57:10.378Z,french_213.wav,0,poule,745,25,5,3,English,m,3,0.25666667,-3.87812814,1.61202928
652ae31c79fb620c91ac5724,182,3,2024-02-27T13:57:10.378Z,french_567.wav,0,poule,344,25,5,3,English,m,0,0.0,27.43626477,1.24283832
652ae31c79fb620c91ac5724,182,3,2024-02-27T13:57:10.378Z,french_567.wav,0,poule,344,25,5,3,English,m,1,0.1,41.78362701,1.94246111
652ae31c79fb620c91ac5724,182,3,2024-02-27T13:57:10.378Z,french_567.wav,0,poule,344,25,5,3,English,m,2,0.2,54.76706712,1.04642714
652ae31c79fb620c91ac5724,182,3,2024-02-27T13:57:10.378Z,french_567.wav,0,poule,344,25,5,3,English,m,3,0.25666667,32.83264266,0.77358904
652ae31c79fb620c91ac5724,183,3,2024-02-27T13:57:10.378Z,french_64.wav,0,pull,511,25,5,3,English,m,0,0.0,-2.85479512,1.8205441
652ae31c79fb620c91ac5724,183,3,2024-02-27T13:57:10.378Z,french_64.wav,0,pull,511,25,5,3,English,m,1,0.1,-22.43053594,0.65122302
652ae31c79fb620c91ac5724,183,3,2024-02-27T13:57:10.378Z,french_64.wav,0,pull,511,25,5,3,English,m,2,0.2,99.07991634,0.54405082
652ae31c79fb620c91ac5724,183,3,2024-02-27T13:57:10.378Z,french_64.wav,0,pull,511,25,5,3,English,m,3,0.25666667,-6.95169827,0.02019369
652ae31c79fb620c91ac5724,184,3,2024-02-27T13:57:10.378Z,french_824.wav,0,poule,680,25,5,3,English,m,0,0.0,95.58094713,1.84230129
652ae31c79fb620c91ac5724,184,3,2024-02-27T13:57:10.378Z,french_824.wav,0,poule,680,25,5,3,English,m,1,0.1,-47.05258515,1.74244762
652ae31c79fb620c91ac5724,184,3,2024-02-27T13:57:10.378Z,french_824.wav,0,poule,680,25,5,3,English,m,2,0.2,43.18521816,1.04703492
652ae31c79fb620c91ac5724,184,3,2024-02-27T13:57:10.378Z,french_824.wav,0,poule,680,25,5,3,English,m,3,0.25666667,-5.69582576,0.75358401
652ae31c79fb620c91ac5724,185,3,2024-02-27T13:57:10.378Z,french_981.wav,0,poule,487,25,5,3,English,m,0,0.0,-1.54223553,0.66538198
652ae31c79fb620c91ac5724,185,3,2024-02-27T13:57:10.378Z,french_981.wav,0,poule,487,25,5,3,English,m,1,0.1,-78.86121057,1.42802268
652ae31c79fb620c91ac5724,185,3,2024-02-27T13:57:10.378Z,french_981.wav,0,poule,487,25,5,3,English,m,2,0.2,-33.48141771,0.92303184
652ae31c79fb620c91ac5724,185,3,2024-02-27T13:57:10.378Z,french_981.wav,0,poule,487,25,5,3,English,m,3,0.25666667,-47.78773965,0.82545089
652ae31c79fb620c91ac5724,186,3,2024-02-27T13:57:10.378Z,french_204.wav,0,pull,2012,25,5,3,English,m,0,0.0,-28.36319627,0.07789368
652ae31c79fb620c91ac5724,186,3,2024-02-27T13:57:10.378Z,french_204.wav,0,pull,2012,25,5,3,English,m,1,0.1,-92.66891013,0.00203791
652ae31c79fb620c91ac5724,186,3,2024-02-27T13:57:10.378Z,french_204.wav,0,pull,2012,25,5,3,English,m,2,0.2,96.29592204,1.92374636
652ae31c79fb620c91ac5724,186,3,2024-02-27T13:57:10.378Z,french_204.wav,0,pull,2012,25,5,3,English,m,3,0.25666667,-46.81515004,0.97947469
652ae31c79fb620c91ac5724,187,3,2024-02-27T13:57:10.378Z,french_517.wav,0,poule,522,25,5,3,English,m,0,0.0,10.61669355,0.19899019
652ae31c79fb620c91ac5724,187,3,2024-02-27T13:57:10.378Z,french_517.wav,0,poule,522,25,5,3,English,m,1,0.1,-49.88851761,1.4553669
652ae31c79fb620c91ac5724,187,3,2024-02-27T13:57:10.378Z,french_517.wav,0,poule,522,25,5,3,English,m,2,0.2,47.72087598,1.48195648
652ae31c79fb620c91ac5724,187,3,2024-02-27T13:57:10.378Z,french_517.wav,0,poule,522,25,5,3,English,m,3,0.25666667,-22.50236439,0.87629427
652ae31c79fb620c91ac5724,188,3,2024-02-27T13:57:10.378Z,french_174.wav,0,poule,2485,25,5,3,English,m,0,0.0,1.45674265,0.26044346
652ae31c79fb620c91ac5724,188,3,2024-02-27T13:57:10.378Z,french_174.wav,0,poule,2485,25,5,3,English,m,1,0.1,47.27057229,1.87217745
652ae31c79fb620c91ac5724,188,3,2024-02-27T13:57:10.378Z,french_174.wav,0,poule,2485,25,5,3,English,m,2,0.2,-41.5239841,1.40485436
652ae31c79fb620c91ac5724,188,3,2024-02-27T13:57:10.378Z,french_174.wav,0,poule,2485,25,5,3,English,m,3,0.25666667,32.3517821,1.2389409
652ae31c79fb620c91ac5724,189,3,2024-02-27T13:57:10.378Z,french_521.wav,0,poule,414,25,5,3,English,m,0,0.0,11.04386286,1.73052604
652ae31c79fb620c91ac5724,189,3,2024-02-27T13:57:10.378Z,french_521.wav,0,poule,414,25,5,3,English,m,1,0.1,-55.65083084,0.96564678
652ae31c79fb620c91ac5724,189,3,2024-02-27T13:57:10.378Z,french_521.wav,0,poule,414,25,5,3,English,m,2,0.2,98.93037095,1.35299162
652ae31c79fb620c91ac5724,189,3,2024-02-27T13:57:10.378Z,french_521.wav,0,poule,414,25,5,3,English,m,3,0.25666667,14.06437892,1.41353716
652ae31c79fb620c91ac5724,190,3,2024-02-27T13:57:10.378Z,french_542.wav,0,pull,504,25,5,3,English,m,0,0.0,88.21755363,1.84211071
652ae31c79fb620c91ac5724,190,3,2024-02-27T13:57:10.378Z,french_542.wav,0,pull,504,25,5,3,English,m,1,0.1,59.97016865,1.57396898
652ae31c79fb620c91ac5724,190,3,2024-02-27T13:57:10.378Z,french_542.wav,0,pull,504,25,5,3,English,m,2,0.2,-54.94167031,1.14268549
652ae31c79fb620c91ac5724,190,3,2024-02-27T13:57:10.378Z,french_542.wav,0,pull,504,25,5,3,English,m,3,0.25666667,-74.88408835,1.52682198
652ae31c79fb620c91ac5724,191,3,2024-02-27T13:57:10.378Z,french_686.wav,0,pull,1114,25,5,3,English,m,0,0.0,20.49516986,1.86861476
652ae31c79fb620c91ac5724,191,3,2024-02-27T13:57:10.378Z,french_686.wav,0,pull,1114,25,5,3,English,m,1,0.1,27.4040505,1.87689714
652ae31c79fb620c91ac5724,191,3,2024-02-27T13:57:10.378Z,french_686.wav,0,pull,1114,25,5,3,English,m,2,0.2,31.96095965,0.80940067
