subj,trial,block,date,stim,stim_order,response,rt,age,english,french,language,sex,param_index,segment,pitch,stretch
5f63a9ce2e090a0d008d92b7,0,0,2024-02-27T15:39:38.697Z,french_777.wav,0,poule,3351,37,5,3,English,M,0,0.0,8.03786355,1.59828936
5f63a9ce2e090a0d008d92b7,0,0,2024-02-27T15:39:38.697Z,french_777.wav,0,poule,3351,37,5,3,English,M,1,0.1,-25.18391206,0.4858639
5f63a9ce2e090a0d008d92b7,0,0,2024-02-27T15:39:38.697Z,french_777.wav,0,poule,3351,37,5,3,English,M,2,0.2,-83.38753258,1.25666852
5f63a9ce2e090a0d008d92b7,0,0,2024-02-27T15:39:38.697Z,french_777.wav,0,poule,3351,37,5,3,English,M,3,0.25666667,40.68339476,1.11090511
5f63a9ce2e090a0d008d92b7,1,0,2024-02-27T15:39:38.697Z,french_87.wav,0,poule,1109,37,5,3,English,M,0,0.0,57.46562038,1.84924107
5f63a9ce2e090a0d008d92b7,1,0,2024-02-27T15:39:38.697Z,french_87.wav,0,poule,1109,37,5,3,English,M,1,0.1,64.37451918,1.35752119
5f63a9ce2e090a0d008d92b7,1,0,2024-02-27T15:39:38.697Z,french_87.wav,0,poule,1109,37,5,3,English,M,2,0.2,34.82822911,1.55092153
5f63a9ce2e090a0d008d92b7,1,0,2024-02-27T15:39:38.697Z,french_87.wav,0,poule,1109,37,5,3,English,M,3,0.25666667,-44.22171713,0.2478561
5f63a9ce2e090a0d008d92b7,2,0,2024-02-27T15:39:38.697Z,french_268.wav,0,pull,3791,37,5,3,English,M,0,0.0,-31.22986491,0.61965618
5f63a9ce2e090a0d008d92b7,2,0,2024-02-27T15:39:38.697Z,french_268.wav,0,pull,3791,37,5,3,English,M,1,0.1,85.41130684,0.43772331
5f63a9ce2e090a0d008d92b7,2,0,2024-02-27T15:39:38.697Z,french_268.wav,0,pull,3791,37,5,3,English,M,2,0.2,51.81326747,0.97717852
5f63a9ce2e090a0d008d92b7,2,0,2024-02-27T15:39:38.697Z,french_268.wav,0,pull,3791,37,5,3,English,M,3,0.25666667,-9.66270327,0.83042374
5f63a9ce2e090a0d008d92b7,3,0,2024-02-27T15:39:38.697Z,french_111.wav,0,poule,1521,37,5,3,English,M,0,0.0,1.59326178,0.67104434
5f63a9ce2e090a0d008d92b7,3,0,2024-02-27T15:39:38.697Z,french_111.wav,0,poule,1521,37,5,3,English,M,1,0.1,-40.8911656,0.22448148
5f63a9ce2e090a0d008d92b7,3,0,2024-02-27T15:39:38.697Z,french_111.wav,0,poule,1521,37,5,3,English,M,2,0.2,-66.59771714,1.3255008
5f63a9ce2e090a0d008d92b7,3,0,2024-02-27T15:39:38.697Z,french_111.wav,0,poule,1521,37,5,3,English,M,3,0.25666667,93.67842788,0.49085037
5f63a9ce2e090a0d008d92b7,4,0,2024-02-27T15:39:38.697Z,french_654.wav,0,poule,819,37,5,3,English,M,0,0.0,4.75004181,0.71611878
5f63a9ce2e090a0d008d92b7,4,0,2024-02-27T15:39:38.697Z,french_654.wav,0,poule,819,37,5,3,English,M,1,0.1,-26.31758413,1.28432707
5f63a9ce2e090a0d008d92b7,4,0,2024-02-27T15:39:38.697Z,french_654.wav,0,poule,819,37,5,3,English,M,2,0.2,5.97151275,0.58455266
5f63a9ce2e090a0d008d92b7,4,0,2024-02-27T15:39:38.697Z,french_654.wav,0,poule,819,37,5,3,English,M,3,0.25666667,-86.03507884,1.03676738
5f63a9ce2e090a0d008d92b7,5,0,2024-02-27T15:39:38.697Z,french_212.wav,0,poule,1724,37,5,3,English,M,0,0.0,-65.85125812,0.99084671
5f63a9ce2e090a0d008d92b7,5,0,2024-02-27T15:39:38.697Z,french_212.wav,0,poule,1724,37,5,3,English,M,1,0.1,4.72891676,1.71951251
5f63a9ce2e090a0d008d92b7,5,0,2024-02-27T15:39:38.697Z,french_212.wav,0,poule,1724,37,5,3,English,M,2,0.2,52.80654505,1.56745001
5f63a9ce2e090a0d008d92b7,5,0,2024-02-27T15:39:38.697Z,french_212.wav,0,poule,1724,37,5,3,English,M,3,0.25666667,75.91927134,1.70119676
5f63a9ce2e090a0d008d92b7,6,0,2024-02-27T15:39:38.697Z,french_567.wav,0,pull,1794,37,5,3,English,M,0,0.0,27.43626477,1.24283832
5f63a9ce2e090a0d008d92b7,6,0,2024-02-27T15:39:38.697Z,french_567.wav,0,pull,1794,37,5,3,English,M,1,0.1,41.78362701,1.94246111
5f63a9ce2e090a0d008d92b7,6,0,2024-02-27T15:39:38.697Z,french_567.wav,0,pull,1794,37,5,3,English,M,2,0.2,54.76706712,1.04642714
5f63a9ce2e090a0d008d92b7,6,0,2024-02-27T15:39:38.697Z,french_567.wav,0,pull,1794,37,5,3,English,M,3,0.25666667,32.83264266,0.77358904
5f63a9ce2e090a0d008d92b7,7,0,2024-02-27T15:39:38.697Z,french_249.wav,0,poule,1162,37,5,3,English,M,0,0.0,-14.62389142,0.54824935
5f63a9ce2e090a0d008d92b7,7,0,2024-02-27T15:39:38.697Z,french_249.wav,0,poule,1162,37,5,3,English,M,1,0.1,82.35169727,0.81625332
5f63a9ce2e090a0d008d92b7,7,0,2024-02-27T15:39:38.697Z,french_249.wav,0,poule,1162,37,5,3,English,M,2,0.2,-37.79288698,0.28914805
5f63a9ce2e090a0d008d92b7,7,0,2024-02-27T15:39:38.697Z,french_249.wav,0,poule,1162,37,5,3,English,M,3,0.25666667,-94.5306765,0.43241605
5f63a9ce2e090a0d008d92b7,8,0,2024-02-27T15:39:38.697Z,french_437.wav,0,poule,1863,37,5,3,English,M,0,0.0,59.70067771,0.22659206
5f63a9ce2e090a0d008d92b7,8,0,2024-02-27T15:39:38.697Z,french_437.wav,0,poule,1863,37,5,3,English,M,1,0.1,78.61233767,0.85429053
5f63a9ce2e090a0d008d92b7,8,0,2024-02-27T15:39:38.697Z,french_437.wav,0,poule,1863,37,5,3,English,M,2,0.2,76.18154157,1.36297282
5f63a9ce2e090a0d008d92b7,8,0,2024-02-27T15:39:38.697Z,french_437.wav,0,poule,1863,37,5,3,English,M,3,0.25666667,-54.28538078,1.46039745
5f63a9ce2e090a0d008d92b7,9,0,2024-02-27T15:39:38.697Z,french_370.wav,0,poule,978,37,5,3,English,M,0,0.0,-31.30279389,1.88170435
5f63a9ce2e090a0d008d92b7,9,0,2024-02-27T15:39:38.697Z,french_370.wav,0,poule,978,37,5,3,English,M,1,0.1,96.47349065,0.75067332
5f63a9ce2e090a0d008d92b7,9,0,2024-02-27T15:39:38.697Z,french_370.wav,0,poule,978,37,5,3,English,M,2,0.2,23.18843017,1.06279648
5f63a9ce2e090a0d008d92b7,9,0,2024-02-27T15:39:38.697Z,french_370.wav,0,poule,978,37,5,3,English,M,3,0.25666667,81.62933181,0.58974769
5f63a9ce2e090a0d008d92b7,10,0,2024-02-27T15:39:38.697Z,french_495.wav,0,poule,705,37,5,3,English,M,0,0.0,93.48002859,1.03648483
5f63a9ce2e090a0d008d92b7,10,0,2024-02-27T15:39:38.697Z,french_495.wav,0,poule,705,37,5,3,English,M,1,0.1,99.142871,1.23043948
5f63a9ce2e090a0d008d92b7,10,0,2024-02-27T15:39:38.697Z,french_495.wav,0,poule,705,37,5,3,English,M,2,0.2,-33.98102163,1.1332488
5f63a9ce2e090a0d008d92b7,10,0,2024-02-27T15:39:38.697Z,french_495.wav,0,poule,705,37,5,3,English,M,3,0.25666667,38.68354094,0.62015381
5f63a9ce2e090a0d008d92b7,11,0,2024-02-27T15:39:38.697Z,french_994.wav,0,poule,2375,37,5,3,English,M,0,0.0,-39.66278541,0.39681658
5f63a9ce2e090a0d008d92b7,11,0,2024-02-27T15:39:38.697Z,french_994.wav,0,poule,2375,37,5,3,English,M,1,0.1,66.70535545,1.6498105
5f63a9ce2e090a0d008d92b7,11,0,2024-02-27T15:39:38.697Z,french_994.wav,0,poule,2375,37,5,3,English,M,2,0.2,-87.43703712,1.48803434
5f63a9ce2e090a0d008d92b7,11,0,2024-02-27T15:39:38.697Z,french_994.wav,0,poule,2375,37,5,3,English,M,3,0.25666667,-41.83233866,1.54058484
5f63a9ce2e090a0d008d92b7,12,0,2024-02-27T15:39:38.697Z,french_65.wav,0,poule,710,37,5,3,English,M,0,0.0,-17.53877645,1.80859796
5f63a9ce2e090a0d008d92b7,12,0,2024-02-27T15:39:38.697Z,french_65.wav,0,poule,710,37,5,3,English,M,1,0.1,77.85789868,1.24255314
5f63a9ce2e090a0d008d92b7,12,0,2024-02-27T15:39:38.697Z,french_65.wav,0,poule,710,37,5,3,English,M,2,0.2,16.40180032,1.28894604
5f63a9ce2e090a0d008d92b7,12,0,2024-02-27T15:39:38.697Z,french_65.wav,0,poule,710,37,5,3,English,M,3,0.25666667,56.20856175,0.80043142
5f63a9ce2e090a0d008d92b7,13,0,2024-02-27T15:39:38.697Z,french_767.wav,0,poule,1783,37,5,3,English,M,0,0.0,91.79298807,1.15796888
5f63a9ce2e090a0d008d92b7,13,0,2024-02-27T15:39:38.697Z,french_767.wav,0,poule,1783,37,5,3,English,M,1,0.1,-10.9319541,0.37743288
5f63a9ce2e090a0d008d92b7,13,0,2024-02-27T15:39:38.697Z,french_767.wav,0,poule,1783,37,5,3,English,M,2,0.2,-18.13246944,1.06132115
5f63a9ce2e090a0d008d92b7,13,0,2024-02-27T15:39:38.697Z,french_767.wav,0,poule,1783,37,5,3,English,M,3,0.25666667,-6.11346908,0.41668969
5f63a9ce2e090a0d008d92b7,14,0,2024-02-27T15:39:38.697Z,french_786.wav,0,poule,533,37,5,3,English,M,0,0.0,46.81596915,0.36321177
5f63a9ce2e090a0d008d92b7,14,0,2024-02-27T15:39:38.697Z,french_786.wav,0,poule,533,37,5,3,English,M,1,0.1,35.10066142,1.24415108
5f63a9ce2e090a0d008d92b7,14,0,2024-02-27T15:39:38.697Z,french_786.wav,0,poule,533,37,5,3,English,M,2,0.2,15.54537814,1.19760647
5f63a9ce2e090a0d008d92b7,14,0,2024-02-27T15:39:38.697Z,french_786.wav,0,poule,533,37,5,3,English,M,3,0.25666667,97.25347056,0.79076548
5f63a9ce2e090a0d008d92b7,15,0,2024-02-27T15:39:38.697Z,french_492.wav,0,poule,1683,37,5,3,English,M,0,0.0,26.23401792,1.39276004
5f63a9ce2e090a0d008d92b7,15,0,2024-02-27T15:39:38.697Z,french_492.wav,0,poule,1683,37,5,3,English,M,1,0.1,-24.69700304,1.17915575
5f63a9ce2e090a0d008d92b7,15,0,2024-02-27T15:39:38.697Z,french_492.wav,0,poule,1683,37,5,3,English,M,2,0.2,20.89476161,0.89700471
5f63a9ce2e090a0d008d92b7,15,0,2024-02-27T15:39:38.697Z,french_492.wav,0,poule,1683,37,5,3,English,M,3,0.25666667,-5.21833306,0.44164607
5f63a9ce2e090a0d008d92b7,16,0,2024-02-27T15:39:38.697Z,french_971.wav,0,poule,1534,37,5,3,English,M,0,0.0,96.00351489,1.9961872
5f63a9ce2e090a0d008d92b7,16,0,2024-02-27T15:39:38.697Z,french_971.wav,0,poule,1534,37,5,3,English,M,1,0.1,-55.9328558,0.96234699
5f63a9ce2e090a0d008d92b7,16,0,2024-02-27T15:39:38.697Z,french_971.wav,0,poule,1534,37,5,3,English,M,2,0.2,-62.43027521,1.29823686
5f63a9ce2e090a0d008d92b7,16,0,2024-02-27T15:39:38.697Z,french_971.wav,0,poule,1534,37,5,3,English,M,3,0.25666667,67.10785382,1.44437919
5f63a9ce2e090a0d008d92b7,17,0,2024-02-27T15:39:38.697Z,french_670.wav,0,poule,1098,37,5,3,English,M,0,0.0,-38.80852857,0.18324618
5f63a9ce2e090a0d008d92b7,17,0,2024-02-27T15:39:38.697Z,french_670.wav,0,poule,1098,37,5,3,English,M,1,0.1,-8.64332938,0.81857347
5f63a9ce2e090a0d008d92b7,17,0,2024-02-27T15:39:38.697Z,french_670.wav,0,poule,1098,37,5,3,English,M,2,0.2,-55.35683075,1.27404838
5f63a9ce2e090a0d008d92b7,17,0,2024-02-27T15:39:38.697Z,french_670.wav,0,poule,1098,37,5,3,English,M,3,0.25666667,17.57735741,1.12537981
5f63a9ce2e090a0d008d92b7,18,0,2024-02-27T15:39:38.697Z,french_823.wav,0,poule,1275,37,5,3,English,M,0,0.0,-89.53533563,0.87621895
5f63a9ce2e090a0d008d92b7,18,0,2024-02-27T15:39:38.697Z,french_823.wav,0,poule,1275,37,5,3,English,M,1,0.1,14.01752274,0.92757563
5f63a9ce2e090a0d008d92b7,18,0,2024-02-27T15:39:38.697Z,french_823.wav,0,poule,1275,37,5,3,English,M,2,0.2,33.24657022,1.30685671
5f63a9ce2e090a0d008d92b7,18,0,2024-02-27T15:39:38.697Z,french_823.wav,0,poule,1275,37,5,3,English,M,3,0.25666667,-78.84260648,1.33840969
5f63a9ce2e090a0d008d92b7,19,0,2024-02-27T15:39:38.697Z,french_206.wav,0,poule,1129,37,5,3,English,M,0,0.0,54.3984601,1.52634336
5f63a9ce2e090a0d008d92b7,19,0,2024-02-27T15:39:38.697Z,french_206.wav,0,poule,1129,37,5,3,English,M,1,0.1,63.13301153,0.52222794
5f63a9ce2e090a0d008d92b7,19,0,2024-02-27T15:39:38.697Z,french_206.wav,0,poule,1129,37,5,3,English,M,2,0.2,42.02994149,1.32066154
5f63a9ce2e090a0d008d92b7,19,0,2024-02-27T15:39:38.697Z,french_206.wav,0,poule,1129,37,5,3,English,M,3,0.25666667,-16.37363905,0.63957267
5f63a9ce2e090a0d008d92b7,20,0,2024-02-27T15:39:38.697Z,french_124.wav,0,pull,1014,37,5,3,English,M,0,0.0,-40.67960973,1.69845324
5f63a9ce2e090a0d008d92b7,20,0,2024-02-27T15:39:38.697Z,french_124.wav,0,pull,1014,37,5,3,English,M,1,0.1,1.84202377,0.10570995
5f63a9ce2e090a0d008d92b7,20,0,2024-02-27T15:39:38.697Z,french_124.wav,0,pull,1014,37,5,3,English,M,2,0.2,31.56915939,0.86198312
5f63a9ce2e090a0d008d92b7,20,0,2024-02-27T15:39:38.697Z,french_124.wav,0,pull,1014,37,5,3,English,M,3,0.25666667,9.71654757,1.20479065
5f63a9ce2e090a0d008d92b7,21,0,2024-02-27T15:39:38.697Z,french_622.wav,0,poule,2186,37,5,3,English,M,0,0.0,47.12624694,0.11708635
5f63a9ce2e090a0d008d92b7,21,0,2024-02-27T15:39:38.697Z,french_622.wav,0,poule,2186,37,5,3,English,M,1,0.1,27.16283734,1.67756831
5f63a9ce2e090a0d008d92b7,21,0,2024-02-27T15:39:38.697Z,french_622.wav,0,poule,2186,37,5,3,English,M,2,0.2,55.37707654,0.50575055
5f63a9ce2e090a0d008d92b7,21,0,2024-02-27T15:39:38.697Z,french_622.wav,0,poule,2186,37,5,3,English,M,3,0.25666667,-3.25728377,0.46543416
5f63a9ce2e090a0d008d92b7,22,0,2024-02-27T15:39:38.697Z,french_798.wav,0,poule,1203,37,5,3,English,M,0,0.0,80.80013175,1.56222047
5f63a9ce2e090a0d008d92b7,22,0,2024-02-27T15:39:38.697Z,french_798.wav,0,poule,1203,37,5,3,English,M,1,0.1,8.18850232,1.67765441
5f63a9ce2e090a0d008d92b7,22,0,2024-02-27T15:39:38.697Z,french_798.wav,0,poule,1203,37,5,3,English,M,2,0.2,-10.54144101,1.93747014
5f63a9ce2e090a0d008d92b7,22,0,2024-02-27T15:39:38.697Z,french_798.wav,0,poule,1203,37,5,3,English,M,3,0.25666667,26.86908184,1.76378238
5f63a9ce2e090a0d008d92b7,23,0,2024-02-27T15:39:38.697Z,french_368.wav,0,poule,658,37,5,3,English,M,0,0.0,-50.29275674,1.3762211
5f63a9ce2e090a0d008d92b7,23,0,2024-02-27T15:39:38.697Z,french_368.wav,0,poule,658,37,5,3,English,M,1,0.1,-46.19812301,0.86881993
5f63a9ce2e090a0d008d92b7,23,0,2024-02-27T15:39:38.697Z,french_368.wav,0,poule,658,37,5,3,English,M,2,0.2,11.95097834,1.63580042
5f63a9ce2e090a0d008d92b7,23,0,2024-02-27T15:39:38.697Z,french_368.wav,0,poule,658,37,5,3,English,M,3,0.25666667,56.55273669,0.08134077
5f63a9ce2e090a0d008d92b7,24,0,2024-02-27T15:39:38.697Z,french_646.wav,0,pull,903,37,5,3,English,M,0,0.0,98.47808426,1.66300853
5f63a9ce2e090a0d008d92b7,24,0,2024-02-27T15:39:38.697Z,french_646.wav,0,pull,903,37,5,3,English,M,1,0.1,98.7741611,0.58876545
5f63a9ce2e090a0d008d92b7,24,0,2024-02-27T15:39:38.697Z,french_646.wav,0,pull,903,37,5,3,English,M,2,0.2,-51.76092723,0.47940067
5f63a9ce2e090a0d008d92b7,24,0,2024-02-27T15:39:38.697Z,french_646.wav,0,pull,903,37,5,3,English,M,3,0.25666667,53.55118827,0.48942216
5f63a9ce2e090a0d008d92b7,25,0,2024-02-27T15:39:38.697Z,french_939.wav,0,poule,1000,37,5,3,English,M,0,0.0,26.75853805,1.87296773
5f63a9ce2e090a0d008d92b7,25,0,2024-02-27T15:39:38.697Z,french_939.wav,0,poule,1000,37,5,3,English,M,1,0.1,6.19803181,1.06061528
5f63a9ce2e090a0d008d92b7,25,0,2024-02-27T15:39:38.697Z,french_939.wav,0,poule,1000,37,5,3,English,M,2,0.2,-16.72335747,1.33482008
5f63a9ce2e090a0d008d92b7,25,0,2024-02-27T15:39:38.697Z,french_939.wav,0,poule,1000,37,5,3,English,M,3,0.25666667,96.23810145,0.73381464
5f63a9ce2e090a0d008d92b7,26,0,2024-02-27T15:39:38.697Z,french_841.wav,0,poule,849,37,5,3,English,M,0,0.0,-39.25619305,0.53587318
5f63a9ce2e090a0d008d92b7,26,0,2024-02-27T15:39:38.697Z,french_841.wav,0,poule,849,37,5,3,English,M,1,0.1,99.64346723,0.26500163
5f63a9ce2e090a0d008d92b7,26,0,2024-02-27T15:39:38.697Z,french_841.wav,0,poule,849,37,5,3,English,M,2,0.2,76.90020667,1.77796469
5f63a9ce2e090a0d008d92b7,26,0,2024-02-27T15:39:38.697Z,french_841.wav,0,poule,849,37,5,3,English,M,3,0.25666667,40.01429738,0.75111943
5f63a9ce2e090a0d008d92b7,27,0,2024-02-27T15:39:38.697Z,french_793.wav,0,pull,3288,37,5,3,English,M,0,0.0,24.81509803,0.12690374
5f63a9ce2e090a0d008d92b7,27,0,2024-02-27T15:39:38.697Z,french_793.wav,0,pull,3288,37,5,3,English,M,1,0.1,-63.66512484,0.60816637
5f63a9ce2e090a0d008d92b7,27,0,2024-02-27T15:39:38.697Z,french_793.wav,0,pull,3288,37,5,3,English,M,2,0.2,-35.07665133,0.42682998
5f63a9ce2e090a0d008d92b7,27,0,2024-02-27T15:39:38.697Z,french_793.wav,0,pull,3288,37,5,3,English,M,3,0.25666667,-2.30327069,0.74050477
5f63a9ce2e090a0d008d92b7,28,0,2024-02-27T15:39:38.697Z,french_964.wav,0,poule,1406,37,5,3,English,M,0,0.0,-56.07629317,1.19943116
5f63a9ce2e090a0d008d92b7,28,0,2024-02-27T15:39:38.697Z,french_964.wav,0,poule,1406,37,5,3,English,M,1,0.1,-19.45500988,0.89458005
5f63a9ce2e090a0d008d92b7,28,0,2024-02-27T15:39:38.697Z,french_964.wav,0,poule,1406,37,5,3,English,M,2,0.2,97.83653085,1.94180509
5f63a9ce2e090a0d008d92b7,28,0,2024-02-27T15:39:38.697Z,french_964.wav,0,poule,1406,37,5,3,English,M,3,0.25666667,70.5600413,0.3273771
5f63a9ce2e090a0d008d92b7,29,0,2024-02-27T15:39:38.697Z,french_829.wav,0,poule,1517,37,5,3,English,M,0,0.0,46.725297,0.52675555
5f63a9ce2e090a0d008d92b7,29,0,2024-02-27T15:39:38.697Z,french_829.wav,0,poule,1517,37,5,3,English,M,1,0.1,-84.28207626,1.43556726
5f63a9ce2e090a0d008d92b7,29,0,2024-02-27T15:39:38.697Z,french_829.wav,0,poule,1517,37,5,3,English,M,2,0.2,93.60285392,0.6815656
5f63a9ce2e090a0d008d92b7,29,0,2024-02-27T15:39:38.697Z,french_829.wav,0,poule,1517,37,5,3,English,M,3,0.25666667,-19.92335823,1.46711526
5f63a9ce2e090a0d008d92b7,30,0,2024-02-27T15:39:38.697Z,french_125.wav,0,poule,876,37,5,3,English,M,0,0.0,-5.4163583,1.55997732
5f63a9ce2e090a0d008d92b7,30,0,2024-02-27T15:39:38.697Z,french_125.wav,0,poule,876,37,5,3,English,M,1,0.1,-78.82020266,1.46538696
5f63a9ce2e090a0d008d92b7,30,0,2024-02-27T15:39:38.697Z,french_125.wav,0,poule,876,37,5,3,English,M,2,0.2,7.21605105,1.19887704
5f63a9ce2e090a0d008d92b7,30,0,2024-02-27T15:39:38.697Z,french_125.wav,0,poule,876,37,5,3,English,M,3,0.25666667,-41.55982592,1.01520467
5f63a9ce2e090a0d008d92b7,31,0,2024-02-27T15:39:38.697Z,french_935.wav,0,poule,619,37,5,3,English,M,0,0.0,-44.99349069,1.17032266
5f63a9ce2e090a0d008d92b7,31,0,2024-02-27T15:39:38.697Z,french_935.wav,0,poule,619,37,5,3,English,M,1,0.1,-36.99771552,1.41237049
5f63a9ce2e090a0d008d92b7,31,0,2024-02-27T15:39:38.697Z,french_935.wav,0,poule,619,37,5,3,English,M,2,0.2,73.94933819,0.72245199
5f63a9ce2e090a0d008d92b7,31,0,2024-02-27T15:39:38.697Z,french_935.wav,0,poule,619,37,5,3,English,M,3,0.25666667,99.03349287,1.64210213
5f63a9ce2e090a0d008d92b7,32,0,2024-02-27T15:39:38.697Z,french_806.wav,0,poule,1596,37,5,3,English,M,0,0.0,97.26957313,1.48673004
5f63a9ce2e090a0d008d92b7,32,0,2024-02-27T15:39:38.697Z,french_806.wav,0,poule,1596,37,5,3,English,M,1,0.1,79.44562669,1.9967546
5f63a9ce2e090a0d008d92b7,32,0,2024-02-27T15:39:38.697Z,french_806.wav,0,poule,1596,37,5,3,English,M,2,0.2,79.77586719,0.9238106
5f63a9ce2e090a0d008d92b7,32,0,2024-02-27T15:39:38.697Z,french_806.wav,0,poule,1596,37,5,3,English,M,3,0.25666667,-46.2684083,1.39755131
5f63a9ce2e090a0d008d92b7,33,0,2024-02-27T15:39:38.697Z,french_536.wav,0,pull,2958,37,5,3,English,M,0,0.0,68.67423581,1.72386473
5f63a9ce2e090a0d008d92b7,33,0,2024-02-27T15:39:38.697Z,french_536.wav,0,pull,2958,37,5,3,English,M,1,0.1,-41.0053329,0.5365144
5f63a9ce2e090a0d008d92b7,33,0,2024-02-27T15:39:38.697Z,french_536.wav,0,pull,2958,37,5,3,English,M,2,0.2,83.63020031,1.03248729
5f63a9ce2e090a0d008d92b7,33,0,2024-02-27T15:39:38.697Z,french_536.wav,0,pull,2958,37,5,3,English,M,3,0.25666667,91.23175369,0.91736707
5f63a9ce2e090a0d008d92b7,34,0,2024-02-27T15:39:38.697Z,french_470.wav,0,poule,786,37,5,3,English,M,0,0.0,35.80891732,1.18984778
5f63a9ce2e090a0d008d92b7,34,0,2024-02-27T15:39:38.697Z,french_470.wav,0,poule,786,37,5,3,English,M,1,0.1,-69.45523052,0.95727089
5f63a9ce2e090a0d008d92b7,34,0,2024-02-27T15:39:38.697Z,french_470.wav,0,poule,786,37,5,3,English,M,2,0.2,14.95046841,1.94704509
5f63a9ce2e090a0d008d92b7,34,0,2024-02-27T15:39:38.697Z,french_470.wav,0,poule,786,37,5,3,English,M,3,0.25666667,17.64450191,1.37814226
5f63a9ce2e090a0d008d92b7,35,0,2024-02-27T15:39:38.697Z,french_647.wav,0,poule,769,37,5,3,English,M,0,0.0,-41.18361869,1.9224231
5f63a9ce2e090a0d008d92b7,35,0,2024-02-27T15:39:38.697Z,french_647.wav,0,poule,769,37,5,3,English,M,1,0.1,11.48241437,1.96851625
5f63a9ce2e090a0d008d92b7,35,0,2024-02-27T15:39:38.697Z,french_647.wav,0,poule,769,37,5,3,English,M,2,0.2,60.38354651,1.74064919
5f63a9ce2e090a0d008d92b7,35,0,2024-02-27T15:39:38.697Z,french_647.wav,0,poule,769,37,5,3,English,M,3,0.25666667,15.78737628,1.76296374
5f63a9ce2e090a0d008d92b7,36,0,2024-02-27T15:39:38.697Z,french_683.wav,0,pull,908,37,5,3,English,M,0,0.0,21.98154849,0.17421097
5f63a9ce2e090a0d008d92b7,36,0,2024-02-27T15:39:38.697Z,french_683.wav,0,pull,908,37,5,3,English,M,1,0.1,59.44126587,0.03094343
5f63a9ce2e090a0d008d92b7,36,0,2024-02-27T15:39:38.697Z,french_683.wav,0,pull,908,37,5,3,English,M,2,0.2,-51.05687534,0.79924543
5f63a9ce2e090a0d008d92b7,36,0,2024-02-27T15:39:38.697Z,french_683.wav,0,pull,908,37,5,3,English,M,3,0.25666667,-9.70916743,0.82068176
5f63a9ce2e090a0d008d92b7,37,0,2024-02-27T15:39:38.697Z,french_838.wav,0,poule,1772,37,5,3,English,M,0,0.0,-11.78713781,0.60255839
5f63a9ce2e090a0d008d92b7,37,0,2024-02-27T15:39:38.697Z,french_838.wav,0,poule,1772,37,5,3,English,M,1,0.1,70.11555366,0.34480099
5f63a9ce2e090a0d008d92b7,37,0,2024-02-27T15:39:38.697Z,french_838.wav,0,poule,1772,37,5,3,English,M,2,0.2,60.74924786,1.0262929
5f63a9ce2e090a0d008d92b7,37,0,2024-02-27T15:39:38.697Z,french_838.wav,0,poule,1772,37,5,3,English,M,3,0.25666667,37.89669618,0.88829748
5f63a9ce2e090a0d008d92b7,38,0,2024-02-27T15:39:38.697Z,french_423.wav,0,pull,1504,37,5,3,English,M,0,0.0,80.03290271,0.31618382
5f63a9ce2e090a0d008d92b7,38,0,2024-02-27T15:39:38.697Z,french_423.wav,0,pull,1504,37,5,3,English,M,1,0.1,-33.72349736,0.81153422
5f63a9ce2e090a0d008d92b7,38,0,2024-02-27T15:39:38.697Z,french_423.wav,0,pull,1504,37,5,3,English,M,2,0.2,-38.14858153,0.21197718
5f63a9ce2e090a0d008d92b7,38,0,2024-02-27T15:39:38.697Z,french_423.wav,0,pull,1504,37,5,3,English,M,3,0.25666667,-48.66398852,0.41633142
5f63a9ce2e090a0d008d92b7,39,0,2024-02-27T15:39:38.697Z,french_960.wav,0,pull,626,37,5,3,English,M,0,0.0,-21.44081237,0.51475761
5f63a9ce2e090a0d008d92b7,39,0,2024-02-27T15:39:38.697Z,french_960.wav,0,pull,626,37,5,3,English,M,1,0.1,-88.4923718,1.11613408
5f63a9ce2e090a0d008d92b7,39,0,2024-02-27T15:39:38.697Z,french_960.wav,0,pull,626,37,5,3,English,M,2,0.2,38.79957112,0.09358172
5f63a9ce2e090a0d008d92b7,39,0,2024-02-27T15:39:38.697Z,french_960.wav,0,pull,626,37,5,3,English,M,3,0.25666667,-94.67313386,1.96196729
5f63a9ce2e090a0d008d92b7,40,0,2024-02-27T15:39:38.697Z,french_666.wav,0,pull,703,37,5,3,English,M,0,0.0,51.58977068,0.51416215
5f63a9ce2e090a0d008d92b7,40,0,2024-02-27T15:39:38.697Z,french_666.wav,0,pull,703,37,5,3,English,M,1,0.1,81.806625,0.1213722
5f63a9ce2e090a0d008d92b7,40,0,2024-02-27T15:39:38.697Z,french_666.wav,0,pull,703,37,5,3,English,M,2,0.2,10.32462757,1.14435945
5f63a9ce2e090a0d008d92b7,40,0,2024-02-27T15:39:38.697Z,french_666.wav,0,pull,703,37,5,3,English,M,3,0.25666667,-51.25764779,1.68381456
5f63a9ce2e090a0d008d92b7,41,0,2024-02-27T15:39:38.697Z,french_296.wav,0,poule,642,37,5,3,English,M,0,0.0,93.71479572,0.08926169
5f63a9ce2e090a0d008d92b7,41,0,2024-02-27T15:39:38.697Z,french_296.wav,0,poule,642,37,5,3,English,M,1,0.1,-75.79046522,1.27041306
5f63a9ce2e090a0d008d92b7,41,0,2024-02-27T15:39:38.697Z,french_296.wav,0,poule,642,37,5,3,English,M,2,0.2,-87.29598303,1.46433067
5f63a9ce2e090a0d008d92b7,41,0,2024-02-27T15:39:38.697Z,french_296.wav,0,poule,642,37,5,3,English,M,3,0.25666667,31.73776098,0.42599999
5f63a9ce2e090a0d008d92b7,42,0,2024-02-27T15:39:38.697Z,french_812.wav,0,poule,1156,37,5,3,English,M,0,0.0,78.53201718,1.73310634
5f63a9ce2e090a0d008d92b7,42,0,2024-02-27T15:39:38.697Z,french_812.wav,0,poule,1156,37,5,3,English,M,1,0.1,87.32508034,1.73147281
5f63a9ce2e090a0d008d92b7,42,0,2024-02-27T15:39:38.697Z,french_812.wav,0,poule,1156,37,5,3,English,M,2,0.2,77.15455549,1.58178344
5f63a9ce2e090a0d008d92b7,42,0,2024-02-27T15:39:38.697Z,french_812.wav,0,poule,1156,37,5,3,English,M,3,0.25666667,-51.33102937,0.27993183
5f63a9ce2e090a0d008d92b7,43,0,2024-02-27T15:39:38.697Z,french_695.wav,0,poule,606,37,5,3,English,M,0,0.0,-57.6665866,1.09792482
5f63a9ce2e090a0d008d92b7,43,0,2024-02-27T15:39:38.697Z,french_695.wav,0,poule,606,37,5,3,English,M,1,0.1,6.09893846,1.46549104
5f63a9ce2e090a0d008d92b7,43,0,2024-02-27T15:39:38.697Z,french_695.wav,0,poule,606,37,5,3,English,M,2,0.2,-80.8229011,1.66085764
5f63a9ce2e090a0d008d92b7,43,0,2024-02-27T15:39:38.697Z,french_695.wav,0,poule,606,37,5,3,English,M,3,0.256666667,0.00737669519,1.19228029
5f63a9ce2e090a0d008d92b7,44,0,2024-02-27T15:39:38.697Z,french_204.wav,0,pull,1928,37,5,3,English,M,0,0.0,-28.36319627,0.07789368
5f63a9ce2e090a0d008d92b7,44,0,2024-02-27T15:39:38.697Z,french_204.wav,0,pull,1928,37,5,3,English,M,1,0.1,-92.66891013,0.00203791
5f63a9ce2e090a0d008d92b7,44,0,2024-02-27T15:39:38.697Z,french_204.wav,0,pull,1928,37,5,3,English,M,2,0.2,96.29592204,1.92374636
5f63a9ce2e090a0d008d92b7,44,0,2024-02-27T15:39:38.697Z,french_204.wav,0,pull,1928,37,5,3,English,M,3,0.25666667,-46.81515004,0.97947469
5f63a9ce2e090a0d008d92b7,45,0,2024-02-27T15:39:38.697Z,french_297.wav,0,poule,544,37,5,3,English,M,0,0.0,66.56614261,0.35086225
5f63a9ce2e090a0d008d92b7,45,0,2024-02-27T15:39:38.697Z,french_297.wav,0,poule,544,37,5,3,English,M,1,0.1,-3.32812159,1.7876007
5f63a9ce2e090a0d008d92b7,45,0,2024-02-27T15:39:38.697Z,french_297.wav,0,poule,544,37,5,3,English,M,2,0.2,85.62103424,0.63077709
5f63a9ce2e090a0d008d92b7,45,0,2024-02-27T15:39:38.697Z,french_297.wav,0,poule,544,37,5,3,English,M,3,0.25666667,92.99895728,0.65985351
5f63a9ce2e090a0d008d92b7,46,0,2024-02-27T15:39:38.697Z,french_890.wav,0,pull,1173,37,5,3,English,M,0,0.0,17.48321345,1.85587598
5f63a9ce2e090a0d008d92b7,46,0,2024-02-27T15:39:38.697Z,french_890.wav,0,pull,1173,37,5,3,English,M,1,0.1,-18.95749083,0.79262665
5f63a9ce2e090a0d008d92b7,46,0,2024-02-27T15:39:38.697Z,french_890.wav,0,pull,1173,37,5,3,English,M,2,0.2,0.74707456,0.19694232
5f63a9ce2e090a0d008d92b7,46,0,2024-02-27T15:39:38.697Z,french_890.wav,0,pull,1173,37,5,3,English,M,3,0.25666667,92.62024404,1.22282027
5f63a9ce2e090a0d008d92b7,47,0,2024-02-27T15:39:38.697Z,french_707.wav,0,poule,636,37,5,3,English,M,0,0.0,77.25708539,0.72667473
5f63a9ce2e090a0d008d92b7,47,0,2024-02-27T15:39:38.697Z,french_707.wav,0,poule,636,37,5,3,English,M,1,0.1,-54.8008957,1.98017833
5f63a9ce2e090a0d008d92b7,47,0,2024-02-27T15:39:38.697Z,french_707.wav,0,poule,636,37,5,3,English,M,2,0.2,-15.62691875,0.70006776
5f63a9ce2e090a0d008d92b7,47,0,2024-02-27T15:39:38.697Z,french_707.wav,0,poule,636,37,5,3,English,M,3,0.25666667,8.64437522,1.11828401
5f63a9ce2e090a0d008d92b7,48,0,2024-02-27T15:39:38.697Z,french_172.wav,0,poule,685,37,5,3,English,M,0,0.0,48.7065843,1.72774852
5f63a9ce2e090a0d008d92b7,48,0,2024-02-27T15:39:38.697Z,french_172.wav,0,poule,685,37,5,3,English,M,1,0.1,36.17213003,0.94223675
5f63a9ce2e090a0d008d92b7,48,0,2024-02-27T15:39:38.697Z,french_172.wav,0,poule,685,37,5,3,English,M,2,0.2,22.16215467,1.06724209
5f63a9ce2e090a0d008d92b7,48,0,2024-02-27T15:39:38.697Z,french_172.wav,0,poule,685,37,5,3,English,M,3,0.25666667,3.80373218,1.19623342
5f63a9ce2e090a0d008d92b7,49,0,2024-02-27T15:39:38.697Z,french_56.wav,0,poule,860,37,5,3,English,M,0,0.0,-45.81384366,0.89556329
5f63a9ce2e090a0d008d92b7,49,0,2024-02-27T15:39:38.697Z,french_56.wav,0,poule,860,37,5,3,English,M,1,0.1,-31.22745768,1.16444889
5f63a9ce2e090a0d008d92b7,49,0,2024-02-27T15:39:38.697Z,french_56.wav,0,poule,860,37,5,3,English,M,2,0.2,7.07301694,0.03247946
5f63a9ce2e090a0d008d92b7,49,0,2024-02-27T15:39:38.697Z,french_56.wav,0,poule,860,37,5,3,English,M,3,0.25666667,85.51747291,0.10908846
5f63a9ce2e090a0d008d92b7,50,1,2024-02-27T15:39:38.697Z,french_243.wav,0,poule,889,37,5,3,English,M,0,0.0,94.15218044,0.53955239
5f63a9ce2e090a0d008d92b7,50,1,2024-02-27T15:39:38.697Z,french_243.wav,0,poule,889,37,5,3,English,M,1,0.1,77.54642038,1.33237065
5f63a9ce2e090a0d008d92b7,50,1,2024-02-27T15:39:38.697Z,french_243.wav,0,poule,889,37,5,3,English,M,2,0.2,-54.61145872,1.76705621
5f63a9ce2e090a0d008d92b7,50,1,2024-02-27T15:39:38.697Z,french_243.wav,0,poule,889,37,5,3,English,M,3,0.25666667,-22.57869657,1.15577178
5f63a9ce2e090a0d008d92b7,51,1,2024-02-27T15:39:38.697Z,french_493.wav,0,poule,924,37,5,3,English,M,0,0.0,-68.32294441,0.52835731
5f63a9ce2e090a0d008d92b7,51,1,2024-02-27T15:39:38.697Z,french_493.wav,0,poule,924,37,5,3,English,M,1,0.1,-10.78892258,0.49612748
5f63a9ce2e090a0d008d92b7,51,1,2024-02-27T15:39:38.697Z,french_493.wav,0,poule,924,37,5,3,English,M,2,0.2,91.72278204,1.46473376
5f63a9ce2e090a0d008d92b7,51,1,2024-02-27T15:39:38.697Z,french_493.wav,0,poule,924,37,5,3,English,M,3,0.25666667,-45.09260027,1.2872874
5f63a9ce2e090a0d008d92b7,52,1,2024-02-27T15:39:38.697Z,french_440.wav,0,poule,1245,37,5,3,English,M,0,0.0,-59.81098651,0.93400427
5f63a9ce2e090a0d008d92b7,52,1,2024-02-27T15:39:38.697Z,french_440.wav,0,poule,1245,37,5,3,English,M,1,0.1,55.41661021,0.25641934
5f63a9ce2e090a0d008d92b7,52,1,2024-02-27T15:39:38.697Z,french_440.wav,0,poule,1245,37,5,3,English,M,2,0.2,43.77043266,0.61594081
5f63a9ce2e090a0d008d92b7,52,1,2024-02-27T15:39:38.697Z,french_440.wav,0,poule,1245,37,5,3,English,M,3,0.25666667,-5.41632891,1.32329824
5f63a9ce2e090a0d008d92b7,53,1,2024-02-27T15:39:38.697Z,french_259.wav,0,poule,629,37,5,3,English,M,0,0.0,34.42813613,0.3045902
5f63a9ce2e090a0d008d92b7,53,1,2024-02-27T15:39:38.697Z,french_259.wav,0,poule,629,37,5,3,English,M,1,0.1,10.6054277,0.51228763
5f63a9ce2e090a0d008d92b7,53,1,2024-02-27T15:39:38.697Z,french_259.wav,0,poule,629,37,5,3,English,M,2,0.2,-13.69189805,1.00650156
5f63a9ce2e090a0d008d92b7,53,1,2024-02-27T15:39:38.697Z,french_259.wav,0,poule,629,37,5,3,English,M,3,0.25666667,-89.62004192,1.73437165
5f63a9ce2e090a0d008d92b7,54,1,2024-02-27T15:39:38.697Z,french_445.wav,0,pull,1176,37,5,3,English,M,0,0.0,8.73559539,0.8054478
5f63a9ce2e090a0d008d92b7,54,1,2024-02-27T15:39:38.697Z,french_445.wav,0,pull,1176,37,5,3,English,M,1,0.1,-22.15313252,1.73211315
5f63a9ce2e090a0d008d92b7,54,1,2024-02-27T15:39:38.697Z,french_445.wav,0,pull,1176,37,5,3,English,M,2,0.2,26.0955013,0.21896619
5f63a9ce2e090a0d008d92b7,54,1,2024-02-27T15:39:38.697Z,french_445.wav,0,pull,1176,37,5,3,English,M,3,0.25666667,22.70157082,0.54256666
5f63a9ce2e090a0d008d92b7,55,1,2024-02-27T15:39:38.697Z,french_547.wav,0,poule,569,37,5,3,English,M,0,0.0,-72.35697933,0.54090293
5f63a9ce2e090a0d008d92b7,55,1,2024-02-27T15:39:38.697Z,french_547.wav,0,poule,569,37,5,3,English,M,1,0.1,-74.8664908,1.21231176
5f63a9ce2e090a0d008d92b7,55,1,2024-02-27T15:39:38.697Z,french_547.wav,0,poule,569,37,5,3,English,M,2,0.2,67.97778582,1.67585204
5f63a9ce2e090a0d008d92b7,55,1,2024-02-27T15:39:38.697Z,french_547.wav,0,poule,569,37,5,3,English,M,3,0.25666667,23.13057238,0.28113426
5f63a9ce2e090a0d008d92b7,56,1,2024-02-27T15:39:38.697Z,french_426.wav,0,pull,688,37,5,3,English,M,0,0.0,94.83015244,1.95768421
5f63a9ce2e090a0d008d92b7,56,1,2024-02-27T15:39:38.697Z,french_426.wav,0,pull,688,37,5,3,English,M,1,0.1,80.74954266,0.5170286
5f63a9ce2e090a0d008d92b7,56,1,2024-02-27T15:39:38.697Z,french_426.wav,0,pull,688,37,5,3,English,M,2,0.2,14.22402444,0.27456075
5f63a9ce2e090a0d008d92b7,56,1,2024-02-27T15:39:38.697Z,french_426.wav,0,pull,688,37,5,3,English,M,3,0.25666667,92.85203769,1.53042381
5f63a9ce2e090a0d008d92b7,57,1,2024-02-27T15:39:38.697Z,french_250.wav,0,poule,652,37,5,3,English,M,0,0.0,34.1596777,0.91954119
5f63a9ce2e090a0d008d92b7,57,1,2024-02-27T15:39:38.697Z,french_250.wav,0,poule,652,37,5,3,English,M,1,0.1,-44.36149414,1.97424998
5f63a9ce2e090a0d008d92b7,57,1,2024-02-27T15:39:38.697Z,french_250.wav,0,poule,652,37,5,3,English,M,2,0.2,5.0850049,0.32778381
5f63a9ce2e090a0d008d92b7,57,1,2024-02-27T15:39:38.697Z,french_250.wav,0,poule,652,37,5,3,English,M,3,0.25666667,-37.48818875,0.84724669
5f63a9ce2e090a0d008d92b7,58,1,2024-02-27T15:39:38.697Z,french_597.wav,0,poule,1200,37,5,3,English,M,0,0.0,78.21673508,0.32061172
5f63a9ce2e090a0d008d92b7,58,1,2024-02-27T15:39:38.697Z,french_597.wav,0,poule,1200,37,5,3,English,M,1,0.1,48.44931265,1.01687051
5f63a9ce2e090a0d008d92b7,58,1,2024-02-27T15:39:38.697Z,french_597.wav,0,poule,1200,37,5,3,English,M,2,0.2,-9.21876948,0.22158162
5f63a9ce2e090a0d008d92b7,58,1,2024-02-27T15:39:38.697Z,french_597.wav,0,poule,1200,37,5,3,English,M,3,0.25666667,-95.47680095,0.62073139
5f63a9ce2e090a0d008d92b7,59,1,2024-02-27T15:39:38.697Z,french_119.wav,0,poule,695,37,5,3,English,M,0,0.0,9.8100641,0.76259974
5f63a9ce2e090a0d008d92b7,59,1,2024-02-27T15:39:38.697Z,french_119.wav,0,poule,695,37,5,3,English,M,1,0.1,19.57169954,1.49190063
5f63a9ce2e090a0d008d92b7,59,1,2024-02-27T15:39:38.697Z,french_119.wav,0,poule,695,37,5,3,English,M,2,0.2,-1.41265712,0.43709034
5f63a9ce2e090a0d008d92b7,59,1,2024-02-27T15:39:38.697Z,french_119.wav,0,poule,695,37,5,3,English,M,3,0.25666667,-78.33165967,1.93463996
5f63a9ce2e090a0d008d92b7,60,1,2024-02-27T15:39:38.697Z,french_166.wav,0,poule,685,37,5,3,English,M,0,0.0,-13.71320418,1.40282364
5f63a9ce2e090a0d008d92b7,60,1,2024-02-27T15:39:38.697Z,french_166.wav,0,poule,685,37,5,3,English,M,1,0.1,-74.77814183,0.51226478
5f63a9ce2e090a0d008d92b7,60,1,2024-02-27T15:39:38.697Z,french_166.wav,0,poule,685,37,5,3,English,M,2,0.2,42.48534987,1.59981073
5f63a9ce2e090a0d008d92b7,60,1,2024-02-27T15:39:38.697Z,french_166.wav,0,poule,685,37,5,3,English,M,3,0.25666667,-48.97271451,1.00485648
5f63a9ce2e090a0d008d92b7,61,1,2024-02-27T15:39:38.697Z,french_482.wav,0,poule,714,37,5,3,English,M,0,0.0,30.59556471,1.3609553
5f63a9ce2e090a0d008d92b7,61,1,2024-02-27T15:39:38.697Z,french_482.wav,0,poule,714,37,5,3,English,M,1,0.1,-28.15674373,1.03507415
5f63a9ce2e090a0d008d92b7,61,1,2024-02-27T15:39:38.697Z,french_482.wav,0,poule,714,37,5,3,English,M,2,0.2,-30.08163346,1.60461159
5f63a9ce2e090a0d008d92b7,61,1,2024-02-27T15:39:38.697Z,french_482.wav,0,poule,714,37,5,3,English,M,3,0.25666667,89.23902938,0.68082645
5f63a9ce2e090a0d008d92b7,62,1,2024-02-27T15:39:38.697Z,french_997.wav,0,poule,551,37,5,3,English,M,0,0.0,70.02211451,0.23520638
5f63a9ce2e090a0d008d92b7,62,1,2024-02-27T15:39:38.697Z,french_997.wav,0,poule,551,37,5,3,English,M,1,0.1,69.24362731,0.40856699
5f63a9ce2e090a0d008d92b7,62,1,2024-02-27T15:39:38.697Z,french_997.wav,0,poule,551,37,5,3,English,M,2,0.2,73.007848,1.59962624
5f63a9ce2e090a0d008d92b7,62,1,2024-02-27T15:39:38.697Z,french_997.wav,0,poule,551,37,5,3,English,M,3,0.25666667,83.15376715,0.8906701
5f63a9ce2e090a0d008d92b7,63,1,2024-02-27T15:39:38.697Z,french_723.wav,0,poule,532,37,5,3,English,M,0,0.0,-46.61221312,0.88342187
5f63a9ce2e090a0d008d92b7,63,1,2024-02-27T15:39:38.697Z,french_723.wav,0,poule,532,37,5,3,English,M,1,0.1,-11.45492587,0.45371046
5f63a9ce2e090a0d008d92b7,63,1,2024-02-27T15:39:38.697Z,french_723.wav,0,poule,532,37,5,3,English,M,2,0.2,-2.50722763,1.8565603
5f63a9ce2e090a0d008d92b7,63,1,2024-02-27T15:39:38.697Z,french_723.wav,0,poule,532,37,5,3,English,M,3,0.25666667,-31.56133571,0.74236501
5f63a9ce2e090a0d008d92b7,64,1,2024-02-27T15:39:38.697Z,french_389.wav,0,pull,958,37,5,3,English,M,0,0.0,69.62296415,1.67675408
5f63a9ce2e090a0d008d92b7,64,1,2024-02-27T15:39:38.697Z,french_389.wav,0,pull,958,37,5,3,English,M,1,0.1,-41.49433877,1.60540147
5f63a9ce2e090a0d008d92b7,64,1,2024-02-27T15:39:38.697Z,french_389.wav,0,pull,958,37,5,3,English,M,2,0.2,-65.025051,0.45817867
5f63a9ce2e090a0d008d92b7,64,1,2024-02-27T15:39:38.697Z,french_389.wav,0,pull,958,37,5,3,English,M,3,0.25666667,10.9117334,1.10562968
5f63a9ce2e090a0d008d92b7,65,1,2024-02-27T15:39:38.697Z,french_187.wav,0,poule,753,37,5,3,English,M,0,0.0,-18.61743148,0.79177474
5f63a9ce2e090a0d008d92b7,65,1,2024-02-27T15:39:38.697Z,french_187.wav,0,poule,753,37,5,3,English,M,1,0.1,27.93687652,0.90472294
5f63a9ce2e090a0d008d92b7,65,1,2024-02-27T15:39:38.697Z,french_187.wav,0,poule,753,37,5,3,English,M,2,0.2,6.26647606,1.3885115
5f63a9ce2e090a0d008d92b7,65,1,2024-02-27T15:39:38.697Z,french_187.wav,0,poule,753,37,5,3,English,M,3,0.25666667,58.88972832,1.88547829
5f63a9ce2e090a0d008d92b7,66,1,2024-02-27T15:39:38.697Z,french_830.wav,0,pull,1489,37,5,3,English,M,0,0.0,-1.87091299,1.09232302
5f63a9ce2e090a0d008d92b7,66,1,2024-02-27T15:39:38.697Z,french_830.wav,0,pull,1489,37,5,3,English,M,1,0.1,9.47785811,0.94787069
5f63a9ce2e090a0d008d92b7,66,1,2024-02-27T15:39:38.697Z,french_830.wav,0,pull,1489,37,5,3,English,M,2,0.2,-62.34166138,1.22281972
5f63a9ce2e090a0d008d92b7,66,1,2024-02-27T15:39:38.697Z,french_830.wav,0,pull,1489,37,5,3,English,M,3,0.25666667,43.2809025,1.77001535
5f63a9ce2e090a0d008d92b7,67,1,2024-02-27T15:39:38.697Z,french_783.wav,0,poule,496,37,5,3,English,M,0,0.0,-1.39366148,1.02261841
5f63a9ce2e090a0d008d92b7,67,1,2024-02-27T15:39:38.697Z,french_783.wav,0,poule,496,37,5,3,English,M,1,0.1,-51.98505422,1.36670641
5f63a9ce2e090a0d008d92b7,67,1,2024-02-27T15:39:38.697Z,french_783.wav,0,poule,496,37,5,3,English,M,2,0.2,-59.48644931,1.36831513
5f63a9ce2e090a0d008d92b7,67,1,2024-02-27T15:39:38.697Z,french_783.wav,0,poule,496,37,5,3,English,M,3,0.25666667,-72.0894269,1.17814646
5f63a9ce2e090a0d008d92b7,68,1,2024-02-27T15:39:38.697Z,french_657.wav,0,poule,837,37,5,3,English,M,0,0.0,99.76716584,0.85695778
5f63a9ce2e090a0d008d92b7,68,1,2024-02-27T15:39:38.697Z,french_657.wav,0,poule,837,37,5,3,English,M,1,0.1,11.51898435,1.00645436
5f63a9ce2e090a0d008d92b7,68,1,2024-02-27T15:39:38.697Z,french_657.wav,0,poule,837,37,5,3,English,M,2,0.2,-43.45408234,0.73989588
5f63a9ce2e090a0d008d92b7,68,1,2024-02-27T15:39:38.697Z,french_657.wav,0,poule,837,37,5,3,English,M,3,0.25666667,22.46427071,1.57217431
5f63a9ce2e090a0d008d92b7,69,1,2024-02-27T15:39:38.697Z,french_653.wav,0,poule,773,37,5,3,English,M,0,0.0,77.9010548,1.15209157
5f63a9ce2e090a0d008d92b7,69,1,2024-02-27T15:39:38.697Z,french_653.wav,0,poule,773,37,5,3,English,M,1,0.1,-51.77114594,0.29445829
5f63a9ce2e090a0d008d92b7,69,1,2024-02-27T15:39:38.697Z,french_653.wav,0,poule,773,37,5,3,English,M,2,0.2,87.84855202,0.58679482
5f63a9ce2e090a0d008d92b7,69,1,2024-02-27T15:39:38.697Z,french_653.wav,0,poule,773,37,5,3,English,M,3,0.25666667,84.03497815,1.23322571
5f63a9ce2e090a0d008d92b7,70,1,2024-02-27T15:39:38.697Z,french_417.wav,0,poule,1997,37,5,3,English,M,0,0.0,-52.68130191,1.49469738
5f63a9ce2e090a0d008d92b7,70,1,2024-02-27T15:39:38.697Z,french_417.wav,0,poule,1997,37,5,3,English,M,1,0.1,73.91368418,1.06358835
5f63a9ce2e090a0d008d92b7,70,1,2024-02-27T15:39:38.697Z,french_417.wav,0,poule,1997,37,5,3,English,M,2,0.2,7.73324389,1.12421265
5f63a9ce2e090a0d008d92b7,70,1,2024-02-27T15:39:38.697Z,french_417.wav,0,poule,1997,37,5,3,English,M,3,0.25666667,92.88066518,0.65436219
5f63a9ce2e090a0d008d92b7,71,1,2024-02-27T15:39:38.697Z,french_875.wav,0,poule,757,37,5,3,English,M,0,0.0,-21.85805239,1.53415162
5f63a9ce2e090a0d008d92b7,71,1,2024-02-27T15:39:38.697Z,french_875.wav,0,poule,757,37,5,3,English,M,1,0.1,89.69626046,1.00812403
5f63a9ce2e090a0d008d92b7,71,1,2024-02-27T15:39:38.697Z,french_875.wav,0,poule,757,37,5,3,English,M,2,0.2,-30.27044373,0.85877698
5f63a9ce2e090a0d008d92b7,71,1,2024-02-27T15:39:38.697Z,french_875.wav,0,poule,757,37,5,3,English,M,3,0.25666667,34.72149061,1.23447623
5f63a9ce2e090a0d008d92b7,72,1,2024-02-27T15:39:38.697Z,french_667.wav,0,pull,1080,37,5,3,English,M,0,0.0,-87.23426609,0.52575342
5f63a9ce2e090a0d008d92b7,72,1,2024-02-27T15:39:38.697Z,french_667.wav,0,pull,1080,37,5,3,English,M,1,0.1,53.54997778,0.6882241
5f63a9ce2e090a0d008d92b7,72,1,2024-02-27T15:39:38.697Z,french_667.wav,0,pull,1080,37,5,3,English,M,2,0.2,57.34155937,0.15612922
5f63a9ce2e090a0d008d92b7,72,1,2024-02-27T15:39:38.697Z,french_667.wav,0,pull,1080,37,5,3,English,M,3,0.25666667,-19.62963402,0.34657669
5f63a9ce2e090a0d008d92b7,73,1,2024-02-27T15:39:38.697Z,french_137.wav,0,poule,674,37,5,3,English,M,0,0.0,20.21202866,1.22191513
5f63a9ce2e090a0d008d92b7,73,1,2024-02-27T15:39:38.697Z,french_137.wav,0,poule,674,37,5,3,English,M,1,0.1,-42.96009099,0.44902196
5f63a9ce2e090a0d008d92b7,73,1,2024-02-27T15:39:38.697Z,french_137.wav,0,poule,674,37,5,3,English,M,2,0.2,15.21981059,0.94630282
5f63a9ce2e090a0d008d92b7,73,1,2024-02-27T15:39:38.697Z,french_137.wav,0,poule,674,37,5,3,English,M,3,0.25666667,-16.40384708,1.1991754
5f63a9ce2e090a0d008d92b7,74,1,2024-02-27T15:39:38.697Z,french_307.wav,0,poule,899,37,5,3,English,M,0,0.0,1.2534749,1.28672407
5f63a9ce2e090a0d008d92b7,74,1,2024-02-27T15:39:38.697Z,french_307.wav,0,poule,899,37,5,3,English,M,1,0.1,79.3326992,0.47718292
5f63a9ce2e090a0d008d92b7,74,1,2024-02-27T15:39:38.697Z,french_307.wav,0,poule,899,37,5,3,English,M,2,0.2,24.93038066,1.37451018
5f63a9ce2e090a0d008d92b7,74,1,2024-02-27T15:39:38.697Z,french_307.wav,0,poule,899,37,5,3,English,M,3,0.25666667,-37.26133342,1.21026525
5f63a9ce2e090a0d008d92b7,75,1,2024-02-27T15:39:38.697Z,french_278.wav,0,poule,616,37,5,3,English,M,0,0.0,0.92058819,0.58166089
5f63a9ce2e090a0d008d92b7,75,1,2024-02-27T15:39:38.697Z,french_278.wav,0,poule,616,37,5,3,English,M,1,0.1,-11.12293645,0.6190237
5f63a9ce2e090a0d008d92b7,75,1,2024-02-27T15:39:38.697Z,french_278.wav,0,poule,616,37,5,3,English,M,2,0.2,51.74113392,1.02661965
5f63a9ce2e090a0d008d92b7,75,1,2024-02-27T15:39:38.697Z,french_278.wav,0,poule,616,37,5,3,English,M,3,0.25666667,59.96495371,0.89915078
5f63a9ce2e090a0d008d92b7,76,1,2024-02-27T15:39:38.697Z,french_273.wav,0,pull,1008,37,5,3,English,M,0,0.0,-64.70279697,0.53531099
5f63a9ce2e090a0d008d92b7,76,1,2024-02-27T15:39:38.697Z,french_273.wav,0,pull,1008,37,5,3,English,M,1,0.1,51.79292953,0.11586536
5f63a9ce2e090a0d008d92b7,76,1,2024-02-27T15:39:38.697Z,french_273.wav,0,pull,1008,37,5,3,English,M,2,0.2,-96.4801009,0.21168864
5f63a9ce2e090a0d008d92b7,76,1,2024-02-27T15:39:38.697Z,french_273.wav,0,pull,1008,37,5,3,English,M,3,0.25666667,93.42641001,1.2771199
5f63a9ce2e090a0d008d92b7,77,1,2024-02-27T15:39:38.697Z,french_262.wav,0,pull,672,37,5,3,English,M,0,0.0,-64.23156272,0.64961321
5f63a9ce2e090a0d008d92b7,77,1,2024-02-27T15:39:38.697Z,french_262.wav,0,pull,672,37,5,3,English,M,1,0.1,-18.68430003,0.97192609
5f63a9ce2e090a0d008d92b7,77,1,2024-02-27T15:39:38.697Z,french_262.wav,0,pull,672,37,5,3,English,M,2,0.2,-74.67542291,0.40249154
5f63a9ce2e090a0d008d92b7,77,1,2024-02-27T15:39:38.697Z,french_262.wav,0,pull,672,37,5,3,English,M,3,0.25666667,29.36963449,0.8696964
5f63a9ce2e090a0d008d92b7,78,1,2024-02-27T15:39:38.697Z,french_487.wav,0,poule,2940,37,5,3,English,M,0,0.0,26.50580686,1.63350644
5f63a9ce2e090a0d008d92b7,78,1,2024-02-27T15:39:38.697Z,french_487.wav,0,poule,2940,37,5,3,English,M,1,0.1,-34.14449754,1.29368608
5f63a9ce2e090a0d008d92b7,78,1,2024-02-27T15:39:38.697Z,french_487.wav,0,poule,2940,37,5,3,English,M,2,0.2,66.18137857,0.20656395
5f63a9ce2e090a0d008d92b7,78,1,2024-02-27T15:39:38.697Z,french_487.wav,0,poule,2940,37,5,3,English,M,3,0.25666667,-7.03677771,1.93991824
5f63a9ce2e090a0d008d92b7,79,1,2024-02-27T15:39:38.697Z,french_532.wav,0,poule,4773,37,5,3,English,M,0,0.0,51.6664435,1.30171402
5f63a9ce2e090a0d008d92b7,79,1,2024-02-27T15:39:38.697Z,french_532.wav,0,poule,4773,37,5,3,English,M,1,0.1,12.38327687,0.03929558
5f63a9ce2e090a0d008d92b7,79,1,2024-02-27T15:39:38.697Z,french_532.wav,0,poule,4773,37,5,3,English,M,2,0.2,-89.35582175,1.38931331
5f63a9ce2e090a0d008d92b7,79,1,2024-02-27T15:39:38.697Z,french_532.wav,0,poule,4773,37,5,3,English,M,3,0.25666667,25.37493155,0.74157834
5f63a9ce2e090a0d008d92b7,80,1,2024-02-27T15:39:38.697Z,french_948.wav,0,poule,1523,37,5,3,English,M,0,0.0,54.2755123,0.60698289
5f63a9ce2e090a0d008d92b7,80,1,2024-02-27T15:39:38.697Z,french_948.wav,0,poule,1523,37,5,3,English,M,1,0.1,-26.53776759,1.07019337
5f63a9ce2e090a0d008d92b7,80,1,2024-02-27T15:39:38.697Z,french_948.wav,0,poule,1523,37,5,3,English,M,2,0.2,-51.24045856,1.47276383
5f63a9ce2e090a0d008d92b7,80,1,2024-02-27T15:39:38.697Z,french_948.wav,0,poule,1523,37,5,3,English,M,3,0.25666667,84.11086463,1.01044713
5f63a9ce2e090a0d008d92b7,81,1,2024-02-27T15:39:38.697Z,french_93.wav,0,pull,1015,37,5,3,English,M,0,0.0,23.57211404,0.62732128
5f63a9ce2e090a0d008d92b7,81,1,2024-02-27T15:39:38.697Z,french_93.wav,0,pull,1015,37,5,3,English,M,1,0.1,-16.15934767,0.10811818
5f63a9ce2e090a0d008d92b7,81,1,2024-02-27T15:39:38.697Z,french_93.wav,0,pull,1015,37,5,3,English,M,2,0.2,25.54711871,0.30787392
5f63a9ce2e090a0d008d92b7,81,1,2024-02-27T15:39:38.697Z,french_93.wav,0,pull,1015,37,5,3,English,M,3,0.25666667,65.09284613,1.57978374
5f63a9ce2e090a0d008d92b7,82,1,2024-02-27T15:39:38.697Z,french_399.wav,0,poule,605,37,5,3,English,M,0,0.0,60.88638106,0.92905576
5f63a9ce2e090a0d008d92b7,82,1,2024-02-27T15:39:38.697Z,french_399.wav,0,poule,605,37,5,3,English,M,1,0.1,69.51712014,1.13956386
5f63a9ce2e090a0d008d92b7,82,1,2024-02-27T15:39:38.697Z,french_399.wav,0,poule,605,37,5,3,English,M,2,0.2,11.9354414,0.89341089
5f63a9ce2e090a0d008d92b7,82,1,2024-02-27T15:39:38.697Z,french_399.wav,0,poule,605,37,5,3,English,M,3,0.25666667,71.82951649,1.81253855
5f63a9ce2e090a0d008d92b7,83,1,2024-02-27T15:39:38.697Z,french_748.wav,0,poule,837,37,5,3,English,M,0,0.0,66.19282508,0.41357469
5f63a9ce2e090a0d008d92b7,83,1,2024-02-27T15:39:38.697Z,french_748.wav,0,poule,837,37,5,3,English,M,1,0.1,-81.39884416,1.04952
5f63a9ce2e090a0d008d92b7,83,1,2024-02-27T15:39:38.697Z,french_748.wav,0,poule,837,37,5,3,English,M,2,0.2,72.72612179,1.37113635
5f63a9ce2e090a0d008d92b7,83,1,2024-02-27T15:39:38.697Z,french_748.wav,0,poule,837,37,5,3,English,M,3,0.25666667,76.03481505,1.54211369
5f63a9ce2e090a0d008d92b7,84,1,2024-02-27T15:39:38.697Z,french_372.wav,0,poule,408,37,5,3,English,M,0,0.0,2.47243072,0.40204166
5f63a9ce2e090a0d008d92b7,84,1,2024-02-27T15:39:38.697Z,french_372.wav,0,poule,408,37,5,3,English,M,1,0.1,-60.42501292,1.5432551
5f63a9ce2e090a0d008d92b7,84,1,2024-02-27T15:39:38.697Z,french_372.wav,0,poule,408,37,5,3,English,M,2,0.2,-16.68820648,1.17639585
5f63a9ce2e090a0d008d92b7,84,1,2024-02-27T15:39:38.697Z,french_372.wav,0,poule,408,37,5,3,English,M,3,0.25666667,27.86473169,1.5977063
5f63a9ce2e090a0d008d92b7,85,1,2024-02-27T15:39:38.697Z,french_29.wav,0,pull,928,37,5,3,English,M,0,0.0,82.92052959,1.65542147
5f63a9ce2e090a0d008d92b7,85,1,2024-02-27T15:39:38.697Z,french_29.wav,0,pull,928,37,5,3,English,M,1,0.1,96.5660735,0.71189304
5f63a9ce2e090a0d008d92b7,85,1,2024-02-27T15:39:38.697Z,french_29.wav,0,pull,928,37,5,3,English,M,2,0.2,76.1539425,0.4523944
5f63a9ce2e090a0d008d92b7,85,1,2024-02-27T15:39:38.697Z,french_29.wav,0,pull,928,37,5,3,English,M,3,0.25666667,-7.00195585,1.32757755
5f63a9ce2e090a0d008d92b7,86,1,2024-02-27T15:39:38.697Z,french_342.wav,0,poule,734,37,5,3,English,M,0,0.0,-84.22246184,0.80111929
5f63a9ce2e090a0d008d92b7,86,1,2024-02-27T15:39:38.697Z,french_342.wav,0,poule,734,37,5,3,English,M,1,0.1,-88.55202377,0.92289162
5f63a9ce2e090a0d008d92b7,86,1,2024-02-27T15:39:38.697Z,french_342.wav,0,poule,734,37,5,3,English,M,2,0.2,12.74462997,0.96187701
5f63a9ce2e090a0d008d92b7,86,1,2024-02-27T15:39:38.697Z,french_342.wav,0,poule,734,37,5,3,English,M,3,0.25666667,-73.67155113,0.57764427
5f63a9ce2e090a0d008d92b7,87,1,2024-02-27T15:39:38.697Z,french_223.wav,0,pull,679,37,5,3,English,M,0,0.0,4.95143367,1.93703508
5f63a9ce2e090a0d008d92b7,87,1,2024-02-27T15:39:38.697Z,french_223.wav,0,pull,679,37,5,3,English,M,1,0.1,55.42619629,0.30698411
5f63a9ce2e090a0d008d92b7,87,1,2024-02-27T15:39:38.697Z,french_223.wav,0,pull,679,37,5,3,English,M,2,0.2,77.82995017,0.10644958
5f63a9ce2e090a0d008d92b7,87,1,2024-02-27T15:39:38.697Z,french_223.wav,0,pull,679,37,5,3,English,M,3,0.25666667,-85.84724551,0.25911965
5f63a9ce2e090a0d008d92b7,88,1,2024-02-27T15:39:38.697Z,french_220.wav,0,poule,626,37,5,3,English,M,0,0.0,99.39862809,1.95391084
5f63a9ce2e090a0d008d92b7,88,1,2024-02-27T15:39:38.697Z,french_220.wav,0,poule,626,37,5,3,English,M,1,0.1,-16.44954754,1.60430152
5f63a9ce2e090a0d008d92b7,88,1,2024-02-27T15:39:38.697Z,french_220.wav,0,poule,626,37,5,3,English,M,2,0.2,-73.93109837,1.1953066
5f63a9ce2e090a0d008d92b7,88,1,2024-02-27T15:39:38.697Z,french_220.wav,0,poule,626,37,5,3,English,M,3,0.25666667,-37.75571533,0.34699919
5f63a9ce2e090a0d008d92b7,89,1,2024-02-27T15:39:38.697Z,french_351.wav,0,poule,788,37,5,3,English,M,0,0.0,-22.87012194,0.67033139
5f63a9ce2e090a0d008d92b7,89,1,2024-02-27T15:39:38.697Z,french_351.wav,0,poule,788,37,5,3,English,M,1,0.1,10.68995272,0.80045466
5f63a9ce2e090a0d008d92b7,89,1,2024-02-27T15:39:38.697Z,french_351.wav,0,poule,788,37,5,3,English,M,2,0.2,60.8101445,0.88778875
5f63a9ce2e090a0d008d92b7,89,1,2024-02-27T15:39:38.697Z,french_351.wav,0,poule,788,37,5,3,English,M,3,0.25666667,32.12752515,0.26390259
5f63a9ce2e090a0d008d92b7,90,1,2024-02-27T15:39:38.697Z,french_5.wav,0,poule,897,37,5,3,English,M,0,0.0,-2.8714843,1.07181682
5f63a9ce2e090a0d008d92b7,90,1,2024-02-27T15:39:38.697Z,french_5.wav,0,poule,897,37,5,3,English,M,1,0.1,-50.9441672,0.56733338
5f63a9ce2e090a0d008d92b7,90,1,2024-02-27T15:39:38.697Z,french_5.wav,0,poule,897,37,5,3,English,M,2,0.2,56.21180826,0.26773361
5f63a9ce2e090a0d008d92b7,90,1,2024-02-27T15:39:38.697Z,french_5.wav,0,poule,897,37,5,3,English,M,3,0.25666667,-57.18619957,1.97613039
5f63a9ce2e090a0d008d92b7,91,1,2024-02-27T15:39:38.697Z,french_892.wav,0,pull,656,37,5,3,English,M,0,0.0,-9.89123065,1.43345907
5f63a9ce2e090a0d008d92b7,91,1,2024-02-27T15:39:38.697Z,french_892.wav,0,pull,656,37,5,3,English,M,1,0.1,-29.48301763,0.60115207
5f63a9ce2e090a0d008d92b7,91,1,2024-02-27T15:39:38.697Z,french_892.wav,0,pull,656,37,5,3,English,M,2,0.2,-20.12274852,0.51672516
5f63a9ce2e090a0d008d92b7,91,1,2024-02-27T15:39:38.697Z,french_892.wav,0,pull,656,37,5,3,English,M,3,0.25666667,-63.31716547,0.2983609
5f63a9ce2e090a0d008d92b7,92,1,2024-02-27T15:39:38.697Z,french_526.wav,0,poule,616,37,5,3,English,M,0,0.0,88.08406442,1.10890049
5f63a9ce2e090a0d008d92b7,92,1,2024-02-27T15:39:38.697Z,french_526.wav,0,poule,616,37,5,3,English,M,1,0.1,34.72799638,1.05741796
5f63a9ce2e090a0d008d92b7,92,1,2024-02-27T15:39:38.697Z,french_526.wav,0,poule,616,37,5,3,English,M,2,0.2,4.2178472,1.4706377
5f63a9ce2e090a0d008d92b7,92,1,2024-02-27T15:39:38.697Z,french_526.wav,0,poule,616,37,5,3,English,M,3,0.25666667,90.74946068,0.12061003
5f63a9ce2e090a0d008d92b7,93,1,2024-02-27T15:39:38.697Z,french_924.wav,0,pull,1140,37,5,3,English,M,0,0.0,19.51956159,0.29322561
5f63a9ce2e090a0d008d92b7,93,1,2024-02-27T15:39:38.697Z,french_924.wav,0,pull,1140,37,5,3,English,M,1,0.1,-22.93629197,0.34885274
5f63a9ce2e090a0d008d92b7,93,1,2024-02-27T15:39:38.697Z,french_924.wav,0,pull,1140,37,5,3,English,M,2,0.2,72.54596199,0.3497483
5f63a9ce2e090a0d008d92b7,93,1,2024-02-27T15:39:38.697Z,french_924.wav,0,pull,1140,37,5,3,English,M,3,0.25666667,13.27885696,0.14375838
5f63a9ce2e090a0d008d92b7,94,1,2024-02-27T15:39:38.697Z,french_689.wav,0,pull,891,37,5,3,English,M,0,0.0,-76.83712438,1.91162084
5f63a9ce2e090a0d008d92b7,94,1,2024-02-27T15:39:38.697Z,french_689.wav,0,pull,891,37,5,3,English,M,1,0.1,64.54047654,0.68488006
5f63a9ce2e090a0d008d92b7,94,1,2024-02-27T15:39:38.697Z,french_689.wav,0,pull,891,37,5,3,English,M,2,0.2,42.91011154,0.17067082
5f63a9ce2e090a0d008d92b7,94,1,2024-02-27T15:39:38.697Z,french_689.wav,0,pull,891,37,5,3,English,M,3,0.25666667,-94.73892594,1.05586556
5f63a9ce2e090a0d008d92b7,95,1,2024-02-27T15:39:38.697Z,french_406.wav,0,poule,1015,37,5,3,English,M,0,0.0,58.13533855,1.29537269
5f63a9ce2e090a0d008d92b7,95,1,2024-02-27T15:39:38.697Z,french_406.wav,0,poule,1015,37,5,3,English,M,1,0.1,16.77938971,1.03128378
5f63a9ce2e090a0d008d92b7,95,1,2024-02-27T15:39:38.697Z,french_406.wav,0,poule,1015,37,5,3,English,M,2,0.2,-34.29610563,1.90878176
5f63a9ce2e090a0d008d92b7,95,1,2024-02-27T15:39:38.697Z,french_406.wav,0,poule,1015,37,5,3,English,M,3,0.25666667,5.14727068,1.43946259
5f63a9ce2e090a0d008d92b7,96,1,2024-02-27T15:39:38.697Z,french_335.wav,0,poule,994,37,5,3,English,M,0,0.0,-60.92786521,0.89558721
5f63a9ce2e090a0d008d92b7,96,1,2024-02-27T15:39:38.697Z,french_335.wav,0,poule,994,37,5,3,English,M,1,0.1,31.54292158,1.14451351
5f63a9ce2e090a0d008d92b7,96,1,2024-02-27T15:39:38.697Z,french_335.wav,0,poule,994,37,5,3,English,M,2,0.2,82.84770607,0.29770625
5f63a9ce2e090a0d008d92b7,96,1,2024-02-27T15:39:38.697Z,french_335.wav,0,poule,994,37,5,3,English,M,3,0.25666667,75.81016287,0.45932577
5f63a9ce2e090a0d008d92b7,97,1,2024-02-27T15:39:38.697Z,french_358.wav,0,poule,901,37,5,3,English,M,0,0.0,-21.88755711,1.21014447
5f63a9ce2e090a0d008d92b7,97,1,2024-02-27T15:39:38.697Z,french_358.wav,0,poule,901,37,5,3,English,M,1,0.1,-5.628981,1.2650669
5f63a9ce2e090a0d008d92b7,97,1,2024-02-27T15:39:38.697Z,french_358.wav,0,poule,901,37,5,3,English,M,2,0.2,-60.01307733,0.97277603
5f63a9ce2e090a0d008d92b7,97,1,2024-02-27T15:39:38.697Z,french_358.wav,0,poule,901,37,5,3,English,M,3,0.25666667,65.58947466,0.28969343
5f63a9ce2e090a0d008d92b7,98,1,2024-02-27T15:39:38.697Z,french_692.wav,0,pull,1537,37,5,3,English,M,0,0.0,-30.56073905,0.00354931
5f63a9ce2e090a0d008d92b7,98,1,2024-02-27T15:39:38.697Z,french_692.wav,0,pull,1537,37,5,3,English,M,1,0.1,67.72997498,1.79271885
5f63a9ce2e090a0d008d92b7,98,1,2024-02-27T15:39:38.697Z,french_692.wav,0,pull,1537,37,5,3,English,M,2,0.2,55.48980932,1.35474436
5f63a9ce2e090a0d008d92b7,98,1,2024-02-27T15:39:38.697Z,french_692.wav,0,pull,1537,37,5,3,English,M,3,0.25666667,99.47423215,1.33636308
5f63a9ce2e090a0d008d92b7,99,1,2024-02-27T15:39:38.697Z,french_933.wav,0,poule,667,37,5,3,English,M,0,0.0,-24.27897726,0.66366025
5f63a9ce2e090a0d008d92b7,99,1,2024-02-27T15:39:38.697Z,french_933.wav,0,poule,667,37,5,3,English,M,1,0.1,45.4380102,1.16686233
5f63a9ce2e090a0d008d92b7,99,1,2024-02-27T15:39:38.697Z,french_933.wav,0,poule,667,37,5,3,English,M,2,0.2,44.52165476,0.86083852
5f63a9ce2e090a0d008d92b7,99,1,2024-02-27T15:39:38.697Z,french_933.wav,0,poule,667,37,5,3,English,M,3,0.25666667,11.96128215,1.88972919
5f63a9ce2e090a0d008d92b7,100,2,2024-02-27T15:39:38.697Z,french_913.wav,0,poule,777,37,5,3,English,M,0,0.0,5.31236155,1.37558602
5f63a9ce2e090a0d008d92b7,100,2,2024-02-27T15:39:38.697Z,french_913.wav,0,poule,777,37,5,3,English,M,1,0.1,-59.65057946,0.3561265
5f63a9ce2e090a0d008d92b7,100,2,2024-02-27T15:39:38.697Z,french_913.wav,0,poule,777,37,5,3,English,M,2,0.2,27.87230438,1.61604884
5f63a9ce2e090a0d008d92b7,100,2,2024-02-27T15:39:38.697Z,french_913.wav,0,poule,777,37,5,3,English,M,3,0.25666667,-58.49443874,0.97981321
5f63a9ce2e090a0d008d92b7,101,2,2024-02-27T15:39:38.697Z,french_587.wav,0,poule,1019,37,5,3,English,M,0,0.0,-75.34784911,1.71069253
5f63a9ce2e090a0d008d92b7,101,2,2024-02-27T15:39:38.697Z,french_587.wav,0,poule,1019,37,5,3,English,M,1,0.1,20.53880501,1.37718063
5f63a9ce2e090a0d008d92b7,101,2,2024-02-27T15:39:38.697Z,french_587.wav,0,poule,1019,37,5,3,English,M,2,0.2,-66.82934855,1.47865121
5f63a9ce2e090a0d008d92b7,101,2,2024-02-27T15:39:38.697Z,french_587.wav,0,poule,1019,37,5,3,English,M,3,0.25666667,0.42354047,1.29460257
5f63a9ce2e090a0d008d92b7,102,2,2024-02-27T15:39:38.697Z,french_780.wav,0,poule,761,37,5,3,English,M,0,0.0,-26.4428256,1.10618342
5f63a9ce2e090a0d008d92b7,102,2,2024-02-27T15:39:38.697Z,french_780.wav,0,poule,761,37,5,3,English,M,1,0.1,71.38381251,1.00150251
5f63a9ce2e090a0d008d92b7,102,2,2024-02-27T15:39:38.697Z,french_780.wav,0,poule,761,37,5,3,English,M,2,0.2,23.58434052,0.69699056
5f63a9ce2e090a0d008d92b7,102,2,2024-02-27T15:39:38.697Z,french_780.wav,0,poule,761,37,5,3,English,M,3,0.25666667,-77.81567576,1.24957366
5f63a9ce2e090a0d008d92b7,103,2,2024-02-27T15:39:38.697Z,french_272.wav,0,pull,786,37,5,3,English,M,0,0.0,50.55701535,1.0419248
5f63a9ce2e090a0d008d92b7,103,2,2024-02-27T15:39:38.697Z,french_272.wav,0,pull,786,37,5,3,English,M,1,0.1,63.46835537,0.05024982
5f63a9ce2e090a0d008d92b7,103,2,2024-02-27T15:39:38.697Z,french_272.wav,0,pull,786,37,5,3,English,M,2,0.2,-46.63250527,0.3554473
5f63a9ce2e090a0d008d92b7,103,2,2024-02-27T15:39:38.697Z,french_272.wav,0,pull,786,37,5,3,English,M,3,0.25666667,74.93577843,1.3845464
5f63a9ce2e090a0d008d92b7,104,2,2024-02-27T15:39:38.697Z,french_239.wav,0,poule,756,37,5,3,English,M,0,0.0,28.79978772,0.08316766
5f63a9ce2e090a0d008d92b7,104,2,2024-02-27T15:39:38.697Z,french_239.wav,0,poule,756,37,5,3,English,M,1,0.1,-73.21999651,0.38167469
5f63a9ce2e090a0d008d92b7,104,2,2024-02-27T15:39:38.697Z,french_239.wav,0,poule,756,37,5,3,English,M,2,0.2,-92.33353735,1.82525895
5f63a9ce2e090a0d008d92b7,104,2,2024-02-27T15:39:38.697Z,french_239.wav,0,poule,756,37,5,3,English,M,3,0.25666667,-92.59521946,1.04737586
5f63a9ce2e090a0d008d92b7,105,2,2024-02-27T15:39:38.697Z,french_784.wav,0,poule,697,37,5,3,English,M,0,0.0,-39.52347826,1.29179639
5f63a9ce2e090a0d008d92b7,105,2,2024-02-27T15:39:38.697Z,french_784.wav,0,poule,697,37,5,3,English,M,1,0.1,-77.42465605,1.30882922
5f63a9ce2e090a0d008d92b7,105,2,2024-02-27T15:39:38.697Z,french_784.wav,0,poule,697,37,5,3,English,M,2,0.2,4.05747108,1.87909974
5f63a9ce2e090a0d008d92b7,105,2,2024-02-27T15:39:38.697Z,french_784.wav,0,poule,697,37,5,3,English,M,3,0.25666667,56.71695408,1.07202912
5f63a9ce2e090a0d008d92b7,106,2,2024-02-27T15:39:38.697Z,french_713.wav,0,poule,727,37,5,3,English,M,0,0.0,93.33204992,0.23689023
5f63a9ce2e090a0d008d92b7,106,2,2024-02-27T15:39:38.697Z,french_713.wav,0,poule,727,37,5,3,English,M,1,0.1,-15.69856834,0.32059987
5f63a9ce2e090a0d008d92b7,106,2,2024-02-27T15:39:38.697Z,french_713.wav,0,poule,727,37,5,3,English,M,2,0.2,18.82527382,0.78497323
5f63a9ce2e090a0d008d92b7,106,2,2024-02-27T15:39:38.697Z,french_713.wav,0,poule,727,37,5,3,English,M,3,0.25666667,-49.17212055,0.28269646
5f63a9ce2e090a0d008d92b7,107,2,2024-02-27T15:39:38.697Z,french_375.wav,0,poule,1465,37,5,3,English,M,0,0.0,25.91972282,0.89929791
5f63a9ce2e090a0d008d92b7,107,2,2024-02-27T15:39:38.697Z,french_375.wav,0,poule,1465,37,5,3,English,M,1,0.1,-60.98407933,0.6101435
5f63a9ce2e090a0d008d92b7,107,2,2024-02-27T15:39:38.697Z,french_375.wav,0,poule,1465,37,5,3,English,M,2,0.2,-55.02276561,1.65353502
5f63a9ce2e090a0d008d92b7,107,2,2024-02-27T15:39:38.697Z,french_375.wav,0,poule,1465,37,5,3,English,M,3,0.25666667,50.70039074,0.66964756
5f63a9ce2e090a0d008d92b7,108,2,2024-02-27T15:39:38.697Z,french_925.wav,0,poule,533,37,5,3,English,M,0,0.0,-30.51780923,1.09841649
5f63a9ce2e090a0d008d92b7,108,2,2024-02-27T15:39:38.697Z,french_925.wav,0,poule,533,37,5,3,English,M,1,0.1,35.11933452,0.05099013
5f63a9ce2e090a0d008d92b7,108,2,2024-02-27T15:39:38.697Z,french_925.wav,0,poule,533,37,5,3,English,M,2,0.2,-97.7648117,1.83429048
5f63a9ce2e090a0d008d92b7,108,2,2024-02-27T15:39:38.697Z,french_925.wav,0,poule,533,37,5,3,English,M,3,0.25666667,-62.39495561,1.66107303
5f63a9ce2e090a0d008d92b7,109,2,2024-02-27T15:39:38.697Z,french_664.wav,0,poule,783,37,5,3,English,M,0,0.0,-2.08032019,1.43741932
5f63a9ce2e090a0d008d92b7,109,2,2024-02-27T15:39:38.697Z,french_664.wav,0,poule,783,37,5,3,English,M,1,0.1,-67.02716902,1.07099048
5f63a9ce2e090a0d008d92b7,109,2,2024-02-27T15:39:38.697Z,french_664.wav,0,poule,783,37,5,3,English,M,2,0.2,95.17650789,1.92774669
5f63a9ce2e090a0d008d92b7,109,2,2024-02-27T15:39:38.697Z,french_664.wav,0,poule,783,37,5,3,English,M,3,0.25666667,-41.34718039,0.70027683
5f63a9ce2e090a0d008d92b7,110,2,2024-02-27T15:39:38.697Z,french_619.wav,0,pull,1254,37,5,3,English,M,0,0.0,-58.15289928,0.63115023
5f63a9ce2e090a0d008d92b7,110,2,2024-02-27T15:39:38.697Z,french_619.wav,0,pull,1254,37,5,3,English,M,1,0.1,30.86987971,0.12868397
5f63a9ce2e090a0d008d92b7,110,2,2024-02-27T15:39:38.697Z,french_619.wav,0,pull,1254,37,5,3,English,M,2,0.2,96.84221096,0.73139592
5f63a9ce2e090a0d008d92b7,110,2,2024-02-27T15:39:38.697Z,french_619.wav,0,pull,1254,37,5,3,English,M,3,0.25666667,69.41225319,1.17738103
5f63a9ce2e090a0d008d92b7,111,2,2024-02-27T15:39:38.697Z,french_280.wav,0,poule,832,37,5,3,English,M,0,0.0,-67.41100242,0.87165921
5f63a9ce2e090a0d008d92b7,111,2,2024-02-27T15:39:38.697Z,french_280.wav,0,poule,832,37,5,3,English,M,1,0.1,-0.65291527,0.40210454
5f63a9ce2e090a0d008d92b7,111,2,2024-02-27T15:39:38.697Z,french_280.wav,0,poule,832,37,5,3,English,M,2,0.2,-45.07946214,0.8560963
5f63a9ce2e090a0d008d92b7,111,2,2024-02-27T15:39:38.697Z,french_280.wav,0,poule,832,37,5,3,English,M,3,0.25666667,-37.24252155,1.09108247
5f63a9ce2e090a0d008d92b7,112,2,2024-02-27T15:39:38.697Z,french_878.wav,0,poule,1114,37,5,3,English,M,0,0.0,-11.41587957,1.5495917
5f63a9ce2e090a0d008d92b7,112,2,2024-02-27T15:39:38.697Z,french_878.wav,0,poule,1114,37,5,3,English,M,1,0.1,-52.86145621,0.92573348
5f63a9ce2e090a0d008d92b7,112,2,2024-02-27T15:39:38.697Z,french_878.wav,0,poule,1114,37,5,3,English,M,2,0.2,10.56905128,0.71371417
5f63a9ce2e090a0d008d92b7,112,2,2024-02-27T15:39:38.697Z,french_878.wav,0,poule,1114,37,5,3,English,M,3,0.25666667,87.23323491,0.72785239
5f63a9ce2e090a0d008d92b7,113,2,2024-02-27T15:39:38.697Z,french_475.wav,0,pull,614,37,5,3,English,M,0,0.0,42.4700979,1.46915347
5f63a9ce2e090a0d008d92b7,113,2,2024-02-27T15:39:38.697Z,french_475.wav,0,pull,614,37,5,3,English,M,1,0.1,19.82242754,0.15565226
5f63a9ce2e090a0d008d92b7,113,2,2024-02-27T15:39:38.697Z,french_475.wav,0,pull,614,37,5,3,English,M,2,0.2,35.42792781,0.40628011
5f63a9ce2e090a0d008d92b7,113,2,2024-02-27T15:39:38.697Z,french_475.wav,0,pull,614,37,5,3,English,M,3,0.25666667,-96.45453718,1.14503128
5f63a9ce2e090a0d008d92b7,114,2,2024-02-27T15:39:38.697Z,french_860.wav,0,pull,633,37,5,3,English,M,0,0.0,33.37389434,1.87718004
5f63a9ce2e090a0d008d92b7,114,2,2024-02-27T15:39:38.697Z,french_860.wav,0,pull,633,37,5,3,English,M,1,0.1,66.22312498,1.50950791
5f63a9ce2e090a0d008d92b7,114,2,2024-02-27T15:39:38.697Z,french_860.wav,0,pull,633,37,5,3,English,M,2,0.2,-4.57961146,0.09437067
5f63a9ce2e090a0d008d92b7,114,2,2024-02-27T15:39:38.697Z,french_860.wav,0,pull,633,37,5,3,English,M,3,0.25666667,50.69207221,1.19183747
5f63a9ce2e090a0d008d92b7,115,2,2024-02-27T15:39:38.697Z,french_314.wav,0,poule,988,37,5,3,English,M,0,0.0,-41.28420355,0.77087466
5f63a9ce2e090a0d008d92b7,115,2,2024-02-27T15:39:38.697Z,french_314.wav,0,poule,988,37,5,3,English,M,1,0.1,38.91630458,0.23409115
5f63a9ce2e090a0d008d92b7,115,2,2024-02-27T15:39:38.697Z,french_314.wav,0,poule,988,37,5,3,English,M,2,0.2,24.93775916,0.53304912
5f63a9ce2e090a0d008d92b7,115,2,2024-02-27T15:39:38.697Z,french_314.wav,0,poule,988,37,5,3,English,M,3,0.25666667,33.33111791,0.84036245
5f63a9ce2e090a0d008d92b7,116,2,2024-02-27T15:39:38.697Z,french_716.wav,0,pull,889,37,5,3,English,M,0,0.0,84.94340614,0.02480266
5f63a9ce2e090a0d008d92b7,116,2,2024-02-27T15:39:38.697Z,french_716.wav,0,pull,889,37,5,3,English,M,1,0.1,-26.42004262,1.84645248
5f63a9ce2e090a0d008d92b7,116,2,2024-02-27T15:39:38.697Z,french_716.wav,0,pull,889,37,5,3,English,M,2,0.2,43.13419589,1.11902957
5f63a9ce2e090a0d008d92b7,116,2,2024-02-27T15:39:38.697Z,french_716.wav,0,pull,889,37,5,3,English,M,3,0.25666667,70.01736472,1.71178302
5f63a9ce2e090a0d008d92b7,117,2,2024-02-27T15:39:38.697Z,french_593.wav,0,poule,748,37,5,3,English,M,0,0.0,28.63563643,0.95899308
5f63a9ce2e090a0d008d92b7,117,2,2024-02-27T15:39:38.697Z,french_593.wav,0,poule,748,37,5,3,English,M,1,0.1,-92.54588956,1.11632192
5f63a9ce2e090a0d008d92b7,117,2,2024-02-27T15:39:38.697Z,french_593.wav,0,poule,748,37,5,3,English,M,2,0.2,54.29574758,0.28179711
5f63a9ce2e090a0d008d92b7,117,2,2024-02-27T15:39:38.697Z,french_593.wav,0,poule,748,37,5,3,English,M,3,0.25666667,-51.0775076,1.92785686
5f63a9ce2e090a0d008d92b7,118,2,2024-02-27T15:39:38.697Z,french_782.wav,0,pull,2237,37,5,3,English,M,0,0.0,-22.12019493,0.33541309
5f63a9ce2e090a0d008d92b7,118,2,2024-02-27T15:39:38.697Z,french_782.wav,0,pull,2237,37,5,3,English,M,1,0.1,4.49416446,0.60665876
5f63a9ce2e090a0d008d92b7,118,2,2024-02-27T15:39:38.697Z,french_782.wav,0,pull,2237,37,5,3,English,M,2,0.2,95.81757258,0.65040298
5f63a9ce2e090a0d008d92b7,118,2,2024-02-27T15:39:38.697Z,french_782.wav,0,pull,2237,37,5,3,English,M,3,0.25666667,37.17912971,0.93901734
5f63a9ce2e090a0d008d92b7,119,2,2024-02-27T15:39:38.697Z,french_461.wav,0,poule,739,37,5,3,English,M,0,0.0,76.34817382,0.72953599
5f63a9ce2e090a0d008d92b7,119,2,2024-02-27T15:39:38.697Z,french_461.wav,0,poule,739,37,5,3,English,M,1,0.1,2.37579461,1.5415695
5f63a9ce2e090a0d008d92b7,119,2,2024-02-27T15:39:38.697Z,french_461.wav,0,poule,739,37,5,3,English,M,2,0.2,-59.90047781,1.01078515
5f63a9ce2e090a0d008d92b7,119,2,2024-02-27T15:39:38.697Z,french_461.wav,0,poule,739,37,5,3,English,M,3,0.25666667,20.08623444,1.02737445
5f63a9ce2e090a0d008d92b7,120,2,2024-02-27T15:39:38.697Z,french_725.wav,0,poule,597,37,5,3,English,M,0,0.0,61.28532458,0.86285292
5f63a9ce2e090a0d008d92b7,120,2,2024-02-27T15:39:38.697Z,french_725.wav,0,poule,597,37,5,3,English,M,1,0.1,25.43953492,0.5175718
5f63a9ce2e090a0d008d92b7,120,2,2024-02-27T15:39:38.697Z,french_725.wav,0,poule,597,37,5,3,English,M,2,0.2,31.92964858,1.72668514
5f63a9ce2e090a0d008d92b7,120,2,2024-02-27T15:39:38.697Z,french_725.wav,0,poule,597,37,5,3,English,M,3,0.25666667,-96.80759498,1.79225728
5f63a9ce2e090a0d008d92b7,121,2,2024-02-27T15:39:38.697Z,french_658.wav,0,poule,754,37,5,3,English,M,0,0.0,-96.64822149,1.39139244
5f63a9ce2e090a0d008d92b7,121,2,2024-02-27T15:39:38.697Z,french_658.wav,0,poule,754,37,5,3,English,M,1,0.1,49.0828934,0.52881355
5f63a9ce2e090a0d008d92b7,121,2,2024-02-27T15:39:38.697Z,french_658.wav,0,poule,754,37,5,3,English,M,2,0.2,12.17217875,0.81868418
5f63a9ce2e090a0d008d92b7,121,2,2024-02-27T15:39:38.697Z,french_658.wav,0,poule,754,37,5,3,English,M,3,0.25666667,21.40759607,0.56425508
5f63a9ce2e090a0d008d92b7,122,2,2024-02-27T15:39:38.697Z,french_322.wav,0,pull,1155,37,5,3,English,M,0,0.0,11.21723197,0.46669198
5f63a9ce2e090a0d008d92b7,122,2,2024-02-27T15:39:38.697Z,french_322.wav,0,pull,1155,37,5,3,English,M,1,0.1,71.99064207,0.00506582
5f63a9ce2e090a0d008d92b7,122,2,2024-02-27T15:39:38.697Z,french_322.wav,0,pull,1155,37,5,3,English,M,2,0.2,-70.2949895,0.23170645
5f63a9ce2e090a0d008d92b7,122,2,2024-02-27T15:39:38.697Z,french_322.wav,0,pull,1155,37,5,3,English,M,3,0.25666667,-90.37135255,0.39597554
5f63a9ce2e090a0d008d92b7,123,2,2024-02-27T15:39:38.697Z,french_877.wav,0,poule,1277,37,5,3,English,M,0,0.0,-23.96574217,0.96253444
5f63a9ce2e090a0d008d92b7,123,2,2024-02-27T15:39:38.697Z,french_877.wav,0,poule,1277,37,5,3,English,M,1,0.1,51.07186547,1.01009898
5f63a9ce2e090a0d008d92b7,123,2,2024-02-27T15:39:38.697Z,french_877.wav,0,poule,1277,37,5,3,English,M,2,0.2,26.38223439,1.26042149
5f63a9ce2e090a0d008d92b7,123,2,2024-02-27T15:39:38.697Z,french_877.wav,0,poule,1277,37,5,3,English,M,3,0.25666667,57.01482149,0.37917076
5f63a9ce2e090a0d008d92b7,124,2,2024-02-27T15:39:38.697Z,french_775.wav,0,poule,761,37,5,3,English,M,0,0.0,-25.73289632,0.08278175
5f63a9ce2e090a0d008d92b7,124,2,2024-02-27T15:39:38.697Z,french_775.wav,0,poule,761,37,5,3,English,M,1,0.1,52.55800123,0.7848412
5f63a9ce2e090a0d008d92b7,124,2,2024-02-27T15:39:38.697Z,french_775.wav,0,poule,761,37,5,3,English,M,2,0.2,-82.88064372,1.99473571
5f63a9ce2e090a0d008d92b7,124,2,2024-02-27T15:39:38.697Z,french_775.wav,0,poule,761,37,5,3,English,M,3,0.25666667,71.02003497,0.87564379
5f63a9ce2e090a0d008d92b7,125,2,2024-02-27T15:39:38.697Z,french_738.wav,0,poule,686,37,5,3,English,M,0,0.0,9.63502306,1.8953007
5f63a9ce2e090a0d008d92b7,125,2,2024-02-27T15:39:38.697Z,french_738.wav,0,poule,686,37,5,3,English,M,1,0.1,23.45464863,0.66483685
5f63a9ce2e090a0d008d92b7,125,2,2024-02-27T15:39:38.697Z,french_738.wav,0,poule,686,37,5,3,English,M,2,0.2,-41.48525502,0.56687756
5f63a9ce2e090a0d008d92b7,125,2,2024-02-27T15:39:38.697Z,french_738.wav,0,poule,686,37,5,3,English,M,3,0.25666667,10.13311751,1.74946228
5f63a9ce2e090a0d008d92b7,126,2,2024-02-27T15:39:38.697Z,french_724.wav,0,poule,891,37,5,3,English,M,0,0.0,-58.96674975,0.30578628
5f63a9ce2e090a0d008d92b7,126,2,2024-02-27T15:39:38.697Z,french_724.wav,0,poule,891,37,5,3,English,M,1,0.1,-95.33611412,0.57010607
5f63a9ce2e090a0d008d92b7,126,2,2024-02-27T15:39:38.697Z,french_724.wav,0,poule,891,37,5,3,English,M,2,0.2,-56.69004984,1.33615123
5f63a9ce2e090a0d008d92b7,126,2,2024-02-27T15:39:38.697Z,french_724.wav,0,poule,891,37,5,3,English,M,3,0.25666667,-50.97008283,1.59962144
5f63a9ce2e090a0d008d92b7,127,2,2024-02-27T15:39:38.697Z,french_258.wav,0,pull,648,37,5,3,English,M,0,0.0,49.87761594,0.27922365
5f63a9ce2e090a0d008d92b7,127,2,2024-02-27T15:39:38.697Z,french_258.wav,0,pull,648,37,5,3,English,M,1,0.1,-83.77774399,1.89432374
5f63a9ce2e090a0d008d92b7,127,2,2024-02-27T15:39:38.697Z,french_258.wav,0,pull,648,37,5,3,English,M,2,0.2,58.69904626,0.22934206
5f63a9ce2e090a0d008d92b7,127,2,2024-02-27T15:39:38.697Z,french_258.wav,0,pull,648,37,5,3,English,M,3,0.25666667,-57.68721695,0.35615934
5f63a9ce2e090a0d008d92b7,128,2,2024-02-27T15:39:38.697Z,french_424.wav,0,poule,798,37,5,3,English,M,0,0.0,61.39777876,0.24361375
5f63a9ce2e090a0d008d92b7,128,2,2024-02-27T15:39:38.697Z,french_424.wav,0,poule,798,37,5,3,English,M,1,0.1,-8.76552132,1.04711526
5f63a9ce2e090a0d008d92b7,128,2,2024-02-27T15:39:38.697Z,french_424.wav,0,poule,798,37,5,3,English,M,2,0.2,33.4280736,1.33335174
5f63a9ce2e090a0d008d92b7,128,2,2024-02-27T15:39:38.697Z,french_424.wav,0,poule,798,37,5,3,English,M,3,0.25666667,8.6823295,0.59077303
5f63a9ce2e090a0d008d92b7,129,2,2024-02-27T15:39:38.697Z,french_438.wav,0,poule,743,37,5,3,English,M,0,0.0,38.28600595,0.24947118
5f63a9ce2e090a0d008d92b7,129,2,2024-02-27T15:39:38.697Z,french_438.wav,0,poule,743,37,5,3,English,M,1,0.1,-2.73615403,0.88566368
5f63a9ce2e090a0d008d92b7,129,2,2024-02-27T15:39:38.697Z,french_438.wav,0,poule,743,37,5,3,English,M,2,0.2,-43.32822043,0.23078024
5f63a9ce2e090a0d008d92b7,129,2,2024-02-27T15:39:38.697Z,french_438.wav,0,poule,743,37,5,3,English,M,3,0.25666667,-21.43836029,1.64360752
5f63a9ce2e090a0d008d92b7,130,2,2024-02-27T15:39:38.697Z,french_963.wav,0,poule,613,37,5,3,English,M,0,0.0,47.65214736,0.44378955
5f63a9ce2e090a0d008d92b7,130,2,2024-02-27T15:39:38.697Z,french_963.wav,0,poule,613,37,5,3,English,M,1,0.1,6.38608236,0.94107122
5f63a9ce2e090a0d008d92b7,130,2,2024-02-27T15:39:38.697Z,french_963.wav,0,poule,613,37,5,3,English,M,2,0.2,90.58649254,1.48470349
5f63a9ce2e090a0d008d92b7,130,2,2024-02-27T15:39:38.697Z,french_963.wav,0,poule,613,37,5,3,English,M,3,0.25666667,-7.76898595,1.98203536
5f63a9ce2e090a0d008d92b7,131,2,2024-02-27T15:39:38.697Z,french_418.wav,0,poule,757,37,5,3,English,M,0,0.0,69.65568707,1.45647369
5f63a9ce2e090a0d008d92b7,131,2,2024-02-27T15:39:38.697Z,french_418.wav,0,poule,757,37,5,3,English,M,1,0.1,-73.62960571,0.96644453
5f63a9ce2e090a0d008d92b7,131,2,2024-02-27T15:39:38.697Z,french_418.wav,0,poule,757,37,5,3,English,M,2,0.2,-12.19608601,0.59086709
5f63a9ce2e090a0d008d92b7,131,2,2024-02-27T15:39:38.697Z,french_418.wav,0,poule,757,37,5,3,English,M,3,0.25666667,31.099867,1.25987346
5f63a9ce2e090a0d008d92b7,132,2,2024-02-27T15:39:38.697Z,french_232.wav,0,poule,569,37,5,3,English,M,0,0.0,48.62304181,1.60041799
5f63a9ce2e090a0d008d92b7,132,2,2024-02-27T15:39:38.697Z,french_232.wav,0,poule,569,37,5,3,English,M,1,0.1,-66.91586117,0.5698369
5f63a9ce2e090a0d008d92b7,132,2,2024-02-27T15:39:38.697Z,french_232.wav,0,poule,569,37,5,3,English,M,2,0.2,-71.38800945,1.21368891
5f63a9ce2e090a0d008d92b7,132,2,2024-02-27T15:39:38.697Z,french_232.wav,0,poule,569,37,5,3,English,M,3,0.25666667,32.42157584,1.05085576
5f63a9ce2e090a0d008d92b7,133,2,2024-02-27T15:39:38.697Z,french_576.wav,0,poule,1065,37,5,3,English,M,0,0.0,-77.18723008,1.93193878
5f63a9ce2e090a0d008d92b7,133,2,2024-02-27T15:39:38.697Z,french_576.wav,0,poule,1065,37,5,3,English,M,1,0.1,32.49939157,0.06461953
5f63a9ce2e090a0d008d92b7,133,2,2024-02-27T15:39:38.697Z,french_576.wav,0,poule,1065,37,5,3,English,M,2,0.2,-11.29964886,0.24702868
5f63a9ce2e090a0d008d92b7,133,2,2024-02-27T15:39:38.697Z,french_576.wav,0,poule,1065,37,5,3,English,M,3,0.25666667,24.65334735,1.68209329
5f63a9ce2e090a0d008d92b7,134,2,2024-02-27T15:39:38.697Z,french_781.wav,0,poule,1823,37,5,3,English,M,0,0.0,33.25938538,1.27105286
5f63a9ce2e090a0d008d92b7,134,2,2024-02-27T15:39:38.697Z,french_781.wav,0,poule,1823,37,5,3,English,M,1,0.1,-13.90292419,0.93357863
5f63a9ce2e090a0d008d92b7,134,2,2024-02-27T15:39:38.697Z,french_781.wav,0,poule,1823,37,5,3,English,M,2,0.2,-71.59350782,1.0124146
5f63a9ce2e090a0d008d92b7,134,2,2024-02-27T15:39:38.697Z,french_781.wav,0,poule,1823,37,5,3,English,M,3,0.25666667,57.07291034,0.68511696
5f63a9ce2e090a0d008d92b7,135,2,2024-02-27T15:39:38.697Z,french_336.wav,0,pull,734,37,5,3,English,M,0,0.0,-59.08437243,0.65572155
5f63a9ce2e090a0d008d92b7,135,2,2024-02-27T15:39:38.697Z,french_336.wav,0,pull,734,37,5,3,English,M,1,0.1,-11.33502928,1.68249373
5f63a9ce2e090a0d008d92b7,135,2,2024-02-27T15:39:38.697Z,french_336.wav,0,pull,734,37,5,3,English,M,2,0.2,-8.85944942,0.52457197
5f63a9ce2e090a0d008d92b7,135,2,2024-02-27T15:39:38.697Z,french_336.wav,0,pull,734,37,5,3,English,M,3,0.25666667,-2.33471857,1.1312199
5f63a9ce2e090a0d008d92b7,136,2,2024-02-27T15:39:38.697Z,french_537.wav,0,poule,701,37,5,3,English,M,0,0.0,24.94182708,0.83905816
5f63a9ce2e090a0d008d92b7,136,2,2024-02-27T15:39:38.697Z,french_537.wav,0,poule,701,37,5,3,English,M,1,0.1,44.89034985,0.4078644
5f63a9ce2e090a0d008d92b7,136,2,2024-02-27T15:39:38.697Z,french_537.wav,0,poule,701,37,5,3,English,M,2,0.2,79.4977598,1.66123527
5f63a9ce2e090a0d008d92b7,136,2,2024-02-27T15:39:38.697Z,french_537.wav,0,poule,701,37,5,3,English,M,3,0.25666667,43.46988515,0.90238518
5f63a9ce2e090a0d008d92b7,137,2,2024-02-27T15:39:38.697Z,french_897.wav,0,pull,2926,37,5,3,English,M,0,0.0,-2.62488743,0.95618392
5f63a9ce2e090a0d008d92b7,137,2,2024-02-27T15:39:38.697Z,french_897.wav,0,pull,2926,37,5,3,English,M,1,0.1,-35.09835725,0.97615626
5f63a9ce2e090a0d008d92b7,137,2,2024-02-27T15:39:38.697Z,french_897.wav,0,pull,2926,37,5,3,English,M,2,0.2,-7.90226738,0.33556547
5f63a9ce2e090a0d008d92b7,137,2,2024-02-27T15:39:38.697Z,french_897.wav,0,pull,2926,37,5,3,English,M,3,0.25666667,34.22753828,0.12618193
5f63a9ce2e090a0d008d92b7,138,2,2024-02-27T15:39:38.697Z,french_863.wav,0,poule,560,37,5,3,English,M,0,0.0,30.03534105,0.49205925
5f63a9ce2e090a0d008d92b7,138,2,2024-02-27T15:39:38.697Z,french_863.wav,0,poule,560,37,5,3,English,M,1,0.1,70.10019967,1.5612805
5f63a9ce2e090a0d008d92b7,138,2,2024-02-27T15:39:38.697Z,french_863.wav,0,poule,560,37,5,3,English,M,2,0.2,38.31171189,1.70745742
5f63a9ce2e090a0d008d92b7,138,2,2024-02-27T15:39:38.697Z,french_863.wav,0,poule,560,37,5,3,English,M,3,0.25666667,76.0150774,0.79908683
5f63a9ce2e090a0d008d92b7,139,2,2024-02-27T15:39:38.697Z,french_371.wav,0,poule,483,37,5,3,English,M,0,0.0,31.80119749,0.65227963
5f63a9ce2e090a0d008d92b7,139,2,2024-02-27T15:39:38.697Z,french_371.wav,0,poule,483,37,5,3,English,M,1,0.1,-38.52135119,1.80763105
5f63a9ce2e090a0d008d92b7,139,2,2024-02-27T15:39:38.697Z,french_371.wav,0,poule,483,37,5,3,English,M,2,0.2,9.85895876,1.44692227
5f63a9ce2e090a0d008d92b7,139,2,2024-02-27T15:39:38.697Z,french_371.wav,0,poule,483,37,5,3,English,M,3,0.25666667,79.11511398,1.12716888
5f63a9ce2e090a0d008d92b7,140,2,2024-02-27T15:39:38.697Z,french_734.wav,0,pull,741,37,5,3,English,M,0,0.0,24.54171911,0.95806039
5f63a9ce2e090a0d008d92b7,140,2,2024-02-27T15:39:38.697Z,french_734.wav,0,pull,741,37,5,3,English,M,1,0.1,62.00217695,1.43009574
5f63a9ce2e090a0d008d92b7,140,2,2024-02-27T15:39:38.697Z,french_734.wav,0,pull,741,37,5,3,English,M,2,0.2,-55.547606,0.47319646
5f63a9ce2e090a0d008d92b7,140,2,2024-02-27T15:39:38.697Z,french_734.wav,0,pull,741,37,5,3,English,M,3,0.25666667,25.07561383,0.83118698
5f63a9ce2e090a0d008d92b7,141,2,2024-02-27T15:39:38.697Z,french_228.wav,0,pull,666,37,5,3,English,M,0,0.0,-13.78258648,1.36655769
5f63a9ce2e090a0d008d92b7,141,2,2024-02-27T15:39:38.697Z,french_228.wav,0,pull,666,37,5,3,English,M,1,0.1,27.88870681,1.56643938
5f63a9ce2e090a0d008d92b7,141,2,2024-02-27T15:39:38.697Z,french_228.wav,0,pull,666,37,5,3,English,M,2,0.2,-8.73674486,0.29403468
5f63a9ce2e090a0d008d92b7,141,2,2024-02-27T15:39:38.697Z,french_228.wav,0,pull,666,37,5,3,English,M,3,0.25666667,-13.88179653,0.32348249
5f63a9ce2e090a0d008d92b7,142,2,2024-02-27T15:39:38.697Z,french_730.wav,0,poule,842,37,5,3,English,M,0,0.0,45.92676741,0.18014666
5f63a9ce2e090a0d008d92b7,142,2,2024-02-27T15:39:38.697Z,french_730.wav,0,poule,842,37,5,3,English,M,1,0.1,-44.36449205,1.39371349
5f63a9ce2e090a0d008d92b7,142,2,2024-02-27T15:39:38.697Z,french_730.wav,0,poule,842,37,5,3,English,M,2,0.2,-0.92451291,1.11032992
5f63a9ce2e090a0d008d92b7,142,2,2024-02-27T15:39:38.697Z,french_730.wav,0,poule,842,37,5,3,English,M,3,0.25666667,30.80646356,1.142585
5f63a9ce2e090a0d008d92b7,143,2,2024-02-27T15:39:38.697Z,french_96.wav,0,poule,580,37,5,3,English,M,0,0.0,-35.67204937,1.29614461
5f63a9ce2e090a0d008d92b7,143,2,2024-02-27T15:39:38.697Z,french_96.wav,0,poule,580,37,5,3,English,M,1,0.1,-14.5967046,0.74963508
5f63a9ce2e090a0d008d92b7,143,2,2024-02-27T15:39:38.697Z,french_96.wav,0,poule,580,37,5,3,English,M,2,0.2,23.77171322,0.96397917
5f63a9ce2e090a0d008d92b7,143,2,2024-02-27T15:39:38.697Z,french_96.wav,0,poule,580,37,5,3,English,M,3,0.25666667,-43.45086892,0.69619931
5f63a9ce2e090a0d008d92b7,144,2,2024-02-27T15:39:38.697Z,french_320.wav,0,pull,789,37,5,3,English,M,0,0.0,-12.08882056,1.76987467
5f63a9ce2e090a0d008d92b7,144,2,2024-02-27T15:39:38.697Z,french_320.wav,0,pull,789,37,5,3,English,M,1,0.1,-69.15560276,1.70079501
5f63a9ce2e090a0d008d92b7,144,2,2024-02-27T15:39:38.697Z,french_320.wav,0,pull,789,37,5,3,English,M,2,0.2,33.30000548,0.4524157
5f63a9ce2e090a0d008d92b7,144,2,2024-02-27T15:39:38.697Z,french_320.wav,0,pull,789,37,5,3,English,M,3,0.25666667,-65.44816773,0.78128465
5f63a9ce2e090a0d008d92b7,145,2,2024-02-27T15:39:38.697Z,french_729.wav,0,poule,674,37,5,3,English,M,0,0.0,53.20588085,1.49423138
5f63a9ce2e090a0d008d92b7,145,2,2024-02-27T15:39:38.697Z,french_729.wav,0,poule,674,37,5,3,English,M,1,0.1,89.42375323,0.2074599
5f63a9ce2e090a0d008d92b7,145,2,2024-02-27T15:39:38.697Z,french_729.wav,0,poule,674,37,5,3,English,M,2,0.2,-13.37040397,1.07839331
5f63a9ce2e090a0d008d92b7,145,2,2024-02-27T15:39:38.697Z,french_729.wav,0,poule,674,37,5,3,English,M,3,0.25666667,-26.89484255,0.61183567
5f63a9ce2e090a0d008d92b7,146,2,2024-02-27T15:39:38.697Z,french_973.wav,0,poule,681,37,5,3,English,M,0,0.0,-99.0384004,1.64247416
5f63a9ce2e090a0d008d92b7,146,2,2024-02-27T15:39:38.697Z,french_973.wav,0,poule,681,37,5,3,English,M,1,0.1,40.13117567,0.98090528
5f63a9ce2e090a0d008d92b7,146,2,2024-02-27T15:39:38.697Z,french_973.wav,0,poule,681,37,5,3,English,M,2,0.2,49.54188212,1.75566355
5f63a9ce2e090a0d008d92b7,146,2,2024-02-27T15:39:38.697Z,french_973.wav,0,poule,681,37,5,3,English,M,3,0.25666667,89.60941169,0.64442147
5f63a9ce2e090a0d008d92b7,147,2,2024-02-27T15:39:38.697Z,french_305.wav,0,poule,1329,37,5,3,English,M,0,0.0,-54.69953739,0.89911595
5f63a9ce2e090a0d008d92b7,147,2,2024-02-27T15:39:38.697Z,french_305.wav,0,poule,1329,37,5,3,English,M,1,0.1,-55.57420142,0.95414013
5f63a9ce2e090a0d008d92b7,147,2,2024-02-27T15:39:38.697Z,french_305.wav,0,poule,1329,37,5,3,English,M,2,0.2,69.52625069,1.47998422
5f63a9ce2e090a0d008d92b7,147,2,2024-02-27T15:39:38.697Z,french_305.wav,0,poule,1329,37,5,3,English,M,3,0.25666667,-71.2713804,1.78847242
5f63a9ce2e090a0d008d92b7,148,2,2024-02-27T15:39:38.697Z,french_422.wav,0,pull,1398,37,5,3,English,M,0,0.0,84.96144948,0.57918651
5f63a9ce2e090a0d008d92b7,148,2,2024-02-27T15:39:38.697Z,french_422.wav,0,pull,1398,37,5,3,English,M,1,0.1,-4.96569357,1.20973004
5f63a9ce2e090a0d008d92b7,148,2,2024-02-27T15:39:38.697Z,french_422.wav,0,pull,1398,37,5,3,English,M,2,0.2,9.38898655,0.40935242
5f63a9ce2e090a0d008d92b7,148,2,2024-02-27T15:39:38.697Z,french_422.wav,0,pull,1398,37,5,3,English,M,3,0.25666667,-4.34292742,0.41859168
5f63a9ce2e090a0d008d92b7,149,2,2024-02-27T15:39:38.697Z,french_183.wav,0,poule,572,37,5,3,English,M,0,0.0,-70.39448934,1.64690622
5f63a9ce2e090a0d008d92b7,149,2,2024-02-27T15:39:38.697Z,french_183.wav,0,poule,572,37,5,3,English,M,1,0.1,53.65669982,0.19500459
5f63a9ce2e090a0d008d92b7,149,2,2024-02-27T15:39:38.697Z,french_183.wav,0,poule,572,37,5,3,English,M,2,0.2,-2.56135136,1.70333754
5f63a9ce2e090a0d008d92b7,149,2,2024-02-27T15:39:38.697Z,french_183.wav,0,poule,572,37,5,3,English,M,3,0.25666667,49.12124255,0.71175446
5f63a9ce2e090a0d008d92b7,150,3,2024-02-27T15:39:38.697Z,french_324.wav,0,pull,764,37,5,3,English,M,0,0.0,19.03085887,0.73874118
5f63a9ce2e090a0d008d92b7,150,3,2024-02-27T15:39:38.697Z,french_324.wav,0,pull,764,37,5,3,English,M,1,0.1,67.89064078,0.03678538
5f63a9ce2e090a0d008d92b7,150,3,2024-02-27T15:39:38.697Z,french_324.wav,0,pull,764,37,5,3,English,M,2,0.2,-77.83323733,0.54818629
5f63a9ce2e090a0d008d92b7,150,3,2024-02-27T15:39:38.697Z,french_324.wav,0,pull,764,37,5,3,English,M,3,0.25666667,-13.49414868,1.04853797
5f63a9ce2e090a0d008d92b7,151,3,2024-02-27T15:39:38.697Z,french_843.wav,0,poule,579,37,5,3,English,M,0,0.0,13.6803361,0.65425976
5f63a9ce2e090a0d008d92b7,151,3,2024-02-27T15:39:38.697Z,french_843.wav,0,poule,579,37,5,3,English,M,1,0.1,92.02668438,1.47814853
5f63a9ce2e090a0d008d92b7,151,3,2024-02-27T15:39:38.697Z,french_843.wav,0,poule,579,37,5,3,English,M,2,0.2,-93.52604538,0.78236369
5f63a9ce2e090a0d008d92b7,151,3,2024-02-27T15:39:38.697Z,french_843.wav,0,poule,579,37,5,3,English,M,3,0.25666667,-12.7136852,0.52413001
5f63a9ce2e090a0d008d92b7,152,3,2024-02-27T15:39:38.697Z,french_761.wav,0,poule,599,37,5,3,English,M,0,0.0,-26.32638144,1.05429599
5f63a9ce2e090a0d008d92b7,152,3,2024-02-27T15:39:38.697Z,french_761.wav,0,poule,599,37,5,3,English,M,1,0.1,78.13411122,0.90631559
5f63a9ce2e090a0d008d92b7,152,3,2024-02-27T15:39:38.697Z,french_761.wav,0,poule,599,37,5,3,English,M,2,0.2,-6.36477673,1.36732306
5f63a9ce2e090a0d008d92b7,152,3,2024-02-27T15:39:38.697Z,french_761.wav,0,poule,599,37,5,3,English,M,3,0.25666667,-77.19672863,0.83755281
5f63a9ce2e090a0d008d92b7,153,3,2024-02-27T15:39:38.697Z,french_14.wav,0,poule,1124,37,5,3,English,M,0,0.0,29.04259121,1.27596418
5f63a9ce2e090a0d008d92b7,153,3,2024-02-27T15:39:38.697Z,french_14.wav,0,poule,1124,37,5,3,English,M,1,0.1,-13.93862831,1.81664743
5f63a9ce2e090a0d008d92b7,153,3,2024-02-27T15:39:38.697Z,french_14.wav,0,poule,1124,37,5,3,English,M,2,0.2,-3.57455278,1.61822265
5f63a9ce2e090a0d008d92b7,153,3,2024-02-27T15:39:38.697Z,french_14.wav,0,poule,1124,37,5,3,English,M,3,0.25666667,14.81088412,1.58848758
5f63a9ce2e090a0d008d92b7,154,3,2024-02-27T15:39:38.697Z,french_765.wav,0,poule,1184,37,5,3,English,M,0,0.0,37.74619949,1.94846132
5f63a9ce2e090a0d008d92b7,154,3,2024-02-27T15:39:38.697Z,french_765.wav,0,poule,1184,37,5,3,English,M,1,0.1,35.79177818,0.74629838
5f63a9ce2e090a0d008d92b7,154,3,2024-02-27T15:39:38.697Z,french_765.wav,0,poule,1184,37,5,3,English,M,2,0.2,-4.82792988,1.12672767
5f63a9ce2e090a0d008d92b7,154,3,2024-02-27T15:39:38.697Z,french_765.wav,0,poule,1184,37,5,3,English,M,3,0.25666667,-29.99687949,0.50330326
5f63a9ce2e090a0d008d92b7,155,3,2024-02-27T15:39:38.697Z,french_944.wav,0,pull,892,37,5,3,English,M,0,0.0,-8.30121602,1.41077405
5f63a9ce2e090a0d008d92b7,155,3,2024-02-27T15:39:38.697Z,french_944.wav,0,pull,892,37,5,3,English,M,1,0.1,15.19990023,0.52690475
5f63a9ce2e090a0d008d92b7,155,3,2024-02-27T15:39:38.697Z,french_944.wav,0,pull,892,37,5,3,English,M,2,0.2,-34.54061483,0.23733031
5f63a9ce2e090a0d008d92b7,155,3,2024-02-27T15:39:38.697Z,french_944.wav,0,pull,892,37,5,3,English,M,3,0.25666667,-24.04483863,1.49354387
5f63a9ce2e090a0d008d92b7,156,3,2024-02-27T15:39:38.697Z,french_902.wav,0,poule,502,37,5,3,English,M,0,0.0,27.03523978,0.1459181
5f63a9ce2e090a0d008d92b7,156,3,2024-02-27T15:39:38.697Z,french_902.wav,0,poule,502,37,5,3,English,M,1,0.1,-67.54213764,1.3453624
5f63a9ce2e090a0d008d92b7,156,3,2024-02-27T15:39:38.697Z,french_902.wav,0,poule,502,37,5,3,English,M,2,0.2,21.7683879,1.83277685
5f63a9ce2e090a0d008d92b7,156,3,2024-02-27T15:39:38.697Z,french_902.wav,0,poule,502,37,5,3,English,M,3,0.25666667,-96.90742585,0.52631336
5f63a9ce2e090a0d008d92b7,157,3,2024-02-27T15:39:38.697Z,french_917.wav,0,poule,1153,37,5,3,English,M,0,0.0,50.57286357,1.65201844
5f63a9ce2e090a0d008d92b7,157,3,2024-02-27T15:39:38.697Z,french_917.wav,0,poule,1153,37,5,3,English,M,1,0.1,-63.34867724,1.47811083
5f63a9ce2e090a0d008d92b7,157,3,2024-02-27T15:39:38.697Z,french_917.wav,0,poule,1153,37,5,3,English,M,2,0.2,6.48628749,1.28993383
5f63a9ce2e090a0d008d92b7,157,3,2024-02-27T15:39:38.697Z,french_917.wav,0,poule,1153,37,5,3,English,M,3,0.25666667,42.71671415,0.78276191
5f63a9ce2e090a0d008d92b7,158,3,2024-02-27T15:39:38.697Z,french_71.wav,0,poule,611,37,5,3,English,M,0,0.0,-97.29707499,0.6163898
5f63a9ce2e090a0d008d92b7,158,3,2024-02-27T15:39:38.697Z,french_71.wav,0,poule,611,37,5,3,English,M,1,0.1,41.74238765,1.06775198
5f63a9ce2e090a0d008d92b7,158,3,2024-02-27T15:39:38.697Z,french_71.wav,0,poule,611,37,5,3,English,M,2,0.2,-91.89336592,1.31906527
5f63a9ce2e090a0d008d92b7,158,3,2024-02-27T15:39:38.697Z,french_71.wav,0,poule,611,37,5,3,English,M,3,0.25666667,53.06515209,0.58556407
5f63a9ce2e090a0d008d92b7,159,3,2024-02-27T15:39:38.697Z,french_638.wav,0,poule,488,37,5,3,English,M,0,0.0,-18.90498038,0.47409532
5f63a9ce2e090a0d008d92b7,159,3,2024-02-27T15:39:38.697Z,french_638.wav,0,poule,488,37,5,3,English,M,1,0.1,-28.86355513,1.76910273
5f63a9ce2e090a0d008d92b7,159,3,2024-02-27T15:39:38.697Z,french_638.wav,0,poule,488,37,5,3,English,M,2,0.2,-97.62198235,0.72222374
5f63a9ce2e090a0d008d92b7,159,3,2024-02-27T15:39:38.697Z,french_638.wav,0,poule,488,37,5,3,English,M,3,0.25666667,26.30993693,0.09803926
5f63a9ce2e090a0d008d92b7,160,3,2024-02-27T15:39:38.697Z,french_75.wav,0,pull,787,37,5,3,English,M,0,0.0,-2.54190785,0.75594209
5f63a9ce2e090a0d008d92b7,160,3,2024-02-27T15:39:38.697Z,french_75.wav,0,pull,787,37,5,3,English,M,1,0.1,-18.79561653,0.77713134
5f63a9ce2e090a0d008d92b7,160,3,2024-02-27T15:39:38.697Z,french_75.wav,0,pull,787,37,5,3,English,M,2,0.2,-63.16754008,0.0667883
5f63a9ce2e090a0d008d92b7,160,3,2024-02-27T15:39:38.697Z,french_75.wav,0,pull,787,37,5,3,English,M,3,0.25666667,-38.64547488,0.54855801
5f63a9ce2e090a0d008d92b7,161,3,2024-02-27T15:39:38.697Z,french_862.wav,0,pull,627,37,5,3,English,M,0,0.0,99.41401176,0.02807195
5f63a9ce2e090a0d008d92b7,161,3,2024-02-27T15:39:38.697Z,french_862.wav,0,pull,627,37,5,3,English,M,1,0.1,35.25307956,0.7885189
5f63a9ce2e090a0d008d92b7,161,3,2024-02-27T15:39:38.697Z,french_862.wav,0,pull,627,37,5,3,English,M,2,0.2,-56.34938096,0.76649358
5f63a9ce2e090a0d008d92b7,161,3,2024-02-27T15:39:38.697Z,french_862.wav,0,pull,627,37,5,3,English,M,3,0.25666667,-51.21225279,1.75346492
5f63a9ce2e090a0d008d92b7,162,3,2024-02-27T15:39:38.697Z,french_871.wav,0,poule,422,37,5,3,English,M,0,0.0,-4.85456223,1.97775754
5f63a9ce2e090a0d008d92b7,162,3,2024-02-27T15:39:38.697Z,french_871.wav,0,poule,422,37,5,3,English,M,1,0.1,78.38715758,1.19373072
5f63a9ce2e090a0d008d92b7,162,3,2024-02-27T15:39:38.697Z,french_871.wav,0,poule,422,37,5,3,English,M,2,0.2,-65.12117647,1.5578529
5f63a9ce2e090a0d008d92b7,162,3,2024-02-27T15:39:38.697Z,french_871.wav,0,poule,422,37,5,3,English,M,3,0.25666667,96.09900544,1.61262149
5f63a9ce2e090a0d008d92b7,163,3,2024-02-27T15:39:38.697Z,french_473.wav,0,poule,1301,37,5,3,English,M,0,0.0,-59.88543895,0.32878746
5f63a9ce2e090a0d008d92b7,163,3,2024-02-27T15:39:38.697Z,french_473.wav,0,poule,1301,37,5,3,English,M,1,0.1,36.52277503,0.29204452
5f63a9ce2e090a0d008d92b7,163,3,2024-02-27T15:39:38.697Z,french_473.wav,0,poule,1301,37,5,3,English,M,2,0.2,-76.47045714,0.65259503
5f63a9ce2e090a0d008d92b7,163,3,2024-02-27T15:39:38.697Z,french_473.wav,0,poule,1301,37,5,3,English,M,3,0.25666667,-69.05057232,0.35645849
5f63a9ce2e090a0d008d92b7,164,3,2024-02-27T15:39:38.697Z,french_794.wav,0,poule,856,37,5,3,English,M,0,0.0,-41.85324617,0.4524196
5f63a9ce2e090a0d008d92b7,164,3,2024-02-27T15:39:38.697Z,french_794.wav,0,poule,856,37,5,3,English,M,1,0.1,1.64774739,1.94571184
5f63a9ce2e090a0d008d92b7,164,3,2024-02-27T15:39:38.697Z,french_794.wav,0,poule,856,37,5,3,English,M,2,0.2,-16.9250465,1.39882797
5f63a9ce2e090a0d008d92b7,164,3,2024-02-27T15:39:38.697Z,french_794.wav,0,poule,856,37,5,3,English,M,3,0.25666667,-47.53807225,0.19962905
5f63a9ce2e090a0d008d92b7,165,3,2024-02-27T15:39:38.697Z,french_184.wav,0,poule,690,37,5,3,English,M,0,0.0,48.36861498,1.86119552
5f63a9ce2e090a0d008d92b7,165,3,2024-02-27T15:39:38.697Z,french_184.wav,0,poule,690,37,5,3,English,M,1,0.1,-2.94347193,0.96576449
5f63a9ce2e090a0d008d92b7,165,3,2024-02-27T15:39:38.697Z,french_184.wav,0,poule,690,37,5,3,English,M,2,0.2,-52.00472355,1.69315982
5f63a9ce2e090a0d008d92b7,165,3,2024-02-27T15:39:38.697Z,french_184.wav,0,poule,690,37,5,3,English,M,3,0.25666667,-36.80137507,0.52689434
5f63a9ce2e090a0d008d92b7,166,3,2024-02-27T15:39:38.697Z,french_663.wav,0,poule,486,37,5,3,English,M,0,0.0,9.26283991,1.50228176
5f63a9ce2e090a0d008d92b7,166,3,2024-02-27T15:39:38.697Z,french_663.wav,0,poule,486,37,5,3,English,M,1,0.1,8.63416543,0.75616041
5f63a9ce2e090a0d008d92b7,166,3,2024-02-27T15:39:38.697Z,french_663.wav,0,poule,486,37,5,3,English,M,2,0.2,-94.49816933,0.98085129
5f63a9ce2e090a0d008d92b7,166,3,2024-02-27T15:39:38.697Z,french_663.wav,0,poule,486,37,5,3,English,M,3,0.25666667,-21.43071833,1.35574544
5f63a9ce2e090a0d008d92b7,167,3,2024-02-27T15:39:38.697Z,french_120.wav,0,poule,689,37,5,3,English,M,0,0.0,59.29212404,1.04724114
5f63a9ce2e090a0d008d92b7,167,3,2024-02-27T15:39:38.697Z,french_120.wav,0,poule,689,37,5,3,English,M,1,0.1,4.80411823,0.97380182
5f63a9ce2e090a0d008d92b7,167,3,2024-02-27T15:39:38.697Z,french_120.wav,0,poule,689,37,5,3,English,M,2,0.2,12.26509955,0.22521264
5f63a9ce2e090a0d008d92b7,167,3,2024-02-27T15:39:38.697Z,french_120.wav,0,poule,689,37,5,3,English,M,3,0.25666667,-79.44354783,0.8027629
5f63a9ce2e090a0d008d92b7,168,3,2024-02-27T15:39:38.697Z,french_58.wav,0,pull,1899,37,5,3,English,M,0,0.0,-93.60375949,1.5756198
5f63a9ce2e090a0d008d92b7,168,3,2024-02-27T15:39:38.697Z,french_58.wav,0,pull,1899,37,5,3,English,M,1,0.1,-58.1861341,0.16904688
5f63a9ce2e090a0d008d92b7,168,3,2024-02-27T15:39:38.697Z,french_58.wav,0,pull,1899,37,5,3,English,M,2,0.2,21.81225572,0.76612631
5f63a9ce2e090a0d008d92b7,168,3,2024-02-27T15:39:38.697Z,french_58.wav,0,pull,1899,37,5,3,English,M,3,0.25666667,-92.64730678,0.1809539
5f63a9ce2e090a0d008d92b7,169,3,2024-02-27T15:39:38.697Z,french_245.wav,0,poule,618,37,5,3,English,M,0,0.0,-61.74573417,0.99313774
5f63a9ce2e090a0d008d92b7,169,3,2024-02-27T15:39:38.697Z,french_245.wav,0,poule,618,37,5,3,English,M,1,0.1,71.88692077,1.19752892
5f63a9ce2e090a0d008d92b7,169,3,2024-02-27T15:39:38.697Z,french_245.wav,0,poule,618,37,5,3,English,M,2,0.2,-28.60272728,1.585112
5f63a9ce2e090a0d008d92b7,169,3,2024-02-27T15:39:38.697Z,french_245.wav,0,poule,618,37,5,3,English,M,3,0.25666667,-6.96353839,1.16753586
5f63a9ce2e090a0d008d92b7,170,3,2024-02-27T15:39:38.697Z,french_11.wav,0,poule,676,37,5,3,English,M,0,0.0,-27.01625533,0.65463853
5f63a9ce2e090a0d008d92b7,170,3,2024-02-27T15:39:38.697Z,french_11.wav,0,poule,676,37,5,3,English,M,1,0.1,30.5454192,0.82547758
5f63a9ce2e090a0d008d92b7,170,3,2024-02-27T15:39:38.697Z,french_11.wav,0,poule,676,37,5,3,English,M,2,0.2,-10.3355652,1.18020414
5f63a9ce2e090a0d008d92b7,170,3,2024-02-27T15:39:38.697Z,french_11.wav,0,poule,676,37,5,3,English,M,3,0.25666667,-1.40658107,0.75245655
5f63a9ce2e090a0d008d92b7,171,3,2024-02-27T15:39:38.697Z,french_508.wav,0,poule,568,37,5,3,English,M,0,0.0,40.98112686,1.35724839
5f63a9ce2e090a0d008d92b7,171,3,2024-02-27T15:39:38.697Z,french_508.wav,0,poule,568,37,5,3,English,M,1,0.1,-56.96831063,1.54051685
5f63a9ce2e090a0d008d92b7,171,3,2024-02-27T15:39:38.697Z,french_508.wav,0,poule,568,37,5,3,English,M,2,0.2,-35.39284842,1.20443674
5f63a9ce2e090a0d008d92b7,171,3,2024-02-27T15:39:38.697Z,french_508.wav,0,poule,568,37,5,3,English,M,3,0.25666667,-19.97238517,1.82942033
5f63a9ce2e090a0d008d92b7,172,3,2024-02-27T15:39:38.697Z,french_869.wav,0,poule,717,37,5,3,English,M,0,0.0,-95.34423084,1.39498671
5f63a9ce2e090a0d008d92b7,172,3,2024-02-27T15:39:38.697Z,french_869.wav,0,poule,717,37,5,3,English,M,1,0.1,11.03315758,1.3153684
5f63a9ce2e090a0d008d92b7,172,3,2024-02-27T15:39:38.697Z,french_869.wav,0,poule,717,37,5,3,English,M,2,0.2,2.57990287,1.42717997
5f63a9ce2e090a0d008d92b7,172,3,2024-02-27T15:39:38.697Z,french_869.wav,0,poule,717,37,5,3,English,M,3,0.25666667,46.09103516,1.20642508
5f63a9ce2e090a0d008d92b7,173,3,2024-02-27T15:39:38.697Z,french_548.wav,0,poule,1125,37,5,3,English,M,0,0.0,1.54236609,0.97335898
5f63a9ce2e090a0d008d92b7,173,3,2024-02-27T15:39:38.697Z,french_548.wav,0,poule,1125,37,5,3,English,M,1,0.1,42.93927178,0.92328993
5f63a9ce2e090a0d008d92b7,173,3,2024-02-27T15:39:38.697Z,french_548.wav,0,poule,1125,37,5,3,English,M,2,0.2,94.14256546,0.31229256
5f63a9ce2e090a0d008d92b7,173,3,2024-02-27T15:39:38.697Z,french_548.wav,0,poule,1125,37,5,3,English,M,3,0.25666667,78.31055202,0.51911246
5f63a9ce2e090a0d008d92b7,174,3,2024-02-27T15:39:38.697Z,french_49.wav,0,poule,570,37,5,3,English,M,0,0.0,-34.40531311,0.38592943
5f63a9ce2e090a0d008d92b7,174,3,2024-02-27T15:39:38.697Z,french_49.wav,0,poule,570,37,5,3,English,M,1,0.1,-47.89713654,0.82636765
5f63a9ce2e090a0d008d92b7,174,3,2024-02-27T15:39:38.697Z,french_49.wav,0,poule,570,37,5,3,English,M,2,0.2,1.74747298,1.60738751
5f63a9ce2e090a0d008d92b7,174,3,2024-02-27T15:39:38.697Z,french_49.wav,0,poule,570,37,5,3,English,M,3,0.25666667,24.1153847,0.61367061
5f63a9ce2e090a0d008d92b7,175,3,2024-02-27T15:39:38.697Z,french_901.wav,0,poule,789,37,5,3,English,M,0,0.0,-25.19173586,1.14646858
5f63a9ce2e090a0d008d92b7,175,3,2024-02-27T15:39:38.697Z,french_901.wav,0,poule,789,37,5,3,English,M,1,0.1,-52.79367362,1.72960478
5f63a9ce2e090a0d008d92b7,175,3,2024-02-27T15:39:38.697Z,french_901.wav,0,poule,789,37,5,3,English,M,2,0.2,31.61264675,1.50121635
5f63a9ce2e090a0d008d92b7,175,3,2024-02-27T15:39:38.697Z,french_901.wav,0,poule,789,37,5,3,English,M,3,0.25666667,-8.05782551,0.87544333
5f63a9ce2e090a0d008d92b7,176,3,2024-02-27T15:39:38.697Z,french_69.wav,0,poule,981,37,5,3,English,M,0,0.0,-60.6968374,1.40310832
5f63a9ce2e090a0d008d92b7,176,3,2024-02-27T15:39:38.697Z,french_69.wav,0,poule,981,37,5,3,English,M,1,0.1,-13.66133732,0.07324596
5f63a9ce2e090a0d008d92b7,176,3,2024-02-27T15:39:38.697Z,french_69.wav,0,poule,981,37,5,3,English,M,2,0.2,-49.05218158,0.92091935
5f63a9ce2e090a0d008d92b7,176,3,2024-02-27T15:39:38.697Z,french_69.wav,0,poule,981,37,5,3,English,M,3,0.25666667,-62.82393396,0.56730757
5f63a9ce2e090a0d008d92b7,177,3,2024-02-27T15:39:38.697Z,french_778.wav,0,poule,575,37,5,3,English,M,0,0.0,-2.76577218,0.74255963
5f63a9ce2e090a0d008d92b7,177,3,2024-02-27T15:39:38.697Z,french_778.wav,0,poule,575,37,5,3,English,M,1,0.1,4.49344871,1.48176587
5f63a9ce2e090a0d008d92b7,177,3,2024-02-27T15:39:38.697Z,french_778.wav,0,poule,575,37,5,3,English,M,2,0.2,68.81762054,1.59399306
5f63a9ce2e090a0d008d92b7,177,3,2024-02-27T15:39:38.697Z,french_778.wav,0,poule,575,37,5,3,English,M,3,0.25666667,89.13075651,1.18058537
5f63a9ce2e090a0d008d92b7,178,3,2024-02-27T15:39:38.697Z,french_1000.wav,0,poule,614,37,5,3,English,M,0,0.0,-14.94486739,0.60674079
5f63a9ce2e090a0d008d92b7,178,3,2024-02-27T15:39:38.697Z,french_1000.wav,0,poule,614,37,5,3,English,M,1,0.1,-3.70752284,0.18450848
5f63a9ce2e090a0d008d92b7,178,3,2024-02-27T15:39:38.697Z,french_1000.wav,0,poule,614,37,5,3,English,M,2,0.2,-14.04083749,1.64475948
5f63a9ce2e090a0d008d92b7,178,3,2024-02-27T15:39:38.697Z,french_1000.wav,0,poule,614,37,5,3,English,M,3,0.25666667,-29.27941665,0.26397745
5f63a9ce2e090a0d008d92b7,179,3,2024-02-27T15:39:38.697Z,french_501.wav,0,pull,1021,37,5,3,English,M,0,0.0,-56.11865097,1.37224371
5f63a9ce2e090a0d008d92b7,179,3,2024-02-27T15:39:38.697Z,french_501.wav,0,pull,1021,37,5,3,English,M,1,0.1,-7.09029516,0.68301448
5f63a9ce2e090a0d008d92b7,179,3,2024-02-27T15:39:38.697Z,french_501.wav,0,pull,1021,37,5,3,English,M,2,0.2,-36.29429224,0.41531668
5f63a9ce2e090a0d008d92b7,179,3,2024-02-27T15:39:38.697Z,french_501.wav,0,pull,1021,37,5,3,English,M,3,0.25666667,-11.40231031,0.4885534
5f63a9ce2e090a0d008d92b7,180,3,2024-02-27T15:39:38.697Z,french_181.wav,0,poule,511,37,5,3,English,M,0,0.0,52.63626805,0.9763228
5f63a9ce2e090a0d008d92b7,180,3,2024-02-27T15:39:38.697Z,french_181.wav,0,poule,511,37,5,3,English,M,1,0.1,57.50479679,1.59974154
5f63a9ce2e090a0d008d92b7,180,3,2024-02-27T15:39:38.697Z,french_181.wav,0,poule,511,37,5,3,English,M,2,0.2,-83.63706112,1.01502959
5f63a9ce2e090a0d008d92b7,180,3,2024-02-27T15:39:38.697Z,french_181.wav,0,poule,511,37,5,3,English,M,3,0.25666667,-1.92902825,0.93700507
5f63a9ce2e090a0d008d92b7,181,3,2024-02-27T15:39:38.697Z,french_292.wav,0,pull,799,37,5,3,English,M,0,0.0,-5.98307963,1.30181039
5f63a9ce2e090a0d008d92b7,181,3,2024-02-27T15:39:38.697Z,french_292.wav,0,pull,799,37,5,3,English,M,1,0.1,-89.4143915,0.71580693
5f63a9ce2e090a0d008d92b7,181,3,2024-02-27T15:39:38.697Z,french_292.wav,0,pull,799,37,5,3,English,M,2,0.2,50.82370108,0.58623796
5f63a9ce2e090a0d008d92b7,181,3,2024-02-27T15:39:38.697Z,french_292.wav,0,pull,799,37,5,3,English,M,3,0.25666667,-75.87081721,1.49080339
5f63a9ce2e090a0d008d92b7,182,3,2024-02-27T15:39:38.697Z,french_303.wav,0,pull,592,37,5,3,English,M,0,0.0,-37.35678584,1.71041427
5f63a9ce2e090a0d008d92b7,182,3,2024-02-27T15:39:38.697Z,french_303.wav,0,pull,592,37,5,3,English,M,1,0.1,-60.74389767,0.8709471
5f63a9ce2e090a0d008d92b7,182,3,2024-02-27T15:39:38.697Z,french_303.wav,0,pull,592,37,5,3,English,M,2,0.2,74.2341812,1.02400634
5f63a9ce2e090a0d008d92b7,182,3,2024-02-27T15:39:38.697Z,french_303.wav,0,pull,592,37,5,3,English,M,3,0.25666667,74.10759125,0.07072526
5f63a9ce2e090a0d008d92b7,183,3,2024-02-27T15:39:38.697Z,french_83.wav,0,poule,489,37,5,3,English,M,0,0.0,45.44740295,0.80263788
5f63a9ce2e090a0d008d92b7,183,3,2024-02-27T15:39:38.697Z,french_83.wav,0,poule,489,37,5,3,English,M,1,0.1,42.82646372,1.96742974
5f63a9ce2e090a0d008d92b7,183,3,2024-02-27T15:39:38.697Z,french_83.wav,0,poule,489,37,5,3,English,M,2,0.2,-9.21139132,0.40483772
5f63a9ce2e090a0d008d92b7,183,3,2024-02-27T15:39:38.697Z,french_83.wav,0,poule,489,37,5,3,English,M,3,0.25666667,30.29486893,0.1024326
5f63a9ce2e090a0d008d92b7,184,3,2024-02-27T15:39:38.697Z,french_625.wav,0,poule,600,37,5,3,English,M,0,0.0,79.19979266,0.47634137
5f63a9ce2e090a0d008d92b7,184,3,2024-02-27T15:39:38.697Z,french_625.wav,0,poule,600,37,5,3,English,M,1,0.1,14.54258285,0.73497705
5f63a9ce2e090a0d008d92b7,184,3,2024-02-27T15:39:38.697Z,french_625.wav,0,poule,600,37,5,3,English,M,2,0.2,86.07148008,0.05854955
5f63a9ce2e090a0d008d92b7,184,3,2024-02-27T15:39:38.697Z,french_625.wav,0,poule,600,37,5,3,English,M,3,0.25666667,45.85831434,0.79046633
5f63a9ce2e090a0d008d92b7,185,3,2024-02-27T15:39:38.697Z,french_595.wav,0,poule,1588,37,5,3,English,M,0,0.0,-73.15061419,1.40746522
5f63a9ce2e090a0d008d92b7,185,3,2024-02-27T15:39:38.697Z,french_595.wav,0,poule,1588,37,5,3,English,M,1,0.1,67.23643261,0.48150889
5f63a9ce2e090a0d008d92b7,185,3,2024-02-27T15:39:38.697Z,french_595.wav,0,poule,1588,37,5,3,English,M,2,0.2,29.33444659,0.65461581
5f63a9ce2e090a0d008d92b7,185,3,2024-02-27T15:39:38.697Z,french_595.wav,0,poule,1588,37,5,3,English,M,3,0.25666667,-65.67909684,0.62395538
5f63a9ce2e090a0d008d92b7,186,3,2024-02-27T15:39:38.697Z,french_762.wav,0,poule,671,37,5,3,English,M,0,0.0,-45.61990315,0.95776955
5f63a9ce2e090a0d008d92b7,186,3,2024-02-27T15:39:38.697Z,french_762.wav,0,poule,671,37,5,3,English,M,1,0.1,-38.16727298,0.16992331
5f63a9ce2e090a0d008d92b7,186,3,2024-02-27T15:39:38.697Z,french_762.wav,0,poule,671,37,5,3,English,M,2,0.2,-15.44626984,1.21301125
5f63a9ce2e090a0d008d92b7,186,3,2024-02-27T15:39:38.697Z,french_762.wav,0,poule,671,37,5,3,English,M,3,0.25666667,-31.31206952,0.49399223
5f63a9ce2e090a0d008d92b7,187,3,2024-02-27T15:39:38.697Z,french_348.wav,0,poule,694,37,5,3,English,M,0,0.0,68.47734878,1.61227716
5f63a9ce2e090a0d008d92b7,187,3,2024-02-27T15:39:38.697Z,french_348.wav,0,poule,694,37,5,3,English,M,1,0.1,54.05190865,0.93770463
5f63a9ce2e090a0d008d92b7,187,3,2024-02-27T15:39:38.697Z,french_348.wav,0,poule,694,37,5,3,English,M,2,0.2,0.19125453,1.53689085
5f63a9ce2e090a0d008d92b7,187,3,2024-02-27T15:39:38.697Z,french_348.wav,0,poule,694,37,5,3,English,M,3,0.25666667,-34.65909089,1.17337711
5f63a9ce2e090a0d008d92b7,188,3,2024-02-27T15:39:38.697Z,french_485.wav,0,poule,707,37,5,3,English,M,0,0.0,49.72116837,1.80184077
5f63a9ce2e090a0d008d92b7,188,3,2024-02-27T15:39:38.697Z,french_485.wav,0,poule,707,37,5,3,English,M,1,0.1,30.83147643,1.80095915
5f63a9ce2e090a0d008d92b7,188,3,2024-02-27T15:39:38.697Z,french_485.wav,0,poule,707,37,5,3,English,M,2,0.2,37.98454641,1.42682554
5f63a9ce2e090a0d008d92b7,188,3,2024-02-27T15:39:38.697Z,french_485.wav,0,poule,707,37,5,3,English,M,3,0.25666667,-93.0468476,0.86529676
5f63a9ce2e090a0d008d92b7,189,3,2024-02-27T15:39:38.697Z,french_64.wav,0,poule,1274,37,5,3,English,M,0,0.0,-2.85479512,1.8205441
5f63a9ce2e090a0d008d92b7,189,3,2024-02-27T15:39:38.697Z,french_64.wav,0,poule,1274,37,5,3,English,M,1,0.1,-22.43053594,0.65122302
5f63a9ce2e090a0d008d92b7,189,3,2024-02-27T15:39:38.697Z,french_64.wav,0,poule,1274,37,5,3,English,M,2,0.2,99.07991634,0.54405082
5f63a9ce2e090a0d008d92b7,189,3,2024-02-27T15:39:38.697Z,french_64.wav,0,poule,1274,37,5,3,English,M,3,0.25666667,-6.95169827,0.02019369
5f63a9ce2e090a0d008d92b7,190,3,2024-02-27T15:39:38.697Z,french_649.wav,0,pull,737,37,5,3,English,M,0,0.0,-26.84796804,0.38564107
5f63a9ce2e090a0d008d92b7,190,3,2024-02-27T15:39:38.697Z,french_649.wav,0,pull,737,37,5,3,English,M,1,0.1,90.50092835,0.07645681
5f63a9ce2e090a0d008d92b7,190,3,2024-02-27T15:39:38.697Z,french_649.wav,0,pull,737,37,5,3,English,M,2,0.2,-42.32642697,0.18898029
5f63a9ce2e090a0d008d92b7,190,3,2024-02-27T15:39:38.697Z,french_649.wav,0,pull,737,37,5,3,English,M,3,0.25666667,-6.05454316,0.88659006
5f63a9ce2e090a0d008d92b7,191,3,2024-02-27T15:39:38.697Z,french_528.wav,0,poule,1768,37,5,3,English,M,0,0.0,88.85530458,1.69331748
5f63a9ce2e090a0d008d92b7,191,3,2024-02-27T15:39:38.697Z,french_528.wav,0,poule,1768,37,5,3,English,M,1,0.1,-87.19636625,0.73621757
