subj,trial,block,date,stim,stim_order,response,rt,age,english,french,language,sex,param_index,segment,pitch,stretch
6111a7ef0b637b8d0eca2053,0,0,2024-02-27T11:56:49.162Z,french_984.wav,0,poule,1604,36,5,4,l'anglais et francais,f,0,0.0,-47.91850728,0.65620753
6111a7ef0b637b8d0eca2053,0,0,2024-02-27T11:56:49.162Z,french_984.wav,0,poule,1604,36,5,4,l'anglais et francais,f,1,0.1,26.54192822,0.71747565
6111a7ef0b637b8d0eca2053,0,0,2024-02-27T11:56:49.162Z,french_984.wav,0,poule,1604,36,5,4,l'anglais et francais,f,2,0.2,31.46018772,1.52452255
6111a7ef0b637b8d0eca2053,0,0,2024-02-27T11:56:49.162Z,french_984.wav,0,poule,1604,36,5,4,l'anglais et francais,f,3,0.25666667,54.61358492,1.85839607
6111a7ef0b637b8d0eca2053,1,0,2024-02-27T11:56:49.162Z,french_514.wav,0,poule,6148,36,5,4,l'anglais et francais,f,0,0.0,-99.76210077,0.60226465
6111a7ef0b637b8d0eca2053,1,0,2024-02-27T11:56:49.162Z,french_514.wav,0,poule,6148,36,5,4,l'anglais et francais,f,1,0.1,-57.79872095,0.08785461
6111a7ef0b637b8d0eca2053,1,0,2024-02-27T11:56:49.162Z,french_514.wav,0,poule,6148,36,5,4,l'anglais et francais,f,2,0.2,-51.12304885,1.82353854
6111a7ef0b637b8d0eca2053,1,0,2024-02-27T11:56:49.162Z,french_514.wav,0,poule,6148,36,5,4,l'anglais et francais,f,3,0.25666667,51.53874679,1.77009288
6111a7ef0b637b8d0eca2053,2,0,2024-02-27T11:56:49.162Z,french_710.wav,0,poule,2182,36,5,4,l'anglais et francais,f,0,0.0,-54.00258077,0.87889336
6111a7ef0b637b8d0eca2053,2,0,2024-02-27T11:56:49.162Z,french_710.wav,0,poule,2182,36,5,4,l'anglais et francais,f,1,0.1,34.45486491,0.7692559
6111a7ef0b637b8d0eca2053,2,0,2024-02-27T11:56:49.162Z,french_710.wav,0,poule,2182,36,5,4,l'anglais et francais,f,2,0.2,63.8215693,0.4253567
6111a7ef0b637b8d0eca2053,2,0,2024-02-27T11:56:49.162Z,french_710.wav,0,poule,2182,36,5,4,l'anglais et francais,f,3,0.25666667,15.83931319,0.40649008
6111a7ef0b637b8d0eca2053,3,0,2024-02-27T11:56:49.162Z,french_896.wav,0,pull,1284,36,5,4,l'anglais et francais,f,0,0.0,-50.03367973,0.4350745
6111a7ef0b637b8d0eca2053,3,0,2024-02-27T11:56:49.162Z,french_896.wav,0,pull,1284,36,5,4,l'anglais et francais,f,1,0.1,73.95849411,1.7879982
6111a7ef0b637b8d0eca2053,3,0,2024-02-27T11:56:49.162Z,french_896.wav,0,pull,1284,36,5,4,l'anglais et francais,f,2,0.2,16.78858773,0.61207276
6111a7ef0b637b8d0eca2053,3,0,2024-02-27T11:56:49.162Z,french_896.wav,0,pull,1284,36,5,4,l'anglais et francais,f,3,0.25666667,-49.02431976,0.35432813
6111a7ef0b637b8d0eca2053,4,0,2024-02-27T11:56:49.162Z,french_632.wav,0,poule,1048,36,5,4,l'anglais et francais,f,0,0.0,-75.14768165,1.61991752
6111a7ef0b637b8d0eca2053,4,0,2024-02-27T11:56:49.162Z,french_632.wav,0,poule,1048,36,5,4,l'anglais et francais,f,1,0.1,-2.61560916,1.85762338
6111a7ef0b637b8d0eca2053,4,0,2024-02-27T11:56:49.162Z,french_632.wav,0,poule,1048,36,5,4,l'anglais et francais,f,2,0.2,-59.30318173,1.4379908
6111a7ef0b637b8d0eca2053,4,0,2024-02-27T11:56:49.162Z,french_632.wav,0,poule,1048,36,5,4,l'anglais et francais,f,3,0.25666667,-18.46762736,1.77571767
6111a7ef0b637b8d0eca2053,5,0,2024-02-27T11:56:49.162Z,french_213.wav,0,poule,1375,36,5,4,l'anglais et francais,f,0,0.0,18.19792563,0.91602818
6111a7ef0b637b8d0eca2053,5,0,2024-02-27T11:56:49.162Z,french_213.wav,0,poule,1375,36,5,4,l'anglais et francais,f,1,0.1,59.29536603,0.93215034
6111a7ef0b637b8d0eca2053,5,0,2024-02-27T11:56:49.162Z,french_213.wav,0,poule,1375,36,5,4,l'anglais et francais,f,2,0.2,83.4693574,1.11468909
6111a7ef0b637b8d0eca2053,5,0,2024-02-27T11:56:49.162Z,french_213.wav,0,poule,1375,36,5,4,l'anglais et francais,f,3,0.25666667,-3.87812814,1.61202928
6111a7ef0b637b8d0eca2053,6,0,2024-02-27T11:56:49.162Z,french_796.wav,0,poule,885,36,5,4,l'anglais et francais,f,0,0.0,-38.09805788,1.93486201
6111a7ef0b637b8d0eca2053,6,0,2024-02-27T11:56:49.162Z,french_796.wav,0,poule,885,36,5,4,l'anglais et francais,f,1,0.1,-51.81358868,1.49994235
6111a7ef0b637b8d0eca2053,6,0,2024-02-27T11:56:49.162Z,french_796.wav,0,poule,885,36,5,4,l'anglais et francais,f,2,0.2,88.47322764,1.42581223
6111a7ef0b637b8d0eca2053,6,0,2024-02-27T11:56:49.162Z,french_796.wav,0,poule,885,36,5,4,l'anglais et francais,f,3,0.25666667,-34.90405205,0.47367866
6111a7ef0b637b8d0eca2053,7,0,2024-02-27T11:56:49.162Z,french_262.wav,0,pull,592,36,5,4,l'anglais et francais,f,0,0.0,-64.23156272,0.64961321
6111a7ef0b637b8d0eca2053,7,0,2024-02-27T11:56:49.162Z,french_262.wav,0,pull,592,36,5,4,l'anglais et francais,f,1,0.1,-18.68430003,0.97192609
6111a7ef0b637b8d0eca2053,7,0,2024-02-27T11:56:49.162Z,french_262.wav,0,pull,592,36,5,4,l'anglais et francais,f,2,0.2,-74.67542291,0.40249154
6111a7ef0b637b8d0eca2053,7,0,2024-02-27T11:56:49.162Z,french_262.wav,0,pull,592,36,5,4,l'anglais et francais,f,3,0.25666667,29.36963449,0.8696964
6111a7ef0b637b8d0eca2053,8,0,2024-02-27T11:56:49.162Z,french_285.wav,0,pull,1363,36,5,4,l'anglais et francais,f,0,0.0,-14.06099989,0.21649577
6111a7ef0b637b8d0eca2053,8,0,2024-02-27T11:56:49.162Z,french_285.wav,0,pull,1363,36,5,4,l'anglais et francais,f,1,0.1,-5.26283055,0.66520183
6111a7ef0b637b8d0eca2053,8,0,2024-02-27T11:56:49.162Z,french_285.wav,0,pull,1363,36,5,4,l'anglais et francais,f,2,0.2,18.02137941,0.4490454
6111a7ef0b637b8d0eca2053,8,0,2024-02-27T11:56:49.162Z,french_285.wav,0,pull,1363,36,5,4,l'anglais et francais,f,3,0.25666667,46.27962364,1.92778075
6111a7ef0b637b8d0eca2053,9,0,2024-02-27T11:56:49.162Z,french_267.wav,0,pull,1076,36,5,4,l'anglais et francais,f,0,0.0,-65.51042118,0.47900721
6111a7ef0b637b8d0eca2053,9,0,2024-02-27T11:56:49.162Z,french_267.wav,0,pull,1076,36,5,4,l'anglais et francais,f,1,0.1,15.6710232,1.08471332
6111a7ef0b637b8d0eca2053,9,0,2024-02-27T11:56:49.162Z,french_267.wav,0,pull,1076,36,5,4,l'anglais et francais,f,2,0.2,-16.59501764,0.49268798
6111a7ef0b637b8d0eca2053,9,0,2024-02-27T11:56:49.162Z,french_267.wav,0,pull,1076,36,5,4,l'anglais et francais,f,3,0.25666667,49.75287867,1.54023863
6111a7ef0b637b8d0eca2053,10,0,2024-02-27T11:56:49.162Z,french_286.wav,0,pull,988,36,5,4,l'anglais et francais,f,0,0.0,-12.75776796,0.7334837
6111a7ef0b637b8d0eca2053,10,0,2024-02-27T11:56:49.162Z,french_286.wav,0,pull,988,36,5,4,l'anglais et francais,f,1,0.1,37.83162005,0.13945261
6111a7ef0b637b8d0eca2053,10,0,2024-02-27T11:56:49.162Z,french_286.wav,0,pull,988,36,5,4,l'anglais et francais,f,2,0.2,-73.99987606,0.89700821
6111a7ef0b637b8d0eca2053,10,0,2024-02-27T11:56:49.162Z,french_286.wav,0,pull,988,36,5,4,l'anglais et francais,f,3,0.25666667,-99.59641202,0.06192005
6111a7ef0b637b8d0eca2053,11,0,2024-02-27T11:56:49.162Z,french_657.wav,0,poule,596,36,5,4,l'anglais et francais,f,0,0.0,99.76716584,0.85695778
6111a7ef0b637b8d0eca2053,11,0,2024-02-27T11:56:49.162Z,french_657.wav,0,poule,596,36,5,4,l'anglais et francais,f,1,0.1,11.51898435,1.00645436
6111a7ef0b637b8d0eca2053,11,0,2024-02-27T11:56:49.162Z,french_657.wav,0,poule,596,36,5,4,l'anglais et francais,f,2,0.2,-43.45408234,0.73989588
6111a7ef0b637b8d0eca2053,11,0,2024-02-27T11:56:49.162Z,french_657.wav,0,poule,596,36,5,4,l'anglais et francais,f,3,0.25666667,22.46427071,1.57217431
6111a7ef0b637b8d0eca2053,12,0,2024-02-27T11:56:49.162Z,french_582.wav,0,poule,500,36,5,4,l'anglais et francais,f,0,0.0,1.47980053,0.83350323
6111a7ef0b637b8d0eca2053,12,0,2024-02-27T11:56:49.162Z,french_582.wav,0,poule,500,36,5,4,l'anglais et francais,f,1,0.1,-89.13888063,1.99658076
6111a7ef0b637b8d0eca2053,12,0,2024-02-27T11:56:49.162Z,french_582.wav,0,poule,500,36,5,4,l'anglais et francais,f,2,0.2,1.45566029,0.72464724
6111a7ef0b637b8d0eca2053,12,0,2024-02-27T11:56:49.162Z,french_582.wav,0,poule,500,36,5,4,l'anglais et francais,f,3,0.25666667,-76.25724372,1.09622387
6111a7ef0b637b8d0eca2053,13,0,2024-02-27T11:56:49.162Z,french_978.wav,0,poule,827,36,5,4,l'anglais et francais,f,0,0.0,-36.32035497,0.76958877
6111a7ef0b637b8d0eca2053,13,0,2024-02-27T11:56:49.162Z,french_978.wav,0,poule,827,36,5,4,l'anglais et francais,f,1,0.1,-92.00024605,0.1229223
6111a7ef0b637b8d0eca2053,13,0,2024-02-27T11:56:49.162Z,french_978.wav,0,poule,827,36,5,4,l'anglais et francais,f,2,0.2,-85.64640387,1.83920091
6111a7ef0b637b8d0eca2053,13,0,2024-02-27T11:56:49.162Z,french_978.wav,0,poule,827,36,5,4,l'anglais et francais,f,3,0.25666667,30.4024855,1.45747353
6111a7ef0b637b8d0eca2053,14,0,2024-02-27T11:56:49.162Z,french_458.wav,0,pull,781,36,5,4,l'anglais et francais,f,0,0.0,13.7688173,1.1950835
6111a7ef0b637b8d0eca2053,14,0,2024-02-27T11:56:49.162Z,french_458.wav,0,pull,781,36,5,4,l'anglais et francais,f,1,0.1,19.53863665,0.33129566
6111a7ef0b637b8d0eca2053,14,0,2024-02-27T11:56:49.162Z,french_458.wav,0,pull,781,36,5,4,l'anglais et francais,f,2,0.2,-90.92797006,0.65773392
6111a7ef0b637b8d0eca2053,14,0,2024-02-27T11:56:49.162Z,french_458.wav,0,pull,781,36,5,4,l'anglais et francais,f,3,0.25666667,55.23452131,1.54778139
6111a7ef0b637b8d0eca2053,15,0,2024-02-27T11:56:49.162Z,french_266.wav,0,poule,2689,36,5,4,l'anglais et francais,f,0,0.0,58.27883453,0.79886668
6111a7ef0b637b8d0eca2053,15,0,2024-02-27T11:56:49.162Z,french_266.wav,0,poule,2689,36,5,4,l'anglais et francais,f,1,0.1,-28.04411439,1.49488383
6111a7ef0b637b8d0eca2053,15,0,2024-02-27T11:56:49.162Z,french_266.wav,0,poule,2689,36,5,4,l'anglais et francais,f,2,0.2,-38.46127027,0.15170522
6111a7ef0b637b8d0eca2053,15,0,2024-02-27T11:56:49.162Z,french_266.wav,0,poule,2689,36,5,4,l'anglais et francais,f,3,0.25666667,-84.67234247,1.57053192
6111a7ef0b637b8d0eca2053,16,0,2024-02-27T11:56:49.162Z,french_323.wav,0,pull,814,36,5,4,l'anglais et francais,f,0,0.0,32.98542524,1.64001987
6111a7ef0b637b8d0eca2053,16,0,2024-02-27T11:56:49.162Z,french_323.wav,0,pull,814,36,5,4,l'anglais et francais,f,1,0.1,23.31860642,0.049539
6111a7ef0b637b8d0eca2053,16,0,2024-02-27T11:56:49.162Z,french_323.wav,0,pull,814,36,5,4,l'anglais et francais,f,2,0.2,85.24347173,1.32093022
6111a7ef0b637b8d0eca2053,16,0,2024-02-27T11:56:49.162Z,french_323.wav,0,pull,814,36,5,4,l'anglais et francais,f,3,0.25666667,17.19160257,0.33485384
6111a7ef0b637b8d0eca2053,17,0,2024-02-27T11:56:49.162Z,french_100.wav,0,poule,675,36,5,4,l'anglais et francais,f,0,0.0,-35.75508116,1.72997046
6111a7ef0b637b8d0eca2053,17,0,2024-02-27T11:56:49.162Z,french_100.wav,0,poule,675,36,5,4,l'anglais et francais,f,1,0.1,57.82815341,1.04300978
6111a7ef0b637b8d0eca2053,17,0,2024-02-27T11:56:49.162Z,french_100.wav,0,poule,675,36,5,4,l'anglais et francais,f,2,0.2,31.92112674,1.01595182
6111a7ef0b637b8d0eca2053,17,0,2024-02-27T11:56:49.162Z,french_100.wav,0,poule,675,36,5,4,l'anglais et francais,f,3,0.25666667,34.87308497,1.9286069
6111a7ef0b637b8d0eca2053,18,0,2024-02-27T11:56:49.162Z,french_670.wav,0,pull,874,36,5,4,l'anglais et francais,f,0,0.0,-38.80852857,0.18324618
6111a7ef0b637b8d0eca2053,18,0,2024-02-27T11:56:49.162Z,french_670.wav,0,pull,874,36,5,4,l'anglais et francais,f,1,0.1,-8.64332938,0.81857347
6111a7ef0b637b8d0eca2053,18,0,2024-02-27T11:56:49.162Z,french_670.wav,0,pull,874,36,5,4,l'anglais et francais,f,2,0.2,-55.35683075,1.27404838
6111a7ef0b637b8d0eca2053,18,0,2024-02-27T11:56:49.162Z,french_670.wav,0,pull,874,36,5,4,l'anglais et francais,f,3,0.25666667,17.57735741,1.12537981
6111a7ef0b637b8d0eca2053,19,0,2024-02-27T11:56:49.162Z,french_586.wav,0,poule,495,36,5,4,l'anglais et francais,f,0,0.0,86.96734506,0.62271677
6111a7ef0b637b8d0eca2053,19,0,2024-02-27T11:56:49.162Z,french_586.wav,0,poule,495,36,5,4,l'anglais et francais,f,1,0.1,-8.603444,1.69916535
6111a7ef0b637b8d0eca2053,19,0,2024-02-27T11:56:49.162Z,french_586.wav,0,poule,495,36,5,4,l'anglais et francais,f,2,0.2,11.78169212,1.65961944
6111a7ef0b637b8d0eca2053,19,0,2024-02-27T11:56:49.162Z,french_586.wav,0,poule,495,36,5,4,l'anglais et francais,f,3,0.25666667,14.18547806,1.90120182
6111a7ef0b637b8d0eca2053,20,0,2024-02-27T11:56:49.162Z,french_553.wav,0,pull,596,36,5,4,l'anglais et francais,f,0,0.0,-1.38146628,0.44011383
6111a7ef0b637b8d0eca2053,20,0,2024-02-27T11:56:49.162Z,french_553.wav,0,pull,596,36,5,4,l'anglais et francais,f,1,0.1,-34.28745567,1.14829302
6111a7ef0b637b8d0eca2053,20,0,2024-02-27T11:56:49.162Z,french_553.wav,0,pull,596,36,5,4,l'anglais et francais,f,2,0.2,6.87532462,1.07508961
6111a7ef0b637b8d0eca2053,20,0,2024-02-27T11:56:49.162Z,french_553.wav,0,pull,596,36,5,4,l'anglais et francais,f,3,0.25666667,90.98690029,0.10252166
6111a7ef0b637b8d0eca2053,21,0,2024-02-27T11:56:49.162Z,french_802.wav,0,poule,556,36,5,4,l'anglais et francais,f,0,0.0,-73.24347689,0.39190156
6111a7ef0b637b8d0eca2053,21,0,2024-02-27T11:56:49.162Z,french_802.wav,0,poule,556,36,5,4,l'anglais et francais,f,1,0.1,14.85977478,1.18064228
6111a7ef0b637b8d0eca2053,21,0,2024-02-27T11:56:49.162Z,french_802.wav,0,poule,556,36,5,4,l'anglais et francais,f,2,0.2,-45.72901481,1.4654249
6111a7ef0b637b8d0eca2053,21,0,2024-02-27T11:56:49.162Z,french_802.wav,0,poule,556,36,5,4,l'anglais et francais,f,3,0.25666667,-78.69015161,0.6030906
6111a7ef0b637b8d0eca2053,22,0,2024-02-27T11:56:49.162Z,french_387.wav,0,pull,517,36,5,4,l'anglais et francais,f,0,0.0,-24.2271051,0.1957751
6111a7ef0b637b8d0eca2053,22,0,2024-02-27T11:56:49.162Z,french_387.wav,0,pull,517,36,5,4,l'anglais et francais,f,1,0.1,-69.58889879,0.86781049
6111a7ef0b637b8d0eca2053,22,0,2024-02-27T11:56:49.162Z,french_387.wav,0,pull,517,36,5,4,l'anglais et francais,f,2,0.2,21.02997226,1.73501265
6111a7ef0b637b8d0eca2053,22,0,2024-02-27T11:56:49.162Z,french_387.wav,0,pull,517,36,5,4,l'anglais et francais,f,3,0.25666667,58.82746302,1.75042849
6111a7ef0b637b8d0eca2053,23,0,2024-02-27T11:56:49.162Z,french_724.wav,0,pull,1707,36,5,4,l'anglais et francais,f,0,0.0,-58.96674975,0.30578628
6111a7ef0b637b8d0eca2053,23,0,2024-02-27T11:56:49.162Z,french_724.wav,0,pull,1707,36,5,4,l'anglais et francais,f,1,0.1,-95.33611412,0.57010607
6111a7ef0b637b8d0eca2053,23,0,2024-02-27T11:56:49.162Z,french_724.wav,0,pull,1707,36,5,4,l'anglais et francais,f,2,0.2,-56.69004984,1.33615123
6111a7ef0b637b8d0eca2053,23,0,2024-02-27T11:56:49.162Z,french_724.wav,0,pull,1707,36,5,4,l'anglais et francais,f,3,0.25666667,-50.97008283,1.59962144
6111a7ef0b637b8d0eca2053,24,0,2024-02-27T11:56:49.162Z,french_882.wav,0,pull,639,36,5,4,l'anglais et francais,f,0,0.0,-76.64131244,0.67668261
6111a7ef0b637b8d0eca2053,24,0,2024-02-27T11:56:49.162Z,french_882.wav,0,pull,639,36,5,4,l'anglais et francais,f,1,0.1,-39.91871486,0.28498495
6111a7ef0b637b8d0eca2053,24,0,2024-02-27T11:56:49.162Z,french_882.wav,0,pull,639,36,5,4,l'anglais et francais,f,2,0.2,-10.31613543,0.59130788
6111a7ef0b637b8d0eca2053,24,0,2024-02-27T11:56:49.162Z,french_882.wav,0,pull,639,36,5,4,l'anglais et francais,f,3,0.25666667,20.39966841,1.12904738
6111a7ef0b637b8d0eca2053,25,0,2024-02-27T11:56:49.162Z,french_320.wav,0,poule,509,36,5,4,l'anglais et francais,f,0,0.0,-12.08882056,1.76987467
6111a7ef0b637b8d0eca2053,25,0,2024-02-27T11:56:49.162Z,french_320.wav,0,poule,509,36,5,4,l'anglais et francais,f,1,0.1,-69.15560276,1.70079501
6111a7ef0b637b8d0eca2053,25,0,2024-02-27T11:56:49.162Z,french_320.wav,0,poule,509,36,5,4,l'anglais et francais,f,2,0.2,33.30000548,0.4524157
6111a7ef0b637b8d0eca2053,25,0,2024-02-27T11:56:49.162Z,french_320.wav,0,poule,509,36,5,4,l'anglais et francais,f,3,0.25666667,-65.44816773,0.78128465
6111a7ef0b637b8d0eca2053,26,0,2024-02-27T11:56:49.162Z,french_292.wav,0,pull,584,36,5,4,l'anglais et francais,f,0,0.0,-5.98307963,1.30181039
6111a7ef0b637b8d0eca2053,26,0,2024-02-27T11:56:49.162Z,french_292.wav,0,pull,584,36,5,4,l'anglais et francais,f,1,0.1,-89.4143915,0.71580693
6111a7ef0b637b8d0eca2053,26,0,2024-02-27T11:56:49.162Z,french_292.wav,0,pull,584,36,5,4,l'anglais et francais,f,2,0.2,50.82370108,0.58623796
6111a7ef0b637b8d0eca2053,26,0,2024-02-27T11:56:49.162Z,french_292.wav,0,pull,584,36,5,4,l'anglais et francais,f,3,0.25666667,-75.87081721,1.49080339
6111a7ef0b637b8d0eca2053,27,0,2024-02-27T11:56:49.162Z,french_177.wav,0,pull,1397,36,5,4,l'anglais et francais,f,0,0.0,-69.89314337,1.41470617
6111a7ef0b637b8d0eca2053,27,0,2024-02-27T11:56:49.162Z,french_177.wav,0,pull,1397,36,5,4,l'anglais et francais,f,1,0.1,8.10824913,0.24806543
6111a7ef0b637b8d0eca2053,27,0,2024-02-27T11:56:49.162Z,french_177.wav,0,pull,1397,36,5,4,l'anglais et francais,f,2,0.2,41.02901981,1.01013957
6111a7ef0b637b8d0eca2053,27,0,2024-02-27T11:56:49.162Z,french_177.wav,0,pull,1397,36,5,4,l'anglais et francais,f,3,0.25666667,-9.46888932,0.18165289
6111a7ef0b637b8d0eca2053,28,0,2024-02-27T11:56:49.162Z,french_912.wav,0,poule,452,36,5,4,l'anglais et francais,f,0,0.0,-0.0923206,1.34654061
6111a7ef0b637b8d0eca2053,28,0,2024-02-27T11:56:49.162Z,french_912.wav,0,poule,452,36,5,4,l'anglais et francais,f,1,0.1,-62.03539144,1.69101872
6111a7ef0b637b8d0eca2053,28,0,2024-02-27T11:56:49.162Z,french_912.wav,0,poule,452,36,5,4,l'anglais et francais,f,2,0.2,9.48123132,1.27014765
6111a7ef0b637b8d0eca2053,28,0,2024-02-27T11:56:49.162Z,french_912.wav,0,poule,452,36,5,4,l'anglais et francais,f,3,0.25666667,-88.73464781,0.10640649
6111a7ef0b637b8d0eca2053,29,0,2024-02-27T11:56:49.162Z,french_691.wav,0,pull,661,36,5,4,l'anglais et francais,f,0,0.0,89.02514599,1.04651451
6111a7ef0b637b8d0eca2053,29,0,2024-02-27T11:56:49.162Z,french_691.wav,0,pull,661,36,5,4,l'anglais et francais,f,1,0.1,84.72414094,1.61938954
6111a7ef0b637b8d0eca2053,29,0,2024-02-27T11:56:49.162Z,french_691.wav,0,pull,661,36,5,4,l'anglais et francais,f,2,0.2,-3.6265137,1.34588415
6111a7ef0b637b8d0eca2053,29,0,2024-02-27T11:56:49.162Z,french_691.wav,0,pull,661,36,5,4,l'anglais et francais,f,3,0.25666667,-99.35319265,1.50620009
6111a7ef0b637b8d0eca2053,30,0,2024-02-27T11:56:49.162Z,french_773.wav,0,poule,551,36,5,4,l'anglais et francais,f,0,0.0,44.49367894,1.02864329
6111a7ef0b637b8d0eca2053,30,0,2024-02-27T11:56:49.162Z,french_773.wav,0,poule,551,36,5,4,l'anglais et francais,f,1,0.1,-3.70834598,1.31333622
6111a7ef0b637b8d0eca2053,30,0,2024-02-27T11:56:49.162Z,french_773.wav,0,poule,551,36,5,4,l'anglais et francais,f,2,0.2,10.6701804,0.86217131
6111a7ef0b637b8d0eca2053,30,0,2024-02-27T11:56:49.162Z,french_773.wav,0,poule,551,36,5,4,l'anglais et francais,f,3,0.25666667,36.58697532,0.61318027
6111a7ef0b637b8d0eca2053,31,0,2024-02-27T11:56:49.162Z,french_136.wav,0,poule,566,36,5,4,l'anglais et francais,f,0,0.0,-19.24670356,0.58320819
6111a7ef0b637b8d0eca2053,31,0,2024-02-27T11:56:49.162Z,french_136.wav,0,poule,566,36,5,4,l'anglais et francais,f,1,0.1,-19.07264886,1.75711633
6111a7ef0b637b8d0eca2053,31,0,2024-02-27T11:56:49.162Z,french_136.wav,0,poule,566,36,5,4,l'anglais et francais,f,2,0.2,-15.66011034,0.20485265
6111a7ef0b637b8d0eca2053,31,0,2024-02-27T11:56:49.162Z,french_136.wav,0,poule,566,36,5,4,l'anglais et francais,f,3,0.25666667,-21.38655245,0.63500763
6111a7ef0b637b8d0eca2053,32,0,2024-02-27T11:56:49.162Z,french_260.wav,0,poule,526,36,5,4,l'anglais et francais,f,0,0.0,-3.22947754,0.22766361
6111a7ef0b637b8d0eca2053,32,0,2024-02-27T11:56:49.162Z,french_260.wav,0,poule,526,36,5,4,l'anglais et francais,f,1,0.1,-16.22535722,1.16747398
6111a7ef0b637b8d0eca2053,32,0,2024-02-27T11:56:49.162Z,french_260.wav,0,poule,526,36,5,4,l'anglais et francais,f,2,0.2,-91.54207183,1.39667181
6111a7ef0b637b8d0eca2053,32,0,2024-02-27T11:56:49.162Z,french_260.wav,0,poule,526,36,5,4,l'anglais et francais,f,3,0.25666667,-55.70642268,1.03484551
6111a7ef0b637b8d0eca2053,33,0,2024-02-27T11:56:49.162Z,french_397.wav,0,poule,443,36,5,4,l'anglais et francais,f,0,0.0,-13.81470081,1.26162917
6111a7ef0b637b8d0eca2053,33,0,2024-02-27T11:56:49.162Z,french_397.wav,0,poule,443,36,5,4,l'anglais et francais,f,1,0.1,50.38281738,1.19612478
6111a7ef0b637b8d0eca2053,33,0,2024-02-27T11:56:49.162Z,french_397.wav,0,poule,443,36,5,4,l'anglais et francais,f,2,0.2,50.22980228,1.02842354
6111a7ef0b637b8d0eca2053,33,0,2024-02-27T11:56:49.162Z,french_397.wav,0,poule,443,36,5,4,l'anglais et francais,f,3,0.25666667,-83.86271009,0.53389444
6111a7ef0b637b8d0eca2053,34,0,2024-02-27T11:56:49.162Z,french_899.wav,0,pull,528,36,5,4,l'anglais et francais,f,0,0.0,-28.57126009,0.27570035
6111a7ef0b637b8d0eca2053,34,0,2024-02-27T11:56:49.162Z,french_899.wav,0,pull,528,36,5,4,l'anglais et francais,f,1,0.1,-0.09971188,0.02539286
6111a7ef0b637b8d0eca2053,34,0,2024-02-27T11:56:49.162Z,french_899.wav,0,pull,528,36,5,4,l'anglais et francais,f,2,0.2,21.79777269,0.56520269
6111a7ef0b637b8d0eca2053,34,0,2024-02-27T11:56:49.162Z,french_899.wav,0,pull,528,36,5,4,l'anglais et francais,f,3,0.25666667,-88.2290065,1.36421593
6111a7ef0b637b8d0eca2053,35,0,2024-02-27T11:56:49.162Z,french_276.wav,0,poule,739,36,5,4,l'anglais et francais,f,0,0.0,-30.59490391,1.59191255
6111a7ef0b637b8d0eca2053,35,0,2024-02-27T11:56:49.162Z,french_276.wav,0,poule,739,36,5,4,l'anglais et francais,f,1,0.1,35.14119383,1.08920427
6111a7ef0b637b8d0eca2053,35,0,2024-02-27T11:56:49.162Z,french_276.wav,0,poule,739,36,5,4,l'anglais et francais,f,2,0.2,-47.54137466,1.15204711
6111a7ef0b637b8d0eca2053,35,0,2024-02-27T11:56:49.162Z,french_276.wav,0,poule,739,36,5,4,l'anglais et francais,f,3,0.25666667,-36.46330553,0.56107217
6111a7ef0b637b8d0eca2053,36,0,2024-02-27T11:56:49.162Z,french_539.wav,0,poule,435,36,5,4,l'anglais et francais,f,0,0.0,-25.67038427,1.25415191
6111a7ef0b637b8d0eca2053,36,0,2024-02-27T11:56:49.162Z,french_539.wav,0,poule,435,36,5,4,l'anglais et francais,f,1,0.1,48.64308398,1.80742897
6111a7ef0b637b8d0eca2053,36,0,2024-02-27T11:56:49.162Z,french_539.wav,0,poule,435,36,5,4,l'anglais et francais,f,2,0.2,-77.82337419,1.66801057
6111a7ef0b637b8d0eca2053,36,0,2024-02-27T11:56:49.162Z,french_539.wav,0,poule,435,36,5,4,l'anglais et francais,f,3,0.25666667,-42.20378119,0.618258
6111a7ef0b637b8d0eca2053,37,0,2024-02-27T11:56:49.162Z,french_939.wav,0,poule,402,36,5,4,l'anglais et francais,f,0,0.0,26.75853805,1.87296773
6111a7ef0b637b8d0eca2053,37,0,2024-02-27T11:56:49.162Z,french_939.wav,0,poule,402,36,5,4,l'anglais et francais,f,1,0.1,6.19803181,1.06061528
6111a7ef0b637b8d0eca2053,37,0,2024-02-27T11:56:49.162Z,french_939.wav,0,poule,402,36,5,4,l'anglais et francais,f,2,0.2,-16.72335747,1.33482008
6111a7ef0b637b8d0eca2053,37,0,2024-02-27T11:56:49.162Z,french_939.wav,0,poule,402,36,5,4,l'anglais et francais,f,3,0.25666667,96.23810145,0.73381464
6111a7ef0b637b8d0eca2053,38,0,2024-02-27T11:56:49.162Z,french_737.wav,0,pull,429,36,5,4,l'anglais et francais,f,0,0.0,13.02374388,1.19502519
6111a7ef0b637b8d0eca2053,38,0,2024-02-27T11:56:49.162Z,french_737.wav,0,pull,429,36,5,4,l'anglais et francais,f,1,0.1,-10.41694685,0.96501463
6111a7ef0b637b8d0eca2053,38,0,2024-02-27T11:56:49.162Z,french_737.wav,0,pull,429,36,5,4,l'anglais et francais,f,2,0.2,-16.29618142,0.50712422
6111a7ef0b637b8d0eca2053,38,0,2024-02-27T11:56:49.162Z,french_737.wav,0,pull,429,36,5,4,l'anglais et francais,f,3,0.25666667,15.62671798,0.54653665
6111a7ef0b637b8d0eca2053,39,0,2024-02-27T11:56:49.162Z,french_894.wav,0,pull,1005,36,5,4,l'anglais et francais,f,0,0.0,34.15690998,0.96571794
6111a7ef0b637b8d0eca2053,39,0,2024-02-27T11:56:49.162Z,french_894.wav,0,pull,1005,36,5,4,l'anglais et francais,f,1,0.1,66.60232679,0.73360337
6111a7ef0b637b8d0eca2053,39,0,2024-02-27T11:56:49.162Z,french_894.wav,0,pull,1005,36,5,4,l'anglais et francais,f,2,0.2,79.95982278,1.43440198
6111a7ef0b637b8d0eca2053,39,0,2024-02-27T11:56:49.162Z,french_894.wav,0,pull,1005,36,5,4,l'anglais et francais,f,3,0.25666667,-20.39269858,0.64269279
6111a7ef0b637b8d0eca2053,40,0,2024-02-27T11:56:49.162Z,french_408.wav,0,pull,709,36,5,4,l'anglais et francais,f,0,0.0,-97.26027128,0.27661041
6111a7ef0b637b8d0eca2053,40,0,2024-02-27T11:56:49.162Z,french_408.wav,0,pull,709,36,5,4,l'anglais et francais,f,1,0.1,85.50928544,0.07889603
6111a7ef0b637b8d0eca2053,40,0,2024-02-27T11:56:49.162Z,french_408.wav,0,pull,709,36,5,4,l'anglais et francais,f,2,0.2,52.29826895,1.21380046
6111a7ef0b637b8d0eca2053,40,0,2024-02-27T11:56:49.162Z,french_408.wav,0,pull,709,36,5,4,l'anglais et francais,f,3,0.25666667,54.6689314,1.65990502
6111a7ef0b637b8d0eca2053,41,0,2024-02-27T11:56:49.162Z,french_644.wav,0,pull,1005,36,5,4,l'anglais et francais,f,0,0.0,8.48376577,1.03282428
6111a7ef0b637b8d0eca2053,41,0,2024-02-27T11:56:49.162Z,french_644.wav,0,pull,1005,36,5,4,l'anglais et francais,f,1,0.1,5.7720639,1.52915319
6111a7ef0b637b8d0eca2053,41,0,2024-02-27T11:56:49.162Z,french_644.wav,0,pull,1005,36,5,4,l'anglais et francais,f,2,0.2,-22.58890758,0.21561806
6111a7ef0b637b8d0eca2053,41,0,2024-02-27T11:56:49.162Z,french_644.wav,0,pull,1005,36,5,4,l'anglais et francais,f,3,0.25666667,-77.55637272,0.23424831
6111a7ef0b637b8d0eca2053,42,0,2024-02-27T11:56:49.162Z,french_905.wav,0,pull,552,36,5,4,l'anglais et francais,f,0,0.0,87.86620346,1.28585996
6111a7ef0b637b8d0eca2053,42,0,2024-02-27T11:56:49.162Z,french_905.wav,0,pull,552,36,5,4,l'anglais et francais,f,1,0.1,17.88859649,0.57714405
6111a7ef0b637b8d0eca2053,42,0,2024-02-27T11:56:49.162Z,french_905.wav,0,pull,552,36,5,4,l'anglais et francais,f,2,0.2,51.58456374,0.3219524
6111a7ef0b637b8d0eca2053,42,0,2024-02-27T11:56:49.162Z,french_905.wav,0,pull,552,36,5,4,l'anglais et francais,f,3,0.25666667,-98.76806622,1.69480445
6111a7ef0b637b8d0eca2053,43,0,2024-02-27T11:56:49.162Z,french_164.wav,0,poule,334,36,5,4,l'anglais et francais,f,0,0.0,-18.17175111,1.54231832
6111a7ef0b637b8d0eca2053,43,0,2024-02-27T11:56:49.162Z,french_164.wav,0,poule,334,36,5,4,l'anglais et francais,f,1,0.1,76.91542059,0.85273823
6111a7ef0b637b8d0eca2053,43,0,2024-02-27T11:56:49.162Z,french_164.wav,0,poule,334,36,5,4,l'anglais et francais,f,2,0.2,-44.02896165,1.08595521
6111a7ef0b637b8d0eca2053,43,0,2024-02-27T11:56:49.162Z,french_164.wav,0,poule,334,36,5,4,l'anglais et francais,f,3,0.25666667,-52.20678857,1.30612675
6111a7ef0b637b8d0eca2053,44,0,2024-02-27T11:56:49.162Z,french_426.wav,0,pull,635,36,5,4,l'anglais et francais,f,0,0.0,94.83015244,1.95768421
6111a7ef0b637b8d0eca2053,44,0,2024-02-27T11:56:49.162Z,french_426.wav,0,pull,635,36,5,4,l'anglais et francais,f,1,0.1,80.74954266,0.5170286
6111a7ef0b637b8d0eca2053,44,0,2024-02-27T11:56:49.162Z,french_426.wav,0,pull,635,36,5,4,l'anglais et francais,f,2,0.2,14.22402444,0.27456075
6111a7ef0b637b8d0eca2053,44,0,2024-02-27T11:56:49.162Z,french_426.wav,0,pull,635,36,5,4,l'anglais et francais,f,3,0.25666667,92.85203769,1.53042381
6111a7ef0b637b8d0eca2053,45,0,2024-02-27T11:56:49.162Z,french_782.wav,0,pull,621,36,5,4,l'anglais et francais,f,0,0.0,-22.12019493,0.33541309
6111a7ef0b637b8d0eca2053,45,0,2024-02-27T11:56:49.162Z,french_782.wav,0,pull,621,36,5,4,l'anglais et francais,f,1,0.1,4.49416446,0.60665876
6111a7ef0b637b8d0eca2053,45,0,2024-02-27T11:56:49.162Z,french_782.wav,0,pull,621,36,5,4,l'anglais et francais,f,2,0.2,95.81757258,0.65040298
6111a7ef0b637b8d0eca2053,45,0,2024-02-27T11:56:49.162Z,french_782.wav,0,pull,621,36,5,4,l'anglais et francais,f,3,0.25666667,37.17912971,0.93901734
6111a7ef0b637b8d0eca2053,46,0,2024-02-27T11:56:49.162Z,french_523.wav,0,pull,467,36,5,4,l'anglais et francais,f,0,0.0,-20.54401218,1.01178449
6111a7ef0b637b8d0eca2053,46,0,2024-02-27T11:56:49.162Z,french_523.wav,0,pull,467,36,5,4,l'anglais et francais,f,1,0.1,-64.61887171,1.79283511
6111a7ef0b637b8d0eca2053,46,0,2024-02-27T11:56:49.162Z,french_523.wav,0,pull,467,36,5,4,l'anglais et francais,f,2,0.2,-56.67652055,0.92711934
6111a7ef0b637b8d0eca2053,46,0,2024-02-27T11:56:49.162Z,french_523.wav,0,pull,467,36,5,4,l'anglais et francais,f,3,0.25666667,-29.90055738,1.0186138
6111a7ef0b637b8d0eca2053,47,0,2024-02-27T11:56:49.162Z,french_998.wav,0,poule,428,36,5,4,l'anglais et francais,f,0,0.0,41.25843424,1.12001973
6111a7ef0b637b8d0eca2053,47,0,2024-02-27T11:56:49.162Z,french_998.wav,0,poule,428,36,5,4,l'anglais et francais,f,1,0.1,16.31759718,1.22226563
6111a7ef0b637b8d0eca2053,47,0,2024-02-27T11:56:49.162Z,french_998.wav,0,poule,428,36,5,4,l'anglais et francais,f,2,0.2,-45.05489169,1.68799636
6111a7ef0b637b8d0eca2053,47,0,2024-02-27T11:56:49.162Z,french_998.wav,0,poule,428,36,5,4,l'anglais et francais,f,3,0.25666667,-0.1364182,0.6107462
6111a7ef0b637b8d0eca2053,48,0,2024-02-27T11:56:49.162Z,french_975.wav,0,poule,260,36,5,4,l'anglais et francais,f,0,0.0,-26.92402708,1.54282139
6111a7ef0b637b8d0eca2053,48,0,2024-02-27T11:56:49.162Z,french_975.wav,0,poule,260,36,5,4,l'anglais et francais,f,1,0.1,-12.18779535,0.57018571
6111a7ef0b637b8d0eca2053,48,0,2024-02-27T11:56:49.162Z,french_975.wav,0,poule,260,36,5,4,l'anglais et francais,f,2,0.2,-49.74503626,1.72772198
6111a7ef0b637b8d0eca2053,48,0,2024-02-27T11:56:49.162Z,french_975.wav,0,poule,260,36,5,4,l'anglais et francais,f,3,0.25666667,48.08434321,1.83415107
6111a7ef0b637b8d0eca2053,49,0,2024-02-27T11:56:49.162Z,french_861.wav,0,pull,560,36,5,4,l'anglais et francais,f,0,0.0,-47.60379447,1.17561317
6111a7ef0b637b8d0eca2053,49,0,2024-02-27T11:56:49.162Z,french_861.wav,0,pull,560,36,5,4,l'anglais et francais,f,1,0.1,8.05593032,0.12143354
6111a7ef0b637b8d0eca2053,49,0,2024-02-27T11:56:49.162Z,french_861.wav,0,pull,560,36,5,4,l'anglais et francais,f,2,0.2,-18.27545885,0.42948795
6111a7ef0b637b8d0eca2053,49,0,2024-02-27T11:56:49.162Z,french_861.wav,0,pull,560,36,5,4,l'anglais et francais,f,3,0.25666667,49.68481265,0.3832977
6111a7ef0b637b8d0eca2053,50,1,2024-02-27T11:56:49.162Z,french_465.wav,0,pull,751,36,5,4,l'anglais et francais,f,0,0.0,75.74191185,0.24775687
6111a7ef0b637b8d0eca2053,50,1,2024-02-27T11:56:49.162Z,french_465.wav,0,pull,751,36,5,4,l'anglais et francais,f,1,0.1,-78.40057178,0.61634124
6111a7ef0b637b8d0eca2053,50,1,2024-02-27T11:56:49.162Z,french_465.wav,0,pull,751,36,5,4,l'anglais et francais,f,2,0.2,-12.36406326,1.57309013
6111a7ef0b637b8d0eca2053,50,1,2024-02-27T11:56:49.162Z,french_465.wav,0,pull,751,36,5,4,l'anglais et francais,f,3,0.25666667,-26.5706303,0.56284004
6111a7ef0b637b8d0eca2053,51,1,2024-02-27T11:56:49.162Z,french_304.wav,0,pull,816,36,5,4,l'anglais et francais,f,0,0.0,58.70341866,1.21350262
6111a7ef0b637b8d0eca2053,51,1,2024-02-27T11:56:49.162Z,french_304.wav,0,pull,816,36,5,4,l'anglais et francais,f,1,0.1,64.39481967,0.74970721
6111a7ef0b637b8d0eca2053,51,1,2024-02-27T11:56:49.162Z,french_304.wav,0,pull,816,36,5,4,l'anglais et francais,f,2,0.2,24.44185136,0.32537914
6111a7ef0b637b8d0eca2053,51,1,2024-02-27T11:56:49.162Z,french_304.wav,0,pull,816,36,5,4,l'anglais et francais,f,3,0.25666667,-92.24598877,0.12166717
6111a7ef0b637b8d0eca2053,52,1,2024-02-27T11:56:49.162Z,french_588.wav,0,poule,237,36,5,4,l'anglais et francais,f,0,0.0,5.6059992,1.40293782
6111a7ef0b637b8d0eca2053,52,1,2024-02-27T11:56:49.162Z,french_588.wav,0,poule,237,36,5,4,l'anglais et francais,f,1,0.1,-3.58339119,1.60743551
6111a7ef0b637b8d0eca2053,52,1,2024-02-27T11:56:49.162Z,french_588.wav,0,poule,237,36,5,4,l'anglais et francais,f,2,0.2,-47.44163498,0.8250453
6111a7ef0b637b8d0eca2053,52,1,2024-02-27T11:56:49.162Z,french_588.wav,0,poule,237,36,5,4,l'anglais et francais,f,3,0.25666667,15.68204657,1.87203226
6111a7ef0b637b8d0eca2053,53,1,2024-02-27T11:56:49.162Z,french_461.wav,0,poule,386,36,5,4,l'anglais et francais,f,0,0.0,76.34817382,0.72953599
6111a7ef0b637b8d0eca2053,53,1,2024-02-27T11:56:49.162Z,french_461.wav,0,poule,386,36,5,4,l'anglais et francais,f,1,0.1,2.37579461,1.5415695
6111a7ef0b637b8d0eca2053,53,1,2024-02-27T11:56:49.162Z,french_461.wav,0,poule,386,36,5,4,l'anglais et francais,f,2,0.2,-59.90047781,1.01078515
6111a7ef0b637b8d0eca2053,53,1,2024-02-27T11:56:49.162Z,french_461.wav,0,poule,386,36,5,4,l'anglais et francais,f,3,0.25666667,20.08623444,1.02737445
6111a7ef0b637b8d0eca2053,54,1,2024-02-27T11:56:49.162Z,french_532.wav,0,pull,401,36,5,4,l'anglais et francais,f,0,0.0,51.6664435,1.30171402
6111a7ef0b637b8d0eca2053,54,1,2024-02-27T11:56:49.162Z,french_532.wav,0,pull,401,36,5,4,l'anglais et francais,f,1,0.1,12.38327687,0.03929558
6111a7ef0b637b8d0eca2053,54,1,2024-02-27T11:56:49.162Z,french_532.wav,0,pull,401,36,5,4,l'anglais et francais,f,2,0.2,-89.35582175,1.38931331
6111a7ef0b637b8d0eca2053,54,1,2024-02-27T11:56:49.162Z,french_532.wav,0,pull,401,36,5,4,l'anglais et francais,f,3,0.25666667,25.37493155,0.74157834
6111a7ef0b637b8d0eca2053,55,1,2024-02-27T11:56:49.162Z,french_487.wav,0,poule,316,36,5,4,l'anglais et francais,f,0,0.0,26.50580686,1.63350644
6111a7ef0b637b8d0eca2053,55,1,2024-02-27T11:56:49.162Z,french_487.wav,0,poule,316,36,5,4,l'anglais et francais,f,1,0.1,-34.14449754,1.29368608
6111a7ef0b637b8d0eca2053,55,1,2024-02-27T11:56:49.162Z,french_487.wav,0,poule,316,36,5,4,l'anglais et francais,f,2,0.2,66.18137857,0.20656395
6111a7ef0b637b8d0eca2053,55,1,2024-02-27T11:56:49.162Z,french_487.wav,0,poule,316,36,5,4,l'anglais et francais,f,3,0.25666667,-7.03677771,1.93991824
6111a7ef0b637b8d0eca2053,56,1,2024-02-27T11:56:49.162Z,french_258.wav,0,pull,419,36,5,4,l'anglais et francais,f,0,0.0,49.87761594,0.27922365
6111a7ef0b637b8d0eca2053,56,1,2024-02-27T11:56:49.162Z,french_258.wav,0,pull,419,36,5,4,l'anglais et francais,f,1,0.1,-83.77774399,1.89432374
6111a7ef0b637b8d0eca2053,56,1,2024-02-27T11:56:49.162Z,french_258.wav,0,pull,419,36,5,4,l'anglais et francais,f,2,0.2,58.69904626,0.22934206
6111a7ef0b637b8d0eca2053,56,1,2024-02-27T11:56:49.162Z,french_258.wav,0,pull,419,36,5,4,l'anglais et francais,f,3,0.25666667,-57.68721695,0.35615934
6111a7ef0b637b8d0eca2053,57,1,2024-02-27T11:56:49.162Z,french_365.wav,0,poule,266,36,5,4,l'anglais et francais,f,0,0.0,-98.04571794,1.18023288
6111a7ef0b637b8d0eca2053,57,1,2024-02-27T11:56:49.162Z,french_365.wav,0,poule,266,36,5,4,l'anglais et francais,f,1,0.1,-73.67698607,1.95707288
6111a7ef0b637b8d0eca2053,57,1,2024-02-27T11:56:49.162Z,french_365.wav,0,poule,266,36,5,4,l'anglais et francais,f,2,0.2,-96.43604562,0.58641449
6111a7ef0b637b8d0eca2053,57,1,2024-02-27T11:56:49.162Z,french_365.wav,0,poule,266,36,5,4,l'anglais et francais,f,3,0.25666667,37.7893414,1.65360278
6111a7ef0b637b8d0eca2053,58,1,2024-02-27T11:56:49.162Z,french_115.wav,0,pull,775,36,5,4,l'anglais et francais,f,0,0.0,79.30886426,0.55665137
6111a7ef0b637b8d0eca2053,58,1,2024-02-27T11:56:49.162Z,french_115.wav,0,pull,775,36,5,4,l'anglais et francais,f,1,0.1,38.64809671,1.15526328
6111a7ef0b637b8d0eca2053,58,1,2024-02-27T11:56:49.162Z,french_115.wav,0,pull,775,36,5,4,l'anglais et francais,f,2,0.2,24.58912206,1.92727625
6111a7ef0b637b8d0eca2053,58,1,2024-02-27T11:56:49.162Z,french_115.wav,0,pull,775,36,5,4,l'anglais et francais,f,3,0.25666667,-50.07125558,0.36414304
6111a7ef0b637b8d0eca2053,59,1,2024-02-27T11:56:49.162Z,french_92.wav,0,pull,648,36,5,4,l'anglais et francais,f,0,0.0,59.20081487,1.21926368
6111a7ef0b637b8d0eca2053,59,1,2024-02-27T11:56:49.162Z,french_92.wav,0,pull,648,36,5,4,l'anglais et francais,f,1,0.1,95.6548793,1.56053314
6111a7ef0b637b8d0eca2053,59,1,2024-02-27T11:56:49.162Z,french_92.wav,0,pull,648,36,5,4,l'anglais et francais,f,2,0.2,-36.19224385,1.38632022
6111a7ef0b637b8d0eca2053,59,1,2024-02-27T11:56:49.162Z,french_92.wav,0,pull,648,36,5,4,l'anglais et francais,f,3,0.25666667,68.24894855,1.29084252
6111a7ef0b637b8d0eca2053,60,1,2024-02-27T11:56:49.162Z,french_765.wav,0,pull,634,36,5,4,l'anglais et francais,f,0,0.0,37.74619949,1.94846132
6111a7ef0b637b8d0eca2053,60,1,2024-02-27T11:56:49.162Z,french_765.wav,0,pull,634,36,5,4,l'anglais et francais,f,1,0.1,35.79177818,0.74629838
6111a7ef0b637b8d0eca2053,60,1,2024-02-27T11:56:49.162Z,french_765.wav,0,pull,634,36,5,4,l'anglais et francais,f,2,0.2,-4.82792988,1.12672767
6111a7ef0b637b8d0eca2053,60,1,2024-02-27T11:56:49.162Z,french_765.wav,0,pull,634,36,5,4,l'anglais et francais,f,3,0.25666667,-29.99687949,0.50330326
6111a7ef0b637b8d0eca2053,61,1,2024-02-27T11:56:49.162Z,french_259.wav,0,poule,618,36,5,4,l'anglais et francais,f,0,0.0,34.42813613,0.3045902
6111a7ef0b637b8d0eca2053,61,1,2024-02-27T11:56:49.162Z,french_259.wav,0,poule,618,36,5,4,l'anglais et francais,f,1,0.1,10.6054277,0.51228763
6111a7ef0b637b8d0eca2053,61,1,2024-02-27T11:56:49.162Z,french_259.wav,0,poule,618,36,5,4,l'anglais et francais,f,2,0.2,-13.69189805,1.00650156
6111a7ef0b637b8d0eca2053,61,1,2024-02-27T11:56:49.162Z,french_259.wav,0,poule,618,36,5,4,l'anglais et francais,f,3,0.25666667,-89.62004192,1.73437165
6111a7ef0b637b8d0eca2053,62,1,2024-02-27T11:56:49.162Z,french_832.wav,0,poule,1073,36,5,4,l'anglais et francais,f,0,0.0,72.4957568,1.55241154
6111a7ef0b637b8d0eca2053,62,1,2024-02-27T11:56:49.162Z,french_832.wav,0,poule,1073,36,5,4,l'anglais et francais,f,1,0.1,-42.52759542,0.51342339
6111a7ef0b637b8d0eca2053,62,1,2024-02-27T11:56:49.162Z,french_832.wav,0,poule,1073,36,5,4,l'anglais et francais,f,2,0.2,-19.34515336,1.23436829
6111a7ef0b637b8d0eca2053,62,1,2024-02-27T11:56:49.162Z,french_832.wav,0,poule,1073,36,5,4,l'anglais et francais,f,3,0.25666667,29.69631954,0.63501701
6111a7ef0b637b8d0eca2053,63,1,2024-02-27T11:56:49.162Z,french_865.wav,0,poule,1190,36,5,4,l'anglais et francais,f,0,0.0,50.32963137,0.72864737
6111a7ef0b637b8d0eca2053,63,1,2024-02-27T11:56:49.162Z,french_865.wav,0,poule,1190,36,5,4,l'anglais et francais,f,1,0.1,-34.20059836,0.63562985
6111a7ef0b637b8d0eca2053,63,1,2024-02-27T11:56:49.162Z,french_865.wav,0,poule,1190,36,5,4,l'anglais et francais,f,2,0.2,-1.26220982,0.61823994
6111a7ef0b637b8d0eca2053,63,1,2024-02-27T11:56:49.162Z,french_865.wav,0,poule,1190,36,5,4,l'anglais et francais,f,3,0.25666667,-35.44054545,1.79442015
6111a7ef0b637b8d0eca2053,64,1,2024-02-27T11:56:49.162Z,french_396.wav,0,poule,642,36,5,4,l'anglais et francais,f,0,0.0,-42.7744445,0.31798537
6111a7ef0b637b8d0eca2053,64,1,2024-02-27T11:56:49.162Z,french_396.wav,0,poule,642,36,5,4,l'anglais et francais,f,1,0.1,3.59774391,0.67756986
6111a7ef0b637b8d0eca2053,64,1,2024-02-27T11:56:49.162Z,french_396.wav,0,poule,642,36,5,4,l'anglais et francais,f,2,0.2,-86.41595133,1.44355676
6111a7ef0b637b8d0eca2053,64,1,2024-02-27T11:56:49.162Z,french_396.wav,0,poule,642,36,5,4,l'anglais et francais,f,3,0.25666667,76.20152203,1.44326023
6111a7ef0b637b8d0eca2053,65,1,2024-02-27T11:56:49.162Z,french_316.wav,0,pull,683,36,5,4,l'anglais et francais,f,0,0.0,71.43385859,0.02011656
6111a7ef0b637b8d0eca2053,65,1,2024-02-27T11:56:49.162Z,french_316.wav,0,pull,683,36,5,4,l'anglais et francais,f,1,0.1,-31.05932013,1.43477753
6111a7ef0b637b8d0eca2053,65,1,2024-02-27T11:56:49.162Z,french_316.wav,0,pull,683,36,5,4,l'anglais et francais,f,2,0.2,7.51523711,0.06852206
6111a7ef0b637b8d0eca2053,65,1,2024-02-27T11:56:49.162Z,french_316.wav,0,pull,683,36,5,4,l'anglais et francais,f,3,0.25666667,-46.68412198,1.51807936
6111a7ef0b637b8d0eca2053,66,1,2024-02-27T11:56:49.162Z,french_705.wav,0,pull,576,36,5,4,l'anglais et francais,f,0,0.0,-31.52083019,1.71356233
6111a7ef0b637b8d0eca2053,66,1,2024-02-27T11:56:49.162Z,french_705.wav,0,pull,576,36,5,4,l'anglais et francais,f,1,0.1,93.24854214,0.26324818
6111a7ef0b637b8d0eca2053,66,1,2024-02-27T11:56:49.162Z,french_705.wav,0,pull,576,36,5,4,l'anglais et francais,f,2,0.2,-36.26217339,0.66385994
6111a7ef0b637b8d0eca2053,66,1,2024-02-27T11:56:49.162Z,french_705.wav,0,pull,576,36,5,4,l'anglais et francais,f,3,0.25666667,58.31905924,1.85027868
6111a7ef0b637b8d0eca2053,67,1,2024-02-27T11:56:49.162Z,french_488.wav,0,poule,346,36,5,4,l'anglais et francais,f,0,0.0,83.09023231,0.61404301
6111a7ef0b637b8d0eca2053,67,1,2024-02-27T11:56:49.162Z,french_488.wav,0,poule,346,36,5,4,l'anglais et francais,f,1,0.1,31.08155804,1.79467821
6111a7ef0b637b8d0eca2053,67,1,2024-02-27T11:56:49.162Z,french_488.wav,0,poule,346,36,5,4,l'anglais et francais,f,2,0.2,23.00603586,0.24163263
6111a7ef0b637b8d0eca2053,67,1,2024-02-27T11:56:49.162Z,french_488.wav,0,poule,346,36,5,4,l'anglais et francais,f,3,0.25666667,-14.42068905,1.80620701
6111a7ef0b637b8d0eca2053,68,1,2024-02-27T11:56:49.162Z,french_200.wav,0,pull,554,36,5,4,l'anglais et francais,f,0,0.0,-10.65818699,0.95052916
6111a7ef0b637b8d0eca2053,68,1,2024-02-27T11:56:49.162Z,french_200.wav,0,pull,554,36,5,4,l'anglais et francais,f,1,0.1,-8.96413357,0.11424824
6111a7ef0b637b8d0eca2053,68,1,2024-02-27T11:56:49.162Z,french_200.wav,0,pull,554,36,5,4,l'anglais et francais,f,2,0.2,-78.89627616,1.718039
6111a7ef0b637b8d0eca2053,68,1,2024-02-27T11:56:49.162Z,french_200.wav,0,pull,554,36,5,4,l'anglais et francais,f,3,0.25666667,8.01745362,1.42690066
6111a7ef0b637b8d0eca2053,69,1,2024-02-27T11:56:49.162Z,french_603.wav,0,poule,643,36,5,4,l'anglais et francais,f,0,0.0,59.84554137,1.0661988
6111a7ef0b637b8d0eca2053,69,1,2024-02-27T11:56:49.162Z,french_603.wav,0,poule,643,36,5,4,l'anglais et francais,f,1,0.1,16.50437024,1.9988244
6111a7ef0b637b8d0eca2053,69,1,2024-02-27T11:56:49.162Z,french_603.wav,0,poule,643,36,5,4,l'anglais et francais,f,2,0.2,38.82252298,0.61428719
6111a7ef0b637b8d0eca2053,69,1,2024-02-27T11:56:49.162Z,french_603.wav,0,poule,643,36,5,4,l'anglais et francais,f,3,0.25666667,25.72688984,0.58715273
6111a7ef0b637b8d0eca2053,70,1,2024-02-27T11:56:49.162Z,french_331.wav,0,poule,753,36,5,4,l'anglais et francais,f,0,0.0,-65.4197333,1.29365297
6111a7ef0b637b8d0eca2053,70,1,2024-02-27T11:56:49.162Z,french_331.wav,0,poule,753,36,5,4,l'anglais et francais,f,1,0.1,-42.63112693,1.19213918
6111a7ef0b637b8d0eca2053,70,1,2024-02-27T11:56:49.162Z,french_331.wav,0,poule,753,36,5,4,l'anglais et francais,f,2,0.2,-74.29271092,0.93002313
6111a7ef0b637b8d0eca2053,70,1,2024-02-27T11:56:49.162Z,french_331.wav,0,poule,753,36,5,4,l'anglais et francais,f,3,0.25666667,-22.37665177,1.59897964
6111a7ef0b637b8d0eca2053,71,1,2024-02-27T11:56:49.162Z,french_352.wav,0,pull,461,36,5,4,l'anglais et francais,f,0,0.0,74.68489003,0.29948735
6111a7ef0b637b8d0eca2053,71,1,2024-02-27T11:56:49.162Z,french_352.wav,0,pull,461,36,5,4,l'anglais et francais,f,1,0.1,96.39949195,0.51724136
6111a7ef0b637b8d0eca2053,71,1,2024-02-27T11:56:49.162Z,french_352.wav,0,pull,461,36,5,4,l'anglais et francais,f,2,0.2,90.64764472,1.48158799
6111a7ef0b637b8d0eca2053,71,1,2024-02-27T11:56:49.162Z,french_352.wav,0,pull,461,36,5,4,l'anglais et francais,f,3,0.25666667,65.55341103,0.97952247
6111a7ef0b637b8d0eca2053,72,1,2024-02-27T11:56:49.162Z,french_536.wav,0,pull,676,36,5,4,l'anglais et francais,f,0,0.0,68.67423581,1.72386473
6111a7ef0b637b8d0eca2053,72,1,2024-02-27T11:56:49.162Z,french_536.wav,0,pull,676,36,5,4,l'anglais et francais,f,1,0.1,-41.0053329,0.5365144
6111a7ef0b637b8d0eca2053,72,1,2024-02-27T11:56:49.162Z,french_536.wav,0,pull,676,36,5,4,l'anglais et francais,f,2,0.2,83.63020031,1.03248729
6111a7ef0b637b8d0eca2053,72,1,2024-02-27T11:56:49.162Z,french_536.wav,0,pull,676,36,5,4,l'anglais et francais,f,3,0.25666667,91.23175369,0.91736707
6111a7ef0b637b8d0eca2053,73,1,2024-02-27T11:56:49.162Z,french_716.wav,0,pull,572,36,5,4,l'anglais et francais,f,0,0.0,84.94340614,0.02480266
6111a7ef0b637b8d0eca2053,73,1,2024-02-27T11:56:49.162Z,french_716.wav,0,pull,572,36,5,4,l'anglais et francais,f,1,0.1,-26.42004262,1.84645248
6111a7ef0b637b8d0eca2053,73,1,2024-02-27T11:56:49.162Z,french_716.wav,0,pull,572,36,5,4,l'anglais et francais,f,2,0.2,43.13419589,1.11902957
6111a7ef0b637b8d0eca2053,73,1,2024-02-27T11:56:49.162Z,french_716.wav,0,pull,572,36,5,4,l'anglais et francais,f,3,0.25666667,70.01736472,1.71178302
6111a7ef0b637b8d0eca2053,74,1,2024-02-27T11:56:49.162Z,french_639.wav,0,poule,479,36,5,4,l'anglais et francais,f,0,0.0,11.64385005,1.86180111
6111a7ef0b637b8d0eca2053,74,1,2024-02-27T11:56:49.162Z,french_639.wav,0,poule,479,36,5,4,l'anglais et francais,f,1,0.1,-83.53772589,1.31531339
6111a7ef0b637b8d0eca2053,74,1,2024-02-27T11:56:49.162Z,french_639.wav,0,poule,479,36,5,4,l'anglais et francais,f,2,0.2,-26.70113898,0.16484712
6111a7ef0b637b8d0eca2053,74,1,2024-02-27T11:56:49.162Z,french_639.wav,0,poule,479,36,5,4,l'anglais et francais,f,3,0.25666667,-28.21717215,0.08923993
6111a7ef0b637b8d0eca2053,75,1,2024-02-27T11:56:49.162Z,french_816.wav,0,poule,628,36,5,4,l'anglais et francais,f,0,0.0,-39.39804621,1.26291691
6111a7ef0b637b8d0eca2053,75,1,2024-02-27T11:56:49.162Z,french_816.wav,0,poule,628,36,5,4,l'anglais et francais,f,1,0.1,14.23792488,1.60181117
6111a7ef0b637b8d0eca2053,75,1,2024-02-27T11:56:49.162Z,french_816.wav,0,poule,628,36,5,4,l'anglais et francais,f,2,0.2,-84.08825282,0.57012939
6111a7ef0b637b8d0eca2053,75,1,2024-02-27T11:56:49.162Z,french_816.wav,0,poule,628,36,5,4,l'anglais et francais,f,3,0.25666667,-46.46940665,1.06315664
6111a7ef0b637b8d0eca2053,76,1,2024-02-27T11:56:49.162Z,french_14.wav,0,poule,351,36,5,4,l'anglais et francais,f,0,0.0,29.04259121,1.27596418
6111a7ef0b637b8d0eca2053,76,1,2024-02-27T11:56:49.162Z,french_14.wav,0,poule,351,36,5,4,l'anglais et francais,f,1,0.1,-13.93862831,1.81664743
6111a7ef0b637b8d0eca2053,76,1,2024-02-27T11:56:49.162Z,french_14.wav,0,poule,351,36,5,4,l'anglais et francais,f,2,0.2,-3.57455278,1.61822265
6111a7ef0b637b8d0eca2053,76,1,2024-02-27T11:56:49.162Z,french_14.wav,0,poule,351,36,5,4,l'anglais et francais,f,3,0.25666667,14.81088412,1.58848758
6111a7ef0b637b8d0eca2053,77,1,2024-02-27T11:56:49.162Z,french_618.wav,0,pull,1704,36,5,4,l'anglais et francais,f,0,0.0,-48.84080529,0.47316377
6111a7ef0b637b8d0eca2053,77,1,2024-02-27T11:56:49.162Z,french_618.wav,0,pull,1704,36,5,4,l'anglais et francais,f,1,0.1,52.1949693,0.45430598
6111a7ef0b637b8d0eca2053,77,1,2024-02-27T11:56:49.162Z,french_618.wav,0,pull,1704,36,5,4,l'anglais et francais,f,2,0.2,2.68255661,0.75800451
6111a7ef0b637b8d0eca2053,77,1,2024-02-27T11:56:49.162Z,french_618.wav,0,pull,1704,36,5,4,l'anglais et francais,f,3,0.25666667,-32.43465806,0.99622678
6111a7ef0b637b8d0eca2053,78,1,2024-02-27T11:56:49.162Z,french_818.wav,0,poule,541,36,5,4,l'anglais et francais,f,0,0.0,-26.74770248,1.09674102
6111a7ef0b637b8d0eca2053,78,1,2024-02-27T11:56:49.162Z,french_818.wav,0,poule,541,36,5,4,l'anglais et francais,f,1,0.1,-33.54864391,0.98606035
6111a7ef0b637b8d0eca2053,78,1,2024-02-27T11:56:49.162Z,french_818.wav,0,poule,541,36,5,4,l'anglais et francais,f,2,0.2,-23.72939517,1.86933067
6111a7ef0b637b8d0eca2053,78,1,2024-02-27T11:56:49.162Z,french_818.wav,0,poule,541,36,5,4,l'anglais et francais,f,3,0.25666667,53.93300908,0.6204836
6111a7ef0b637b8d0eca2053,79,1,2024-02-27T11:56:49.162Z,french_635.wav,0,poule,996,36,5,4,l'anglais et francais,f,0,0.0,33.90344979,1.89496442
6111a7ef0b637b8d0eca2053,79,1,2024-02-27T11:56:49.162Z,french_635.wav,0,poule,996,36,5,4,l'anglais et francais,f,1,0.1,-75.47627702,0.79794333
6111a7ef0b637b8d0eca2053,79,1,2024-02-27T11:56:49.162Z,french_635.wav,0,poule,996,36,5,4,l'anglais et francais,f,2,0.2,49.7914685,1.70645199
6111a7ef0b637b8d0eca2053,79,1,2024-02-27T11:56:49.162Z,french_635.wav,0,poule,996,36,5,4,l'anglais et francais,f,3,0.25666667,43.41419086,1.41022612
6111a7ef0b637b8d0eca2053,80,1,2024-02-27T11:56:49.162Z,french_269.wav,0,pull,645,36,5,4,l'anglais et francais,f,0,0.0,34.85044548,0.000617924031
6111a7ef0b637b8d0eca2053,80,1,2024-02-27T11:56:49.162Z,french_269.wav,0,pull,645,36,5,4,l'anglais et francais,f,1,0.1,47.51511781,1.05540646
6111a7ef0b637b8d0eca2053,80,1,2024-02-27T11:56:49.162Z,french_269.wav,0,pull,645,36,5,4,l'anglais et francais,f,2,0.2,34.15302515,0.984234213
6111a7ef0b637b8d0eca2053,80,1,2024-02-27T11:56:49.162Z,french_269.wav,0,pull,645,36,5,4,l'anglais et francais,f,3,0.25666667,-55.0259295,0.845106618
6111a7ef0b637b8d0eca2053,81,1,2024-02-27T11:56:49.162Z,french_686.wav,0,poule,293,36,5,4,l'anglais et francais,f,0,0.0,20.49516986,1.86861476
6111a7ef0b637b8d0eca2053,81,1,2024-02-27T11:56:49.162Z,french_686.wav,0,poule,293,36,5,4,l'anglais et francais,f,1,0.1,27.4040505,1.87689714
6111a7ef0b637b8d0eca2053,81,1,2024-02-27T11:56:49.162Z,french_686.wav,0,poule,293,36,5,4,l'anglais et francais,f,2,0.2,31.96095965,0.80940067
6111a7ef0b637b8d0eca2053,81,1,2024-02-27T11:56:49.162Z,french_686.wav,0,poule,293,36,5,4,l'anglais et francais,f,3,0.25666667,61.08066052,0.04075967
6111a7ef0b637b8d0eca2053,82,1,2024-02-27T11:56:49.162Z,french_941.wav,0,poule,393,36,5,4,l'anglais et francais,f,0,0.0,-66.32571195,0.9896497
6111a7ef0b637b8d0eca2053,82,1,2024-02-27T11:56:49.162Z,french_941.wav,0,poule,393,36,5,4,l'anglais et francais,f,1,0.1,85.09907795,0.67654191
6111a7ef0b637b8d0eca2053,82,1,2024-02-27T11:56:49.162Z,french_941.wav,0,poule,393,36,5,4,l'anglais et francais,f,2,0.2,87.37862016,1.4708398
6111a7ef0b637b8d0eca2053,82,1,2024-02-27T11:56:49.162Z,french_941.wav,0,poule,393,36,5,4,l'anglais et francais,f,3,0.25666667,-18.39108149,0.82969394
6111a7ef0b637b8d0eca2053,83,1,2024-02-27T11:56:49.162Z,french_20.wav,0,pull,1085,36,5,4,l'anglais et francais,f,0,0.0,-78.24291845,1.07200279
6111a7ef0b637b8d0eca2053,83,1,2024-02-27T11:56:49.162Z,french_20.wav,0,pull,1085,36,5,4,l'anglais et francais,f,1,0.1,-38.50442353,1.52694999
6111a7ef0b637b8d0eca2053,83,1,2024-02-27T11:56:49.162Z,french_20.wav,0,pull,1085,36,5,4,l'anglais et francais,f,2,0.2,8.39731749,0.86133356
6111a7ef0b637b8d0eca2053,83,1,2024-02-27T11:56:49.162Z,french_20.wav,0,pull,1085,36,5,4,l'anglais et francais,f,3,0.25666667,-43.87764948,0.74788424
6111a7ef0b637b8d0eca2053,84,1,2024-02-27T11:56:49.162Z,french_326.wav,0,poule,526,36,5,4,l'anglais et francais,f,0,0.0,-63.35446608,1.54071776
6111a7ef0b637b8d0eca2053,84,1,2024-02-27T11:56:49.162Z,french_326.wav,0,poule,526,36,5,4,l'anglais et francais,f,1,0.1,12.54179258,0.67448432
6111a7ef0b637b8d0eca2053,84,1,2024-02-27T11:56:49.162Z,french_326.wav,0,poule,526,36,5,4,l'anglais et francais,f,2,0.2,2.59324468,0.56210636
6111a7ef0b637b8d0eca2053,84,1,2024-02-27T11:56:49.162Z,french_326.wav,0,poule,526,36,5,4,l'anglais et francais,f,3,0.25666667,34.92537359,1.5196438
6111a7ef0b637b8d0eca2053,85,1,2024-02-27T11:56:49.162Z,french_733.wav,0,poule,1646,36,5,4,l'anglais et francais,f,0,0.0,96.30835656,1.00234216
6111a7ef0b637b8d0eca2053,85,1,2024-02-27T11:56:49.162Z,french_733.wav,0,poule,1646,36,5,4,l'anglais et francais,f,1,0.1,-16.80147809,0.65355169
6111a7ef0b637b8d0eca2053,85,1,2024-02-27T11:56:49.162Z,french_733.wav,0,poule,1646,36,5,4,l'anglais et francais,f,2,0.2,34.50045069,1.63394937
6111a7ef0b637b8d0eca2053,85,1,2024-02-27T11:56:49.162Z,french_733.wav,0,poule,1646,36,5,4,l'anglais et francais,f,3,0.25666667,-6.11336577,0.15404628
6111a7ef0b637b8d0eca2053,86,1,2024-02-27T11:56:49.162Z,french_717.wav,0,pull,686,36,5,4,l'anglais et francais,f,0,0.0,-84.32189387,1.00877352
6111a7ef0b637b8d0eca2053,86,1,2024-02-27T11:56:49.162Z,french_717.wav,0,pull,686,36,5,4,l'anglais et francais,f,1,0.1,40.2374262,0.42603024
6111a7ef0b637b8d0eca2053,86,1,2024-02-27T11:56:49.162Z,french_717.wav,0,pull,686,36,5,4,l'anglais et francais,f,2,0.2,80.19404777,0.00517131
6111a7ef0b637b8d0eca2053,86,1,2024-02-27T11:56:49.162Z,french_717.wav,0,pull,686,36,5,4,l'anglais et francais,f,3,0.25666667,-31.07147466,1.19241547
6111a7ef0b637b8d0eca2053,87,1,2024-02-27T11:56:49.162Z,french_50.wav,0,poule,302,36,5,4,l'anglais et francais,f,0,0.0,-85.65055263,1.56155391
6111a7ef0b637b8d0eca2053,87,1,2024-02-27T11:56:49.162Z,french_50.wav,0,poule,302,36,5,4,l'anglais et francais,f,1,0.1,-8.41774185,0.5849625
6111a7ef0b637b8d0eca2053,87,1,2024-02-27T11:56:49.162Z,french_50.wav,0,poule,302,36,5,4,l'anglais et francais,f,2,0.2,31.4658541,1.04346227
6111a7ef0b637b8d0eca2053,87,1,2024-02-27T11:56:49.162Z,french_50.wav,0,poule,302,36,5,4,l'anglais et francais,f,3,0.25666667,98.77299977,0.72937699
6111a7ef0b637b8d0eca2053,88,1,2024-02-27T11:56:49.162Z,french_341.wav,0,pull,686,36,5,4,l'anglais et francais,f,0,0.0,20.04332725,1.4438644
6111a7ef0b637b8d0eca2053,88,1,2024-02-27T11:56:49.162Z,french_341.wav,0,pull,686,36,5,4,l'anglais et francais,f,1,0.1,-82.29685822,0.08336385
6111a7ef0b637b8d0eca2053,88,1,2024-02-27T11:56:49.162Z,french_341.wav,0,pull,686,36,5,4,l'anglais et francais,f,2,0.2,-35.12302466,0.04329086
6111a7ef0b637b8d0eca2053,88,1,2024-02-27T11:56:49.162Z,french_341.wav,0,pull,686,36,5,4,l'anglais et francais,f,3,0.25666667,58.90486556,0.76896482
6111a7ef0b637b8d0eca2053,89,1,2024-02-27T11:56:49.162Z,french_891.wav,0,pull,584,36,5,4,l'anglais et francais,f,0,0.0,36.15157251,0.11830574
6111a7ef0b637b8d0eca2053,89,1,2024-02-27T11:56:49.162Z,french_891.wav,0,pull,584,36,5,4,l'anglais et francais,f,1,0.1,9.92087077,0.00778599
6111a7ef0b637b8d0eca2053,89,1,2024-02-27T11:56:49.162Z,french_891.wav,0,pull,584,36,5,4,l'anglais et francais,f,2,0.2,64.79051962,0.40739404
6111a7ef0b637b8d0eca2053,89,1,2024-02-27T11:56:49.162Z,french_891.wav,0,pull,584,36,5,4,l'anglais et francais,f,3,0.25666667,25.43576317,0.71071781
6111a7ef0b637b8d0eca2053,90,1,2024-02-27T11:56:49.162Z,french_147.wav,0,poule,448,36,5,4,l'anglais et francais,f,0,0.0,-8.88234032,0.56903223
6111a7ef0b637b8d0eca2053,90,1,2024-02-27T11:56:49.162Z,french_147.wav,0,poule,448,36,5,4,l'anglais et francais,f,1,0.1,-14.76798318,0.94922216
6111a7ef0b637b8d0eca2053,90,1,2024-02-27T11:56:49.162Z,french_147.wav,0,poule,448,36,5,4,l'anglais et francais,f,2,0.2,-57.87683145,1.80420194
6111a7ef0b637b8d0eca2053,90,1,2024-02-27T11:56:49.162Z,french_147.wav,0,poule,448,36,5,4,l'anglais et francais,f,3,0.25666667,44.89226386,0.62760473
6111a7ef0b637b8d0eca2053,91,1,2024-02-27T11:56:49.162Z,french_327.wav,0,poule,312,36,5,4,l'anglais et francais,f,0,0.0,75.01862194,1.26930687
6111a7ef0b637b8d0eca2053,91,1,2024-02-27T11:56:49.162Z,french_327.wav,0,poule,312,36,5,4,l'anglais et francais,f,1,0.1,-83.8502905,1.47688931
6111a7ef0b637b8d0eca2053,91,1,2024-02-27T11:56:49.162Z,french_327.wav,0,poule,312,36,5,4,l'anglais et francais,f,2,0.2,63.63621512,1.339502
6111a7ef0b637b8d0eca2053,91,1,2024-02-27T11:56:49.162Z,french_327.wav,0,poule,312,36,5,4,l'anglais et francais,f,3,0.25666667,-22.5018405,0.76786237
6111a7ef0b637b8d0eca2053,92,1,2024-02-27T11:56:49.162Z,french_188.wav,0,poule,2198,36,5,4,l'anglais et francais,f,0,0.0,49.6210254,1.07409835
6111a7ef0b637b8d0eca2053,92,1,2024-02-27T11:56:49.162Z,french_188.wav,0,poule,2198,36,5,4,l'anglais et francais,f,1,0.1,-51.2490581,0.05018037
6111a7ef0b637b8d0eca2053,92,1,2024-02-27T11:56:49.162Z,french_188.wav,0,poule,2198,36,5,4,l'anglais et francais,f,2,0.2,40.00177065,1.57813661
6111a7ef0b637b8d0eca2053,92,1,2024-02-27T11:56:49.162Z,french_188.wav,0,poule,2198,36,5,4,l'anglais et francais,f,3,0.25666667,-3.28540475,0.4516863
6111a7ef0b637b8d0eca2053,93,1,2024-02-27T11:56:49.162Z,french_917.wav,0,poule,792,36,5,4,l'anglais et francais,f,0,0.0,50.57286357,1.65201844
6111a7ef0b637b8d0eca2053,93,1,2024-02-27T11:56:49.162Z,french_917.wav,0,poule,792,36,5,4,l'anglais et francais,f,1,0.1,-63.34867724,1.47811083
6111a7ef0b637b8d0eca2053,93,1,2024-02-27T11:56:49.162Z,french_917.wav,0,poule,792,36,5,4,l'anglais et francais,f,2,0.2,6.48628749,1.28993383
6111a7ef0b637b8d0eca2053,93,1,2024-02-27T11:56:49.162Z,french_917.wav,0,poule,792,36,5,4,l'anglais et francais,f,3,0.25666667,42.71671415,0.78276191
6111a7ef0b637b8d0eca2053,94,1,2024-02-27T11:56:49.162Z,french_745.wav,0,poule,500,36,5,4,l'anglais et francais,f,0,0.0,-23.86566831,1.27696082
6111a7ef0b637b8d0eca2053,94,1,2024-02-27T11:56:49.162Z,french_745.wav,0,poule,500,36,5,4,l'anglais et francais,f,1,0.1,-33.24912316,1.44075169
6111a7ef0b637b8d0eca2053,94,1,2024-02-27T11:56:49.162Z,french_745.wav,0,poule,500,36,5,4,l'anglais et francais,f,2,0.2,45.69666298,0.50413087
6111a7ef0b637b8d0eca2053,94,1,2024-02-27T11:56:49.162Z,french_745.wav,0,poule,500,36,5,4,l'anglais et francais,f,3,0.25666667,-83.60192647,0.37289443
6111a7ef0b637b8d0eca2053,95,1,2024-02-27T11:56:49.162Z,french_966.wav,0,poule,304,36,5,4,l'anglais et francais,f,0,0.0,94.80811126,1.26057873
6111a7ef0b637b8d0eca2053,95,1,2024-02-27T11:56:49.162Z,french_966.wav,0,poule,304,36,5,4,l'anglais et francais,f,1,0.1,-90.73743651,1.58996588
6111a7ef0b637b8d0eca2053,95,1,2024-02-27T11:56:49.162Z,french_966.wav,0,poule,304,36,5,4,l'anglais et francais,f,2,0.2,94.60686235,0.08752829
6111a7ef0b637b8d0eca2053,95,1,2024-02-27T11:56:49.162Z,french_966.wav,0,poule,304,36,5,4,l'anglais et francais,f,3,0.25666667,-83.76406221,0.32239013
6111a7ef0b637b8d0eca2053,96,1,2024-02-27T11:56:49.162Z,french_708.wav,0,poule,452,36,5,4,l'anglais et francais,f,0,0.0,77.88438146,0.30850898
6111a7ef0b637b8d0eca2053,96,1,2024-02-27T11:56:49.162Z,french_708.wav,0,poule,452,36,5,4,l'anglais et francais,f,1,0.1,-89.66132416,1.49064351
6111a7ef0b637b8d0eca2053,96,1,2024-02-27T11:56:49.162Z,french_708.wav,0,poule,452,36,5,4,l'anglais et francais,f,2,0.2,66.08375885,1.28629193
6111a7ef0b637b8d0eca2053,96,1,2024-02-27T11:56:49.162Z,french_708.wav,0,poule,452,36,5,4,l'anglais et francais,f,3,0.25666667,-39.93161414,1.01533724
6111a7ef0b637b8d0eca2053,97,1,2024-02-27T11:56:49.162Z,french_792.wav,0,poule,398,36,5,4,l'anglais et francais,f,0,0.0,-30.95032355,0.5884638
6111a7ef0b637b8d0eca2053,97,1,2024-02-27T11:56:49.162Z,french_792.wav,0,poule,398,36,5,4,l'anglais et francais,f,1,0.1,73.05460755,1.61732216
6111a7ef0b637b8d0eca2053,97,1,2024-02-27T11:56:49.162Z,french_792.wav,0,poule,398,36,5,4,l'anglais et francais,f,2,0.2,-0.6809714,1.33614238
6111a7ef0b637b8d0eca2053,97,1,2024-02-27T11:56:49.162Z,french_792.wav,0,poule,398,36,5,4,l'anglais et francais,f,3,0.25666667,25.15150688,0.65397567
6111a7ef0b637b8d0eca2053,98,1,2024-02-27T11:56:49.162Z,french_342.wav,0,pull,769,36,5,4,l'anglais et francais,f,0,0.0,-84.22246184,0.80111929
6111a7ef0b637b8d0eca2053,98,1,2024-02-27T11:56:49.162Z,french_342.wav,0,pull,769,36,5,4,l'anglais et francais,f,1,0.1,-88.55202377,0.92289162
6111a7ef0b637b8d0eca2053,98,1,2024-02-27T11:56:49.162Z,french_342.wav,0,pull,769,36,5,4,l'anglais et francais,f,2,0.2,12.74462997,0.96187701
6111a7ef0b637b8d0eca2053,98,1,2024-02-27T11:56:49.162Z,french_342.wav,0,pull,769,36,5,4,l'anglais et francais,f,3,0.25666667,-73.67155113,0.57764427
6111a7ef0b637b8d0eca2053,99,1,2024-02-27T11:56:49.162Z,french_872.wav,0,poule,456,36,5,4,l'anglais et francais,f,0,0.0,85.31192626,1.27180188
6111a7ef0b637b8d0eca2053,99,1,2024-02-27T11:56:49.162Z,french_872.wav,0,poule,456,36,5,4,l'anglais et francais,f,1,0.1,-62.96284321,0.82867252
6111a7ef0b637b8d0eca2053,99,1,2024-02-27T11:56:49.162Z,french_872.wav,0,poule,456,36,5,4,l'anglais et francais,f,2,0.2,93.26127986,1.69740624
6111a7ef0b637b8d0eca2053,99,1,2024-02-27T11:56:49.162Z,french_872.wav,0,poule,456,36,5,4,l'anglais et francais,f,3,0.25666667,48.13314647,0.31258738
6111a7ef0b637b8d0eca2053,100,2,2024-02-27T11:56:49.162Z,french_187.wav,0,poule,564,36,5,4,l'anglais et francais,f,0,0.0,-18.61743148,0.79177474
6111a7ef0b637b8d0eca2053,100,2,2024-02-27T11:56:49.162Z,french_187.wav,0,poule,564,36,5,4,l'anglais et francais,f,1,0.1,27.93687652,0.90472294
6111a7ef0b637b8d0eca2053,100,2,2024-02-27T11:56:49.162Z,french_187.wav,0,poule,564,36,5,4,l'anglais et francais,f,2,0.2,6.26647606,1.3885115
6111a7ef0b637b8d0eca2053,100,2,2024-02-27T11:56:49.162Z,french_187.wav,0,poule,564,36,5,4,l'anglais et francais,f,3,0.25666667,58.88972832,1.88547829
6111a7ef0b637b8d0eca2053,101,2,2024-02-27T11:56:49.162Z,french_540.wav,0,poule,335,36,5,4,l'anglais et francais,f,0,0.0,64.41538276,0.51709462
6111a7ef0b637b8d0eca2053,101,2,2024-02-27T11:56:49.162Z,french_540.wav,0,poule,335,36,5,4,l'anglais et francais,f,1,0.1,17.02048616,1.30376576
6111a7ef0b637b8d0eca2053,101,2,2024-02-27T11:56:49.162Z,french_540.wav,0,poule,335,36,5,4,l'anglais et francais,f,2,0.2,-33.22379056,0.40148031
6111a7ef0b637b8d0eca2053,101,2,2024-02-27T11:56:49.162Z,french_540.wav,0,poule,335,36,5,4,l'anglais et francais,f,3,0.25666667,6.66749413,1.14865781
6111a7ef0b637b8d0eca2053,102,2,2024-02-27T11:56:49.162Z,french_272.wav,0,pull,520,36,5,4,l'anglais et francais,f,0,0.0,50.55701535,1.0419248
6111a7ef0b637b8d0eca2053,102,2,2024-02-27T11:56:49.162Z,french_272.wav,0,pull,520,36,5,4,l'anglais et francais,f,1,0.1,63.46835537,0.05024982
6111a7ef0b637b8d0eca2053,102,2,2024-02-27T11:56:49.162Z,french_272.wav,0,pull,520,36,5,4,l'anglais et francais,f,2,0.2,-46.63250527,0.3554473
6111a7ef0b637b8d0eca2053,102,2,2024-02-27T11:56:49.162Z,french_272.wav,0,pull,520,36,5,4,l'anglais et francais,f,3,0.25666667,74.93577843,1.3845464
6111a7ef0b637b8d0eca2053,103,2,2024-02-27T11:56:49.162Z,french_638.wav,0,poule,429,36,5,4,l'anglais et francais,f,0,0.0,-18.90498038,0.47409532
6111a7ef0b637b8d0eca2053,103,2,2024-02-27T11:56:49.162Z,french_638.wav,0,poule,429,36,5,4,l'anglais et francais,f,1,0.1,-28.86355513,1.76910273
6111a7ef0b637b8d0eca2053,103,2,2024-02-27T11:56:49.162Z,french_638.wav,0,poule,429,36,5,4,l'anglais et francais,f,2,0.2,-97.62198235,0.72222374
6111a7ef0b637b8d0eca2053,103,2,2024-02-27T11:56:49.162Z,french_638.wav,0,poule,429,36,5,4,l'anglais et francais,f,3,0.25666667,26.30993693,0.09803926
6111a7ef0b637b8d0eca2053,104,2,2024-02-27T11:56:49.162Z,french_760.wav,0,poule,1435,36,5,4,l'anglais et francais,f,0,0.0,-33.74521786,1.08104013
6111a7ef0b637b8d0eca2053,104,2,2024-02-27T11:56:49.162Z,french_760.wav,0,poule,1435,36,5,4,l'anglais et francais,f,1,0.1,38.89159258,0.90085836
6111a7ef0b637b8d0eca2053,104,2,2024-02-27T11:56:49.162Z,french_760.wav,0,poule,1435,36,5,4,l'anglais et francais,f,2,0.2,64.82772984,0.36080554
6111a7ef0b637b8d0eca2053,104,2,2024-02-27T11:56:49.162Z,french_760.wav,0,poule,1435,36,5,4,l'anglais et francais,f,3,0.25666667,15.52705732,0.08393315
6111a7ef0b637b8d0eca2053,105,2,2024-02-27T11:56:49.162Z,french_64.wav,0,poule,785,36,5,4,l'anglais et francais,f,0,0.0,-2.85479512,1.8205441
6111a7ef0b637b8d0eca2053,105,2,2024-02-27T11:56:49.162Z,french_64.wav,0,poule,785,36,5,4,l'anglais et francais,f,1,0.1,-22.43053594,0.65122302
6111a7ef0b637b8d0eca2053,105,2,2024-02-27T11:56:49.162Z,french_64.wav,0,poule,785,36,5,4,l'anglais et francais,f,2,0.2,99.07991634,0.54405082
6111a7ef0b637b8d0eca2053,105,2,2024-02-27T11:56:49.162Z,french_64.wav,0,poule,785,36,5,4,l'anglais et francais,f,3,0.25666667,-6.95169827,0.02019369
6111a7ef0b637b8d0eca2053,106,2,2024-02-27T11:56:49.162Z,french_358.wav,0,pull,282,36,5,4,l'anglais et francais,f,0,0.0,-21.88755711,1.21014447
6111a7ef0b637b8d0eca2053,106,2,2024-02-27T11:56:49.162Z,french_358.wav,0,pull,282,36,5,4,l'anglais et francais,f,1,0.1,-5.628981,1.2650669
6111a7ef0b637b8d0eca2053,106,2,2024-02-27T11:56:49.162Z,french_358.wav,0,pull,282,36,5,4,l'anglais et francais,f,2,0.2,-60.01307733,0.97277603
6111a7ef0b637b8d0eca2053,106,2,2024-02-27T11:56:49.162Z,french_358.wav,0,pull,282,36,5,4,l'anglais et francais,f,3,0.25666667,65.58947466,0.28969343
6111a7ef0b637b8d0eca2053,107,2,2024-02-27T11:56:49.162Z,french_876.wav,0,poule,321,36,5,4,l'anglais et francais,f,0,0.0,-63.60663495,1.31328738
6111a7ef0b637b8d0eca2053,107,2,2024-02-27T11:56:49.162Z,french_876.wav,0,poule,321,36,5,4,l'anglais et francais,f,1,0.1,-33.069551,1.53761103
6111a7ef0b637b8d0eca2053,107,2,2024-02-27T11:56:49.162Z,french_876.wav,0,poule,321,36,5,4,l'anglais et francais,f,2,0.2,44.38072254,1.15738415
6111a7ef0b637b8d0eca2053,107,2,2024-02-27T11:56:49.162Z,french_876.wav,0,poule,321,36,5,4,l'anglais et francais,f,3,0.25666667,3.25210733,1.33428182
6111a7ef0b637b8d0eca2053,108,2,2024-02-27T11:56:49.162Z,french_3.wav,0,poule,155,36,5,4,l'anglais et francais,f,0,0.0,-14.61439924,1.57160784
6111a7ef0b637b8d0eca2053,108,2,2024-02-27T11:56:49.162Z,french_3.wav,0,poule,155,36,5,4,l'anglais et francais,f,1,0.1,31.18450832,1.95729533
6111a7ef0b637b8d0eca2053,108,2,2024-02-27T11:56:49.162Z,french_3.wav,0,poule,155,36,5,4,l'anglais et francais,f,2,0.2,25.79538703,1.5259075
6111a7ef0b637b8d0eca2053,108,2,2024-02-27T11:56:49.162Z,french_3.wav,0,poule,155,36,5,4,l'anglais et francais,f,3,0.25666667,-0.91933426,1.3870147
6111a7ef0b637b8d0eca2053,109,2,2024-02-27T11:56:49.162Z,french_615.wav,0,poule,357,36,5,4,l'anglais et francais,f,0,0.0,-99.04240885,1.08448469
6111a7ef0b637b8d0eca2053,109,2,2024-02-27T11:56:49.162Z,french_615.wav,0,poule,357,36,5,4,l'anglais et francais,f,1,0.1,-49.15643876,1.88363881
6111a7ef0b637b8d0eca2053,109,2,2024-02-27T11:56:49.162Z,french_615.wav,0,poule,357,36,5,4,l'anglais et francais,f,2,0.2,-66.91195639,1.28593097
6111a7ef0b637b8d0eca2053,109,2,2024-02-27T11:56:49.162Z,french_615.wav,0,poule,357,36,5,4,l'anglais et francais,f,3,0.25666667,-56.29346357,1.82136606
6111a7ef0b637b8d0eca2053,110,2,2024-02-27T11:56:49.162Z,french_830.wav,0,poule,289,36,5,4,l'anglais et francais,f,0,0.0,-1.87091299,1.09232302
6111a7ef0b637b8d0eca2053,110,2,2024-02-27T11:56:49.162Z,french_830.wav,0,poule,289,36,5,4,l'anglais et francais,f,1,0.1,9.47785811,0.94787069
6111a7ef0b637b8d0eca2053,110,2,2024-02-27T11:56:49.162Z,french_830.wav,0,poule,289,36,5,4,l'anglais et francais,f,2,0.2,-62.34166138,1.22281972
6111a7ef0b637b8d0eca2053,110,2,2024-02-27T11:56:49.162Z,french_830.wav,0,poule,289,36,5,4,l'anglais et francais,f,3,0.25666667,43.2809025,1.77001535
6111a7ef0b637b8d0eca2053,111,2,2024-02-27T11:56:49.162Z,french_522.wav,0,poule,335,36,5,4,l'anglais et francais,f,0,0.0,-33.95775035,0.92167055
6111a7ef0b637b8d0eca2053,111,2,2024-02-27T11:56:49.162Z,french_522.wav,0,poule,335,36,5,4,l'anglais et francais,f,1,0.1,-8.89346692,1.03421615
6111a7ef0b637b8d0eca2053,111,2,2024-02-27T11:56:49.162Z,french_522.wav,0,poule,335,36,5,4,l'anglais et francais,f,2,0.2,-13.71087049,0.39118917
6111a7ef0b637b8d0eca2053,111,2,2024-02-27T11:56:49.162Z,french_522.wav,0,poule,335,36,5,4,l'anglais et francais,f,3,0.25666667,29.03245504,1.12010972
6111a7ef0b637b8d0eca2053,112,2,2024-02-27T11:56:49.162Z,french_319.wav,0,poule,1295,36,5,4,l'anglais et francais,f,0,0.0,63.69489547,0.79356863
6111a7ef0b637b8d0eca2053,112,2,2024-02-27T11:56:49.162Z,french_319.wav,0,poule,1295,36,5,4,l'anglais et francais,f,1,0.1,60.76449486,1.37507237
6111a7ef0b637b8d0eca2053,112,2,2024-02-27T11:56:49.162Z,french_319.wav,0,poule,1295,36,5,4,l'anglais et francais,f,2,0.2,-58.82123998,1.06369674
6111a7ef0b637b8d0eca2053,112,2,2024-02-27T11:56:49.162Z,french_319.wav,0,poule,1295,36,5,4,l'anglais et francais,f,3,0.25666667,43.46614377,1.64660946
6111a7ef0b637b8d0eca2053,113,2,2024-02-27T11:56:49.162Z,french_627.wav,0,poule,288,36,5,4,l'anglais et francais,f,0,0.0,2.1799823,1.97167661
6111a7ef0b637b8d0eca2053,113,2,2024-02-27T11:56:49.162Z,french_627.wav,0,poule,288,36,5,4,l'anglais et francais,f,1,0.1,30.63833179,1.14790719
6111a7ef0b637b8d0eca2053,113,2,2024-02-27T11:56:49.162Z,french_627.wav,0,poule,288,36,5,4,l'anglais et francais,f,2,0.2,99.93583097,1.70510721
6111a7ef0b637b8d0eca2053,113,2,2024-02-27T11:56:49.162Z,french_627.wav,0,poule,288,36,5,4,l'anglais et francais,f,3,0.25666667,-23.95585557,1.67415678
6111a7ef0b637b8d0eca2053,114,2,2024-02-27T11:56:49.162Z,french_531.wav,0,pull,500,36,5,4,l'anglais et francais,f,0,0.0,76.38960861,1.48422918
6111a7ef0b637b8d0eca2053,114,2,2024-02-27T11:56:49.162Z,french_531.wav,0,pull,500,36,5,4,l'anglais et francais,f,1,0.1,-14.4624089,0.31285067
6111a7ef0b637b8d0eca2053,114,2,2024-02-27T11:56:49.162Z,french_531.wav,0,pull,500,36,5,4,l'anglais et francais,f,2,0.2,97.56303867,0.71358588
6111a7ef0b637b8d0eca2053,114,2,2024-02-27T11:56:49.162Z,french_531.wav,0,pull,500,36,5,4,l'anglais et francais,f,3,0.25666667,-4.62103118,0.65318394
6111a7ef0b637b8d0eca2053,115,2,2024-02-27T11:56:49.162Z,french_247.wav,0,poule,457,36,5,4,l'anglais et francais,f,0,0.0,31.18827639,0.50646138
6111a7ef0b637b8d0eca2053,115,2,2024-02-27T11:56:49.162Z,french_247.wav,0,poule,457,36,5,4,l'anglais et francais,f,1,0.1,28.69447174,0.63180121
6111a7ef0b637b8d0eca2053,115,2,2024-02-27T11:56:49.162Z,french_247.wav,0,poule,457,36,5,4,l'anglais et francais,f,2,0.2,-68.83088208,1.73165753
6111a7ef0b637b8d0eca2053,115,2,2024-02-27T11:56:49.162Z,french_247.wav,0,poule,457,36,5,4,l'anglais et francais,f,3,0.25666667,44.69710936,1.77415142
6111a7ef0b637b8d0eca2053,116,2,2024-02-27T11:56:49.162Z,french_455.wav,0,poule,385,36,5,4,l'anglais et francais,f,0,0.0,-38.32224649,1.67202697
6111a7ef0b637b8d0eca2053,116,2,2024-02-27T11:56:49.162Z,french_455.wav,0,poule,385,36,5,4,l'anglais et francais,f,1,0.1,16.6107471,0.91904085
6111a7ef0b637b8d0eca2053,116,2,2024-02-27T11:56:49.162Z,french_455.wav,0,poule,385,36,5,4,l'anglais et francais,f,2,0.2,-53.73538957,1.09329776
6111a7ef0b637b8d0eca2053,116,2,2024-02-27T11:56:49.162Z,french_455.wav,0,poule,385,36,5,4,l'anglais et francais,f,3,0.25666667,-39.28573671,1.37901108
6111a7ef0b637b8d0eca2053,117,2,2024-02-27T11:56:49.162Z,french_728.wav,0,poule,442,36,5,4,l'anglais et francais,f,0,0.0,-93.70742078,1.13399743
6111a7ef0b637b8d0eca2053,117,2,2024-02-27T11:56:49.162Z,french_728.wav,0,poule,442,36,5,4,l'anglais et francais,f,1,0.1,-62.00989335,0.93012586
6111a7ef0b637b8d0eca2053,117,2,2024-02-27T11:56:49.162Z,french_728.wav,0,poule,442,36,5,4,l'anglais et francais,f,2,0.2,72.64416852,0.78518922
6111a7ef0b637b8d0eca2053,117,2,2024-02-27T11:56:49.162Z,french_728.wav,0,poule,442,36,5,4,l'anglais et francais,f,3,0.25666667,6.15605077,0.75575783
6111a7ef0b637b8d0eca2053,118,2,2024-02-27T11:56:49.162Z,french_767.wav,0,pull,400,36,5,4,l'anglais et francais,f,0,0.0,91.79298807,1.15796888
6111a7ef0b637b8d0eca2053,118,2,2024-02-27T11:56:49.162Z,french_767.wav,0,pull,400,36,5,4,l'anglais et francais,f,1,0.1,-10.9319541,0.37743288
6111a7ef0b637b8d0eca2053,118,2,2024-02-27T11:56:49.162Z,french_767.wav,0,pull,400,36,5,4,l'anglais et francais,f,2,0.2,-18.13246944,1.06132115
6111a7ef0b637b8d0eca2053,118,2,2024-02-27T11:56:49.162Z,french_767.wav,0,pull,400,36,5,4,l'anglais et francais,f,3,0.25666667,-6.11346908,0.41668969
6111a7ef0b637b8d0eca2053,119,2,2024-02-27T11:56:49.162Z,french_390.wav,0,pull,583,36,5,4,l'anglais et francais,f,0,0.0,13.63716389,0.73987932
6111a7ef0b637b8d0eca2053,119,2,2024-02-27T11:56:49.162Z,french_390.wav,0,pull,583,36,5,4,l'anglais et francais,f,1,0.1,-61.62928039,1.19791102
6111a7ef0b637b8d0eca2053,119,2,2024-02-27T11:56:49.162Z,french_390.wav,0,pull,583,36,5,4,l'anglais et francais,f,2,0.2,89.99724903,0.30500022
6111a7ef0b637b8d0eca2053,119,2,2024-02-27T11:56:49.162Z,french_390.wav,0,pull,583,36,5,4,l'anglais et francais,f,3,0.25666667,-99.60285567,1.08417724
6111a7ef0b637b8d0eca2053,120,2,2024-02-27T11:56:49.162Z,french_38.wav,0,poule,342,36,5,4,l'anglais et francais,f,0,0.0,-0.72741882,1.73508679
6111a7ef0b637b8d0eca2053,120,2,2024-02-27T11:56:49.162Z,french_38.wav,0,poule,342,36,5,4,l'anglais et francais,f,1,0.1,17.06804162,1.04827054
6111a7ef0b637b8d0eca2053,120,2,2024-02-27T11:56:49.162Z,french_38.wav,0,poule,342,36,5,4,l'anglais et francais,f,2,0.2,-90.47269694,0.06966066
6111a7ef0b637b8d0eca2053,120,2,2024-02-27T11:56:49.162Z,french_38.wav,0,poule,342,36,5,4,l'anglais et francais,f,3,0.25666667,-46.03968341,1.13213122
6111a7ef0b637b8d0eca2053,121,2,2024-02-27T11:56:49.162Z,french_453.wav,0,poule,699,36,5,4,l'anglais et francais,f,0,0.0,17.16336321,0.53243678
6111a7ef0b637b8d0eca2053,121,2,2024-02-27T11:56:49.162Z,french_453.wav,0,poule,699,36,5,4,l'anglais et francais,f,1,0.1,-89.93005254,1.83492113
6111a7ef0b637b8d0eca2053,121,2,2024-02-27T11:56:49.162Z,french_453.wav,0,poule,699,36,5,4,l'anglais et francais,f,2,0.2,91.22824445,1.32944014
6111a7ef0b637b8d0eca2053,121,2,2024-02-27T11:56:49.162Z,french_453.wav,0,poule,699,36,5,4,l'anglais et francais,f,3,0.25666667,-84.37948707,0.35681228
6111a7ef0b637b8d0eca2053,122,2,2024-02-27T11:56:49.162Z,french_915.wav,0,poule,497,36,5,4,l'anglais et francais,f,0,0.0,-64.10930236,0.7615396
6111a7ef0b637b8d0eca2053,122,2,2024-02-27T11:56:49.162Z,french_915.wav,0,poule,497,36,5,4,l'anglais et francais,f,1,0.1,-7.16601985,1.77142655
6111a7ef0b637b8d0eca2053,122,2,2024-02-27T11:56:49.162Z,french_915.wav,0,poule,497,36,5,4,l'anglais et francais,f,2,0.2,-76.9677693,1.45350334
6111a7ef0b637b8d0eca2053,122,2,2024-02-27T11:56:49.162Z,french_915.wav,0,poule,497,36,5,4,l'anglais et francais,f,3,0.25666667,64.27469246,1.62999495
6111a7ef0b637b8d0eca2053,123,2,2024-02-27T11:56:49.162Z,french_91.wav,0,pull,488,36,5,4,l'anglais et francais,f,0,0.0,22.16772641,0.07376739
6111a7ef0b637b8d0eca2053,123,2,2024-02-27T11:56:49.162Z,french_91.wav,0,pull,488,36,5,4,l'anglais et francais,f,1,0.1,4.75787086,1.79269703
6111a7ef0b637b8d0eca2053,123,2,2024-02-27T11:56:49.162Z,french_91.wav,0,pull,488,36,5,4,l'anglais et francais,f,2,0.2,16.21543539,1.59138707
6111a7ef0b637b8d0eca2053,123,2,2024-02-27T11:56:49.162Z,french_91.wav,0,pull,488,36,5,4,l'anglais et francais,f,3,0.25666667,-31.35162056,1.67096256
6111a7ef0b637b8d0eca2053,124,2,2024-02-27T11:56:49.162Z,french_227.wav,0,poule,483,36,5,4,l'anglais et francais,f,0,0.0,0.51486219,1.24333394
6111a7ef0b637b8d0eca2053,124,2,2024-02-27T11:56:49.162Z,french_227.wav,0,poule,483,36,5,4,l'anglais et francais,f,1,0.1,-7.58300973,1.87169026
6111a7ef0b637b8d0eca2053,124,2,2024-02-27T11:56:49.162Z,french_227.wav,0,poule,483,36,5,4,l'anglais et francais,f,2,0.2,-1.58102923,1.73620524
6111a7ef0b637b8d0eca2053,124,2,2024-02-27T11:56:49.162Z,french_227.wav,0,poule,483,36,5,4,l'anglais et francais,f,3,0.25666667,-53.33162074,0.85172824
6111a7ef0b637b8d0eca2053,125,2,2024-02-27T11:56:49.162Z,french_855.wav,0,poule,508,36,5,4,l'anglais et francais,f,0,0.0,2.71159552,1.64624975
6111a7ef0b637b8d0eca2053,125,2,2024-02-27T11:56:49.162Z,french_855.wav,0,poule,508,36,5,4,l'anglais et francais,f,1,0.1,66.05842931,0.54809415
6111a7ef0b637b8d0eca2053,125,2,2024-02-27T11:56:49.162Z,french_855.wav,0,poule,508,36,5,4,l'anglais et francais,f,2,0.2,41.00995311,1.64541289
6111a7ef0b637b8d0eca2053,125,2,2024-02-27T11:56:49.162Z,french_855.wav,0,poule,508,36,5,4,l'anglais et francais,f,3,0.25666667,98.2962498,1.22205238
6111a7ef0b637b8d0eca2053,126,2,2024-02-27T11:56:49.162Z,french_732.wav,0,pull,630,36,5,4,l'anglais et francais,f,0,0.0,-82.9393053,0.90840431
6111a7ef0b637b8d0eca2053,126,2,2024-02-27T11:56:49.162Z,french_732.wav,0,pull,630,36,5,4,l'anglais et francais,f,1,0.1,-79.22735873,0.47468339
6111a7ef0b637b8d0eca2053,126,2,2024-02-27T11:56:49.162Z,french_732.wav,0,pull,630,36,5,4,l'anglais et francais,f,2,0.2,-67.09796721,1.61768905
6111a7ef0b637b8d0eca2053,126,2,2024-02-27T11:56:49.162Z,french_732.wav,0,pull,630,36,5,4,l'anglais et francais,f,3,0.25666667,35.15971491,1.44596926
6111a7ef0b637b8d0eca2053,127,2,2024-02-27T11:56:49.162Z,french_423.wav,0,pull,637,36,5,4,l'anglais et francais,f,0,0.0,80.03290271,0.31618382
6111a7ef0b637b8d0eca2053,127,2,2024-02-27T11:56:49.162Z,french_423.wav,0,pull,637,36,5,4,l'anglais et francais,f,1,0.1,-33.72349736,0.81153422
6111a7ef0b637b8d0eca2053,127,2,2024-02-27T11:56:49.162Z,french_423.wav,0,pull,637,36,5,4,l'anglais et francais,f,2,0.2,-38.14858153,0.21197718
6111a7ef0b637b8d0eca2053,127,2,2024-02-27T11:56:49.162Z,french_423.wav,0,pull,637,36,5,4,l'anglais et francais,f,3,0.25666667,-48.66398852,0.41633142
6111a7ef0b637b8d0eca2053,128,2,2024-02-27T11:56:49.162Z,french_521.wav,0,poule,262,36,5,4,l'anglais et francais,f,0,0.0,11.04386286,1.73052604
6111a7ef0b637b8d0eca2053,128,2,2024-02-27T11:56:49.162Z,french_521.wav,0,poule,262,36,5,4,l'anglais et francais,f,1,0.1,-55.65083084,0.96564678
6111a7ef0b637b8d0eca2053,128,2,2024-02-27T11:56:49.162Z,french_521.wav,0,poule,262,36,5,4,l'anglais et francais,f,2,0.2,98.93037095,1.35299162
6111a7ef0b637b8d0eca2053,128,2,2024-02-27T11:56:49.162Z,french_521.wav,0,poule,262,36,5,4,l'anglais et francais,f,3,0.25666667,14.06437892,1.41353716
6111a7ef0b637b8d0eca2053,129,2,2024-02-27T11:56:49.162Z,french_943.wav,0,poule,732,36,5,4,l'anglais et francais,f,0,0.0,27.08075724,1.18472309
6111a7ef0b637b8d0eca2053,129,2,2024-02-27T11:56:49.162Z,french_943.wav,0,poule,732,36,5,4,l'anglais et francais,f,1,0.1,11.89706259,0.18520331
6111a7ef0b637b8d0eca2053,129,2,2024-02-27T11:56:49.162Z,french_943.wav,0,poule,732,36,5,4,l'anglais et francais,f,2,0.2,-68.36208072,0.55970606
6111a7ef0b637b8d0eca2053,129,2,2024-02-27T11:56:49.162Z,french_943.wav,0,poule,732,36,5,4,l'anglais et francais,f,3,0.25666667,93.65942771,0.63383354
6111a7ef0b637b8d0eca2053,130,2,2024-02-27T11:56:49.162Z,french_690.wav,0,pull,1119,36,5,4,l'anglais et francais,f,0,0.0,79.01312907,1.49686193
6111a7ef0b637b8d0eca2053,130,2,2024-02-27T11:56:49.162Z,french_690.wav,0,pull,1119,36,5,4,l'anglais et francais,f,1,0.1,-50.63616883,0.92741038
6111a7ef0b637b8d0eca2053,130,2,2024-02-27T11:56:49.162Z,french_690.wav,0,pull,1119,36,5,4,l'anglais et francais,f,2,0.2,19.49439666,0.30770403
6111a7ef0b637b8d0eca2053,130,2,2024-02-27T11:56:49.162Z,french_690.wav,0,pull,1119,36,5,4,l'anglais et francais,f,3,0.25666667,-20.64233715,0.53460579
6111a7ef0b637b8d0eca2053,131,2,2024-02-27T11:56:49.162Z,french_965.wav,0,poule,274,36,5,4,l'anglais et francais,f,0,0.0,40.44340114,0.70170615
6111a7ef0b637b8d0eca2053,131,2,2024-02-27T11:56:49.162Z,french_965.wav,0,poule,274,36,5,4,l'anglais et francais,f,1,0.1,-11.08391972,1.63180194
6111a7ef0b637b8d0eca2053,131,2,2024-02-27T11:56:49.162Z,french_965.wav,0,poule,274,36,5,4,l'anglais et francais,f,2,0.2,-2.7382686,1.33837455
6111a7ef0b637b8d0eca2053,131,2,2024-02-27T11:56:49.162Z,french_965.wav,0,poule,274,36,5,4,l'anglais et francais,f,3,0.25666667,-30.15899093,1.47207372
6111a7ef0b637b8d0eca2053,132,2,2024-02-27T11:56:49.162Z,french_228.wav,0,poule,304,36,5,4,l'anglais et francais,f,0,0.0,-13.78258648,1.36655769
6111a7ef0b637b8d0eca2053,132,2,2024-02-27T11:56:49.162Z,french_228.wav,0,poule,304,36,5,4,l'anglais et francais,f,1,0.1,27.88870681,1.56643938
6111a7ef0b637b8d0eca2053,132,2,2024-02-27T11:56:49.162Z,french_228.wav,0,poule,304,36,5,4,l'anglais et francais,f,2,0.2,-8.73674486,0.29403468
6111a7ef0b637b8d0eca2053,132,2,2024-02-27T11:56:49.162Z,french_228.wav,0,poule,304,36,5,4,l'anglais et francais,f,3,0.25666667,-13.88179653,0.32348249
6111a7ef0b637b8d0eca2053,133,2,2024-02-27T11:56:49.162Z,french_564.wav,0,poule,644,36,5,4,l'anglais et francais,f,0,0.0,-42.85760261,0.14777183
6111a7ef0b637b8d0eca2053,133,2,2024-02-27T11:56:49.162Z,french_564.wav,0,poule,644,36,5,4,l'anglais et francais,f,1,0.1,78.12316343,1.08229262
6111a7ef0b637b8d0eca2053,133,2,2024-02-27T11:56:49.162Z,french_564.wav,0,poule,644,36,5,4,l'anglais et francais,f,2,0.2,32.53186734,0.52251513
6111a7ef0b637b8d0eca2053,133,2,2024-02-27T11:56:49.162Z,french_564.wav,0,poule,644,36,5,4,l'anglais et francais,f,3,0.25666667,60.20924512,1.40255579
6111a7ef0b637b8d0eca2053,134,2,2024-02-27T11:56:49.162Z,french_625.wav,0,pull,771,36,5,4,l'anglais et francais,f,0,0.0,79.19979266,0.47634137
6111a7ef0b637b8d0eca2053,134,2,2024-02-27T11:56:49.162Z,french_625.wav,0,pull,771,36,5,4,l'anglais et francais,f,1,0.1,14.54258285,0.73497705
6111a7ef0b637b8d0eca2053,134,2,2024-02-27T11:56:49.162Z,french_625.wav,0,pull,771,36,5,4,l'anglais et francais,f,2,0.2,86.07148008,0.05854955
6111a7ef0b637b8d0eca2053,134,2,2024-02-27T11:56:49.162Z,french_625.wav,0,pull,771,36,5,4,l'anglais et francais,f,3,0.25666667,45.85831434,0.79046633
6111a7ef0b637b8d0eca2053,135,2,2024-02-27T11:56:49.162Z,french_357.wav,0,pull,2218,36,5,4,l'anglais et francais,f,0,0.0,-39.34197693,1.60610182
6111a7ef0b637b8d0eca2053,135,2,2024-02-27T11:56:49.162Z,french_357.wav,0,pull,2218,36,5,4,l'anglais et francais,f,1,0.1,71.15894406,0.3952593
6111a7ef0b637b8d0eca2053,135,2,2024-02-27T11:56:49.162Z,french_357.wav,0,pull,2218,36,5,4,l'anglais et francais,f,2,0.2,-59.30154436,0.60654741
6111a7ef0b637b8d0eca2053,135,2,2024-02-27T11:56:49.162Z,french_357.wav,0,pull,2218,36,5,4,l'anglais et francais,f,3,0.25666667,60.48174113,0.43480054
6111a7ef0b637b8d0eca2053,136,2,2024-02-27T11:56:49.162Z,french_87.wav,0,poule,298,36,5,4,l'anglais et francais,f,0,0.0,57.46562038,1.84924107
6111a7ef0b637b8d0eca2053,136,2,2024-02-27T11:56:49.162Z,french_87.wav,0,poule,298,36,5,4,l'anglais et francais,f,1,0.1,64.37451918,1.35752119
6111a7ef0b637b8d0eca2053,136,2,2024-02-27T11:56:49.162Z,french_87.wav,0,poule,298,36,5,4,l'anglais et francais,f,2,0.2,34.82822911,1.55092153
6111a7ef0b637b8d0eca2053,136,2,2024-02-27T11:56:49.162Z,french_87.wav,0,poule,298,36,5,4,l'anglais et francais,f,3,0.25666667,-44.22171713,0.2478561
6111a7ef0b637b8d0eca2053,137,2,2024-02-27T11:56:49.162Z,french_996.wav,0,pull,590,36,5,4,l'anglais et francais,f,0,0.0,-93.3315932,0.70155752
6111a7ef0b637b8d0eca2053,137,2,2024-02-27T11:56:49.162Z,french_996.wav,0,pull,590,36,5,4,l'anglais et francais,f,1,0.1,-68.78176083,0.82176857
6111a7ef0b637b8d0eca2053,137,2,2024-02-27T11:56:49.162Z,french_996.wav,0,pull,590,36,5,4,l'anglais et francais,f,2,0.2,3.00266898,1.58504857
6111a7ef0b637b8d0eca2053,137,2,2024-02-27T11:56:49.162Z,french_996.wav,0,pull,590,36,5,4,l'anglais et francais,f,3,0.25666667,26.12825604,1.65873812
6111a7ef0b637b8d0eca2053,138,2,2024-02-27T11:56:49.162Z,french_176.wav,0,poule,251,36,5,4,l'anglais et francais,f,0,0.0,0.09776701,1.90735666
6111a7ef0b637b8d0eca2053,138,2,2024-02-27T11:56:49.162Z,french_176.wav,0,poule,251,36,5,4,l'anglais et francais,f,1,0.1,32.80523404,1.52678684
6111a7ef0b637b8d0eca2053,138,2,2024-02-27T11:56:49.162Z,french_176.wav,0,poule,251,36,5,4,l'anglais et francais,f,2,0.2,16.78979069,1.98703072
6111a7ef0b637b8d0eca2053,138,2,2024-02-27T11:56:49.162Z,french_176.wav,0,poule,251,36,5,4,l'anglais et francais,f,3,0.25666667,-52.73391922,1.7200077
6111a7ef0b637b8d0eca2053,139,2,2024-02-27T11:56:49.162Z,french_370.wav,0,poule,423,36,5,4,l'anglais et francais,f,0,0.0,-31.30279389,1.88170435
6111a7ef0b637b8d0eca2053,139,2,2024-02-27T11:56:49.162Z,french_370.wav,0,poule,423,36,5,4,l'anglais et francais,f,1,0.1,96.47349065,0.75067332
6111a7ef0b637b8d0eca2053,139,2,2024-02-27T11:56:49.162Z,french_370.wav,0,poule,423,36,5,4,l'anglais et francais,f,2,0.2,23.18843017,1.06279648
6111a7ef0b637b8d0eca2053,139,2,2024-02-27T11:56:49.162Z,french_370.wav,0,poule,423,36,5,4,l'anglais et francais,f,3,0.25666667,81.62933181,0.58974769
6111a7ef0b637b8d0eca2053,140,2,2024-02-27T11:56:49.162Z,french_71.wav,0,poule,277,36,5,4,l'anglais et francais,f,0,0.0,-97.29707499,0.6163898
6111a7ef0b637b8d0eca2053,140,2,2024-02-27T11:56:49.162Z,french_71.wav,0,poule,277,36,5,4,l'anglais et francais,f,1,0.1,41.74238765,1.06775198
6111a7ef0b637b8d0eca2053,140,2,2024-02-27T11:56:49.162Z,french_71.wav,0,poule,277,36,5,4,l'anglais et francais,f,2,0.2,-91.89336592,1.31906527
6111a7ef0b637b8d0eca2053,140,2,2024-02-27T11:56:49.162Z,french_71.wav,0,poule,277,36,5,4,l'anglais et francais,f,3,0.25666667,53.06515209,0.58556407
6111a7ef0b637b8d0eca2053,141,2,2024-02-27T11:56:49.162Z,french_697.wav,0,poule,212,36,5,4,l'anglais et francais,f,0,0.0,-19.8565912,1.89587242
6111a7ef0b637b8d0eca2053,141,2,2024-02-27T11:56:49.162Z,french_697.wav,0,poule,212,36,5,4,l'anglais et francais,f,1,0.1,-16.18456076,0.49072185
6111a7ef0b637b8d0eca2053,141,2,2024-02-27T11:56:49.162Z,french_697.wav,0,poule,212,36,5,4,l'anglais et francais,f,2,0.2,-70.77550193,1.8362568
6111a7ef0b637b8d0eca2053,141,2,2024-02-27T11:56:49.162Z,french_697.wav,0,poule,212,36,5,4,l'anglais et francais,f,3,0.25666667,-81.21106402,0.50078837
6111a7ef0b637b8d0eca2053,142,2,2024-02-27T11:56:49.162Z,french_296.wav,0,pull,527,36,5,4,l'anglais et francais,f,0,0.0,93.71479572,0.08926169
6111a7ef0b637b8d0eca2053,142,2,2024-02-27T11:56:49.162Z,french_296.wav,0,pull,527,36,5,4,l'anglais et francais,f,1,0.1,-75.79046522,1.27041306
6111a7ef0b637b8d0eca2053,142,2,2024-02-27T11:56:49.162Z,french_296.wav,0,pull,527,36,5,4,l'anglais et francais,f,2,0.2,-87.29598303,1.46433067
6111a7ef0b637b8d0eca2053,142,2,2024-02-27T11:56:49.162Z,french_296.wav,0,pull,527,36,5,4,l'anglais et francais,f,3,0.25666667,31.73776098,0.42599999
6111a7ef0b637b8d0eca2053,143,2,2024-02-27T11:56:49.162Z,french_681.wav,0,poule,314,36,5,4,l'anglais et francais,f,0,0.0,-28.020652,0.15084138
6111a7ef0b637b8d0eca2053,143,2,2024-02-27T11:56:49.162Z,french_681.wav,0,poule,314,36,5,4,l'anglais et francais,f,1,0.1,-7.04160788,1.22079629
6111a7ef0b637b8d0eca2053,143,2,2024-02-27T11:56:49.162Z,french_681.wav,0,poule,314,36,5,4,l'anglais et francais,f,2,0.2,53.5795515,1.97804896
6111a7ef0b637b8d0eca2053,143,2,2024-02-27T11:56:49.162Z,french_681.wav,0,poule,314,36,5,4,l'anglais et francais,f,3,0.25666667,-33.12503676,0.44897499
6111a7ef0b637b8d0eca2053,144,2,2024-02-27T11:56:49.162Z,french_592.wav,0,poule,567,36,5,4,l'anglais et francais,f,0,0.0,-60.74271859,0.07910076
6111a7ef0b637b8d0eca2053,144,2,2024-02-27T11:56:49.162Z,french_592.wav,0,poule,567,36,5,4,l'anglais et francais,f,1,0.1,93.57737247,0.09988206
6111a7ef0b637b8d0eca2053,144,2,2024-02-27T11:56:49.162Z,french_592.wav,0,poule,567,36,5,4,l'anglais et francais,f,2,0.2,-53.75438764,0.64371435
6111a7ef0b637b8d0eca2053,144,2,2024-02-27T11:56:49.162Z,french_592.wav,0,poule,567,36,5,4,l'anglais et francais,f,3,0.25666667,-2.22241718,0.65219405
6111a7ef0b637b8d0eca2053,145,2,2024-02-27T11:56:49.162Z,french_2.wav,0,poule,335,36,5,4,l'anglais et francais,f,0,0.0,-28.21412584,1.58504822
6111a7ef0b637b8d0eca2053,145,2,2024-02-27T11:56:49.162Z,french_2.wav,0,poule,335,36,5,4,l'anglais et francais,f,1,0.1,66.62162467,1.83034999
6111a7ef0b637b8d0eca2053,145,2,2024-02-27T11:56:49.162Z,french_2.wav,0,poule,335,36,5,4,l'anglais et francais,f,2,0.2,16.24659996,0.31217517
6111a7ef0b637b8d0eca2053,145,2,2024-02-27T11:56:49.162Z,french_2.wav,0,poule,335,36,5,4,l'anglais et francais,f,3,0.25666667,-46.42897327,1.81400659
6111a7ef0b637b8d0eca2053,146,2,2024-02-27T11:56:49.162Z,french_755.wav,0,poule,326,36,5,4,l'anglais et francais,f,0,0.0,-17.09048823,0.26038806
6111a7ef0b637b8d0eca2053,146,2,2024-02-27T11:56:49.162Z,french_755.wav,0,poule,326,36,5,4,l'anglais et francais,f,1,0.1,56.35208106,0.92084882
6111a7ef0b637b8d0eca2053,146,2,2024-02-27T11:56:49.162Z,french_755.wav,0,poule,326,36,5,4,l'anglais et francais,f,2,0.2,33.77031601,1.14499291
6111a7ef0b637b8d0eca2053,146,2,2024-02-27T11:56:49.162Z,french_755.wav,0,poule,326,36,5,4,l'anglais et francais,f,3,0.25666667,73.0579331,1.40582081
6111a7ef0b637b8d0eca2053,147,2,2024-02-27T11:56:49.162Z,french_371.wav,0,pull,331,36,5,4,l'anglais et francais,f,0,0.0,31.80119749,0.65227963
6111a7ef0b637b8d0eca2053,147,2,2024-02-27T11:56:49.162Z,french_371.wav,0,pull,331,36,5,4,l'anglais et francais,f,1,0.1,-38.52135119,1.80763105
6111a7ef0b637b8d0eca2053,147,2,2024-02-27T11:56:49.162Z,french_371.wav,0,pull,331,36,5,4,l'anglais et francais,f,2,0.2,9.85895876,1.44692227
6111a7ef0b637b8d0eca2053,147,2,2024-02-27T11:56:49.162Z,french_371.wav,0,pull,331,36,5,4,l'anglais et francais,f,3,0.25666667,79.11511398,1.12716888
6111a7ef0b637b8d0eca2053,148,2,2024-02-27T11:56:49.162Z,french_933.wav,0,poule,406,36,5,4,l'anglais et francais,f,0,0.0,-24.27897726,0.66366025
6111a7ef0b637b8d0eca2053,148,2,2024-02-27T11:56:49.162Z,french_933.wav,0,poule,406,36,5,4,l'anglais et francais,f,1,0.1,45.4380102,1.16686233
6111a7ef0b637b8d0eca2053,148,2,2024-02-27T11:56:49.162Z,french_933.wav,0,poule,406,36,5,4,l'anglais et francais,f,2,0.2,44.52165476,0.86083852
6111a7ef0b637b8d0eca2053,148,2,2024-02-27T11:56:49.162Z,french_933.wav,0,poule,406,36,5,4,l'anglais et francais,f,3,0.25666667,11.96128215,1.88972919
6111a7ef0b637b8d0eca2053,149,2,2024-02-27T11:56:49.162Z,french_233.wav,0,poule,263,36,5,4,l'anglais et francais,f,0,0.0,-74.05194232,1.46941626
6111a7ef0b637b8d0eca2053,149,2,2024-02-27T11:56:49.162Z,french_233.wav,0,poule,263,36,5,4,l'anglais et francais,f,1,0.1,45.77276391,0.63238632
6111a7ef0b637b8d0eca2053,149,2,2024-02-27T11:56:49.162Z,french_233.wav,0,poule,263,36,5,4,l'anglais et francais,f,2,0.2,-37.66213209,1.46686039
6111a7ef0b637b8d0eca2053,149,2,2024-02-27T11:56:49.162Z,french_233.wav,0,poule,263,36,5,4,l'anglais et francais,f,3,0.25666667,-32.85858595,1.82755258
6111a7ef0b637b8d0eca2053,150,3,2024-02-27T11:56:49.162Z,french_150.wav,0,poule,684,36,5,4,l'anglais et francais,f,0,0.0,8.70975457,0.6151883
6111a7ef0b637b8d0eca2053,150,3,2024-02-27T11:56:49.162Z,french_150.wav,0,poule,684,36,5,4,l'anglais et francais,f,1,0.1,-27.10460474,1.35739255
6111a7ef0b637b8d0eca2053,150,3,2024-02-27T11:56:49.162Z,french_150.wav,0,poule,684,36,5,4,l'anglais et francais,f,2,0.2,-81.59186784,1.42530839
6111a7ef0b637b8d0eca2053,150,3,2024-02-27T11:56:49.162Z,french_150.wav,0,poule,684,36,5,4,l'anglais et francais,f,3,0.25666667,-72.54184128,0.64697028
6111a7ef0b637b8d0eca2053,151,3,2024-02-27T11:56:49.162Z,french_958.wav,0,pull,582,36,5,4,l'anglais et francais,f,0,0.0,70.65905064,0.553928
6111a7ef0b637b8d0eca2053,151,3,2024-02-27T11:56:49.162Z,french_958.wav,0,pull,582,36,5,4,l'anglais et francais,f,1,0.1,35.26497317,0.45560148
6111a7ef0b637b8d0eca2053,151,3,2024-02-27T11:56:49.162Z,french_958.wav,0,pull,582,36,5,4,l'anglais et francais,f,2,0.2,64.29920798,1.65592314
6111a7ef0b637b8d0eca2053,151,3,2024-02-27T11:56:49.162Z,french_958.wav,0,pull,582,36,5,4,l'anglais et francais,f,3,0.25666667,78.52381542,1.53733
6111a7ef0b637b8d0eca2053,152,3,2024-02-27T11:56:49.162Z,french_636.wav,0,pull,377,36,5,4,l'anglais et francais,f,0,0.0,79.1724471,0.8082817
6111a7ef0b637b8d0eca2053,152,3,2024-02-27T11:56:49.162Z,french_636.wav,0,pull,377,36,5,4,l'anglais et francais,f,1,0.1,25.25700376,1.50975093
6111a7ef0b637b8d0eca2053,152,3,2024-02-27T11:56:49.162Z,french_636.wav,0,pull,377,36,5,4,l'anglais et francais,f,2,0.2,72.37529148,0.99206968
6111a7ef0b637b8d0eca2053,152,3,2024-02-27T11:56:49.162Z,french_636.wav,0,pull,377,36,5,4,l'anglais et francais,f,3,0.25666667,12.21946345,0.17038819
6111a7ef0b637b8d0eca2053,153,3,2024-02-27T11:56:49.162Z,french_698.wav,0,poule,353,36,5,4,l'anglais et francais,f,0,0.0,77.87531809,1.86418809
6111a7ef0b637b8d0eca2053,153,3,2024-02-27T11:56:49.162Z,french_698.wav,0,poule,353,36,5,4,l'anglais et francais,f,1,0.1,-26.89699032,0.30357323
6111a7ef0b637b8d0eca2053,153,3,2024-02-27T11:56:49.162Z,french_698.wav,0,poule,353,36,5,4,l'anglais et francais,f,2,0.2,-54.93316964,1.97458381
6111a7ef0b637b8d0eca2053,153,3,2024-02-27T11:56:49.162Z,french_698.wav,0,poule,353,36,5,4,l'anglais et francais,f,3,0.25666667,-94.94644501,1.01877906
6111a7ef0b637b8d0eca2053,154,3,2024-02-27T11:56:49.162Z,french_955.wav,0,poule,611,36,5,4,l'anglais et francais,f,0,0.0,49.41572239,1.13440167
6111a7ef0b637b8d0eca2053,154,3,2024-02-27T11:56:49.162Z,french_955.wav,0,poule,611,36,5,4,l'anglais et francais,f,1,0.1,75.37923123,1.49278765
6111a7ef0b637b8d0eca2053,154,3,2024-02-27T11:56:49.162Z,french_955.wav,0,poule,611,36,5,4,l'anglais et francais,f,2,0.2,0.1370905,0.20624254
6111a7ef0b637b8d0eca2053,154,3,2024-02-27T11:56:49.162Z,french_955.wav,0,poule,611,36,5,4,l'anglais et francais,f,3,0.25666667,22.03577701,0.01599226
6111a7ef0b637b8d0eca2053,155,3,2024-02-27T11:56:49.162Z,french_749.wav,0,pull,1076,36,5,4,l'anglais et francais,f,0,0.0,-6.52512876,1.71102694
6111a7ef0b637b8d0eca2053,155,3,2024-02-27T11:56:49.162Z,french_749.wav,0,pull,1076,36,5,4,l'anglais et francais,f,1,0.1,66.04972296,0.07130547
6111a7ef0b637b8d0eca2053,155,3,2024-02-27T11:56:49.162Z,french_749.wav,0,pull,1076,36,5,4,l'anglais et francais,f,2,0.2,-72.89621134,1.03709586
6111a7ef0b637b8d0eca2053,155,3,2024-02-27T11:56:49.162Z,french_749.wav,0,pull,1076,36,5,4,l'anglais et francais,f,3,0.25666667,-46.82302434,1.99027801
6111a7ef0b637b8d0eca2053,156,3,2024-02-27T11:56:49.162Z,french_508.wav,0,poule,251,36,5,4,l'anglais et francais,f,0,0.0,40.98112686,1.35724839
6111a7ef0b637b8d0eca2053,156,3,2024-02-27T11:56:49.162Z,french_508.wav,0,poule,251,36,5,4,l'anglais et francais,f,1,0.1,-56.96831063,1.54051685
6111a7ef0b637b8d0eca2053,156,3,2024-02-27T11:56:49.162Z,french_508.wav,0,poule,251,36,5,4,l'anglais et francais,f,2,0.2,-35.39284842,1.20443674
6111a7ef0b637b8d0eca2053,156,3,2024-02-27T11:56:49.162Z,french_508.wav,0,poule,251,36,5,4,l'anglais et francais,f,3,0.25666667,-19.97238517,1.82942033
6111a7ef0b637b8d0eca2053,157,3,2024-02-27T11:56:49.162Z,french_622.wav,0,pull,450,36,5,4,l'anglais et francais,f,0,0.0,47.12624694,0.11708635
6111a7ef0b637b8d0eca2053,157,3,2024-02-27T11:56:49.162Z,french_622.wav,0,pull,450,36,5,4,l'anglais et francais,f,1,0.1,27.16283734,1.67756831
6111a7ef0b637b8d0eca2053,157,3,2024-02-27T11:56:49.162Z,french_622.wav,0,pull,450,36,5,4,l'anglais et francais,f,2,0.2,55.37707654,0.50575055
6111a7ef0b637b8d0eca2053,157,3,2024-02-27T11:56:49.162Z,french_622.wav,0,pull,450,36,5,4,l'anglais et francais,f,3,0.25666667,-3.25728377,0.46543416
6111a7ef0b637b8d0eca2053,158,3,2024-02-27T11:56:49.162Z,french_579.wav,0,pull,452,36,5,4,l'anglais et francais,f,0,0.0,43.6749768,0.88309836
6111a7ef0b637b8d0eca2053,158,3,2024-02-27T11:56:49.162Z,french_579.wav,0,pull,452,36,5,4,l'anglais et francais,f,1,0.1,44.80331973,0.15383342
6111a7ef0b637b8d0eca2053,158,3,2024-02-27T11:56:49.162Z,french_579.wav,0,pull,452,36,5,4,l'anglais et francais,f,2,0.2,80.34685553,0.11279804
6111a7ef0b637b8d0eca2053,158,3,2024-02-27T11:56:49.162Z,french_579.wav,0,pull,452,36,5,4,l'anglais et francais,f,3,0.25666667,-77.70594339,1.88524282
6111a7ef0b637b8d0eca2053,159,3,2024-02-27T11:56:49.162Z,french_650.wav,0,pull,599,36,5,4,l'anglais et francais,f,0,0.0,-98.04674504,0.50091073
6111a7ef0b637b8d0eca2053,159,3,2024-02-27T11:56:49.162Z,french_650.wav,0,pull,599,36,5,4,l'anglais et francais,f,1,0.1,-80.1546697,0.94744897
6111a7ef0b637b8d0eca2053,159,3,2024-02-27T11:56:49.162Z,french_650.wav,0,pull,599,36,5,4,l'anglais et francais,f,2,0.2,-60.9727692,0.76656919
6111a7ef0b637b8d0eca2053,159,3,2024-02-27T11:56:49.162Z,french_650.wav,0,pull,599,36,5,4,l'anglais et francais,f,3,0.25666667,39.39299736,1.29747512
6111a7ef0b637b8d0eca2053,160,3,2024-02-27T11:56:49.162Z,french_981.wav,0,pull,861,36,5,4,l'anglais et francais,f,0,0.0,-1.54223553,0.66538198
6111a7ef0b637b8d0eca2053,160,3,2024-02-27T11:56:49.162Z,french_981.wav,0,pull,861,36,5,4,l'anglais et francais,f,1,0.1,-78.86121057,1.42802268
6111a7ef0b637b8d0eca2053,160,3,2024-02-27T11:56:49.162Z,french_981.wav,0,pull,861,36,5,4,l'anglais et francais,f,2,0.2,-33.48141771,0.92303184
6111a7ef0b637b8d0eca2053,160,3,2024-02-27T11:56:49.162Z,french_981.wav,0,pull,861,36,5,4,l'anglais et francais,f,3,0.25666667,-47.78773965,0.82545089
6111a7ef0b637b8d0eca2053,161,3,2024-02-27T11:56:49.162Z,french_766.wav,0,pull,456,36,5,4,l'anglais et francais,f,0,0.0,91.85829661,0.12079341
6111a7ef0b637b8d0eca2053,161,3,2024-02-27T11:56:49.162Z,french_766.wav,0,pull,456,36,5,4,l'anglais et francais,f,1,0.1,29.32583948,0.61287095
6111a7ef0b637b8d0eca2053,161,3,2024-02-27T11:56:49.162Z,french_766.wav,0,pull,456,36,5,4,l'anglais et francais,f,2,0.2,71.77245069,1.071897
6111a7ef0b637b8d0eca2053,161,3,2024-02-27T11:56:49.162Z,french_766.wav,0,pull,456,36,5,4,l'anglais et francais,f,3,0.25666667,28.53871253,0.29005596
6111a7ef0b637b8d0eca2053,162,3,2024-02-27T11:56:49.162Z,french_442.wav,0,pull,395,36,5,4,l'anglais et francais,f,0,0.0,60.29330972,0.95088916
6111a7ef0b637b8d0eca2053,162,3,2024-02-27T11:56:49.162Z,french_442.wav,0,pull,395,36,5,4,l'anglais et francais,f,1,0.1,96.30587546,0.89420653
6111a7ef0b637b8d0eca2053,162,3,2024-02-27T11:56:49.162Z,french_442.wav,0,pull,395,36,5,4,l'anglais et francais,f,2,0.2,3.75375275,0.09745987
6111a7ef0b637b8d0eca2053,162,3,2024-02-27T11:56:49.162Z,french_442.wav,0,pull,395,36,5,4,l'anglais et francais,f,3,0.25666667,65.23357012,0.42759775
6111a7ef0b637b8d0eca2053,163,3,2024-02-27T11:56:49.162Z,french_223.wav,0,pull,515,36,5,4,l'anglais et francais,f,0,0.0,4.95143367,1.93703508
6111a7ef0b637b8d0eca2053,163,3,2024-02-27T11:56:49.162Z,french_223.wav,0,pull,515,36,5,4,l'anglais et francais,f,1,0.1,55.42619629,0.30698411
6111a7ef0b637b8d0eca2053,163,3,2024-02-27T11:56:49.162Z,french_223.wav,0,pull,515,36,5,4,l'anglais et francais,f,2,0.2,77.82995017,0.10644958
6111a7ef0b637b8d0eca2053,163,3,2024-02-27T11:56:49.162Z,french_223.wav,0,pull,515,36,5,4,l'anglais et francais,f,3,0.25666667,-85.84724551,0.25911965
6111a7ef0b637b8d0eca2053,164,3,2024-02-27T11:56:49.162Z,french_848.wav,0,pull,557,36,5,4,l'anglais et francais,f,0,0.0,-60.99605007,1.01059702
6111a7ef0b637b8d0eca2053,164,3,2024-02-27T11:56:49.162Z,french_848.wav,0,pull,557,36,5,4,l'anglais et francais,f,1,0.1,-27.05939135,1.98581859
6111a7ef0b637b8d0eca2053,164,3,2024-02-27T11:56:49.162Z,french_848.wav,0,pull,557,36,5,4,l'anglais et francais,f,2,0.2,-10.58439289,0.30142011
6111a7ef0b637b8d0eca2053,164,3,2024-02-27T11:56:49.162Z,french_848.wav,0,pull,557,36,5,4,l'anglais et francais,f,3,0.25666667,-17.47548333,1.16939553
6111a7ef0b637b8d0eca2053,165,3,2024-02-27T11:56:49.162Z,french_111.wav,0,pull,393,36,5,4,l'anglais et francais,f,0,0.0,1.59326178,0.67104434
6111a7ef0b637b8d0eca2053,165,3,2024-02-27T11:56:49.162Z,french_111.wav,0,pull,393,36,5,4,l'anglais et francais,f,1,0.1,-40.8911656,0.22448148
6111a7ef0b637b8d0eca2053,165,3,2024-02-27T11:56:49.162Z,french_111.wav,0,pull,393,36,5,4,l'anglais et francais,f,2,0.2,-66.59771714,1.3255008
6111a7ef0b637b8d0eca2053,165,3,2024-02-27T11:56:49.162Z,french_111.wav,0,pull,393,36,5,4,l'anglais et francais,f,3,0.25666667,93.67842788,0.49085037
6111a7ef0b637b8d0eca2053,166,3,2024-02-27T11:56:49.162Z,french_911.wav,0,pull,426,36,5,4,l'anglais et francais,f,0,0.0,11.85203828,0.91676267
6111a7ef0b637b8d0eca2053,166,3,2024-02-27T11:56:49.162Z,french_911.wav,0,pull,426,36,5,4,l'anglais et francais,f,1,0.1,-24.36206963,0.3897793
6111a7ef0b637b8d0eca2053,166,3,2024-02-27T11:56:49.162Z,french_911.wav,0,pull,426,36,5,4,l'anglais et francais,f,2,0.2,-79.91713821,0.96594055
6111a7ef0b637b8d0eca2053,166,3,2024-02-27T11:56:49.162Z,french_911.wav,0,pull,426,36,5,4,l'anglais et francais,f,3,0.25666667,-65.93332008,1.97851167
6111a7ef0b637b8d0eca2053,167,3,2024-02-27T11:56:49.162Z,french_145.wav,0,pull,222,36,5,4,l'anglais et francais,f,0,0.0,45.95226671,0.38136586
6111a7ef0b637b8d0eca2053,167,3,2024-02-27T11:56:49.162Z,french_145.wav,0,pull,222,36,5,4,l'anglais et francais,f,1,0.1,-66.66601381,1.38589502
6111a7ef0b637b8d0eca2053,167,3,2024-02-27T11:56:49.162Z,french_145.wav,0,pull,222,36,5,4,l'anglais et francais,f,2,0.2,-89.77596615,0.43712509
6111a7ef0b637b8d0eca2053,167,3,2024-02-27T11:56:49.162Z,french_145.wav,0,pull,222,36,5,4,l'anglais et francais,f,3,0.25666667,8.03115864,1.92826262
6111a7ef0b637b8d0eca2053,168,3,2024-02-27T11:56:49.162Z,french_349.wav,0,pull,767,36,5,4,l'anglais et francais,f,0,0.0,73.89254537,0.17403551
6111a7ef0b637b8d0eca2053,168,3,2024-02-27T11:56:49.162Z,french_349.wav,0,pull,767,36,5,4,l'anglais et francais,f,1,0.1,-84.33493486,1.66487719
6111a7ef0b637b8d0eca2053,168,3,2024-02-27T11:56:49.162Z,french_349.wav,0,pull,767,36,5,4,l'anglais et francais,f,2,0.2,-3.2709249,1.53740634
6111a7ef0b637b8d0eca2053,168,3,2024-02-27T11:56:49.162Z,french_349.wav,0,pull,767,36,5,4,l'anglais et francais,f,3,0.25666667,-21.54511299,1.56834066
6111a7ef0b637b8d0eca2053,169,3,2024-02-27T11:56:49.162Z,french_204.wav,0,pull,623,36,5,4,l'anglais et francais,f,0,0.0,-28.36319627,0.07789368
6111a7ef0b637b8d0eca2053,169,3,2024-02-27T11:56:49.162Z,french_204.wav,0,pull,623,36,5,4,l'anglais et francais,f,1,0.1,-92.66891013,0.00203791
6111a7ef0b637b8d0eca2053,169,3,2024-02-27T11:56:49.162Z,french_204.wav,0,pull,623,36,5,4,l'anglais et francais,f,2,0.2,96.29592204,1.92374636
6111a7ef0b637b8d0eca2053,169,3,2024-02-27T11:56:49.162Z,french_204.wav,0,pull,623,36,5,4,l'anglais et francais,f,3,0.25666667,-46.81515004,0.97947469
6111a7ef0b637b8d0eca2053,170,3,2024-02-27T11:56:49.162Z,french_781.wav,0,poule,305,36,5,4,l'anglais et francais,f,0,0.0,33.25938538,1.27105286
6111a7ef0b637b8d0eca2053,170,3,2024-02-27T11:56:49.162Z,french_781.wav,0,poule,305,36,5,4,l'anglais et francais,f,1,0.1,-13.90292419,0.93357863
6111a7ef0b637b8d0eca2053,170,3,2024-02-27T11:56:49.162Z,french_781.wav,0,poule,305,36,5,4,l'anglais et francais,f,2,0.2,-71.59350782,1.0124146
6111a7ef0b637b8d0eca2053,170,3,2024-02-27T11:56:49.162Z,french_781.wav,0,poule,305,36,5,4,l'anglais et francais,f,3,0.25666667,57.07291034,0.68511696
6111a7ef0b637b8d0eca2053,171,3,2024-02-27T11:56:49.162Z,french_229.wav,0,poule,401,36,5,4,l'anglais et francais,f,0,0.0,17.32899675,0.73401758
6111a7ef0b637b8d0eca2053,171,3,2024-02-27T11:56:49.162Z,french_229.wav,0,poule,401,36,5,4,l'anglais et francais,f,1,0.1,-73.09434366,0.90990932
6111a7ef0b637b8d0eca2053,171,3,2024-02-27T11:56:49.162Z,french_229.wav,0,poule,401,36,5,4,l'anglais et francais,f,2,0.2,-24.47190501,0.8791544
6111a7ef0b637b8d0eca2053,171,3,2024-02-27T11:56:49.162Z,french_229.wav,0,poule,401,36,5,4,l'anglais et francais,f,3,0.25666667,11.45282545,1.1872524
6111a7ef0b637b8d0eca2053,172,3,2024-02-27T11:56:49.162Z,french_483.wav,0,pull,597,36,5,4,l'anglais et francais,f,0,0.0,97.94153635,0.77689604
6111a7ef0b637b8d0eca2053,172,3,2024-02-27T11:56:49.162Z,french_483.wav,0,pull,597,36,5,4,l'anglais et francais,f,1,0.1,11.27160269,0.07842581
6111a7ef0b637b8d0eca2053,172,3,2024-02-27T11:56:49.162Z,french_483.wav,0,pull,597,36,5,4,l'anglais et francais,f,2,0.2,92.4188156,1.30147174
6111a7ef0b637b8d0eca2053,172,3,2024-02-27T11:56:49.162Z,french_483.wav,0,pull,597,36,5,4,l'anglais et francais,f,3,0.25666667,46.65552131,0.73281584
6111a7ef0b637b8d0eca2053,173,3,2024-02-27T11:56:49.162Z,french_278.wav,0,poule,591,36,5,4,l'anglais et francais,f,0,0.0,0.92058819,0.58166089
6111a7ef0b637b8d0eca2053,173,3,2024-02-27T11:56:49.162Z,french_278.wav,0,poule,591,36,5,4,l'anglais et francais,f,1,0.1,-11.12293645,0.6190237
