subj,trial,block,date,stim,stim_order,response,rt,age,english,french,language,sex,param_index,segment,pitch,stretch
5cee69353057030001b33fc4,0,0,2024-02-27T12:07:40.296Z,french_874.wav,0,poule,2483,29,5,4,English,m,0,0.0,-35.96007818,0.94126631
5cee69353057030001b33fc4,0,0,2024-02-27T12:07:40.296Z,french_874.wav,0,poule,2483,29,5,4,English,m,1,0.1,93.27546243,1.47253108
5cee69353057030001b33fc4,0,0,2024-02-27T12:07:40.296Z,french_874.wav,0,poule,2483,29,5,4,English,m,2,0.2,-82.54110259,1.71868685
5cee69353057030001b33fc4,0,0,2024-02-27T12:07:40.296Z,french_874.wav,0,poule,2483,29,5,4,English,m,3,0.25666667,1.86870901,0.93280664
5cee69353057030001b33fc4,1,0,2024-02-27T12:07:40.296Z,french_226.wav,0,poule,1745,29,5,4,English,m,0,0.0,85.32452385,1.68909252
5cee69353057030001b33fc4,1,0,2024-02-27T12:07:40.296Z,french_226.wav,0,poule,1745,29,5,4,English,m,1,0.1,-25.06918931,0.17046025
5cee69353057030001b33fc4,1,0,2024-02-27T12:07:40.296Z,french_226.wav,0,poule,1745,29,5,4,English,m,2,0.2,-17.89357971,0.61029189
5cee69353057030001b33fc4,1,0,2024-02-27T12:07:40.296Z,french_226.wav,0,poule,1745,29,5,4,English,m,3,0.25666667,45.31971501,0.53544367
5cee69353057030001b33fc4,2,0,2024-02-27T12:07:40.296Z,french_956.wav,0,poule,1514,29,5,4,English,m,0,0.0,-17.2568339,1.05718214
5cee69353057030001b33fc4,2,0,2024-02-27T12:07:40.296Z,french_956.wav,0,poule,1514,29,5,4,English,m,1,0.1,60.67626876,1.43914937
5cee69353057030001b33fc4,2,0,2024-02-27T12:07:40.296Z,french_956.wav,0,poule,1514,29,5,4,English,m,2,0.2,40.71216363,0.83140318
5cee69353057030001b33fc4,2,0,2024-02-27T12:07:40.296Z,french_956.wav,0,poule,1514,29,5,4,English,m,3,0.25666667,16.50619481,0.14426626
5cee69353057030001b33fc4,3,0,2024-02-27T12:07:40.296Z,french_32.wav,0,poule,1584,29,5,4,English,m,0,0.0,-95.97477456,1.5242089
5cee69353057030001b33fc4,3,0,2024-02-27T12:07:40.296Z,french_32.wav,0,poule,1584,29,5,4,English,m,1,0.1,-25.31572866,0.2047991
5cee69353057030001b33fc4,3,0,2024-02-27T12:07:40.296Z,french_32.wav,0,poule,1584,29,5,4,English,m,2,0.2,-25.0492654,1.11388434
5cee69353057030001b33fc4,3,0,2024-02-27T12:07:40.296Z,french_32.wav,0,poule,1584,29,5,4,English,m,3,0.25666667,-74.56689772,1.18772321
5cee69353057030001b33fc4,4,0,2024-02-27T12:07:40.296Z,french_906.wav,0,poule,1034,29,5,4,English,m,0,0.0,-13.49448879,0.31236465
5cee69353057030001b33fc4,4,0,2024-02-27T12:07:40.296Z,french_906.wav,0,poule,1034,29,5,4,English,m,1,0.1,31.46373863,1.12113229
5cee69353057030001b33fc4,4,0,2024-02-27T12:07:40.296Z,french_906.wav,0,poule,1034,29,5,4,English,m,2,0.2,-49.02376816,0.0749788
5cee69353057030001b33fc4,4,0,2024-02-27T12:07:40.296Z,french_906.wav,0,poule,1034,29,5,4,English,m,3,0.25666667,26.58933429,0.8331551
5cee69353057030001b33fc4,5,0,2024-02-27T12:07:40.296Z,french_519.wav,0,pull,3268,29,5,4,English,m,0,0.0,86.76456043,1.09635868
5cee69353057030001b33fc4,5,0,2024-02-27T12:07:40.296Z,french_519.wav,0,pull,3268,29,5,4,English,m,1,0.1,8.46145491,1.19136691
5cee69353057030001b33fc4,5,0,2024-02-27T12:07:40.296Z,french_519.wav,0,pull,3268,29,5,4,English,m,2,0.2,-48.6822419,1.7889624
5cee69353057030001b33fc4,5,0,2024-02-27T12:07:40.296Z,french_519.wav,0,pull,3268,29,5,4,English,m,3,0.25666667,-44.03350662,1.1754675
5cee69353057030001b33fc4,6,0,2024-02-27T12:07:40.296Z,french_117.wav,0,poule,1650,29,5,4,English,m,0,0.0,6.74214439,0.42718416
5cee69353057030001b33fc4,6,0,2024-02-27T12:07:40.296Z,french_117.wav,0,poule,1650,29,5,4,English,m,1,0.1,3.15736066,1.82203077
5cee69353057030001b33fc4,6,0,2024-02-27T12:07:40.296Z,french_117.wav,0,poule,1650,29,5,4,English,m,2,0.2,10.42128043,0.49696174
5cee69353057030001b33fc4,6,0,2024-02-27T12:07:40.296Z,french_117.wav,0,poule,1650,29,5,4,English,m,3,0.25666667,89.20041031,0.34350523
5cee69353057030001b33fc4,7,0,2024-02-27T12:07:40.296Z,french_750.wav,0,poule,489,29,5,4,English,m,0,0.0,36.16157767,1.69010054
5cee69353057030001b33fc4,7,0,2024-02-27T12:07:40.296Z,french_750.wav,0,poule,489,29,5,4,English,m,1,0.1,-94.09249833,0.7877665
5cee69353057030001b33fc4,7,0,2024-02-27T12:07:40.296Z,french_750.wav,0,poule,489,29,5,4,English,m,2,0.2,97.07405484,0.99353813
5cee69353057030001b33fc4,7,0,2024-02-27T12:07:40.296Z,french_750.wav,0,poule,489,29,5,4,English,m,3,0.25666667,-8.28043626,0.64245914
5cee69353057030001b33fc4,8,0,2024-02-27T12:07:40.296Z,french_687.wav,0,poule,1186,29,5,4,English,m,0,0.0,-41.56393701,1.23976021
5cee69353057030001b33fc4,8,0,2024-02-27T12:07:40.296Z,french_687.wav,0,poule,1186,29,5,4,English,m,1,0.1,-5.27268445,0.49715047
5cee69353057030001b33fc4,8,0,2024-02-27T12:07:40.296Z,french_687.wav,0,poule,1186,29,5,4,English,m,2,0.2,58.5588678,0.70596761
5cee69353057030001b33fc4,8,0,2024-02-27T12:07:40.296Z,french_687.wav,0,poule,1186,29,5,4,English,m,3,0.25666667,-41.26863304,1.34000296
5cee69353057030001b33fc4,9,0,2024-02-27T12:07:40.296Z,french_190.wav,0,poule,1861,29,5,4,English,m,0,0.0,69.06529403,1.3481685
5cee69353057030001b33fc4,9,0,2024-02-27T12:07:40.296Z,french_190.wav,0,poule,1861,29,5,4,English,m,1,0.1,69.42395119,0.73404764
5cee69353057030001b33fc4,9,0,2024-02-27T12:07:40.296Z,french_190.wav,0,poule,1861,29,5,4,English,m,2,0.2,67.79801708,1.27794388
5cee69353057030001b33fc4,9,0,2024-02-27T12:07:40.296Z,french_190.wav,0,poule,1861,29,5,4,English,m,3,0.25666667,63.92857008,1.43465572
5cee69353057030001b33fc4,10,0,2024-02-27T12:07:40.296Z,french_300.wav,0,poule,977,29,5,4,English,m,0,0.0,-13.28568226,1.4723541
5cee69353057030001b33fc4,10,0,2024-02-27T12:07:40.296Z,french_300.wav,0,poule,977,29,5,4,English,m,1,0.1,80.95964609,1.07308012
5cee69353057030001b33fc4,10,0,2024-02-27T12:07:40.296Z,french_300.wav,0,poule,977,29,5,4,English,m,2,0.2,97.81212175,1.14674573
5cee69353057030001b33fc4,10,0,2024-02-27T12:07:40.296Z,french_300.wav,0,poule,977,29,5,4,English,m,3,0.25666667,60.85112551,1.78656344
5cee69353057030001b33fc4,11,0,2024-02-27T12:07:40.296Z,french_319.wav,0,poule,927,29,5,4,English,m,0,0.0,63.69489547,0.79356863
5cee69353057030001b33fc4,11,0,2024-02-27T12:07:40.296Z,french_319.wav,0,poule,927,29,5,4,English,m,1,0.1,60.76449486,1.37507237
5cee69353057030001b33fc4,11,0,2024-02-27T12:07:40.296Z,french_319.wav,0,poule,927,29,5,4,English,m,2,0.2,-58.82123998,1.06369674
5cee69353057030001b33fc4,11,0,2024-02-27T12:07:40.296Z,french_319.wav,0,poule,927,29,5,4,English,m,3,0.25666667,43.46614377,1.64660946
5cee69353057030001b33fc4,12,0,2024-02-27T12:07:40.296Z,french_892.wav,0,poule,3176,29,5,4,English,m,0,0.0,-9.89123065,1.43345907
5cee69353057030001b33fc4,12,0,2024-02-27T12:07:40.296Z,french_892.wav,0,poule,3176,29,5,4,English,m,1,0.1,-29.48301763,0.60115207
5cee69353057030001b33fc4,12,0,2024-02-27T12:07:40.296Z,french_892.wav,0,poule,3176,29,5,4,English,m,2,0.2,-20.12274852,0.51672516
5cee69353057030001b33fc4,12,0,2024-02-27T12:07:40.296Z,french_892.wav,0,poule,3176,29,5,4,English,m,3,0.25666667,-63.31716547,0.2983609
5cee69353057030001b33fc4,13,0,2024-02-27T12:07:40.296Z,french_356.wav,0,poule,1066,29,5,4,English,m,0,0.0,-28.24477507,0.35227097
5cee69353057030001b33fc4,13,0,2024-02-27T12:07:40.296Z,french_356.wav,0,poule,1066,29,5,4,English,m,1,0.1,-36.63699676,1.16218152
5cee69353057030001b33fc4,13,0,2024-02-27T12:07:40.296Z,french_356.wav,0,poule,1066,29,5,4,English,m,2,0.2,67.9524461,1.82395355
5cee69353057030001b33fc4,13,0,2024-02-27T12:07:40.296Z,french_356.wav,0,poule,1066,29,5,4,English,m,3,0.25666667,8.53170414,1.63669257
5cee69353057030001b33fc4,14,0,2024-02-27T12:07:40.296Z,french_991.wav,0,poule,560,29,5,4,English,m,0,0.0,-95.18678644,1.24715664
5cee69353057030001b33fc4,14,0,2024-02-27T12:07:40.296Z,french_991.wav,0,poule,560,29,5,4,English,m,1,0.1,-65.70936013,0.64410058
5cee69353057030001b33fc4,14,0,2024-02-27T12:07:40.296Z,french_991.wav,0,poule,560,29,5,4,English,m,2,0.2,44.22545462,0.83152977
5cee69353057030001b33fc4,14,0,2024-02-27T12:07:40.296Z,french_991.wav,0,poule,560,29,5,4,English,m,3,0.25666667,31.01090832,1.93309413
5cee69353057030001b33fc4,15,0,2024-02-27T12:07:40.296Z,french_948.wav,0,poule,577,29,5,4,English,m,0,0.0,54.2755123,0.60698289
5cee69353057030001b33fc4,15,0,2024-02-27T12:07:40.296Z,french_948.wav,0,poule,577,29,5,4,English,m,1,0.1,-26.53776759,1.07019337
5cee69353057030001b33fc4,15,0,2024-02-27T12:07:40.296Z,french_948.wav,0,poule,577,29,5,4,English,m,2,0.2,-51.24045856,1.47276383
5cee69353057030001b33fc4,15,0,2024-02-27T12:07:40.296Z,french_948.wav,0,poule,577,29,5,4,English,m,3,0.25666667,84.11086463,1.01044713
5cee69353057030001b33fc4,16,0,2024-02-27T12:07:40.296Z,french_119.wav,0,poule,1027,29,5,4,English,m,0,0.0,9.8100641,0.76259974
5cee69353057030001b33fc4,16,0,2024-02-27T12:07:40.296Z,french_119.wav,0,poule,1027,29,5,4,English,m,1,0.1,19.57169954,1.49190063
5cee69353057030001b33fc4,16,0,2024-02-27T12:07:40.296Z,french_119.wav,0,poule,1027,29,5,4,English,m,2,0.2,-1.41265712,0.43709034
5cee69353057030001b33fc4,16,0,2024-02-27T12:07:40.296Z,french_119.wav,0,poule,1027,29,5,4,English,m,3,0.25666667,-78.33165967,1.93463996
5cee69353057030001b33fc4,17,0,2024-02-27T12:07:40.296Z,french_80.wav,0,poule,819,29,5,4,English,m,0,0.0,-4.85614904,0.67500586
5cee69353057030001b33fc4,17,0,2024-02-27T12:07:40.296Z,french_80.wav,0,poule,819,29,5,4,English,m,1,0.1,-36.95221558,0.10692408
5cee69353057030001b33fc4,17,0,2024-02-27T12:07:40.296Z,french_80.wav,0,poule,819,29,5,4,English,m,2,0.2,-16.65007611,1.27299782
5cee69353057030001b33fc4,17,0,2024-02-27T12:07:40.296Z,french_80.wav,0,poule,819,29,5,4,English,m,3,0.25666667,57.44018977,0.9780754
5cee69353057030001b33fc4,18,0,2024-02-27T12:07:40.296Z,french_313.wav,0,poule,779,29,5,4,English,m,0,0.0,50.15458506,0.55380102
5cee69353057030001b33fc4,18,0,2024-02-27T12:07:40.296Z,french_313.wav,0,poule,779,29,5,4,English,m,1,0.1,2.46815661,0.88494107
5cee69353057030001b33fc4,18,0,2024-02-27T12:07:40.296Z,french_313.wav,0,poule,779,29,5,4,English,m,2,0.2,44.14025365,0.65214702
5cee69353057030001b33fc4,18,0,2024-02-27T12:07:40.296Z,french_313.wav,0,poule,779,29,5,4,English,m,3,0.25666667,-56.8276357,0.5616472
5cee69353057030001b33fc4,19,0,2024-02-27T12:07:40.296Z,french_163.wav,0,poule,706,29,5,4,English,m,0,0.0,95.00435891,1.26837246
5cee69353057030001b33fc4,19,0,2024-02-27T12:07:40.296Z,french_163.wav,0,poule,706,29,5,4,English,m,1,0.1,41.67922454,0.25754486
5cee69353057030001b33fc4,19,0,2024-02-27T12:07:40.296Z,french_163.wav,0,poule,706,29,5,4,English,m,2,0.2,-79.43338234,1.96804031
5cee69353057030001b33fc4,19,0,2024-02-27T12:07:40.296Z,french_163.wav,0,poule,706,29,5,4,English,m,3,0.25666667,-47.45672342,0.46721947
5cee69353057030001b33fc4,20,0,2024-02-27T12:07:40.296Z,french_200.wav,0,poule,562,29,5,4,English,m,0,0.0,-10.65818699,0.95052916
5cee69353057030001b33fc4,20,0,2024-02-27T12:07:40.296Z,french_200.wav,0,poule,562,29,5,4,English,m,1,0.1,-8.96413357,0.11424824
5cee69353057030001b33fc4,20,0,2024-02-27T12:07:40.296Z,french_200.wav,0,poule,562,29,5,4,English,m,2,0.2,-78.89627616,1.718039
5cee69353057030001b33fc4,20,0,2024-02-27T12:07:40.296Z,french_200.wav,0,poule,562,29,5,4,English,m,3,0.25666667,8.01745362,1.42690066
5cee69353057030001b33fc4,21,0,2024-02-27T12:07:40.296Z,french_805.wav,0,poule,555,29,5,4,English,m,0,0.0,21.15897581,1.3244225
5cee69353057030001b33fc4,21,0,2024-02-27T12:07:40.296Z,french_805.wav,0,poule,555,29,5,4,English,m,1,0.1,-84.51795283,0.68750265
5cee69353057030001b33fc4,21,0,2024-02-27T12:07:40.296Z,french_805.wav,0,poule,555,29,5,4,English,m,2,0.2,72.20878309,0.56084624
5cee69353057030001b33fc4,21,0,2024-02-27T12:07:40.296Z,french_805.wav,0,poule,555,29,5,4,English,m,3,0.25666667,-28.14016055,0.45412894
5cee69353057030001b33fc4,22,0,2024-02-27T12:07:40.296Z,french_83.wav,0,poule,906,29,5,4,English,m,0,0.0,45.44740295,0.80263788
5cee69353057030001b33fc4,22,0,2024-02-27T12:07:40.296Z,french_83.wav,0,poule,906,29,5,4,English,m,1,0.1,42.82646372,1.96742974
5cee69353057030001b33fc4,22,0,2024-02-27T12:07:40.296Z,french_83.wav,0,poule,906,29,5,4,English,m,2,0.2,-9.21139132,0.40483772
5cee69353057030001b33fc4,22,0,2024-02-27T12:07:40.296Z,french_83.wav,0,poule,906,29,5,4,English,m,3,0.25666667,30.29486893,0.1024326
5cee69353057030001b33fc4,23,0,2024-02-27T12:07:40.296Z,french_170.wav,0,poule,1379,29,5,4,English,m,0,0.0,33.63406691,1.37140183
5cee69353057030001b33fc4,23,0,2024-02-27T12:07:40.296Z,french_170.wav,0,poule,1379,29,5,4,English,m,1,0.1,-66.14633185,0.98919038
5cee69353057030001b33fc4,23,0,2024-02-27T12:07:40.296Z,french_170.wav,0,poule,1379,29,5,4,English,m,2,0.2,-74.26701986,1.38629831
5cee69353057030001b33fc4,23,0,2024-02-27T12:07:40.296Z,french_170.wav,0,poule,1379,29,5,4,English,m,3,0.25666667,32.33295865,0.43392523
5cee69353057030001b33fc4,24,0,2024-02-27T12:07:40.296Z,french_427.wav,0,poule,936,29,5,4,English,m,0,0.0,-76.02138843,1.52776537
5cee69353057030001b33fc4,24,0,2024-02-27T12:07:40.296Z,french_427.wav,0,poule,936,29,5,4,English,m,1,0.1,-79.3514541,0.93213061
5cee69353057030001b33fc4,24,0,2024-02-27T12:07:40.296Z,french_427.wav,0,poule,936,29,5,4,English,m,2,0.2,33.13783193,1.10363763
5cee69353057030001b33fc4,24,0,2024-02-27T12:07:40.296Z,french_427.wav,0,poule,936,29,5,4,English,m,3,0.25666667,-70.0412192,1.44956109
5cee69353057030001b33fc4,25,0,2024-02-27T12:07:40.296Z,french_60.wav,0,poule,4273,29,5,4,English,m,0,0.0,-40.9463495,0.32779355
5cee69353057030001b33fc4,25,0,2024-02-27T12:07:40.296Z,french_60.wav,0,poule,4273,29,5,4,English,m,1,0.1,8.65325309,0.55656076
5cee69353057030001b33fc4,25,0,2024-02-27T12:07:40.296Z,french_60.wav,0,poule,4273,29,5,4,English,m,2,0.2,-18.23980249,0.81322525
5cee69353057030001b33fc4,25,0,2024-02-27T12:07:40.296Z,french_60.wav,0,poule,4273,29,5,4,English,m,3,0.25666667,-34.79014982,0.57120985
5cee69353057030001b33fc4,26,0,2024-02-27T12:07:40.296Z,french_578.wav,0,poule,919,29,5,4,English,m,0,0.0,-7.38817871,1.21970749
5cee69353057030001b33fc4,26,0,2024-02-27T12:07:40.296Z,french_578.wav,0,poule,919,29,5,4,English,m,1,0.1,-62.82402322,1.48191428
5cee69353057030001b33fc4,26,0,2024-02-27T12:07:40.296Z,french_578.wav,0,poule,919,29,5,4,English,m,2,0.2,-74.03812343,0.32639168
5cee69353057030001b33fc4,26,0,2024-02-27T12:07:40.296Z,french_578.wav,0,poule,919,29,5,4,English,m,3,0.25666667,-40.1929109,0.05147762
5cee69353057030001b33fc4,27,0,2024-02-27T12:07:40.296Z,french_885.wav,0,poule,1009,29,5,4,English,m,0,0.0,33.82264354,0.94046277
5cee69353057030001b33fc4,27,0,2024-02-27T12:07:40.296Z,french_885.wav,0,poule,1009,29,5,4,English,m,1,0.1,-17.07734064,0.79714646
5cee69353057030001b33fc4,27,0,2024-02-27T12:07:40.296Z,french_885.wav,0,poule,1009,29,5,4,English,m,2,0.2,-15.93967404,1.26873891
5cee69353057030001b33fc4,27,0,2024-02-27T12:07:40.296Z,french_885.wav,0,poule,1009,29,5,4,English,m,3,0.25666667,58.67746901,1.69592015
5cee69353057030001b33fc4,28,0,2024-02-27T12:07:40.296Z,french_597.wav,0,poule,829,29,5,4,English,m,0,0.0,78.21673508,0.32061172
5cee69353057030001b33fc4,28,0,2024-02-27T12:07:40.296Z,french_597.wav,0,poule,829,29,5,4,English,m,1,0.1,48.44931265,1.01687051
5cee69353057030001b33fc4,28,0,2024-02-27T12:07:40.296Z,french_597.wav,0,poule,829,29,5,4,English,m,2,0.2,-9.21876948,0.22158162
5cee69353057030001b33fc4,28,0,2024-02-27T12:07:40.296Z,french_597.wav,0,poule,829,29,5,4,English,m,3,0.25666667,-95.47680095,0.62073139
5cee69353057030001b33fc4,29,0,2024-02-27T12:07:40.296Z,french_695.wav,0,pull,3571,29,5,4,English,m,0,0.0,-57.6665866,1.09792482
5cee69353057030001b33fc4,29,0,2024-02-27T12:07:40.296Z,french_695.wav,0,pull,3571,29,5,4,English,m,1,0.1,6.09893846,1.46549104
5cee69353057030001b33fc4,29,0,2024-02-27T12:07:40.296Z,french_695.wav,0,pull,3571,29,5,4,English,m,2,0.2,-80.8229011,1.66085764
5cee69353057030001b33fc4,29,0,2024-02-27T12:07:40.296Z,french_695.wav,0,pull,3571,29,5,4,English,m,3,0.256666667,0.00737669519,1.19228029
5cee69353057030001b33fc4,30,0,2024-02-27T12:07:40.296Z,french_52.wav,0,poule,1495,29,5,4,English,m,0,0.0,77.15950351,1.06345864
5cee69353057030001b33fc4,30,0,2024-02-27T12:07:40.296Z,french_52.wav,0,poule,1495,29,5,4,English,m,1,0.1,66.43146777,1.73071791
5cee69353057030001b33fc4,30,0,2024-02-27T12:07:40.296Z,french_52.wav,0,poule,1495,29,5,4,English,m,2,0.2,76.85444305,1.08790246
5cee69353057030001b33fc4,30,0,2024-02-27T12:07:40.296Z,french_52.wav,0,poule,1495,29,5,4,English,m,3,0.25666667,-69.48513432,0.32336701
5cee69353057030001b33fc4,31,0,2024-02-27T12:07:40.296Z,french_463.wav,0,poule,1382,29,5,4,English,m,0,0.0,-19.30652055,0.66062429
5cee69353057030001b33fc4,31,0,2024-02-27T12:07:40.296Z,french_463.wav,0,poule,1382,29,5,4,English,m,1,0.1,40.7979064,1.38698103
5cee69353057030001b33fc4,31,0,2024-02-27T12:07:40.296Z,french_463.wav,0,poule,1382,29,5,4,English,m,2,0.2,73.8964325,0.77621561
5cee69353057030001b33fc4,31,0,2024-02-27T12:07:40.296Z,french_463.wav,0,poule,1382,29,5,4,English,m,3,0.25666667,-55.7146218,0.65457598
5cee69353057030001b33fc4,32,0,2024-02-27T12:07:40.296Z,french_845.wav,0,poule,1276,29,5,4,English,m,0,0.0,-4.24220541,1.81527349
5cee69353057030001b33fc4,32,0,2024-02-27T12:07:40.296Z,french_845.wav,0,poule,1276,29,5,4,English,m,1,0.1,-33.05758094,0.43145559
5cee69353057030001b33fc4,32,0,2024-02-27T12:07:40.296Z,french_845.wav,0,poule,1276,29,5,4,English,m,2,0.2,-22.8575131,1.45726833
5cee69353057030001b33fc4,32,0,2024-02-27T12:07:40.296Z,french_845.wav,0,poule,1276,29,5,4,English,m,3,0.25666667,-28.52835037,1.38023089
5cee69353057030001b33fc4,33,0,2024-02-27T12:07:40.296Z,french_223.wav,0,pull,2498,29,5,4,English,m,0,0.0,4.95143367,1.93703508
5cee69353057030001b33fc4,33,0,2024-02-27T12:07:40.296Z,french_223.wav,0,pull,2498,29,5,4,English,m,1,0.1,55.42619629,0.30698411
5cee69353057030001b33fc4,33,0,2024-02-27T12:07:40.296Z,french_223.wav,0,pull,2498,29,5,4,English,m,2,0.2,77.82995017,0.10644958
5cee69353057030001b33fc4,33,0,2024-02-27T12:07:40.296Z,french_223.wav,0,pull,2498,29,5,4,English,m,3,0.25666667,-85.84724551,0.25911965
5cee69353057030001b33fc4,34,0,2024-02-27T12:07:40.296Z,french_848.wav,0,poule,777,29,5,4,English,m,0,0.0,-60.99605007,1.01059702
5cee69353057030001b33fc4,34,0,2024-02-27T12:07:40.296Z,french_848.wav,0,poule,777,29,5,4,English,m,1,0.1,-27.05939135,1.98581859
5cee69353057030001b33fc4,34,0,2024-02-27T12:07:40.296Z,french_848.wav,0,poule,777,29,5,4,English,m,2,0.2,-10.58439289,0.30142011
5cee69353057030001b33fc4,34,0,2024-02-27T12:07:40.296Z,french_848.wav,0,poule,777,29,5,4,English,m,3,0.25666667,-17.47548333,1.16939553
5cee69353057030001b33fc4,35,0,2024-02-27T12:07:40.296Z,french_247.wav,0,poule,402,29,5,4,English,m,0,0.0,31.18827639,0.50646138
5cee69353057030001b33fc4,35,0,2024-02-27T12:07:40.296Z,french_247.wav,0,poule,402,29,5,4,English,m,1,0.1,28.69447174,0.63180121
5cee69353057030001b33fc4,35,0,2024-02-27T12:07:40.296Z,french_247.wav,0,poule,402,29,5,4,English,m,2,0.2,-68.83088208,1.73165753
5cee69353057030001b33fc4,35,0,2024-02-27T12:07:40.296Z,french_247.wav,0,poule,402,29,5,4,English,m,3,0.25666667,44.69710936,1.77415142
5cee69353057030001b33fc4,36,0,2024-02-27T12:07:40.296Z,french_731.wav,0,poule,1686,29,5,4,English,m,0,0.0,52.82888701,1.42077684
5cee69353057030001b33fc4,36,0,2024-02-27T12:07:40.296Z,french_731.wav,0,poule,1686,29,5,4,English,m,1,0.1,44.66747194,0.2996776
5cee69353057030001b33fc4,36,0,2024-02-27T12:07:40.296Z,french_731.wav,0,poule,1686,29,5,4,English,m,2,0.2,83.54065351,1.21708869
5cee69353057030001b33fc4,36,0,2024-02-27T12:07:40.296Z,french_731.wav,0,poule,1686,29,5,4,English,m,3,0.25666667,-50.41579204,1.31490505
5cee69353057030001b33fc4,37,0,2024-02-27T12:07:40.296Z,french_834.wav,0,poule,729,29,5,4,English,m,0,0.0,-86.08965853,1.35817583
5cee69353057030001b33fc4,37,0,2024-02-27T12:07:40.296Z,french_834.wav,0,poule,729,29,5,4,English,m,1,0.1,69.78931281,0.2902945
5cee69353057030001b33fc4,37,0,2024-02-27T12:07:40.296Z,french_834.wav,0,poule,729,29,5,4,English,m,2,0.2,-42.1324214,0.84488429
5cee69353057030001b33fc4,37,0,2024-02-27T12:07:40.296Z,french_834.wav,0,poule,729,29,5,4,English,m,3,0.25666667,-13.11810425,0.59655356
5cee69353057030001b33fc4,38,0,2024-02-27T12:07:40.296Z,french_159.wav,0,poule,1088,29,5,4,English,m,0,0.0,-35.81772681,1.09204322
5cee69353057030001b33fc4,38,0,2024-02-27T12:07:40.296Z,french_159.wav,0,poule,1088,29,5,4,English,m,1,0.1,-81.24007344,1.04236488
5cee69353057030001b33fc4,38,0,2024-02-27T12:07:40.296Z,french_159.wav,0,poule,1088,29,5,4,English,m,2,0.2,-76.66667718,0.27370424
5cee69353057030001b33fc4,38,0,2024-02-27T12:07:40.296Z,french_159.wav,0,poule,1088,29,5,4,English,m,3,0.25666667,-12.73742482,0.41375192
5cee69353057030001b33fc4,39,0,2024-02-27T12:07:40.296Z,french_690.wav,0,poule,806,29,5,4,English,m,0,0.0,79.01312907,1.49686193
5cee69353057030001b33fc4,39,0,2024-02-27T12:07:40.296Z,french_690.wav,0,poule,806,29,5,4,English,m,1,0.1,-50.63616883,0.92741038
5cee69353057030001b33fc4,39,0,2024-02-27T12:07:40.296Z,french_690.wav,0,poule,806,29,5,4,English,m,2,0.2,19.49439666,0.30770403
5cee69353057030001b33fc4,39,0,2024-02-27T12:07:40.296Z,french_690.wav,0,poule,806,29,5,4,English,m,3,0.25666667,-20.64233715,0.53460579
5cee69353057030001b33fc4,40,0,2024-02-27T12:07:40.296Z,french_220.wav,0,poule,1695,29,5,4,English,m,0,0.0,99.39862809,1.95391084
5cee69353057030001b33fc4,40,0,2024-02-27T12:07:40.296Z,french_220.wav,0,poule,1695,29,5,4,English,m,1,0.1,-16.44954754,1.60430152
5cee69353057030001b33fc4,40,0,2024-02-27T12:07:40.296Z,french_220.wav,0,poule,1695,29,5,4,English,m,2,0.2,-73.93109837,1.1953066
5cee69353057030001b33fc4,40,0,2024-02-27T12:07:40.296Z,french_220.wav,0,poule,1695,29,5,4,English,m,3,0.25666667,-37.75571533,0.34699919
5cee69353057030001b33fc4,41,0,2024-02-27T12:07:40.296Z,french_735.wav,0,poule,2641,29,5,4,English,m,0,0.0,16.11120967,0.14330821
5cee69353057030001b33fc4,41,0,2024-02-27T12:07:40.296Z,french_735.wav,0,poule,2641,29,5,4,English,m,1,0.1,-19.98897555,0.00237292
5cee69353057030001b33fc4,41,0,2024-02-27T12:07:40.296Z,french_735.wav,0,poule,2641,29,5,4,English,m,2,0.2,68.29513728,1.1733856
5cee69353057030001b33fc4,41,0,2024-02-27T12:07:40.296Z,french_735.wav,0,poule,2641,29,5,4,English,m,3,0.25666667,31.40150104,0.51599842
5cee69353057030001b33fc4,42,0,2024-02-27T12:07:40.296Z,french_726.wav,0,poule,939,29,5,4,English,m,0,0.0,24.00791096,1.57962765
5cee69353057030001b33fc4,42,0,2024-02-27T12:07:40.296Z,french_726.wav,0,poule,939,29,5,4,English,m,1,0.1,-92.28715444,0.67026409
5cee69353057030001b33fc4,42,0,2024-02-27T12:07:40.296Z,french_726.wav,0,poule,939,29,5,4,English,m,2,0.2,-14.16316682,0.1799528
5cee69353057030001b33fc4,42,0,2024-02-27T12:07:40.296Z,french_726.wav,0,poule,939,29,5,4,English,m,3,0.25666667,30.70182153,1.72405897
5cee69353057030001b33fc4,43,0,2024-02-27T12:07:40.296Z,french_569.wav,0,poule,537,29,5,4,English,m,0,0.0,14.0156596,1.29627558
5cee69353057030001b33fc4,43,0,2024-02-27T12:07:40.296Z,french_569.wav,0,poule,537,29,5,4,English,m,1,0.1,85.00283799,1.08637511
5cee69353057030001b33fc4,43,0,2024-02-27T12:07:40.296Z,french_569.wav,0,poule,537,29,5,4,English,m,2,0.2,-53.61423207,1.60007367
5cee69353057030001b33fc4,43,0,2024-02-27T12:07:40.296Z,french_569.wav,0,poule,537,29,5,4,English,m,3,0.25666667,-38.88478833,0.57872623
5cee69353057030001b33fc4,44,0,2024-02-27T12:07:40.296Z,french_75.wav,0,poule,448,29,5,4,English,m,0,0.0,-2.54190785,0.75594209
5cee69353057030001b33fc4,44,0,2024-02-27T12:07:40.296Z,french_75.wav,0,poule,448,29,5,4,English,m,1,0.1,-18.79561653,0.77713134
5cee69353057030001b33fc4,44,0,2024-02-27T12:07:40.296Z,french_75.wav,0,poule,448,29,5,4,English,m,2,0.2,-63.16754008,0.0667883
5cee69353057030001b33fc4,44,0,2024-02-27T12:07:40.296Z,french_75.wav,0,poule,448,29,5,4,English,m,3,0.25666667,-38.64547488,0.54855801
5cee69353057030001b33fc4,45,0,2024-02-27T12:07:40.296Z,french_122.wav,0,poule,1067,29,5,4,English,m,0,0.0,-9.1094999,0.88070358
5cee69353057030001b33fc4,45,0,2024-02-27T12:07:40.296Z,french_122.wav,0,poule,1067,29,5,4,English,m,1,0.1,-91.51691393,1.99267891
5cee69353057030001b33fc4,45,0,2024-02-27T12:07:40.296Z,french_122.wav,0,poule,1067,29,5,4,English,m,2,0.2,-80.73944639,0.69956237
5cee69353057030001b33fc4,45,0,2024-02-27T12:07:40.296Z,french_122.wav,0,poule,1067,29,5,4,English,m,3,0.25666667,-5.35945859,0.8489229
5cee69353057030001b33fc4,46,0,2024-02-27T12:07:40.296Z,french_778.wav,0,pull,1927,29,5,4,English,m,0,0.0,-2.76577218,0.74255963
5cee69353057030001b33fc4,46,0,2024-02-27T12:07:40.296Z,french_778.wav,0,pull,1927,29,5,4,English,m,1,0.1,4.49344871,1.48176587
5cee69353057030001b33fc4,46,0,2024-02-27T12:07:40.296Z,french_778.wav,0,pull,1927,29,5,4,English,m,2,0.2,68.81762054,1.59399306
5cee69353057030001b33fc4,46,0,2024-02-27T12:07:40.296Z,french_778.wav,0,pull,1927,29,5,4,English,m,3,0.25666667,89.13075651,1.18058537
5cee69353057030001b33fc4,47,0,2024-02-27T12:07:40.296Z,french_829.wav,0,poule,1780,29,5,4,English,m,0,0.0,46.725297,0.52675555
5cee69353057030001b33fc4,47,0,2024-02-27T12:07:40.296Z,french_829.wav,0,poule,1780,29,5,4,English,m,1,0.1,-84.28207626,1.43556726
5cee69353057030001b33fc4,47,0,2024-02-27T12:07:40.296Z,french_829.wav,0,poule,1780,29,5,4,English,m,2,0.2,93.60285392,0.6815656
5cee69353057030001b33fc4,47,0,2024-02-27T12:07:40.296Z,french_829.wav,0,poule,1780,29,5,4,English,m,3,0.25666667,-19.92335823,1.46711526
5cee69353057030001b33fc4,48,0,2024-02-27T12:07:40.296Z,french_763.wav,0,poule,1613,29,5,4,English,m,0,0.0,-96.72958763,0.69845728
5cee69353057030001b33fc4,48,0,2024-02-27T12:07:40.296Z,french_763.wav,0,poule,1613,29,5,4,English,m,1,0.1,95.66434095,1.4089076
5cee69353057030001b33fc4,48,0,2024-02-27T12:07:40.296Z,french_763.wav,0,poule,1613,29,5,4,English,m,2,0.2,-84.28875962,1.74428554
5cee69353057030001b33fc4,48,0,2024-02-27T12:07:40.296Z,french_763.wav,0,poule,1613,29,5,4,English,m,3,0.25666667,-41.37848175,0.12054272
5cee69353057030001b33fc4,49,0,2024-02-27T12:07:40.296Z,french_635.wav,0,pull,2436,29,5,4,English,m,0,0.0,33.90344979,1.89496442
5cee69353057030001b33fc4,49,0,2024-02-27T12:07:40.296Z,french_635.wav,0,pull,2436,29,5,4,English,m,1,0.1,-75.47627702,0.79794333
5cee69353057030001b33fc4,49,0,2024-02-27T12:07:40.296Z,french_635.wav,0,pull,2436,29,5,4,English,m,2,0.2,49.7914685,1.70645199
5cee69353057030001b33fc4,49,0,2024-02-27T12:07:40.296Z,french_635.wav,0,pull,2436,29,5,4,English,m,3,0.25666667,43.41419086,1.41022612
5cee69353057030001b33fc4,50,1,2024-02-27T12:07:40.296Z,french_250.wav,0,poule,1001,29,5,4,English,m,0,0.0,34.1596777,0.91954119
5cee69353057030001b33fc4,50,1,2024-02-27T12:07:40.296Z,french_250.wav,0,poule,1001,29,5,4,English,m,1,0.1,-44.36149414,1.97424998
5cee69353057030001b33fc4,50,1,2024-02-27T12:07:40.296Z,french_250.wav,0,poule,1001,29,5,4,English,m,2,0.2,5.0850049,0.32778381
5cee69353057030001b33fc4,50,1,2024-02-27T12:07:40.296Z,french_250.wav,0,poule,1001,29,5,4,English,m,3,0.25666667,-37.48818875,0.84724669
5cee69353057030001b33fc4,51,1,2024-02-27T12:07:40.296Z,french_263.wav,0,poule,1419,29,5,4,English,m,0,0.0,25.02930943,0.29249845
5cee69353057030001b33fc4,51,1,2024-02-27T12:07:40.296Z,french_263.wav,0,poule,1419,29,5,4,English,m,1,0.1,77.59070044,1.82268286
5cee69353057030001b33fc4,51,1,2024-02-27T12:07:40.296Z,french_263.wav,0,poule,1419,29,5,4,English,m,2,0.2,61.13366196,0.69638669
5cee69353057030001b33fc4,51,1,2024-02-27T12:07:40.296Z,french_263.wav,0,poule,1419,29,5,4,English,m,3,0.25666667,-46.58539851,0.57279137
5cee69353057030001b33fc4,52,1,2024-02-27T12:07:40.296Z,french_593.wav,0,poule,679,29,5,4,English,m,0,0.0,28.63563643,0.95899308
5cee69353057030001b33fc4,52,1,2024-02-27T12:07:40.296Z,french_593.wav,0,poule,679,29,5,4,English,m,1,0.1,-92.54588956,1.11632192
5cee69353057030001b33fc4,52,1,2024-02-27T12:07:40.296Z,french_593.wav,0,poule,679,29,5,4,English,m,2,0.2,54.29574758,0.28179711
5cee69353057030001b33fc4,52,1,2024-02-27T12:07:40.296Z,french_593.wav,0,poule,679,29,5,4,English,m,3,0.25666667,-51.0775076,1.92785686
5cee69353057030001b33fc4,53,1,2024-02-27T12:07:40.296Z,french_891.wav,0,poule,2187,29,5,4,English,m,0,0.0,36.15157251,0.11830574
5cee69353057030001b33fc4,53,1,2024-02-27T12:07:40.296Z,french_891.wav,0,poule,2187,29,5,4,English,m,1,0.1,9.92087077,0.00778599
5cee69353057030001b33fc4,53,1,2024-02-27T12:07:40.296Z,french_891.wav,0,poule,2187,29,5,4,English,m,2,0.2,64.79051962,0.40739404
5cee69353057030001b33fc4,53,1,2024-02-27T12:07:40.296Z,french_891.wav,0,poule,2187,29,5,4,English,m,3,0.25666667,25.43576317,0.71071781
5cee69353057030001b33fc4,54,1,2024-02-27T12:07:40.296Z,french_550.wav,0,poule,361,29,5,4,English,m,0,0.0,-75.40042164,1.22660115
5cee69353057030001b33fc4,54,1,2024-02-27T12:07:40.296Z,french_550.wav,0,poule,361,29,5,4,English,m,1,0.1,3.66999977,1.1302768
5cee69353057030001b33fc4,54,1,2024-02-27T12:07:40.296Z,french_550.wav,0,poule,361,29,5,4,English,m,2,0.2,-80.45508953,0.71194131
5cee69353057030001b33fc4,54,1,2024-02-27T12:07:40.296Z,french_550.wav,0,poule,361,29,5,4,English,m,3,0.25666667,-81.93938104,1.14992067
5cee69353057030001b33fc4,55,1,2024-02-27T12:07:40.296Z,french_657.wav,0,poule,1119,29,5,4,English,m,0,0.0,99.76716584,0.85695778
5cee69353057030001b33fc4,55,1,2024-02-27T12:07:40.296Z,french_657.wav,0,poule,1119,29,5,4,English,m,1,0.1,11.51898435,1.00645436
5cee69353057030001b33fc4,55,1,2024-02-27T12:07:40.296Z,french_657.wav,0,poule,1119,29,5,4,English,m,2,0.2,-43.45408234,0.73989588
5cee69353057030001b33fc4,55,1,2024-02-27T12:07:40.296Z,french_657.wav,0,poule,1119,29,5,4,English,m,3,0.25666667,22.46427071,1.57217431
5cee69353057030001b33fc4,56,1,2024-02-27T12:07:40.296Z,french_348.wav,0,poule,1148,29,5,4,English,m,0,0.0,68.47734878,1.61227716
5cee69353057030001b33fc4,56,1,2024-02-27T12:07:40.296Z,french_348.wav,0,poule,1148,29,5,4,English,m,1,0.1,54.05190865,0.93770463
5cee69353057030001b33fc4,56,1,2024-02-27T12:07:40.296Z,french_348.wav,0,poule,1148,29,5,4,English,m,2,0.2,0.19125453,1.53689085
5cee69353057030001b33fc4,56,1,2024-02-27T12:07:40.296Z,french_348.wav,0,poule,1148,29,5,4,English,m,3,0.25666667,-34.65909089,1.17337711
5cee69353057030001b33fc4,57,1,2024-02-27T12:07:40.296Z,french_102.wav,0,poule,542,29,5,4,English,m,0,0.0,-35.05732124,0.80503012
5cee69353057030001b33fc4,57,1,2024-02-27T12:07:40.296Z,french_102.wav,0,poule,542,29,5,4,English,m,1,0.1,-31.3998515,0.92419399
5cee69353057030001b33fc4,57,1,2024-02-27T12:07:40.296Z,french_102.wav,0,poule,542,29,5,4,English,m,2,0.2,50.13452687,0.90539345
5cee69353057030001b33fc4,57,1,2024-02-27T12:07:40.296Z,french_102.wav,0,poule,542,29,5,4,English,m,3,0.25666667,-7.4892707,1.70363197
5cee69353057030001b33fc4,58,1,2024-02-27T12:07:40.296Z,french_296.wav,0,poule,749,29,5,4,English,m,0,0.0,93.71479572,0.08926169
5cee69353057030001b33fc4,58,1,2024-02-27T12:07:40.296Z,french_296.wav,0,poule,749,29,5,4,English,m,1,0.1,-75.79046522,1.27041306
5cee69353057030001b33fc4,58,1,2024-02-27T12:07:40.296Z,french_296.wav,0,poule,749,29,5,4,English,m,2,0.2,-87.29598303,1.46433067
5cee69353057030001b33fc4,58,1,2024-02-27T12:07:40.296Z,french_296.wav,0,poule,749,29,5,4,English,m,3,0.25666667,31.73776098,0.42599999
5cee69353057030001b33fc4,59,1,2024-02-27T12:07:40.296Z,french_25.wav,0,poule,731,29,5,4,English,m,0,0.0,46.82844357,1.1493518
5cee69353057030001b33fc4,59,1,2024-02-27T12:07:40.296Z,french_25.wav,0,poule,731,29,5,4,English,m,1,0.1,5.52502331,1.41536953
5cee69353057030001b33fc4,59,1,2024-02-27T12:07:40.296Z,french_25.wav,0,poule,731,29,5,4,English,m,2,0.2,-34.25373026,0.41949869
5cee69353057030001b33fc4,59,1,2024-02-27T12:07:40.296Z,french_25.wav,0,poule,731,29,5,4,English,m,3,0.25666667,-52.44039001,0.5013656
5cee69353057030001b33fc4,60,1,2024-02-27T12:07:40.296Z,french_543.wav,0,poule,627,29,5,4,English,m,0,0.0,99.95964938,0.10365101
5cee69353057030001b33fc4,60,1,2024-02-27T12:07:40.296Z,french_543.wav,0,poule,627,29,5,4,English,m,1,0.1,62.1224346,1.02026934
5cee69353057030001b33fc4,60,1,2024-02-27T12:07:40.296Z,french_543.wav,0,poule,627,29,5,4,English,m,2,0.2,-10.06540024,0.56488883
5cee69353057030001b33fc4,60,1,2024-02-27T12:07:40.296Z,french_543.wav,0,poule,627,29,5,4,English,m,3,0.25666667,-5.35888672,0.3884986
5cee69353057030001b33fc4,61,1,2024-02-27T12:07:40.296Z,french_460.wav,0,pull,2031,29,5,4,English,m,0,0.0,-46.82547924,0.18532774
5cee69353057030001b33fc4,61,1,2024-02-27T12:07:40.296Z,french_460.wav,0,pull,2031,29,5,4,English,m,1,0.1,-89.06595485,0.73005791
5cee69353057030001b33fc4,61,1,2024-02-27T12:07:40.296Z,french_460.wav,0,pull,2031,29,5,4,English,m,2,0.2,-15.88362663,0.27848928
5cee69353057030001b33fc4,61,1,2024-02-27T12:07:40.296Z,french_460.wav,0,pull,2031,29,5,4,English,m,3,0.25666667,-55.00298372,1.6971829
5cee69353057030001b33fc4,62,1,2024-02-27T12:07:40.296Z,french_558.wav,0,poule,2867,29,5,4,English,m,0,0.0,-24.56305845,0.85912435
5cee69353057030001b33fc4,62,1,2024-02-27T12:07:40.296Z,french_558.wav,0,poule,2867,29,5,4,English,m,1,0.1,18.75830467,1.74056956
5cee69353057030001b33fc4,62,1,2024-02-27T12:07:40.296Z,french_558.wav,0,poule,2867,29,5,4,English,m,2,0.2,-0.86444976,0.35762899
5cee69353057030001b33fc4,62,1,2024-02-27T12:07:40.296Z,french_558.wav,0,poule,2867,29,5,4,English,m,3,0.25666667,-67.61408917,1.29508782
5cee69353057030001b33fc4,63,1,2024-02-27T12:07:40.296Z,french_560.wav,0,poule,835,29,5,4,English,m,0,0.0,-42.00998938,1.48749501
5cee69353057030001b33fc4,63,1,2024-02-27T12:07:40.296Z,french_560.wav,0,poule,835,29,5,4,English,m,1,0.1,-57.33016448,0.25124208
5cee69353057030001b33fc4,63,1,2024-02-27T12:07:40.296Z,french_560.wav,0,poule,835,29,5,4,English,m,2,0.2,94.61210268,1.70870291
5cee69353057030001b33fc4,63,1,2024-02-27T12:07:40.296Z,french_560.wav,0,poule,835,29,5,4,English,m,3,0.25666667,-53.14621565,0.91259566
5cee69353057030001b33fc4,64,1,2024-02-27T12:07:40.296Z,french_417.wav,0,poule,535,29,5,4,English,m,0,0.0,-52.68130191,1.49469738
5cee69353057030001b33fc4,64,1,2024-02-27T12:07:40.296Z,french_417.wav,0,poule,535,29,5,4,English,m,1,0.1,73.91368418,1.06358835
5cee69353057030001b33fc4,64,1,2024-02-27T12:07:40.296Z,french_417.wav,0,poule,535,29,5,4,English,m,2,0.2,7.73324389,1.12421265
5cee69353057030001b33fc4,64,1,2024-02-27T12:07:40.296Z,french_417.wav,0,poule,535,29,5,4,English,m,3,0.25666667,92.88066518,0.65436219
5cee69353057030001b33fc4,65,1,2024-02-27T12:07:40.296Z,french_466.wav,0,poule,443,29,5,4,English,m,0,0.0,73.58992944,1.41071494
5cee69353057030001b33fc4,65,1,2024-02-27T12:07:40.296Z,french_466.wav,0,poule,443,29,5,4,English,m,1,0.1,63.97983353,0.05598534
5cee69353057030001b33fc4,65,1,2024-02-27T12:07:40.296Z,french_466.wav,0,poule,443,29,5,4,English,m,2,0.2,36.10141743,1.99104708
5cee69353057030001b33fc4,65,1,2024-02-27T12:07:40.296Z,french_466.wav,0,poule,443,29,5,4,English,m,3,0.25666667,-59.38235663,0.89990448
5cee69353057030001b33fc4,66,1,2024-02-27T12:07:40.296Z,french_565.wav,0,poule,523,29,5,4,English,m,0,0.0,50.78822436,1.00864226
5cee69353057030001b33fc4,66,1,2024-02-27T12:07:40.296Z,french_565.wav,0,poule,523,29,5,4,English,m,1,0.1,-75.93967217,1.52231663
5cee69353057030001b33fc4,66,1,2024-02-27T12:07:40.296Z,french_565.wav,0,poule,523,29,5,4,English,m,2,0.2,-58.95969425,0.24874103
5cee69353057030001b33fc4,66,1,2024-02-27T12:07:40.296Z,french_565.wav,0,poule,523,29,5,4,English,m,3,0.25666667,-53.32673619,1.47271882
5cee69353057030001b33fc4,67,1,2024-02-27T12:07:40.296Z,french_504.wav,0,poule,662,29,5,4,English,m,0,0.0,-0.09953376,1.58426169
5cee69353057030001b33fc4,67,1,2024-02-27T12:07:40.296Z,french_504.wav,0,poule,662,29,5,4,English,m,1,0.1,-56.24331475,0.92396286
5cee69353057030001b33fc4,67,1,2024-02-27T12:07:40.296Z,french_504.wav,0,poule,662,29,5,4,English,m,2,0.2,-79.12350098,0.70640993
5cee69353057030001b33fc4,67,1,2024-02-27T12:07:40.296Z,french_504.wav,0,poule,662,29,5,4,English,m,3,0.25666667,64.25656878,0.80299587
5cee69353057030001b33fc4,68,1,2024-02-27T12:07:40.296Z,french_884.wav,0,poule,399,29,5,4,English,m,0,0.0,44.18626496,0.26295785
5cee69353057030001b33fc4,68,1,2024-02-27T12:07:40.296Z,french_884.wav,0,poule,399,29,5,4,English,m,1,0.1,-64.95611773,1.5401655
5cee69353057030001b33fc4,68,1,2024-02-27T12:07:40.296Z,french_884.wav,0,poule,399,29,5,4,English,m,2,0.2,-49.1644617,1.25089254
5cee69353057030001b33fc4,68,1,2024-02-27T12:07:40.296Z,french_884.wav,0,poule,399,29,5,4,English,m,3,0.25666667,-37.6294576,1.82171191
5cee69353057030001b33fc4,69,1,2024-02-27T12:07:40.296Z,french_276.wav,0,poule,1366,29,5,4,English,m,0,0.0,-30.59490391,1.59191255
5cee69353057030001b33fc4,69,1,2024-02-27T12:07:40.296Z,french_276.wav,0,poule,1366,29,5,4,English,m,1,0.1,35.14119383,1.08920427
5cee69353057030001b33fc4,69,1,2024-02-27T12:07:40.296Z,french_276.wav,0,poule,1366,29,5,4,English,m,2,0.2,-47.54137466,1.15204711
5cee69353057030001b33fc4,69,1,2024-02-27T12:07:40.296Z,french_276.wav,0,poule,1366,29,5,4,English,m,3,0.25666667,-36.46330553,0.56107217
5cee69353057030001b33fc4,70,1,2024-02-27T12:07:40.296Z,french_547.wav,0,poule,1616,29,5,4,English,m,0,0.0,-72.35697933,0.54090293
5cee69353057030001b33fc4,70,1,2024-02-27T12:07:40.296Z,french_547.wav,0,poule,1616,29,5,4,English,m,1,0.1,-74.8664908,1.21231176
5cee69353057030001b33fc4,70,1,2024-02-27T12:07:40.296Z,french_547.wav,0,poule,1616,29,5,4,English,m,2,0.2,67.97778582,1.67585204
5cee69353057030001b33fc4,70,1,2024-02-27T12:07:40.296Z,french_547.wav,0,poule,1616,29,5,4,English,m,3,0.25666667,23.13057238,0.28113426
5cee69353057030001b33fc4,71,1,2024-02-27T12:07:40.296Z,french_311.wav,0,poule,482,29,5,4,English,m,0,0.0,-11.62830293,1.293503
5cee69353057030001b33fc4,71,1,2024-02-27T12:07:40.296Z,french_311.wav,0,poule,482,29,5,4,English,m,1,0.1,56.07764908,1.34330607
5cee69353057030001b33fc4,71,1,2024-02-27T12:07:40.296Z,french_311.wav,0,poule,482,29,5,4,English,m,2,0.2,-9.52866726,1.07022137
5cee69353057030001b33fc4,71,1,2024-02-27T12:07:40.296Z,french_311.wav,0,poule,482,29,5,4,English,m,3,0.25666667,52.78176644,0.99072219
5cee69353057030001b33fc4,72,1,2024-02-27T12:07:40.296Z,french_770.wav,0,poule,552,29,5,4,English,m,0,0.0,28.65055954,1.27945621
5cee69353057030001b33fc4,72,1,2024-02-27T12:07:40.296Z,french_770.wav,0,poule,552,29,5,4,English,m,1,0.1,-72.95217839,1.48453538
5cee69353057030001b33fc4,72,1,2024-02-27T12:07:40.296Z,french_770.wav,0,poule,552,29,5,4,English,m,2,0.2,-37.01197006,1.47789059
5cee69353057030001b33fc4,72,1,2024-02-27T12:07:40.296Z,french_770.wav,0,poule,552,29,5,4,English,m,3,0.25666667,17.9887053,1.81501711
5cee69353057030001b33fc4,73,1,2024-02-27T12:07:40.296Z,french_358.wav,0,poule,480,29,5,4,English,m,0,0.0,-21.88755711,1.21014447
5cee69353057030001b33fc4,73,1,2024-02-27T12:07:40.296Z,french_358.wav,0,poule,480,29,5,4,English,m,1,0.1,-5.628981,1.2650669
5cee69353057030001b33fc4,73,1,2024-02-27T12:07:40.296Z,french_358.wav,0,poule,480,29,5,4,English,m,2,0.2,-60.01307733,0.97277603
5cee69353057030001b33fc4,73,1,2024-02-27T12:07:40.296Z,french_358.wav,0,poule,480,29,5,4,English,m,3,0.25666667,65.58947466,0.28969343
5cee69353057030001b33fc4,74,1,2024-02-27T12:07:40.296Z,french_711.wav,0,poule,688,29,5,4,English,m,0,0.0,35.46622773,1.8142291
5cee69353057030001b33fc4,74,1,2024-02-27T12:07:40.296Z,french_711.wav,0,poule,688,29,5,4,English,m,1,0.1,62.41897997,1.39339975
5cee69353057030001b33fc4,74,1,2024-02-27T12:07:40.296Z,french_711.wav,0,poule,688,29,5,4,English,m,2,0.2,-12.16405894,1.57822467
5cee69353057030001b33fc4,74,1,2024-02-27T12:07:40.296Z,french_711.wav,0,poule,688,29,5,4,English,m,3,0.25666667,23.8007589,1.63044315
5cee69353057030001b33fc4,75,1,2024-02-27T12:07:40.296Z,french_41.wav,0,poule,684,29,5,4,English,m,0,0.0,-11.6612147,0.49328208
5cee69353057030001b33fc4,75,1,2024-02-27T12:07:40.296Z,french_41.wav,0,poule,684,29,5,4,English,m,1,0.1,96.56624365,1.84762861
5cee69353057030001b33fc4,75,1,2024-02-27T12:07:40.296Z,french_41.wav,0,poule,684,29,5,4,English,m,2,0.2,69.39294216,1.1434724
5cee69353057030001b33fc4,75,1,2024-02-27T12:07:40.296Z,french_41.wav,0,poule,684,29,5,4,English,m,3,0.25666667,-30.30775932,1.13333186
5cee69353057030001b33fc4,76,1,2024-02-27T12:07:40.296Z,french_675.wav,0,poule,562,29,5,4,English,m,0,0.0,-70.79994344,1.47729798
5cee69353057030001b33fc4,76,1,2024-02-27T12:07:40.296Z,french_675.wav,0,poule,562,29,5,4,English,m,1,0.1,-7.59389362,0.30115563
5cee69353057030001b33fc4,76,1,2024-02-27T12:07:40.296Z,french_675.wav,0,poule,562,29,5,4,English,m,2,0.2,-3.58790265,1.39440132
5cee69353057030001b33fc4,76,1,2024-02-27T12:07:40.296Z,french_675.wav,0,poule,562,29,5,4,English,m,3,0.25666667,-30.70883091,1.61039035
5cee69353057030001b33fc4,77,1,2024-02-27T12:07:40.296Z,french_727.wav,0,poule,610,29,5,4,English,m,0,0.0,-15.29396541,0.40840987
5cee69353057030001b33fc4,77,1,2024-02-27T12:07:40.296Z,french_727.wav,0,poule,610,29,5,4,English,m,1,0.1,-26.29552155,0.3000398
5cee69353057030001b33fc4,77,1,2024-02-27T12:07:40.296Z,french_727.wav,0,poule,610,29,5,4,English,m,2,0.2,79.97121571,1.00640838
5cee69353057030001b33fc4,77,1,2024-02-27T12:07:40.296Z,french_727.wav,0,poule,610,29,5,4,English,m,3,0.25666667,55.89998316,1.06507384
5cee69353057030001b33fc4,78,1,2024-02-27T12:07:40.296Z,french_858.wav,0,poule,823,29,5,4,English,m,0,0.0,-70.8749608,0.88986318
5cee69353057030001b33fc4,78,1,2024-02-27T12:07:40.296Z,french_858.wav,0,poule,823,29,5,4,English,m,1,0.1,-68.92821451,0.34092676
5cee69353057030001b33fc4,78,1,2024-02-27T12:07:40.296Z,french_858.wav,0,poule,823,29,5,4,English,m,2,0.2,48.1063746,0.38776381
5cee69353057030001b33fc4,78,1,2024-02-27T12:07:40.296Z,french_858.wav,0,poule,823,29,5,4,English,m,3,0.25666667,0.98463207,1.26771376
5cee69353057030001b33fc4,79,1,2024-02-27T12:07:40.296Z,french_43.wav,0,poule,654,29,5,4,English,m,0,0.0,-6.86336629,1.4879687
5cee69353057030001b33fc4,79,1,2024-02-27T12:07:40.296Z,french_43.wav,0,poule,654,29,5,4,English,m,1,0.1,1.3862511,1.50259819
5cee69353057030001b33fc4,79,1,2024-02-27T12:07:40.296Z,french_43.wav,0,poule,654,29,5,4,English,m,2,0.2,-46.66652787,1.37505073
5cee69353057030001b33fc4,79,1,2024-02-27T12:07:40.296Z,french_43.wav,0,poule,654,29,5,4,English,m,3,0.25666667,99.62545591,0.7561706
5cee69353057030001b33fc4,80,1,2024-02-27T12:07:40.296Z,french_54.wav,0,poule,947,29,5,4,English,m,0,0.0,77.13223303,0.44302914
5cee69353057030001b33fc4,80,1,2024-02-27T12:07:40.296Z,french_54.wav,0,poule,947,29,5,4,English,m,1,0.1,-5.6152706,0.26201868
5cee69353057030001b33fc4,80,1,2024-02-27T12:07:40.296Z,french_54.wav,0,poule,947,29,5,4,English,m,2,0.2,22.05383838,0.27892
5cee69353057030001b33fc4,80,1,2024-02-27T12:07:40.296Z,french_54.wav,0,poule,947,29,5,4,English,m,3,0.25666667,-9.52451309,0.30908576
5cee69353057030001b33fc4,81,1,2024-02-27T12:07:40.296Z,french_303.wav,0,poule,526,29,5,4,English,m,0,0.0,-37.35678584,1.71041427
5cee69353057030001b33fc4,81,1,2024-02-27T12:07:40.296Z,french_303.wav,0,poule,526,29,5,4,English,m,1,0.1,-60.74389767,0.8709471
5cee69353057030001b33fc4,81,1,2024-02-27T12:07:40.296Z,french_303.wav,0,poule,526,29,5,4,English,m,2,0.2,74.2341812,1.02400634
5cee69353057030001b33fc4,81,1,2024-02-27T12:07:40.296Z,french_303.wav,0,poule,526,29,5,4,English,m,3,0.25666667,74.10759125,0.07072526
5cee69353057030001b33fc4,82,1,2024-02-27T12:07:40.296Z,french_478.wav,0,poule,340,29,5,4,English,m,0,0.0,83.43470999,1.59134243
5cee69353057030001b33fc4,82,1,2024-02-27T12:07:40.296Z,french_478.wav,0,poule,340,29,5,4,English,m,1,0.1,-2.90020724,1.87737404
5cee69353057030001b33fc4,82,1,2024-02-27T12:07:40.296Z,french_478.wav,0,poule,340,29,5,4,English,m,2,0.2,3.04122674,1.09323353
5cee69353057030001b33fc4,82,1,2024-02-27T12:07:40.296Z,french_478.wav,0,poule,340,29,5,4,English,m,3,0.25666667,-16.94968741,0.48225636
5cee69353057030001b33fc4,83,1,2024-02-27T12:07:40.296Z,french_851.wav,0,poule,626,29,5,4,English,m,0,0.0,-16.14738252,1.77999263
5cee69353057030001b33fc4,83,1,2024-02-27T12:07:40.296Z,french_851.wav,0,poule,626,29,5,4,English,m,1,0.1,19.84507786,0.90385235
5cee69353057030001b33fc4,83,1,2024-02-27T12:07:40.296Z,french_851.wav,0,poule,626,29,5,4,English,m,2,0.2,-46.64792285,0.51993189
5cee69353057030001b33fc4,83,1,2024-02-27T12:07:40.296Z,french_851.wav,0,poule,626,29,5,4,English,m,3,0.25666667,-81.41203514,1.06673989
5cee69353057030001b33fc4,84,1,2024-02-27T12:07:40.296Z,french_812.wav,0,poule,474,29,5,4,English,m,0,0.0,78.53201718,1.73310634
5cee69353057030001b33fc4,84,1,2024-02-27T12:07:40.296Z,french_812.wav,0,poule,474,29,5,4,English,m,1,0.1,87.32508034,1.73147281
5cee69353057030001b33fc4,84,1,2024-02-27T12:07:40.296Z,french_812.wav,0,poule,474,29,5,4,English,m,2,0.2,77.15455549,1.58178344
5cee69353057030001b33fc4,84,1,2024-02-27T12:07:40.296Z,french_812.wav,0,poule,474,29,5,4,English,m,3,0.25666667,-51.33102937,0.27993183
5cee69353057030001b33fc4,85,1,2024-02-27T12:07:40.296Z,french_990.wav,0,poule,704,29,5,4,English,m,0,0.0,31.68812365,0.81704568
5cee69353057030001b33fc4,85,1,2024-02-27T12:07:40.296Z,french_990.wav,0,poule,704,29,5,4,English,m,1,0.1,-82.48323459,1.80008391
5cee69353057030001b33fc4,85,1,2024-02-27T12:07:40.296Z,french_990.wav,0,poule,704,29,5,4,English,m,2,0.2,39.0525666,1.73012532
5cee69353057030001b33fc4,85,1,2024-02-27T12:07:40.296Z,french_990.wav,0,poule,704,29,5,4,English,m,3,0.25666667,-59.77120272,0.71793452
5cee69353057030001b33fc4,86,1,2024-02-27T12:07:40.296Z,french_93.wav,0,poule,616,29,5,4,English,m,0,0.0,23.57211404,0.62732128
5cee69353057030001b33fc4,86,1,2024-02-27T12:07:40.296Z,french_93.wav,0,poule,616,29,5,4,English,m,1,0.1,-16.15934767,0.10811818
5cee69353057030001b33fc4,86,1,2024-02-27T12:07:40.296Z,french_93.wav,0,poule,616,29,5,4,English,m,2,0.2,25.54711871,0.30787392
5cee69353057030001b33fc4,86,1,2024-02-27T12:07:40.296Z,french_93.wav,0,poule,616,29,5,4,English,m,3,0.25666667,65.09284613,1.57978374
5cee69353057030001b33fc4,87,1,2024-02-27T12:07:40.296Z,french_440.wav,0,poule,626,29,5,4,English,m,0,0.0,-59.81098651,0.93400427
5cee69353057030001b33fc4,87,1,2024-02-27T12:07:40.296Z,french_440.wav,0,poule,626,29,5,4,English,m,1,0.1,55.41661021,0.25641934
5cee69353057030001b33fc4,87,1,2024-02-27T12:07:40.296Z,french_440.wav,0,poule,626,29,5,4,English,m,2,0.2,43.77043266,0.61594081
5cee69353057030001b33fc4,87,1,2024-02-27T12:07:40.296Z,french_440.wav,0,poule,626,29,5,4,English,m,3,0.25666667,-5.41632891,1.32329824
5cee69353057030001b33fc4,88,1,2024-02-27T12:07:40.296Z,french_217.wav,0,poule,891,29,5,4,English,m,0,0.0,-8.63904718,0.91131932
5cee69353057030001b33fc4,88,1,2024-02-27T12:07:40.296Z,french_217.wav,0,poule,891,29,5,4,English,m,1,0.1,71.12460489,1.66035555
5cee69353057030001b33fc4,88,1,2024-02-27T12:07:40.296Z,french_217.wav,0,poule,891,29,5,4,English,m,2,0.2,81.48384407,0.95248702
5cee69353057030001b33fc4,88,1,2024-02-27T12:07:40.296Z,french_217.wav,0,poule,891,29,5,4,English,m,3,0.25666667,64.01477431,0.54451157
5cee69353057030001b33fc4,89,1,2024-02-27T12:07:40.296Z,french_644.wav,0,poule,681,29,5,4,English,m,0,0.0,8.48376577,1.03282428
5cee69353057030001b33fc4,89,1,2024-02-27T12:07:40.296Z,french_644.wav,0,poule,681,29,5,4,English,m,1,0.1,5.7720639,1.52915319
5cee69353057030001b33fc4,89,1,2024-02-27T12:07:40.296Z,french_644.wav,0,poule,681,29,5,4,English,m,2,0.2,-22.58890758,0.21561806
5cee69353057030001b33fc4,89,1,2024-02-27T12:07:40.296Z,french_644.wav,0,poule,681,29,5,4,English,m,3,0.25666667,-77.55637272,0.23424831
5cee69353057030001b33fc4,90,1,2024-02-27T12:07:40.296Z,french_347.wav,0,poule,478,29,5,4,English,m,0,0.0,-50.57249908,1.7558536
5cee69353057030001b33fc4,90,1,2024-02-27T12:07:40.296Z,french_347.wav,0,poule,478,29,5,4,English,m,1,0.1,-0.96259157,0.42717605
5cee69353057030001b33fc4,90,1,2024-02-27T12:07:40.296Z,french_347.wav,0,poule,478,29,5,4,English,m,2,0.2,56.28626554,1.32943016
5cee69353057030001b33fc4,90,1,2024-02-27T12:07:40.296Z,french_347.wav,0,poule,478,29,5,4,English,m,3,0.25666667,46.89576118,0.4771217
5cee69353057030001b33fc4,91,1,2024-02-27T12:07:40.296Z,french_522.wav,0,poule,430,29,5,4,English,m,0,0.0,-33.95775035,0.92167055
5cee69353057030001b33fc4,91,1,2024-02-27T12:07:40.296Z,french_522.wav,0,poule,430,29,5,4,English,m,1,0.1,-8.89346692,1.03421615
5cee69353057030001b33fc4,91,1,2024-02-27T12:07:40.296Z,french_522.wav,0,poule,430,29,5,4,English,m,2,0.2,-13.71087049,0.39118917
5cee69353057030001b33fc4,91,1,2024-02-27T12:07:40.296Z,french_522.wav,0,poule,430,29,5,4,English,m,3,0.25666667,29.03245504,1.12010972
5cee69353057030001b33fc4,92,1,2024-02-27T12:07:40.296Z,french_696.wav,0,poule,772,29,5,4,English,m,0,0.0,39.34258856,1.15492287
5cee69353057030001b33fc4,92,1,2024-02-27T12:07:40.296Z,french_696.wav,0,poule,772,29,5,4,English,m,1,0.1,16.85699936,0.81118798
5cee69353057030001b33fc4,92,1,2024-02-27T12:07:40.296Z,french_696.wav,0,poule,772,29,5,4,English,m,2,0.2,-58.01570434,0.43841119
5cee69353057030001b33fc4,92,1,2024-02-27T12:07:40.296Z,french_696.wav,0,poule,772,29,5,4,English,m,3,0.25666667,-91.70212518,1.32812972
5cee69353057030001b33fc4,93,1,2024-02-27T12:07:40.296Z,french_808.wav,0,poule,507,29,5,4,English,m,0,0.0,-62.09526538,1.28254738
5cee69353057030001b33fc4,93,1,2024-02-27T12:07:40.296Z,french_808.wav,0,poule,507,29,5,4,English,m,1,0.1,21.23234707,0.50843795
5cee69353057030001b33fc4,93,1,2024-02-27T12:07:40.296Z,french_808.wav,0,poule,507,29,5,4,English,m,2,0.2,-93.15759374,0.88416038
5cee69353057030001b33fc4,93,1,2024-02-27T12:07:40.296Z,french_808.wav,0,poule,507,29,5,4,English,m,3,0.25666667,-35.4638748,1.60061847
5cee69353057030001b33fc4,94,1,2024-02-27T12:07:40.296Z,french_192.wav,0,poule,474,29,5,4,English,m,0,0.0,73.17690414,1.47156363
5cee69353057030001b33fc4,94,1,2024-02-27T12:07:40.296Z,french_192.wav,0,poule,474,29,5,4,English,m,1,0.1,14.65884197,0.92412776
5cee69353057030001b33fc4,94,1,2024-02-27T12:07:40.296Z,french_192.wav,0,poule,474,29,5,4,English,m,2,0.2,-6.29840632,0.27182316
5cee69353057030001b33fc4,94,1,2024-02-27T12:07:40.296Z,french_192.wav,0,poule,474,29,5,4,English,m,3,0.25666667,-32.28340249,1.34820636
5cee69353057030001b33fc4,95,1,2024-02-27T12:07:40.296Z,french_342.wav,0,poule,338,29,5,4,English,m,0,0.0,-84.22246184,0.80111929
5cee69353057030001b33fc4,95,1,2024-02-27T12:07:40.296Z,french_342.wav,0,poule,338,29,5,4,English,m,1,0.1,-88.55202377,0.92289162
5cee69353057030001b33fc4,95,1,2024-02-27T12:07:40.296Z,french_342.wav,0,poule,338,29,5,4,English,m,2,0.2,12.74462997,0.96187701
5cee69353057030001b33fc4,95,1,2024-02-27T12:07:40.296Z,french_342.wav,0,poule,338,29,5,4,English,m,3,0.25666667,-73.67155113,0.57764427
5cee69353057030001b33fc4,96,1,2024-02-27T12:07:40.296Z,french_232.wav,0,poule,475,29,5,4,English,m,0,0.0,48.62304181,1.60041799
5cee69353057030001b33fc4,96,1,2024-02-27T12:07:40.296Z,french_232.wav,0,poule,475,29,5,4,English,m,1,0.1,-66.91586117,0.5698369
5cee69353057030001b33fc4,96,1,2024-02-27T12:07:40.296Z,french_232.wav,0,poule,475,29,5,4,English,m,2,0.2,-71.38800945,1.21368891
5cee69353057030001b33fc4,96,1,2024-02-27T12:07:40.296Z,french_232.wav,0,poule,475,29,5,4,English,m,3,0.25666667,32.42157584,1.05085576
5cee69353057030001b33fc4,97,1,2024-02-27T12:07:40.296Z,french_398.wav,0,poule,502,29,5,4,English,m,0,0.0,6.24181165,1.03823517
5cee69353057030001b33fc4,97,1,2024-02-27T12:07:40.296Z,french_398.wav,0,poule,502,29,5,4,English,m,1,0.1,-92.25652661,1.54229831
5cee69353057030001b33fc4,97,1,2024-02-27T12:07:40.296Z,french_398.wav,0,poule,502,29,5,4,English,m,2,0.2,-10.16879246,1.61201148
5cee69353057030001b33fc4,97,1,2024-02-27T12:07:40.296Z,french_398.wav,0,poule,502,29,5,4,English,m,3,0.25666667,42.06293659,1.50798312
5cee69353057030001b33fc4,98,1,2024-02-27T12:07:40.296Z,french_116.wav,0,poule,572,29,5,4,English,m,0,0.0,79.79090537,0.91211254
5cee69353057030001b33fc4,98,1,2024-02-27T12:07:40.296Z,french_116.wav,0,poule,572,29,5,4,English,m,1,0.1,-16.04583445,0.43560368
5cee69353057030001b33fc4,98,1,2024-02-27T12:07:40.296Z,french_116.wav,0,poule,572,29,5,4,English,m,2,0.2,31.94743211,0.92781712
5cee69353057030001b33fc4,98,1,2024-02-27T12:07:40.296Z,french_116.wav,0,poule,572,29,5,4,English,m,3,0.25666667,81.27397215,0.62795331
5cee69353057030001b33fc4,99,1,2024-02-27T12:07:40.296Z,french_298.wav,0,poule,345,29,5,4,English,m,0,0.0,77.93003267,0.74693873
5cee69353057030001b33fc4,99,1,2024-02-27T12:07:40.296Z,french_298.wav,0,poule,345,29,5,4,English,m,1,0.1,-23.8442355,1.94963825
5cee69353057030001b33fc4,99,1,2024-02-27T12:07:40.296Z,french_298.wav,0,poule,345,29,5,4,English,m,2,0.2,-77.62110697,1.02670819
5cee69353057030001b33fc4,99,1,2024-02-27T12:07:40.296Z,french_298.wav,0,poule,345,29,5,4,English,m,3,0.25666667,-25.23897767,0.18670197
5cee69353057030001b33fc4,100,2,2024-02-27T12:07:40.296Z,french_196.wav,0,poule,321,29,5,4,English,m,0,0.0,-51.30508497,1.16005851
5cee69353057030001b33fc4,100,2,2024-02-27T12:07:40.296Z,french_196.wav,0,poule,321,29,5,4,English,m,1,0.1,89.17651026,0.87725998
5cee69353057030001b33fc4,100,2,2024-02-27T12:07:40.296Z,french_196.wav,0,poule,321,29,5,4,English,m,2,0.2,77.92993737,1.23506332
5cee69353057030001b33fc4,100,2,2024-02-27T12:07:40.296Z,french_196.wav,0,poule,321,29,5,4,English,m,3,0.25666667,-86.11962375,1.33141167
5cee69353057030001b33fc4,101,2,2024-02-27T12:07:40.296Z,french_12.wav,0,poule,476,29,5,4,English,m,0,0.0,-57.76127346,1.31680682
5cee69353057030001b33fc4,101,2,2024-02-27T12:07:40.296Z,french_12.wav,0,poule,476,29,5,4,English,m,1,0.1,13.80138245,1.40135686
5cee69353057030001b33fc4,101,2,2024-02-27T12:07:40.296Z,french_12.wav,0,poule,476,29,5,4,English,m,2,0.2,70.02389064,0.63152994
5cee69353057030001b33fc4,101,2,2024-02-27T12:07:40.296Z,french_12.wav,0,poule,476,29,5,4,English,m,3,0.25666667,-46.37027392,0.33836826
5cee69353057030001b33fc4,102,2,2024-02-27T12:07:40.296Z,french_561.wav,0,poule,413,29,5,4,English,m,0,0.0,43.72245453,1.14403907
5cee69353057030001b33fc4,102,2,2024-02-27T12:07:40.296Z,french_561.wav,0,poule,413,29,5,4,English,m,1,0.1,-99.96065046,0.22103922
5cee69353057030001b33fc4,102,2,2024-02-27T12:07:40.296Z,french_561.wav,0,poule,413,29,5,4,English,m,2,0.2,-79.74506532,0.12690813
5cee69353057030001b33fc4,102,2,2024-02-27T12:07:40.296Z,french_561.wav,0,poule,413,29,5,4,English,m,3,0.25666667,3.19515671,1.47601923
5cee69353057030001b33fc4,103,2,2024-02-27T12:07:40.296Z,french_447.wav,0,poule,419,29,5,4,English,m,0,0.0,-15.50115845,0.77909013
5cee69353057030001b33fc4,103,2,2024-02-27T12:07:40.296Z,french_447.wav,0,poule,419,29,5,4,English,m,1,0.1,-4.86998407,1.31519509
5cee69353057030001b33fc4,103,2,2024-02-27T12:07:40.296Z,french_447.wav,0,poule,419,29,5,4,English,m,2,0.2,-86.84595189,1.40793423
5cee69353057030001b33fc4,103,2,2024-02-27T12:07:40.296Z,french_447.wav,0,poule,419,29,5,4,English,m,3,0.25666667,-28.81346371,0.16835643
5cee69353057030001b33fc4,104,2,2024-02-27T12:07:40.296Z,french_132.wav,0,poule,501,29,5,4,English,m,0,0.0,55.7159221,0.1336911
5cee69353057030001b33fc4,104,2,2024-02-27T12:07:40.296Z,french_132.wav,0,poule,501,29,5,4,English,m,1,0.1,96.01047895,1.63690434
5cee69353057030001b33fc4,104,2,2024-02-27T12:07:40.296Z,french_132.wav,0,poule,501,29,5,4,English,m,2,0.2,-30.71931346,0.7825174
5cee69353057030001b33fc4,104,2,2024-02-27T12:07:40.296Z,french_132.wav,0,poule,501,29,5,4,English,m,3,0.25666667,34.53763016,1.49477333
5cee69353057030001b33fc4,105,2,2024-02-27T12:07:40.296Z,french_77.wav,0,poule,403,29,5,4,English,m,0,0.0,-38.97456477,1.51906971
5cee69353057030001b33fc4,105,2,2024-02-27T12:07:40.296Z,french_77.wav,0,poule,403,29,5,4,English,m,1,0.1,-27.77573133,1.43123518
5cee69353057030001b33fc4,105,2,2024-02-27T12:07:40.296Z,french_77.wav,0,poule,403,29,5,4,English,m,2,0.2,62.31685549,1.04030098
5cee69353057030001b33fc4,105,2,2024-02-27T12:07:40.296Z,french_77.wav,0,poule,403,29,5,4,English,m,3,0.25666667,13.7751853,1.45792424
5cee69353057030001b33fc4,106,2,2024-02-27T12:07:40.296Z,french_518.wav,0,poule,528,29,5,4,English,m,0,0.0,30.08897808,1.28002377
5cee69353057030001b33fc4,106,2,2024-02-27T12:07:40.296Z,french_518.wav,0,poule,528,29,5,4,English,m,1,0.1,-42.00678694,0.31881796
5cee69353057030001b33fc4,106,2,2024-02-27T12:07:40.296Z,french_518.wav,0,poule,528,29,5,4,English,m,2,0.2,47.99304417,0.271149
5cee69353057030001b33fc4,106,2,2024-02-27T12:07:40.296Z,french_518.wav,0,poule,528,29,5,4,English,m,3,0.25666667,-21.59585354,1.06182133
5cee69353057030001b33fc4,107,2,2024-02-27T12:07:40.296Z,french_501.wav,0,poule,528,29,5,4,English,m,0,0.0,-56.11865097,1.37224371
5cee69353057030001b33fc4,107,2,2024-02-27T12:07:40.296Z,french_501.wav,0,poule,528,29,5,4,English,m,1,0.1,-7.09029516,0.68301448
5cee69353057030001b33fc4,107,2,2024-02-27T12:07:40.296Z,french_501.wav,0,poule,528,29,5,4,English,m,2,0.2,-36.29429224,0.41531668
5cee69353057030001b33fc4,107,2,2024-02-27T12:07:40.296Z,french_501.wav,0,poule,528,29,5,4,English,m,3,0.25666667,-11.40231031,0.4885534
5cee69353057030001b33fc4,108,2,2024-02-27T12:07:40.296Z,french_875.wav,0,poule,291,29,5,4,English,m,0,0.0,-21.85805239,1.53415162
5cee69353057030001b33fc4,108,2,2024-02-27T12:07:40.296Z,french_875.wav,0,poule,291,29,5,4,English,m,1,0.1,89.69626046,1.00812403
5cee69353057030001b33fc4,108,2,2024-02-27T12:07:40.296Z,french_875.wav,0,poule,291,29,5,4,English,m,2,0.2,-30.27044373,0.85877698
5cee69353057030001b33fc4,108,2,2024-02-27T12:07:40.296Z,french_875.wav,0,poule,291,29,5,4,English,m,3,0.25666667,34.72149061,1.23447623
5cee69353057030001b33fc4,109,2,2024-02-27T12:07:40.296Z,french_927.wav,0,poule,284,29,5,4,English,m,0,0.0,-10.52890049,0.60201579
5cee69353057030001b33fc4,109,2,2024-02-27T12:07:40.296Z,french_927.wav,0,poule,284,29,5,4,English,m,1,0.1,-14.60087289,1.35124195
5cee69353057030001b33fc4,109,2,2024-02-27T12:07:40.296Z,french_927.wav,0,poule,284,29,5,4,English,m,2,0.2,-23.19620382,0.97713268
5cee69353057030001b33fc4,109,2,2024-02-27T12:07:40.296Z,french_927.wav,0,poule,284,29,5,4,English,m,3,0.25666667,-4.91748489,0.83956459
5cee69353057030001b33fc4,110,2,2024-02-27T12:07:40.296Z,french_175.wav,0,poule,415,29,5,4,English,m,0,0.0,-66.64800697,0.89831181
5cee69353057030001b33fc4,110,2,2024-02-27T12:07:40.296Z,french_175.wav,0,poule,415,29,5,4,English,m,1,0.1,55.8136762,1.16054297
5cee69353057030001b33fc4,110,2,2024-02-27T12:07:40.296Z,french_175.wav,0,poule,415,29,5,4,English,m,2,0.2,13.86880033,0.04267506
5cee69353057030001b33fc4,110,2,2024-02-27T12:07:40.296Z,french_175.wav,0,poule,415,29,5,4,English,m,3,0.25666667,79.77573594,1.48091244
5cee69353057030001b33fc4,111,2,2024-02-27T12:07:40.296Z,french_129.wav,0,poule,411,29,5,4,English,m,0,0.0,13.25855459,0.8608045
5cee69353057030001b33fc4,111,2,2024-02-27T12:07:40.296Z,french_129.wav,0,poule,411,29,5,4,English,m,1,0.1,-92.03942204,1.75332116
5cee69353057030001b33fc4,111,2,2024-02-27T12:07:40.296Z,french_129.wav,0,poule,411,29,5,4,English,m,2,0.2,62.50888813,0.44840231
5cee69353057030001b33fc4,111,2,2024-02-27T12:07:40.296Z,french_129.wav,0,poule,411,29,5,4,English,m,3,0.25666667,39.35321197,1.56291845
5cee69353057030001b33fc4,112,2,2024-02-27T12:07:40.296Z,french_205.wav,0,poule,915,29,5,4,English,m,0,0.0,31.24463061,0.69283155
5cee69353057030001b33fc4,112,2,2024-02-27T12:07:40.296Z,french_205.wav,0,poule,915,29,5,4,English,m,1,0.1,-22.87848896,1.55894518
5cee69353057030001b33fc4,112,2,2024-02-27T12:07:40.296Z,french_205.wav,0,poule,915,29,5,4,English,m,2,0.2,-36.82881223,1.67941014
5cee69353057030001b33fc4,112,2,2024-02-27T12:07:40.296Z,french_205.wav,0,poule,915,29,5,4,English,m,3,0.25666667,-47.84026219,0.92091984
5cee69353057030001b33fc4,113,2,2024-02-27T12:07:40.296Z,french_36.wav,0,poule,2107,29,5,4,English,m,0,0.0,97.14143801,0.84704198
5cee69353057030001b33fc4,113,2,2024-02-27T12:07:40.296Z,french_36.wav,0,poule,2107,29,5,4,English,m,1,0.1,96.24936774,1.47086473
5cee69353057030001b33fc4,113,2,2024-02-27T12:07:40.296Z,french_36.wav,0,poule,2107,29,5,4,English,m,2,0.2,69.49703902,1.29858496
5cee69353057030001b33fc4,113,2,2024-02-27T12:07:40.296Z,french_36.wav,0,poule,2107,29,5,4,English,m,3,0.25666667,-77.37121036,1.24445776
5cee69353057030001b33fc4,114,2,2024-02-27T12:07:40.296Z,french_266.wav,0,poule,406,29,5,4,English,m,0,0.0,58.27883453,0.79886668
5cee69353057030001b33fc4,114,2,2024-02-27T12:07:40.296Z,french_266.wav,0,poule,406,29,5,4,English,m,1,0.1,-28.04411439,1.49488383
5cee69353057030001b33fc4,114,2,2024-02-27T12:07:40.296Z,french_266.wav,0,poule,406,29,5,4,English,m,2,0.2,-38.46127027,0.15170522
5cee69353057030001b33fc4,114,2,2024-02-27T12:07:40.296Z,french_266.wav,0,poule,406,29,5,4,English,m,3,0.25666667,-84.67234247,1.57053192
5cee69353057030001b33fc4,115,2,2024-02-27T12:07:40.296Z,french_787.wav,0,poule,393,29,5,4,English,m,0,0.0,-96.56930436,0.95025141
5cee69353057030001b33fc4,115,2,2024-02-27T12:07:40.296Z,french_787.wav,0,poule,393,29,5,4,English,m,1,0.1,-14.18878177,1.10577547
5cee69353057030001b33fc4,115,2,2024-02-27T12:07:40.296Z,french_787.wav,0,poule,393,29,5,4,English,m,2,0.2,-34.79884993,0.4132657
5cee69353057030001b33fc4,115,2,2024-02-27T12:07:40.296Z,french_787.wav,0,poule,393,29,5,4,English,m,3,0.25666667,-70.75211023,0.64958401
5cee69353057030001b33fc4,116,2,2024-02-27T12:07:40.296Z,french_798.wav,0,poule,1933,29,5,4,English,m,0,0.0,80.80013175,1.56222047
5cee69353057030001b33fc4,116,2,2024-02-27T12:07:40.296Z,french_798.wav,0,poule,1933,29,5,4,English,m,1,0.1,8.18850232,1.67765441
5cee69353057030001b33fc4,116,2,2024-02-27T12:07:40.296Z,french_798.wav,0,poule,1933,29,5,4,English,m,2,0.2,-10.54144101,1.93747014
5cee69353057030001b33fc4,116,2,2024-02-27T12:07:40.296Z,french_798.wav,0,poule,1933,29,5,4,English,m,3,0.25666667,26.86908184,1.76378238
5cee69353057030001b33fc4,117,2,2024-02-27T12:07:40.296Z,french_233.wav,0,poule,379,29,5,4,English,m,0,0.0,-74.05194232,1.46941626
5cee69353057030001b33fc4,117,2,2024-02-27T12:07:40.296Z,french_233.wav,0,poule,379,29,5,4,English,m,1,0.1,45.77276391,0.63238632
5cee69353057030001b33fc4,117,2,2024-02-27T12:07:40.296Z,french_233.wav,0,poule,379,29,5,4,English,m,2,0.2,-37.66213209,1.46686039
5cee69353057030001b33fc4,117,2,2024-02-27T12:07:40.296Z,french_233.wav,0,poule,379,29,5,4,English,m,3,0.25666667,-32.85858595,1.82755258
5cee69353057030001b33fc4,118,2,2024-02-27T12:07:40.296Z,french_444.wav,0,poule,497,29,5,4,English,m,0,0.0,55.47353293,0.9328321
5cee69353057030001b33fc4,118,2,2024-02-27T12:07:40.296Z,french_444.wav,0,poule,497,29,5,4,English,m,1,0.1,12.04434333,1.46542582
5cee69353057030001b33fc4,118,2,2024-02-27T12:07:40.296Z,french_444.wav,0,poule,497,29,5,4,English,m,2,0.2,14.09264182,1.44584709
5cee69353057030001b33fc4,118,2,2024-02-27T12:07:40.296Z,french_444.wav,0,poule,497,29,5,4,English,m,3,0.25666667,-80.20656615,1.50777595
5cee69353057030001b33fc4,119,2,2024-02-27T12:07:40.296Z,french_718.wav,0,poule,2751,29,5,4,English,m,0,0.0,60.10154263,0.48894908
5cee69353057030001b33fc4,119,2,2024-02-27T12:07:40.296Z,french_718.wav,0,poule,2751,29,5,4,English,m,1,0.1,11.66591821,1.65193902
5cee69353057030001b33fc4,119,2,2024-02-27T12:07:40.296Z,french_718.wav,0,poule,2751,29,5,4,English,m,2,0.2,18.23831634,1.63024081
5cee69353057030001b33fc4,119,2,2024-02-27T12:07:40.296Z,french_718.wav,0,poule,2751,29,5,4,English,m,3,0.25666667,-0.86268038,0.33166429
5cee69353057030001b33fc4,120,2,2024-02-27T12:07:40.296Z,french_503.wav,0,poule,321,29,5,4,English,m,0,0.0,-70.57406247,0.43346158
5cee69353057030001b33fc4,120,2,2024-02-27T12:07:40.296Z,french_503.wav,0,poule,321,29,5,4,English,m,1,0.1,-50.28029143,1.6767429
5cee69353057030001b33fc4,120,2,2024-02-27T12:07:40.296Z,french_503.wav,0,poule,321,29,5,4,English,m,2,0.2,-1.92788211,0.59100625
5cee69353057030001b33fc4,120,2,2024-02-27T12:07:40.296Z,french_503.wav,0,poule,321,29,5,4,English,m,3,0.25666667,82.92590596,1.4727109
5cee69353057030001b33fc4,121,2,2024-02-27T12:07:40.296Z,french_210.wav,0,poule,514,29,5,4,English,m,0,0.0,68.99377403,1.59687847
5cee69353057030001b33fc4,121,2,2024-02-27T12:07:40.296Z,french_210.wav,0,poule,514,29,5,4,English,m,1,0.1,17.92188754,0.67113491
5cee69353057030001b33fc4,121,2,2024-02-27T12:07:40.296Z,french_210.wav,0,poule,514,29,5,4,English,m,2,0.2,87.00714336,1.30631186
5cee69353057030001b33fc4,121,2,2024-02-27T12:07:40.296Z,french_210.wav,0,poule,514,29,5,4,English,m,3,0.25666667,69.75485878,0.1897549
5cee69353057030001b33fc4,122,2,2024-02-27T12:07:40.296Z,french_531.wav,0,poule,442,29,5,4,English,m,0,0.0,76.38960861,1.48422918
5cee69353057030001b33fc4,122,2,2024-02-27T12:07:40.296Z,french_531.wav,0,poule,442,29,5,4,English,m,1,0.1,-14.4624089,0.31285067
5cee69353057030001b33fc4,122,2,2024-02-27T12:07:40.296Z,french_531.wav,0,poule,442,29,5,4,English,m,2,0.2,97.56303867,0.71358588
5cee69353057030001b33fc4,122,2,2024-02-27T12:07:40.296Z,french_531.wav,0,poule,442,29,5,4,English,m,3,0.25666667,-4.62103118,0.65318394
5cee69353057030001b33fc4,123,2,2024-02-27T12:07:40.296Z,french_521.wav,0,poule,350,29,5,4,English,m,0,0.0,11.04386286,1.73052604
5cee69353057030001b33fc4,123,2,2024-02-27T12:07:40.296Z,french_521.wav,0,poule,350,29,5,4,English,m,1,0.1,-55.65083084,0.96564678
5cee69353057030001b33fc4,123,2,2024-02-27T12:07:40.296Z,french_521.wav,0,poule,350,29,5,4,English,m,2,0.2,98.93037095,1.35299162
5cee69353057030001b33fc4,123,2,2024-02-27T12:07:40.296Z,french_521.wav,0,poule,350,29,5,4,English,m,3,0.25666667,14.06437892,1.41353716
5cee69353057030001b33fc4,124,2,2024-02-27T12:07:40.296Z,french_70.wav,0,poule,268,29,5,4,English,m,0,0.0,24.17054112,1.64784081
5cee69353057030001b33fc4,124,2,2024-02-27T12:07:40.296Z,french_70.wav,0,poule,268,29,5,4,English,m,1,0.1,-33.49200779,0.51465366
5cee69353057030001b33fc4,124,2,2024-02-27T12:07:40.296Z,french_70.wav,0,poule,268,29,5,4,English,m,2,0.2,-94.66214176,1.24573935
5cee69353057030001b33fc4,124,2,2024-02-27T12:07:40.296Z,french_70.wav,0,poule,268,29,5,4,English,m,3,0.25666667,65.90688931,1.78963367
5cee69353057030001b33fc4,125,2,2024-02-27T12:07:40.296Z,french_111.wav,0,poule,463,29,5,4,English,m,0,0.0,1.59326178,0.67104434
5cee69353057030001b33fc4,125,2,2024-02-27T12:07:40.296Z,french_111.wav,0,poule,463,29,5,4,English,m,1,0.1,-40.8911656,0.22448148
5cee69353057030001b33fc4,125,2,2024-02-27T12:07:40.296Z,french_111.wav,0,poule,463,29,5,4,English,m,2,0.2,-66.59771714,1.3255008
5cee69353057030001b33fc4,125,2,2024-02-27T12:07:40.296Z,french_111.wav,0,poule,463,29,5,4,English,m,3,0.25666667,93.67842788,0.49085037
5cee69353057030001b33fc4,126,2,2024-02-27T12:07:40.296Z,french_651.wav,0,poule,299,29,5,4,English,m,0,0.0,-39.76270633,0.57054307
5cee69353057030001b33fc4,126,2,2024-02-27T12:07:40.296Z,french_651.wav,0,poule,299,29,5,4,English,m,1,0.1,98.43983978,0.47887101
5cee69353057030001b33fc4,126,2,2024-02-27T12:07:40.296Z,french_651.wav,0,poule,299,29,5,4,English,m,2,0.2,-35.93188367,1.36476361
5cee69353057030001b33fc4,126,2,2024-02-27T12:07:40.296Z,french_651.wav,0,poule,299,29,5,4,English,m,3,0.25666667,-13.56550518,1.70592369
5cee69353057030001b33fc4,127,2,2024-02-27T12:07:40.296Z,french_781.wav,0,poule,699,29,5,4,English,m,0,0.0,33.25938538,1.27105286
5cee69353057030001b33fc4,127,2,2024-02-27T12:07:40.296Z,french_781.wav,0,poule,699,29,5,4,English,m,1,0.1,-13.90292419,0.93357863
5cee69353057030001b33fc4,127,2,2024-02-27T12:07:40.296Z,french_781.wav,0,poule,699,29,5,4,English,m,2,0.2,-71.59350782,1.0124146
5cee69353057030001b33fc4,127,2,2024-02-27T12:07:40.296Z,french_781.wav,0,poule,699,29,5,4,English,m,3,0.25666667,57.07291034,0.68511696
5cee69353057030001b33fc4,128,2,2024-02-27T12:07:40.296Z,french_952.wav,0,poule,612,29,5,4,English,m,0,0.0,89.6944408,1.65049473
5cee69353057030001b33fc4,128,2,2024-02-27T12:07:40.296Z,french_952.wav,0,poule,612,29,5,4,English,m,1,0.1,29.6191185,0.9962644
5cee69353057030001b33fc4,128,2,2024-02-27T12:07:40.296Z,french_952.wav,0,poule,612,29,5,4,English,m,2,0.2,82.60414553,0.25471402
5cee69353057030001b33fc4,128,2,2024-02-27T12:07:40.296Z,french_952.wav,0,poule,612,29,5,4,English,m,3,0.25666667,-20.57336344,0.85149117
5cee69353057030001b33fc4,129,2,2024-02-27T12:07:40.296Z,french_685.wav,0,poule,778,29,5,4,English,m,0,0.0,-62.74714371,1.57330944
5cee69353057030001b33fc4,129,2,2024-02-27T12:07:40.296Z,french_685.wav,0,poule,778,29,5,4,English,m,1,0.1,48.52467862,1.34151114
5cee69353057030001b33fc4,129,2,2024-02-27T12:07:40.296Z,french_685.wav,0,poule,778,29,5,4,English,m,2,0.2,4.749694,0.18097188
5cee69353057030001b33fc4,129,2,2024-02-27T12:07:40.296Z,french_685.wav,0,poule,778,29,5,4,English,m,3,0.25666667,88.03032973,0.30113467
5cee69353057030001b33fc4,130,2,2024-02-27T12:07:40.296Z,french_473.wav,0,poule,492,29,5,4,English,m,0,0.0,-59.88543895,0.32878746
5cee69353057030001b33fc4,130,2,2024-02-27T12:07:40.296Z,french_473.wav,0,poule,492,29,5,4,English,m,1,0.1,36.52277503,0.29204452
5cee69353057030001b33fc4,130,2,2024-02-27T12:07:40.296Z,french_473.wav,0,poule,492,29,5,4,English,m,2,0.2,-76.47045714,0.65259503
5cee69353057030001b33fc4,130,2,2024-02-27T12:07:40.296Z,french_473.wav,0,poule,492,29,5,4,English,m,3,0.25666667,-69.05057232,0.35645849
5cee69353057030001b33fc4,131,2,2024-02-27T12:07:40.296Z,french_22.wav,0,poule,353,29,5,4,English,m,0,0.0,71.14052921,0.14678418
5cee69353057030001b33fc4,131,2,2024-02-27T12:07:40.296Z,french_22.wav,0,poule,353,29,5,4,English,m,1,0.1,32.6622244,0.81024714
5cee69353057030001b33fc4,131,2,2024-02-27T12:07:40.296Z,french_22.wav,0,poule,353,29,5,4,English,m,2,0.2,96.1292121,1.14392668
5cee69353057030001b33fc4,131,2,2024-02-27T12:07:40.296Z,french_22.wav,0,poule,353,29,5,4,English,m,3,0.25666667,65.79523532,1.62437335
5cee69353057030001b33fc4,132,2,2024-02-27T12:07:40.296Z,french_81.wav,0,poule,564,29,5,4,English,m,0,0.0,43.03410676,0.84411959
5cee69353057030001b33fc4,132,2,2024-02-27T12:07:40.296Z,french_81.wav,0,poule,564,29,5,4,English,m,1,0.1,37.87573495,1.10924478
5cee69353057030001b33fc4,132,2,2024-02-27T12:07:40.296Z,french_81.wav,0,poule,564,29,5,4,English,m,2,0.2,-9.17332854,1.82652056
5cee69353057030001b33fc4,132,2,2024-02-27T12:07:40.296Z,french_81.wav,0,poule,564,29,5,4,English,m,3,0.25666667,10.13667473,1.52638082
5cee69353057030001b33fc4,133,2,2024-02-27T12:07:40.296Z,french_16.wav,0,poule,362,29,5,4,English,m,0,0.0,-0.6461067,1.33944457
5cee69353057030001b33fc4,133,2,2024-02-27T12:07:40.296Z,french_16.wav,0,poule,362,29,5,4,English,m,1,0.1,90.1568776,0.35137866
5cee69353057030001b33fc4,133,2,2024-02-27T12:07:40.296Z,french_16.wav,0,poule,362,29,5,4,English,m,2,0.2,64.8388413,1.61271584
5cee69353057030001b33fc4,133,2,2024-02-27T12:07:40.296Z,french_16.wav,0,poule,362,29,5,4,English,m,3,0.25666667,-49.08803112,0.05305125
5cee69353057030001b33fc4,134,2,2024-02-27T12:07:40.296Z,french_708.wav,0,poule,1862,29,5,4,English,m,0,0.0,77.88438146,0.30850898
5cee69353057030001b33fc4,134,2,2024-02-27T12:07:40.296Z,french_708.wav,0,poule,1862,29,5,4,English,m,1,0.1,-89.66132416,1.49064351
5cee69353057030001b33fc4,134,2,2024-02-27T12:07:40.296Z,french_708.wav,0,poule,1862,29,5,4,English,m,2,0.2,66.08375885,1.28629193
5cee69353057030001b33fc4,134,2,2024-02-27T12:07:40.296Z,french_708.wav,0,poule,1862,29,5,4,English,m,3,0.25666667,-39.93161414,1.01533724
5cee69353057030001b33fc4,135,2,2024-02-27T12:07:40.296Z,french_963.wav,0,poule,368,29,5,4,English,m,0,0.0,47.65214736,0.44378955
5cee69353057030001b33fc4,135,2,2024-02-27T12:07:40.296Z,french_963.wav,0,poule,368,29,5,4,English,m,1,0.1,6.38608236,0.94107122
5cee69353057030001b33fc4,135,2,2024-02-27T12:07:40.296Z,french_963.wav,0,poule,368,29,5,4,English,m,2,0.2,90.58649254,1.48470349
5cee69353057030001b33fc4,135,2,2024-02-27T12:07:40.296Z,french_963.wav,0,poule,368,29,5,4,English,m,3,0.25666667,-7.76898595,1.98203536
5cee69353057030001b33fc4,136,2,2024-02-27T12:07:40.296Z,french_981.wav,0,poule,339,29,5,4,English,m,0,0.0,-1.54223553,0.66538198
5cee69353057030001b33fc4,136,2,2024-02-27T12:07:40.296Z,french_981.wav,0,poule,339,29,5,4,English,m,1,0.1,-78.86121057,1.42802268
5cee69353057030001b33fc4,136,2,2024-02-27T12:07:40.296Z,french_981.wav,0,poule,339,29,5,4,English,m,2,0.2,-33.48141771,0.92303184
5cee69353057030001b33fc4,136,2,2024-02-27T12:07:40.296Z,french_981.wav,0,poule,339,29,5,4,English,m,3,0.25666667,-47.78773965,0.82545089
5cee69353057030001b33fc4,137,2,2024-02-27T12:07:40.296Z,french_698.wav,0,poule,223,29,5,4,English,m,0,0.0,77.87531809,1.86418809
5cee69353057030001b33fc4,137,2,2024-02-27T12:07:40.296Z,french_698.wav,0,poule,223,29,5,4,English,m,1,0.1,-26.89699032,0.30357323
5cee69353057030001b33fc4,137,2,2024-02-27T12:07:40.296Z,french_698.wav,0,poule,223,29,5,4,English,m,2,0.2,-54.93316964,1.97458381
5cee69353057030001b33fc4,137,2,2024-02-27T12:07:40.296Z,french_698.wav,0,poule,223,29,5,4,English,m,3,0.25666667,-94.94644501,1.01877906
5cee69353057030001b33fc4,138,2,2024-02-27T12:07:40.296Z,french_659.wav,0,poule,608,29,5,4,English,m,0,0.0,85.50464417,1.33522586
5cee69353057030001b33fc4,138,2,2024-02-27T12:07:40.296Z,french_659.wav,0,poule,608,29,5,4,English,m,1,0.1,65.46448613,1.79413259
5cee69353057030001b33fc4,138,2,2024-02-27T12:07:40.296Z,french_659.wav,0,poule,608,29,5,4,English,m,2,0.2,39.40171471,1.57337642
5cee69353057030001b33fc4,138,2,2024-02-27T12:07:40.296Z,french_659.wav,0,poule,608,29,5,4,English,m,3,0.25666667,-2.24011696,0.55895062
5cee69353057030001b33fc4,139,2,2024-02-27T12:07:40.296Z,french_559.wav,0,poule,592,29,5,4,English,m,0,0.0,64.66028359,0.94999591
5cee69353057030001b33fc4,139,2,2024-02-27T12:07:40.296Z,french_559.wav,0,poule,592,29,5,4,English,m,1,0.1,-43.2680873,1.38482691
5cee69353057030001b33fc4,139,2,2024-02-27T12:07:40.296Z,french_559.wav,0,poule,592,29,5,4,English,m,2,0.2,-64.36892284,1.27938883
5cee69353057030001b33fc4,139,2,2024-02-27T12:07:40.296Z,french_559.wav,0,poule,592,29,5,4,English,m,3,0.25666667,44.10109235,0.16591499
5cee69353057030001b33fc4,140,2,2024-02-27T12:07:40.296Z,french_206.wav,0,poule,1023,29,5,4,English,m,0,0.0,54.3984601,1.52634336
5cee69353057030001b33fc4,140,2,2024-02-27T12:07:40.296Z,french_206.wav,0,poule,1023,29,5,4,English,m,1,0.1,63.13301153,0.52222794
5cee69353057030001b33fc4,140,2,2024-02-27T12:07:40.296Z,french_206.wav,0,poule,1023,29,5,4,English,m,2,0.2,42.02994149,1.32066154
5cee69353057030001b33fc4,140,2,2024-02-27T12:07:40.296Z,french_206.wav,0,poule,1023,29,5,4,English,m,3,0.25666667,-16.37363905,0.63957267
5cee69353057030001b33fc4,141,2,2024-02-27T12:07:40.296Z,french_811.wav,0,poule,1523,29,5,4,English,m,0,0.0,35.12158591,1.63803033
5cee69353057030001b33fc4,141,2,2024-02-27T12:07:40.296Z,french_811.wav,0,poule,1523,29,5,4,English,m,1,0.1,4.09145181,0.91441893
5cee69353057030001b33fc4,141,2,2024-02-27T12:07:40.296Z,french_811.wav,0,poule,1523,29,5,4,English,m,2,0.2,-79.3353891,1.53056324
5cee69353057030001b33fc4,141,2,2024-02-27T12:07:40.296Z,french_811.wav,0,poule,1523,29,5,4,English,m,3,0.25666667,-59.5865152,1.20408751
5cee69353057030001b33fc4,142,2,2024-02-27T12:07:40.296Z,french_514.wav,0,poule,1158,29,5,4,English,m,0,0.0,-99.76210077,0.60226465
5cee69353057030001b33fc4,142,2,2024-02-27T12:07:40.296Z,french_514.wav,0,poule,1158,29,5,4,English,m,1,0.1,-57.79872095,0.08785461
5cee69353057030001b33fc4,142,2,2024-02-27T12:07:40.296Z,french_514.wav,0,poule,1158,29,5,4,English,m,2,0.2,-51.12304885,1.82353854
5cee69353057030001b33fc4,142,2,2024-02-27T12:07:40.296Z,french_514.wav,0,poule,1158,29,5,4,English,m,3,0.25666667,51.53874679,1.77009288
5cee69353057030001b33fc4,143,2,2024-02-27T12:07:40.296Z,french_208.wav,0,poule,4240,29,5,4,English,m,0,0.0,8.68990421,0.76850137
5cee69353057030001b33fc4,143,2,2024-02-27T12:07:40.296Z,french_208.wav,0,poule,4240,29,5,4,English,m,1,0.1,-43.18378372,1.33781212
5cee69353057030001b33fc4,143,2,2024-02-27T12:07:40.296Z,french_208.wav,0,poule,4240,29,5,4,English,m,2,0.2,71.27860087,0.39946576
5cee69353057030001b33fc4,143,2,2024-02-27T12:07:40.296Z,french_208.wav,0,poule,4240,29,5,4,English,m,3,0.25666667,-15.56799856,0.17788265
5cee69353057030001b33fc4,144,2,2024-02-27T12:07:40.296Z,french_85.wav,0,poule,467,29,5,4,English,m,0,0.0,8.05629124,0.15740805
5cee69353057030001b33fc4,144,2,2024-02-27T12:07:40.296Z,french_85.wav,0,poule,467,29,5,4,English,m,1,0.1,-30.28403137,1.38994818
5cee69353057030001b33fc4,144,2,2024-02-27T12:07:40.296Z,french_85.wav,0,poule,467,29,5,4,English,m,2,0.2,-73.3047666,0.58823714
5cee69353057030001b33fc4,144,2,2024-02-27T12:07:40.296Z,french_85.wav,0,poule,467,29,5,4,English,m,3,0.25666667,49.81841991,0.54603307
5cee69353057030001b33fc4,145,2,2024-02-27T12:07:40.296Z,french_566.wav,0,poule,508,29,5,4,English,m,0,0.0,64.79843522,1.40647024
5cee69353057030001b33fc4,145,2,2024-02-27T12:07:40.296Z,french_566.wav,0,poule,508,29,5,4,English,m,1,0.1,34.55507538,1.25726542
5cee69353057030001b33fc4,145,2,2024-02-27T12:07:40.296Z,french_566.wav,0,poule,508,29,5,4,English,m,2,0.2,88.9191899,0.22445964
5cee69353057030001b33fc4,145,2,2024-02-27T12:07:40.296Z,french_566.wav,0,poule,508,29,5,4,English,m,3,0.25666667,20.7211509,0.73474601
5cee69353057030001b33fc4,146,2,2024-02-27T12:07:40.296Z,french_774.wav,0,poule,655,29,5,4,English,m,0,0.0,-35.29041546,0.24909556
5cee69353057030001b33fc4,146,2,2024-02-27T12:07:40.296Z,french_774.wav,0,poule,655,29,5,4,English,m,1,0.1,-21.07774935,0.81236123
5cee69353057030001b33fc4,146,2,2024-02-27T12:07:40.296Z,french_774.wav,0,poule,655,29,5,4,English,m,2,0.2,-42.95062976,0.84475887
5cee69353057030001b33fc4,146,2,2024-02-27T12:07:40.296Z,french_774.wav,0,poule,655,29,5,4,English,m,3,0.25666667,-27.37747858,0.12641702
5cee69353057030001b33fc4,147,2,2024-02-27T12:07:40.296Z,french_795.wav,0,poule,1815,29,5,4,English,m,0,0.0,33.06955163,0.26323542
5cee69353057030001b33fc4,147,2,2024-02-27T12:07:40.296Z,french_795.wav,0,poule,1815,29,5,4,English,m,1,0.1,99.3644883,0.35684642
5cee69353057030001b33fc4,147,2,2024-02-27T12:07:40.296Z,french_795.wav,0,poule,1815,29,5,4,English,m,2,0.2,-80.69510174,0.7045199
5cee69353057030001b33fc4,147,2,2024-02-27T12:07:40.296Z,french_795.wav,0,poule,1815,29,5,4,English,m,3,0.25666667,67.54375124,0.58342204
5cee69353057030001b33fc4,148,2,2024-02-27T12:07:40.296Z,french_590.wav,0,poule,928,29,5,4,English,m,0,0.0,-77.28287391,1.10563408
5cee69353057030001b33fc4,148,2,2024-02-27T12:07:40.296Z,french_590.wav,0,poule,928,29,5,4,English,m,1,0.1,-59.34931175,0.27897949
5cee69353057030001b33fc4,148,2,2024-02-27T12:07:40.296Z,french_590.wav,0,poule,928,29,5,4,English,m,2,0.2,-59.15957395,1.42245938
5cee69353057030001b33fc4,148,2,2024-02-27T12:07:40.296Z,french_590.wav,0,poule,928,29,5,4,English,m,3,0.25666667,88.90935082,0.18524725
5cee69353057030001b33fc4,149,2,2024-02-27T12:07:40.296Z,french_826.wav,0,poule,1150,29,5,4,English,m,0,0.0,-33.86739367,0.07066528
5cee69353057030001b33fc4,149,2,2024-02-27T12:07:40.296Z,french_826.wav,0,poule,1150,29,5,4,English,m,1,0.1,-31.27966971,0.90490109
5cee69353057030001b33fc4,149,2,2024-02-27T12:07:40.296Z,french_826.wav,0,poule,1150,29,5,4,English,m,2,0.2,51.84533444,0.66906535
5cee69353057030001b33fc4,149,2,2024-02-27T12:07:40.296Z,french_826.wav,0,poule,1150,29,5,4,English,m,3,0.25666667,-81.13386792,0.4882988
5cee69353057030001b33fc4,150,3,2024-02-27T12:07:40.296Z,french_801.wav,0,poule,1154,29,5,4,English,m,0,0.0,-2.50424847,1.53837519
5cee69353057030001b33fc4,150,3,2024-02-27T12:07:40.296Z,french_801.wav,0,poule,1154,29,5,4,English,m,1,0.1,-38.14130366,1.1394832
5cee69353057030001b33fc4,150,3,2024-02-27T12:07:40.296Z,french_801.wav,0,poule,1154,29,5,4,English,m,2,0.2,29.8899248,1.04638934
5cee69353057030001b33fc4,150,3,2024-02-27T12:07:40.296Z,french_801.wav,0,poule,1154,29,5,4,English,m,3,0.25666667,6.94729426,1.11851907
5cee69353057030001b33fc4,151,3,2024-02-27T12:07:40.296Z,french_33.wav,0,poule,560,29,5,4,English,m,0,0.0,57.46883034,0.51774601
5cee69353057030001b33fc4,151,3,2024-02-27T12:07:40.296Z,french_33.wav,0,poule,560,29,5,4,English,m,1,0.1,-37.75467747,0.34297047
5cee69353057030001b33fc4,151,3,2024-02-27T12:07:40.296Z,french_33.wav,0,poule,560,29,5,4,English,m,2,0.2,37.26126111,0.88429292
5cee69353057030001b33fc4,151,3,2024-02-27T12:07:40.296Z,french_33.wav,0,poule,560,29,5,4,English,m,3,0.25666667,30.73694303,0.45040489
5cee69353057030001b33fc4,152,3,2024-02-27T12:07:40.296Z,french_108.wav,0,poule,407,29,5,4,English,m,0,0.0,-38.50953818,1.14488094
5cee69353057030001b33fc4,152,3,2024-02-27T12:07:40.296Z,french_108.wav,0,poule,407,29,5,4,English,m,1,0.1,44.47590219,1.3820118
5cee69353057030001b33fc4,152,3,2024-02-27T12:07:40.296Z,french_108.wav,0,poule,407,29,5,4,English,m,2,0.2,35.73303492,1.04224754
5cee69353057030001b33fc4,152,3,2024-02-27T12:07:40.296Z,french_108.wav,0,poule,407,29,5,4,English,m,3,0.25666667,-90.35369633,1.51933791
5cee69353057030001b33fc4,153,3,2024-02-27T12:07:40.296Z,french_499.wav,0,poule,587,29,5,4,English,m,0,0.0,24.28229917,0.76159538
5cee69353057030001b33fc4,153,3,2024-02-27T12:07:40.296Z,french_499.wav,0,poule,587,29,5,4,English,m,1,0.1,-90.85236303,0.50536641
5cee69353057030001b33fc4,153,3,2024-02-27T12:07:40.296Z,french_499.wav,0,poule,587,29,5,4,English,m,2,0.2,-60.29957953,0.99158085
5cee69353057030001b33fc4,153,3,2024-02-27T12:07:40.296Z,french_499.wav,0,poule,587,29,5,4,English,m,3,0.25666667,91.79807534,1.05465089
5cee69353057030001b33fc4,154,3,2024-02-27T12:07:40.296Z,french_357.wav,0,poule,598,29,5,4,English,m,0,0.0,-39.34197693,1.60610182
5cee69353057030001b33fc4,154,3,2024-02-27T12:07:40.296Z,french_357.wav,0,poule,598,29,5,4,English,m,1,0.1,71.15894406,0.3952593
5cee69353057030001b33fc4,154,3,2024-02-27T12:07:40.296Z,french_357.wav,0,poule,598,29,5,4,English,m,2,0.2,-59.30154436,0.60654741
5cee69353057030001b33fc4,154,3,2024-02-27T12:07:40.296Z,french_357.wav,0,poule,598,29,5,4,English,m,3,0.25666667,60.48174113,0.43480054
5cee69353057030001b33fc4,155,3,2024-02-27T12:07:40.296Z,french_779.wav,0,poule,455,29,5,4,English,m,0,0.0,-23.73686582,0.65858767
5cee69353057030001b33fc4,155,3,2024-02-27T12:07:40.296Z,french_779.wav,0,poule,455,29,5,4,English,m,1,0.1,96.23962081,1.55580865
5cee69353057030001b33fc4,155,3,2024-02-27T12:07:40.296Z,french_779.wav,0,poule,455,29,5,4,English,m,2,0.2,19.26430851,1.22244229
5cee69353057030001b33fc4,155,3,2024-02-27T12:07:40.296Z,french_779.wav,0,poule,455,29,5,4,English,m,3,0.25666667,-72.92378626,1.83333034
5cee69353057030001b33fc4,156,3,2024-02-27T12:07:40.296Z,french_783.wav,0,pull,2230,29,5,4,English,m,0,0.0,-1.39366148,1.02261841
5cee69353057030001b33fc4,156,3,2024-02-27T12:07:40.296Z,french_783.wav,0,pull,2230,29,5,4,English,m,1,0.1,-51.98505422,1.36670641
5cee69353057030001b33fc4,156,3,2024-02-27T12:07:40.296Z,french_783.wav,0,pull,2230,29,5,4,English,m,2,0.2,-59.48644931,1.36831513
5cee69353057030001b33fc4,156,3,2024-02-27T12:07:40.296Z,french_783.wav,0,pull,2230,29,5,4,English,m,3,0.25666667,-72.0894269,1.17814646
5cee69353057030001b33fc4,157,3,2024-02-27T12:07:40.296Z,french_694.wav,0,pull,3536,29,5,4,English,m,0,0.0,17.77218449,1.83585748
5cee69353057030001b33fc4,157,3,2024-02-27T12:07:40.296Z,french_694.wav,0,pull,3536,29,5,4,English,m,1,0.1,99.46599521,0.80026037
5cee69353057030001b33fc4,157,3,2024-02-27T12:07:40.296Z,french_694.wav,0,pull,3536,29,5,4,English,m,2,0.2,-15.42512366,1.77531791
5cee69353057030001b33fc4,157,3,2024-02-27T12:07:40.296Z,french_694.wav,0,pull,3536,29,5,4,English,m,3,0.25666667,-86.21441247,1.07868716
5cee69353057030001b33fc4,158,3,2024-02-27T12:07:40.296Z,french_665.wav,0,poule,1532,29,5,4,English,m,0,0.0,1.77078633,0.29838278
5cee69353057030001b33fc4,158,3,2024-02-27T12:07:40.296Z,french_665.wav,0,poule,1532,29,5,4,English,m,1,0.1,-95.60257374,0.72198918
5cee69353057030001b33fc4,158,3,2024-02-27T12:07:40.296Z,french_665.wav,0,poule,1532,29,5,4,English,m,2,0.2,-26.21333041,0.91284695
5cee69353057030001b33fc4,158,3,2024-02-27T12:07:40.296Z,french_665.wav,0,poule,1532,29,5,4,English,m,3,0.25666667,-67.7705493,0.52625369
5cee69353057030001b33fc4,159,3,2024-02-27T12:07:40.296Z,french_246.wav,0,pull,1313,29,5,4,English,m,0,0.0,-61.30298939,1.31566238
5cee69353057030001b33fc4,159,3,2024-02-27T12:07:40.296Z,french_246.wav,0,pull,1313,29,5,4,English,m,1,0.1,15.83987086,1.23869052
5cee69353057030001b33fc4,159,3,2024-02-27T12:07:40.296Z,french_246.wav,0,pull,1313,29,5,4,English,m,2,0.2,80.17394669,1.57286335
5cee69353057030001b33fc4,159,3,2024-02-27T12:07:40.296Z,french_246.wav,0,pull,1313,29,5,4,English,m,3,0.25666667,-81.65507189,0.07583844
5cee69353057030001b33fc4,160,3,2024-02-27T12:07:40.296Z,french_30.wav,0,pull,2811,29,5,4,English,m,0,0.0,76.62673318,0.98317975
5cee69353057030001b33fc4,160,3,2024-02-27T12:07:40.296Z,french_30.wav,0,pull,2811,29,5,4,English,m,1,0.1,68.4553342,1.99903841
5cee69353057030001b33fc4,160,3,2024-02-27T12:07:40.296Z,french_30.wav,0,pull,2811,29,5,4,English,m,2,0.2,55.51592845,1.19167606
5cee69353057030001b33fc4,160,3,2024-02-27T12:07:40.296Z,french_30.wav,0,pull,2811,29,5,4,English,m,3,0.25666667,80.18190702,0.01328513
5cee69353057030001b33fc4,161,3,2024-02-27T12:07:40.296Z,french_935.wav,0,poule,1527,29,5,4,English,m,0,0.0,-44.99349069,1.17032266
5cee69353057030001b33fc4,161,3,2024-02-27T12:07:40.296Z,french_935.wav,0,poule,1527,29,5,4,English,m,1,0.1,-36.99771552,1.41237049
5cee69353057030001b33fc4,161,3,2024-02-27T12:07:40.296Z,french_935.wav,0,poule,1527,29,5,4,English,m,2,0.2,73.94933819,0.72245199
5cee69353057030001b33fc4,161,3,2024-02-27T12:07:40.296Z,french_935.wav,0,poule,1527,29,5,4,English,m,3,0.25666667,99.03349287,1.64210213
5cee69353057030001b33fc4,162,3,2024-02-27T12:07:40.296Z,french_110.wav,0,poule,960,29,5,4,English,m,0,0.0,14.8960744,1.68730737
5cee69353057030001b33fc4,162,3,2024-02-27T12:07:40.296Z,french_110.wav,0,poule,960,29,5,4,English,m,1,0.1,-82.02762151,1.03733778
5cee69353057030001b33fc4,162,3,2024-02-27T12:07:40.296Z,french_110.wav,0,poule,960,29,5,4,English,m,2,0.2,66.91383722,1.59061665
5cee69353057030001b33fc4,162,3,2024-02-27T12:07:40.296Z,french_110.wav,0,poule,960,29,5,4,English,m,3,0.25666667,-78.07836064,0.49489255
5cee69353057030001b33fc4,163,3,2024-02-27T12:07:40.296Z,french_383.wav,0,poule,801,29,5,4,English,m,0,0.0,-42.4544387,1.97405967
5cee69353057030001b33fc4,163,3,2024-02-27T12:07:40.296Z,french_383.wav,0,poule,801,29,5,4,English,m,1,0.1,-90.68336638,0.7318817
5cee69353057030001b33fc4,163,3,2024-02-27T12:07:40.296Z,french_383.wav,0,poule,801,29,5,4,English,m,2,0.2,-23.68224062,1.2439139
5cee69353057030001b33fc4,163,3,2024-02-27T12:07:40.296Z,french_383.wav,0,poule,801,29,5,4,English,m,3,0.25666667,-19.21071009,0.24057374
5cee69353057030001b33fc4,164,3,2024-02-27T12:07:40.296Z,french_971.wav,0,poule,536,29,5,4,English,m,0,0.0,96.00351489,1.9961872
5cee69353057030001b33fc4,164,3,2024-02-27T12:07:40.296Z,french_971.wav,0,poule,536,29,5,4,English,m,1,0.1,-55.9328558,0.96234699
5cee69353057030001b33fc4,164,3,2024-02-27T12:07:40.296Z,french_971.wav,0,poule,536,29,5,4,English,m,2,0.2,-62.43027521,1.29823686
5cee69353057030001b33fc4,164,3,2024-02-27T12:07:40.296Z,french_971.wav,0,poule,536,29,5,4,English,m,3,0.25666667,67.10785382,1.44437919
5cee69353057030001b33fc4,165,3,2024-02-27T12:07:40.296Z,french_380.wav,0,poule,744,29,5,4,English,m,0,0.0,24.49292531,0.14533116
5cee69353057030001b33fc4,165,3,2024-02-27T12:07:40.296Z,french_380.wav,0,poule,744,29,5,4,English,m,1,0.1,-93.89933718,1.07880785
5cee69353057030001b33fc4,165,3,2024-02-27T12:07:40.296Z,french_380.wav,0,poule,744,29,5,4,English,m,2,0.2,-85.93529796,1.01737492
5cee69353057030001b33fc4,165,3,2024-02-27T12:07:40.296Z,french_380.wav,0,poule,744,29,5,4,English,m,3,0.25666667,58.85582409,1.87499145
5cee69353057030001b33fc4,166,3,2024-02-27T12:07:40.296Z,french_461.wav,0,poule,305,29,5,4,English,m,0,0.0,76.34817382,0.72953599
5cee69353057030001b33fc4,166,3,2024-02-27T12:07:40.296Z,french_461.wav,0,poule,305,29,5,4,English,m,1,0.1,2.37579461,1.5415695
5cee69353057030001b33fc4,166,3,2024-02-27T12:07:40.296Z,french_461.wav,0,poule,305,29,5,4,English,m,2,0.2,-59.90047781,1.01078515
5cee69353057030001b33fc4,166,3,2024-02-27T12:07:40.296Z,french_461.wav,0,poule,305,29,5,4,English,m,3,0.25666667,20.08623444,1.02737445
5cee69353057030001b33fc4,167,3,2024-02-27T12:07:40.296Z,french_743.wav,0,poule,310,29,5,4,English,m,0,0.0,-33.29442342,0.17876133
5cee69353057030001b33fc4,167,3,2024-02-27T12:07:40.296Z,french_743.wav,0,poule,310,29,5,4,English,m,1,0.1,66.78729562,1.55990879
5cee69353057030001b33fc4,167,3,2024-02-27T12:07:40.296Z,french_743.wav,0,poule,310,29,5,4,English,m,2,0.2,-0.09457626,1.00824872
5cee69353057030001b33fc4,167,3,2024-02-27T12:07:40.296Z,french_743.wav,0,poule,310,29,5,4,English,m,3,0.25666667,-6.43111547,1.50563658
5cee69353057030001b33fc4,168,3,2024-02-27T12:07:40.296Z,french_71.wav,0,poule,640,29,5,4,English,m,0,0.0,-97.29707499,0.6163898
5cee69353057030001b33fc4,168,3,2024-02-27T12:07:40.296Z,french_71.wav,0,poule,640,29,5,4,English,m,1,0.1,41.74238765,1.06775198
5cee69353057030001b33fc4,168,3,2024-02-27T12:07:40.296Z,french_71.wav,0,poule,640,29,5,4,English,m,2,0.2,-91.89336592,1.31906527
5cee69353057030001b33fc4,168,3,2024-02-27T12:07:40.296Z,french_71.wav,0,poule,640,29,5,4,English,m,3,0.25666667,53.06515209,0.58556407
5cee69353057030001b33fc4,169,3,2024-02-27T12:07:40.296Z,french_650.wav,0,poule,1245,29,5,4,English,m,0,0.0,-98.04674504,0.50091073
5cee69353057030001b33fc4,169,3,2024-02-27T12:07:40.296Z,french_650.wav,0,poule,1245,29,5,4,English,m,1,0.1,-80.1546697,0.94744897
5cee69353057030001b33fc4,169,3,2024-02-27T12:07:40.296Z,french_650.wav,0,poule,1245,29,5,4,English,m,2,0.2,-60.9727692,0.76656919
5cee69353057030001b33fc4,169,3,2024-02-27T12:07:40.296Z,french_650.wav,0,poule,1245,29,5,4,English,m,3,0.25666667,39.39299736,1.29747512
5cee69353057030001b33fc4,170,3,2024-02-27T12:07:40.296Z,french_315.wav,0,poule,680,29,5,4,English,m,0,0.0,84.5751695,1.39276289
5cee69353057030001b33fc4,170,3,2024-02-27T12:07:40.296Z,french_315.wav,0,poule,680,29,5,4,English,m,1,0.1,-54.9339599,0.42909402
5cee69353057030001b33fc4,170,3,2024-02-27T12:07:40.296Z,french_315.wav,0,poule,680,29,5,4,English,m,2,0.2,-20.4659381,1.80166787
5cee69353057030001b33fc4,170,3,2024-02-27T12:07:40.296Z,french_315.wav,0,poule,680,29,5,4,English,m,3,0.256666667,0.0497627412,1.01422067
5cee69353057030001b33fc4,171,3,2024-02-27T12:07:40.296Z,french_553.wav,0,poule,416,29,5,4,English,m,0,0.0,-1.38146628,0.44011383
5cee69353057030001b33fc4,171,3,2024-02-27T12:07:40.296Z,french_553.wav,0,poule,416,29,5,4,English,m,1,0.1,-34.28745567,1.14829302
5cee69353057030001b33fc4,171,3,2024-02-27T12:07:40.296Z,french_553.wav,0,poule,416,29,5,4,English,m,2,0.2,6.87532462,1.07508961
5cee69353057030001b33fc4,171,3,2024-02-27T12:07:40.296Z,french_553.wav,0,poule,416,29,5,4,English,m,3,0.25666667,90.98690029,0.10252166
5cee69353057030001b33fc4,172,3,2024-02-27T12:07:40.296Z,french_830.wav,0,poule,327,29,5,4,English,m,0,0.0,-1.87091299,1.09232302
5cee69353057030001b33fc4,172,3,2024-02-27T12:07:40.296Z,french_830.wav,0,poule,327,29,5,4,English,m,1,0.1,9.47785811,0.94787069
5cee69353057030001b33fc4,172,3,2024-02-27T12:07:40.296Z,french_830.wav,0,poule,327,29,5,4,English,m,2,0.2,-62.34166138,1.22281972
5cee69353057030001b33fc4,172,3,2024-02-27T12:07:40.296Z,french_830.wav,0,poule,327,29,5,4,English,m,3,0.25666667,43.2809025,1.77001535
5cee69353057030001b33fc4,173,3,2024-02-27T12:07:40.296Z,french_59.wav,0,poule,460,29,5,4,English,m,0,0.0,39.36273925,0.85213244
5cee69353057030001b33fc4,173,3,2024-02-27T12:07:40.296Z,french_59.wav,0,poule,460,29,5,4,English,m,1,0.1,-72.05438318,0.54541244
5cee69353057030001b33fc4,173,3,2024-02-27T12:07:40.296Z,french_59.wav,0,poule,460,29,5,4,English,m,2,0.2,-58.73379721,0.77028914
5cee69353057030001b33fc4,173,3,2024-02-27T12:07:40.296Z,french_59.wav,0,poule,460,29,5,4,English,m,3,0.25666667,-71.89754194,0.84538443
5cee69353057030001b33fc4,174,3,2024-02-27T12:07:40.296Z,french_528.wav,0,poule,991,29,5,4,English,m,0,0.0,88.85530458,1.69331748
5cee69353057030001b33fc4,174,3,2024-02-27T12:07:40.296Z,french_528.wav,0,poule,991,29,5,4,English,m,1,0.1,-87.19636625,0.73621757
5cee69353057030001b33fc4,174,3,2024-02-27T12:07:40.296Z,french_528.wav,0,poule,991,29,5,4,English,m,2,0.2,-45.08147721,0.82405603
5cee69353057030001b33fc4,174,3,2024-02-27T12:07:40.296Z,french_528.wav,0,poule,991,29,5,4,English,m,3,0.25666667,86.03081593,0.01123483
5cee69353057030001b33fc4,175,3,2024-02-27T12:07:40.296Z,french_709.wav,0,pull,2683,29,5,4,English,m,0,0.0,-79.1228884,1.66046785
5cee69353057030001b33fc4,175,3,2024-02-27T12:07:40.296Z,french_709.wav,0,pull,2683,29,5,4,English,m,1,0.1,-27.45222572,0.50815509
5cee69353057030001b33fc4,175,3,2024-02-27T12:07:40.296Z,french_709.wav,0,pull,2683,29,5,4,English,m,2,0.2,-11.54770291,1.01994244
5cee69353057030001b33fc4,175,3,2024-02-27T12:07:40.296Z,french_709.wav,0,pull,2683,29,5,4,English,m,3,0.25666667,-99.06734201,1.8368488
5cee69353057030001b33fc4,176,3,2024-02-27T12:07:40.296Z,french_372.wav,0,pull,1901,29,5,4,English,m,0,0.0,2.47243072,0.40204166
5cee69353057030001b33fc4,176,3,2024-02-27T12:07:40.296Z,french_372.wav,0,pull,1901,29,5,4,English,m,1,0.1,-60.42501292,1.5432551
5cee69353057030001b33fc4,176,3,2024-02-27T12:07:40.296Z,french_372.wav,0,pull,1901,29,5,4,English,m,2,0.2,-16.68820648,1.17639585
5cee69353057030001b33fc4,176,3,2024-02-27T12:07:40.296Z,french_372.wav,0,pull,1901,29,5,4,English,m,3,0.25666667,27.86473169,1.5977063
5cee69353057030001b33fc4,177,3,2024-02-27T12:07:40.296Z,french_28.wav,0,poule,588,29,5,4,English,m,0,0.0,-42.04092007,0.8096396
5cee69353057030001b33fc4,177,3,2024-02-27T12:07:40.296Z,french_28.wav,0,poule,588,29,5,4,English,m,1,0.1,-47.89065573,0.68168646
5cee69353057030001b33fc4,177,3,2024-02-27T12:07:40.296Z,french_28.wav,0,poule,588,29,5,4,English,m,2,0.2,88.67668081,0.86103635
5cee69353057030001b33fc4,177,3,2024-02-27T12:07:40.296Z,french_28.wav,0,poule,588,29,5,4,English,m,3,0.25666667,23.25138011,1.13642067
5cee69353057030001b33fc4,178,3,2024-02-27T12:07:40.296Z,french_807.wav,0,poule,410,29,5,4,English,m,0,0.0,41.22965042,0.26309645
5cee69353057030001b33fc4,178,3,2024-02-27T12:07:40.296Z,french_807.wav,0,poule,410,29,5,4,English,m,1,0.1,55.45523643,0.30227962
5cee69353057030001b33fc4,178,3,2024-02-27T12:07:40.296Z,french_807.wav,0,poule,410,29,5,4,English,m,2,0.2,-56.08981041,0.58983644
5cee69353057030001b33fc4,178,3,2024-02-27T12:07:40.296Z,french_807.wav,0,poule,410,29,5,4,English,m,3,0.25666667,27.67304414,1.26996728
5cee69353057030001b33fc4,179,3,2024-02-27T12:07:40.296Z,french_984.wav,0,pull,1928,29,5,4,English,m,0,0.0,-47.91850728,0.65620753
5cee69353057030001b33fc4,179,3,2024-02-27T12:07:40.296Z,french_984.wav,0,pull,1928,29,5,4,English,m,1,0.1,26.54192822,0.71747565
5cee69353057030001b33fc4,179,3,2024-02-27T12:07:40.296Z,french_984.wav,0,pull,1928,29,5,4,English,m,2,0.2,31.46018772,1.52452255
5cee69353057030001b33fc4,179,3,2024-02-27T12:07:40.296Z,french_984.wav,0,pull,1928,29,5,4,English,m,3,0.25666667,54.61358492,1.85839607
5cee69353057030001b33fc4,180,3,2024-02-27T12:07:40.296Z,french_191.wav,0,poule,1386,29,5,4,English,m,0,0.0,61.70033847,1.87867126
5cee69353057030001b33fc4,180,3,2024-02-27T12:07:40.296Z,french_191.wav,0,poule,1386,29,5,4,English,m,1,0.1,-19.77100541,0.40395676
5cee69353057030001b33fc4,180,3,2024-02-27T12:07:40.296Z,french_191.wav,0,poule,1386,29,5,4,English,m,2,0.2,-44.48193137,1.14362057
5cee69353057030001b33fc4,180,3,2024-02-27T12:07:40.296Z,french_191.wav,0,poule,1386,29,5,4,English,m,3,0.25666667,-92.19007218,1.68692384
5cee69353057030001b33fc4,181,3,2024-02-27T12:07:40.296Z,french_982.wav,0,poule,535,29,5,4,English,m,0,0.0,-37.50079515,0.32253899
5cee69353057030001b33fc4,181,3,2024-02-27T12:07:40.296Z,french_982.wav,0,poule,535,29,5,4,English,m,1,0.1,-23.37923681,1.88868261
5cee69353057030001b33fc4,181,3,2024-02-27T12:07:40.296Z,french_982.wav,0,poule,535,29,5,4,English,m,2,0.2,-55.8234839,0.59835015
5cee69353057030001b33fc4,181,3,2024-02-27T12:07:40.296Z,french_982.wav,0,poule,535,29,5,4,English,m,3,0.25666667,-58.92111767,1.21615752
5cee69353057030001b33fc4,182,3,2024-02-27T12:07:40.296Z,french_539.wav,0,poule,3219,29,5,4,English,m,0,0.0,-25.67038427,1.25415191
5cee69353057030001b33fc4,182,3,2024-02-27T12:07:40.296Z,french_539.wav,0,poule,3219,29,5,4,English,m,1,0.1,48.64308398,1.80742897
5cee69353057030001b33fc4,182,3,2024-02-27T12:07:40.296Z,french_539.wav,0,poule,3219,29,5,4,English,m,2,0.2,-77.82337419,1.66801057
5cee69353057030001b33fc4,182,3,2024-02-27T12:07:40.296Z,french_539.wav,0,poule,3219,29,5,4,English,m,3,0.25666667,-42.20378119,0.618258
5cee69353057030001b33fc4,183,3,2024-02-27T12:07:40.296Z,french_554.wav,0,poule,616,29,5,4,English,m,0,0.0,-31.9650703,1.45983082
5cee69353057030001b33fc4,183,3,2024-02-27T12:07:40.296Z,french_554.wav,0,poule,616,29,5,4,English,m,1,0.1,78.95364823,0.40013818
5cee69353057030001b33fc4,183,3,2024-02-27T12:07:40.296Z,french_554.wav,0,poule,616,29,5,4,English,m,2,0.2,-0.5294376,0.96374115
5cee69353057030001b33fc4,183,3,2024-02-27T12:07:40.296Z,french_554.wav,0,poule,616,29,5,4,English,m,3,0.25666667,-36.78296127,1.20732856
5cee69353057030001b33fc4,184,3,2024-02-27T12:07:40.296Z,french_177.wav,0,poule,1102,29,5,4,English,m,0,0.0,-69.89314337,1.41470617
5cee69353057030001b33fc4,184,3,2024-02-27T12:07:40.296Z,french_177.wav,0,poule,1102,29,5,4,English,m,1,0.1,8.10824913,0.24806543
5cee69353057030001b33fc4,184,3,2024-02-27T12:07:40.296Z,french_177.wav,0,poule,1102,29,5,4,English,m,2,0.2,41.02901981,1.01013957
5cee69353057030001b33fc4,184,3,2024-02-27T12:07:40.296Z,french_177.wav,0,poule,1102,29,5,4,English,m,3,0.25666667,-9.46888932,0.18165289
5cee69353057030001b33fc4,185,3,2024-02-27T12:07:40.296Z,french_599.wav,0,poule,642,29,5,4,English,m,0,0.0,67.35107794,1.27225877
5cee69353057030001b33fc4,185,3,2024-02-27T12:07:40.296Z,french_599.wav,0,poule,642,29,5,4,English,m,1,0.1,-80.59112066,1.42607556
5cee69353057030001b33fc4,185,3,2024-02-27T12:07:40.296Z,french_599.wav,0,poule,642,29,5,4,English,m,2,0.2,8.51369184,0.27008032
5cee69353057030001b33fc4,185,3,2024-02-27T12:07:40.296Z,french_599.wav,0,poule,642,29,5,4,English,m,3,0.25666667,74.29539318,0.36016313
5cee69353057030001b33fc4,186,3,2024-02-27T12:07:40.296Z,french_587.wav,0,pull,2407,29,5,4,English,m,0,0.0,-75.34784911,1.71069253
5cee69353057030001b33fc4,186,3,2024-02-27T12:07:40.296Z,french_587.wav,0,pull,2407,29,5,4,English,m,1,0.1,20.53880501,1.37718063
5cee69353057030001b33fc4,186,3,2024-02-27T12:07:40.296Z,french_587.wav,0,pull,2407,29,5,4,English,m,2,0.2,-66.82934855,1.47865121
5cee69353057030001b33fc4,186,3,2024-02-27T12:07:40.296Z,french_587.wav,0,pull,2407,29,5,4,English,m,3,0.25666667,0.42354047,1.29460257
5cee69353057030001b33fc4,187,3,2024-02-27T12:07:40.296Z,french_865.wav,0,poule,629,29,5,4,English,m,0,0.0,50.32963137,0.72864737
5cee69353057030001b33fc4,187,3,2024-02-27T12:07:40.296Z,french_865.wav,0,poule,629,29,5,4,English,m,1,0.1,-34.20059836,0.63562985
5cee69353057030001b33fc4,187,3,2024-02-27T12:07:40.296Z,french_865.wav,0,poule,629,29,5,4,English,m,2,0.2,-1.26220982,0.61823994
5cee69353057030001b33fc4,187,3,2024-02-27T12:07:40.296Z,french_865.wav,0,poule,629,29,5,4,English,m,3,0.25666667,-35.44054545,1.79442015
5cee69353057030001b33fc4,188,3,2024-02-27T12:07:40.296Z,french_438.wav,0,poule,629,29,5,4,English,m,0,0.0,38.28600595,0.24947118
5cee69353057030001b33fc4,188,3,2024-02-27T12:07:40.296Z,french_438.wav,0,poule,629,29,5,4,English,m,1,0.1,-2.73615403,0.88566368
5cee69353057030001b33fc4,188,3,2024-02-27T12:07:40.296Z,french_438.wav,0,poule,629,29,5,4,English,m,2,0.2,-43.32822043,0.23078024
5cee69353057030001b33fc4,188,3,2024-02-27T12:07:40.296Z,french_438.wav,0,poule,629,29,5,4,English,m,3,0.25666667,-21.43836029,1.64360752
5cee69353057030001b33fc4,189,3,2024-02-27T12:07:40.296Z,french_648.wav,0,poule,3589,29,5,4,English,m,0,0.0,45.21338473,1.3610165
5cee69353057030001b33fc4,189,3,2024-02-27T12:07:40.296Z,french_648.wav,0,poule,3589,29,5,4,English,m,1,0.1,35.84509453,0.40626065
5cee69353057030001b33fc4,189,3,2024-02-27T12:07:40.296Z,french_648.wav,0,poule,3589,29,5,4,English,m,2,0.2,-67.01500747,0.74636895
5cee69353057030001b33fc4,189,3,2024-02-27T12:07:40.296Z,french_648.wav,0,poule,3589,29,5,4,English,m,3,0.25666667,-57.94291625,1.66903202
5cee69353057030001b33fc4,190,3,2024-02-27T12:07:40.296Z,french_602.wav,0,poule,614,29,5,4,English,m,0,0.0,88.5156033,1.15034926
5cee69353057030001b33fc4,190,3,2024-02-27T12:07:40.296Z,french_602.wav,0,poule,614,29,5,4,English,m,1,0.1,50.37840389,0.70361943
5cee69353057030001b33fc4,190,3,2024-02-27T12:07:40.296Z,french_602.wav,0,poule,614,29,5,4,English,m,2,0.2,41.99983627,1.85629911
5cee69353057030001b33fc4,190,3,2024-02-27T12:07:40.296Z,french_602.wav,0,poule,614,29,5,4,English,m,3,0.25666667,11.33520808,0.32194213
5cee69353057030001b33fc4,191,3,2024-02-27T12:07:40.296Z,french_185.wav,0,poule,2795,29,5,4,English,m,0,0.0,61.04894301,1.56575395
