subj,sex,age,language,english,french,native_lang,date,practice,block,trial,stim,pitch,stretch,response,rt
1,m,25,english,5,2,english,2024-02-07 14:21:25.665371,True,0,0,sounds\french\audio/french_617.wav,"[[  0.         -34.18466024]
 [  0.1         35.41565559]
 [  0.2         59.04414741]
 [  0.25666667  80.0519445 ]]","[[0.         0.10021852]
 [0.1        0.72859392]
 [0.2        0.77782194]
 [0.25666667 1.13599019]]",0,47.677
1,m,25,english,5,2,english,2024-02-07 14:21:25.665371,True,0,1,sounds\french\audio/french_181.wav,"[[  0.          52.63626805]
 [  0.1         57.50479679]
 [  0.2        -83.63706112]
 [  0.25666667  -1.92902825]]","[[0.         0.9763228 ]
 [0.1        1.59974154]
 [0.2        1.01502959]
 [0.25666667 0.93700507]]",1,7.723
1,m,25,english,5,2,english,2024-02-07 14:21:25.665371,True,0,2,sounds\french\audio/french_9.wav,"[[ 0.         19.3207086 ]
 [ 0.1        55.1250277 ]
 [ 0.2        31.60633129]
 [ 0.25666667 31.4464946 ]]","[[0.         1.35934995]
 [0.1        1.31727385]
 [0.2        0.52824511]
 [0.25666667 1.75131645]]",1,6.098
1,m,25,english,5,2,english,2024-02-07 14:21:25.665371,False,1,3,sounds\french\audio/french_842.wav,"[[  0.          74.80920959]
 [  0.1        -40.95587484]
 [  0.2         40.36105872]
 [  0.25666667 -80.22764814]]","[[0.         0.40194032]
 [0.1        0.66729024]
 [0.2        0.3355789 ]
 [0.25666667 0.97335266]]",0,2.808
1,m,25,english,5,2,english,2024-02-07 14:21:25.665371,False,1,4,sounds\french\audio/french_524.wav,"[[  0.          29.26114001]
 [  0.1         51.10918927]
 [  0.2        -43.7486939 ]
 [  0.25666667 -29.29338592]]","[[0.         1.50805134]
 [0.1        1.00551207]
 [0.2        1.81734516]
 [0.25666667 0.93830148]]",1,1.137
1,m,25,english,5,2,english,2024-02-07 14:21:25.665371,False,1,5,sounds\french\audio/french_809.wav,"[[  0.         -35.34138518]
 [  0.1        -27.53268432]
 [  0.2         -4.59062168]
 [  0.25666667  54.17413939]]","[[0.         0.91250327]
 [0.1        1.55486221]
 [0.2        0.05513513]
 [0.25666667 0.74937359]]",1,4.509
1,m,25,english,5,2,english,2024-02-07 14:21:25.665371,False,1,6,sounds\french\audio/french_35.wav,"[[  0.         -91.9197252 ]
 [  0.1        -51.10479589]
 [  0.2        -15.74458639]
 [  0.25666667 -11.36352661]]","[[0.         1.92941129]
 [0.1        1.66263878]
 [0.2        0.60493147]
 [0.25666667 1.17557979]]",1,1.062
1,m,25,english,5,2,english,2024-02-07 14:21:25.665371,False,1,7,sounds\french\audio/french_587.wav,"[[  0.         -75.34784911]
 [  0.1         20.53880501]
 [  0.2        -66.82934855]
 [  0.25666667   0.42354047]]","[[0.         1.71069253]
 [0.1        1.37718063]
 [0.2        1.47865121]
 [0.25666667 1.29460257]]",1,4.279
1,m,25,english,5,2,english,2024-02-07 14:21:25.665371,False,1,8,sounds\french\audio/french_163.wav,"[[  0.          95.00435891]
 [  0.1         41.67922454]
 [  0.2        -79.43338234]
 [  0.25666667 -47.45672342]]","[[0.         1.26837246]
 [0.1        0.25754486]
 [0.2        1.96804031]
 [0.25666667 0.46721947]]",0,0.775
1,m,25,english,5,2,english,2024-02-07 14:21:25.665371,False,1,9,sounds\french\audio/french_77.wav,"[[  0.         -38.97456477]
 [  0.1        -27.77573133]
 [  0.2         62.31685549]
 [  0.25666667  13.7751853 ]]","[[0.         1.51906971]
 [0.1        1.43123518]
 [0.2        1.04030098]
 [0.25666667 1.45792424]]",1,2.565
1,m,25,english,5,2,english,2024-02-07 14:21:25.665371,False,1,10,sounds\french\audio/french_420.wav,"[[  0.         -21.03631645]
 [  0.1         59.70125687]
 [  0.2         54.71539052]
 [  0.25666667  38.49486436]]","[[0.         1.00707818]
 [0.1        0.92270488]
 [0.2        1.69105963]
 [0.25666667 0.9671157 ]]",1,3.656
1,m,25,english,5,2,english,2024-02-07 14:21:25.665371,False,1,11,sounds\french\audio/french_905.wav,"[[  0.          87.86620346]
 [  0.1         17.88859649]
 [  0.2         51.58456374]
 [  0.25666667 -98.76806622]]","[[0.         1.28585996]
 [0.1        0.57714405]
 [0.2        0.3219524 ]
 [0.25666667 1.69480445]]",0,0.725
1,m,25,english,5,2,english,2024-02-07 14:21:25.665371,False,1,12,sounds\french\audio/french_560.wav,"[[  0.         -42.00998938]
 [  0.1        -57.33016448]
 [  0.2         94.61210268]
 [  0.25666667 -53.14621565]]","[[0.         1.48749501]
 [0.1        0.25124208]
 [0.2        1.70870291]
 [0.25666667 0.91259566]]",0,0.741
1,m,25,english,5,2,english,2024-02-07 14:21:25.665371,False,1,13,sounds\french\audio/french_523.wav,"[[  0.         -20.54401218]
 [  0.1        -64.61887171]
 [  0.2        -56.67652055]
 [  0.25666667 -29.90055738]]","[[0.         1.01178449]
 [0.1        1.79283511]
 [0.2        0.92711934]
 [0.25666667 1.0186138 ]]",1,2.104
1,m,25,english,5,2,english,2024-02-07 14:21:25.665371,False,1,14,sounds\french\audio/french_686.wav,"[[ 0.         20.49516986]
 [ 0.1        27.4040505 ]
 [ 0.2        31.96095965]
 [ 0.25666667 61.08066052]]","[[0.         1.86861476]
 [0.1        1.87689714]
 [0.2        0.80940067]
 [0.25666667 0.04075967]]",0,6.022
1,m,25,english,5,2,english,2024-02-07 14:21:25.665371,False,1,15,sounds\french\audio/french_68.wav,"[[  0.          58.83829029]
 [  0.1         77.59339865]
 [  0.2        -73.88341881]
 [  0.25666667 -24.56901296]]","[[0.         1.80244508]
 [0.1        1.3442738 ]
 [0.2        1.16581557]
 [0.25666667 0.71132336]]",1,1.512
1,m,25,english,5,2,english,2024-02-07 14:21:25.665371,False,1,16,sounds\french\audio/french_159.wav,"[[  0.         -35.81772681]
 [  0.1        -81.24007344]
 [  0.2        -76.66667718]
 [  0.25666667 -12.73742482]]","[[0.         1.09204322]
 [0.1        1.04236488]
 [0.2        0.27370424]
 [0.25666667 0.41375192]]",0,0.849
1,m,25,english,5,2,english,2024-02-07 14:21:25.665371,False,1,17,sounds\french\audio/french_640.wav,"[[  0.         -15.56807975]
 [  0.1         54.79262645]
 [  0.2        -80.20485071]
 [  0.25666667 -47.69326323]]","[[0.         1.93294171]
 [0.1        1.3982646 ]
 [0.2        1.35271381]
 [0.25666667 0.1240569 ]]",1,1.049
1,m,25,english,5,2,english,2024-02-07 14:21:25.665371,False,1,18,sounds\french\audio/french_259.wav,"[[  0.          34.42813613]
 [  0.1         10.6054277 ]
 [  0.2        -13.69189805]
 [  0.25666667 -89.62004192]]","[[0.         0.3045902 ]
 [0.1        0.51228763]
 [0.2        1.00650156]
 [0.25666667 1.73437165]]",0,0.584
1,m,25,english,5,2,english,2024-02-07 14:21:25.665371,False,1,19,sounds\french\audio/french_899.wav,"[[  0.         -28.57126009]
 [  0.1         -0.09971188]
 [  0.2         21.79777269]
 [  0.25666667 -88.2290065 ]]","[[0.         0.27570035]
 [0.1        0.02539286]
 [0.2        0.56520269]
 [0.25666667 1.36421593]]",0,0.891
1,m,25,english,5,2,english,2024-02-07 14:21:25.665371,False,1,20,sounds\french\audio/french_504.wav,"[[  0.          -0.09953376]
 [  0.1        -56.24331475]
 [  0.2        -79.12350098]
 [  0.25666667  64.25656878]]","[[0.         1.58426169]
 [0.1        0.92396286]
 [0.2        0.70640993]
 [0.25666667 0.80299587]]",1,1.837
1,m,25,english,5,2,english,2024-02-07 14:21:25.665371,False,1,21,sounds\french\audio/french_363.wav,"[[  0.          53.04818478]
 [  0.1         68.67010762]
 [  0.2        -91.11205335]
 [  0.25666667 -38.9131055 ]]","[[0.         0.48026107]
 [0.1        1.94302888]
 [0.2        0.36511891]
 [0.25666667 1.6181542 ]]",0,1.924
1,m,25,english,5,2,english,2024-02-07 14:21:25.665371,False,1,22,sounds\french\audio/french_112.wav,"[[  0.         -70.30580716]
 [  0.1         33.64373442]
 [  0.2         26.55830463]
 [  0.25666667  46.16769785]]","[[0.         0.18088618]
 [0.1        1.43869791]
 [0.2        0.89230346]
 [0.25666667 0.14009493]]",1,0.894
1,m,25,english,5,2,english,2024-02-07 14:21:25.665371,False,1,23,sounds\french\audio/french_154.wav,"[[  0.         -35.77368222]
 [  0.1          5.93918526]
 [  0.2         36.13172948]
 [  0.25666667 -52.77395679]]","[[0.         0.10248514]
 [0.1        0.42084566]
 [0.2        1.29147589]
 [0.25666667 0.60791213]]",1,1.652
1,m,25,english,5,2,english,2024-02-07 14:21:25.665371,False,1,24,sounds\french\audio/french_279.wav,"[[  0.         -82.72654322]
 [  0.1         51.19533055]
 [  0.2         81.3850192 ]
 [  0.25666667  12.9967417 ]]","[[0.         1.91034617]
 [0.1        0.35578453]
 [0.2        1.45645662]
 [0.25666667 1.34605049]]",1,0.694
1,m,25,english,5,2,english,2024-02-07 14:21:25.665371,False,1,25,sounds\french\audio/french_79.wav,"[[  0.         -17.81057473]
 [  0.1        -79.49788956]
 [  0.2         21.64031361]
 [  0.25666667   9.8962074 ]]","[[0.         1.07647634]
 [0.1        0.19758175]
 [0.2        1.4893643 ]
 [0.25666667 1.60982877]]",1,2.899
1,m,25,english,5,2,english,2024-02-07 14:21:25.665371,False,1,26,sounds\french\audio/french_660.wav,"[[  0.         -75.02051955]
 [  0.1        -36.41679043]
 [  0.2        -45.60366398]
 [  0.25666667  13.07838485]]","[[0.         0.75293762]
 [0.1        0.97452375]
 [0.2        1.88941483]
 [0.25666667 0.53297117]]",1,5.02
1,m,25,english,5,2,english,2024-02-07 14:21:25.665371,False,1,27,sounds\french\audio/french_142.wav,"[[  0.         -47.01050856]
 [  0.1         44.85636852]
 [  0.2         82.74517116]
 [  0.25666667 -74.59675421]]","[[0.         0.88751265]
 [0.1        1.13664387]
 [0.2        0.91175928]
 [0.25666667 0.66352734]]",0,0.683
1,m,25,english,5,2,english,2024-02-07 14:21:25.665371,False,1,28,sounds\french\audio/french_443.wav,"[[  0.         -70.8287672 ]
 [  0.1        -57.74098156]
 [  0.2         -4.83347895]
 [  0.25666667 -81.70376308]]","[[0.         0.48827419]
 [0.1        0.38931866]
 [0.2        0.64406231]
 [0.25666667 1.21599086]]",0,0.775
1,m,25,english,5,2,english,2024-02-07 14:21:25.665371,False,1,29,sounds\french\audio/french_24.wav,"[[  0.         -90.56488298]
 [  0.1        -50.97686263]
 [  0.2         15.79918005]
 [  0.25666667   3.83977191]]","[[0.         1.23408284]
 [0.1        0.21485458]
 [0.2        0.7737077 ]
 [0.25666667 0.99994749]]",0,4.409
1,m,25,english,5,2,english,2024-02-07 14:21:25.665371,False,1,30,sounds\french\audio/french_482.wav,"[[  0.          30.59556471]
 [  0.1        -28.15674373]
 [  0.2        -30.08163346]
 [  0.25666667  89.23902938]]","[[0.         1.3609553 ]
 [0.1        1.03507415]
 [0.2        1.60461159]
 [0.25666667 0.68082645]]",1,1.04
1,m,25,english,5,2,english,2024-02-07 14:21:25.665371,False,1,31,sounds\french\audio/french_268.wav,"[[  0.         -31.22986491]
 [  0.1         85.41130684]
 [  0.2         51.81326747]
 [  0.25666667  -9.66270327]]","[[0.         0.61965618]
 [0.1        0.43772331]
 [0.2        0.97717852]
 [0.25666667 0.83042374]]",0,1.325
1,m,25,english,5,2,english,2024-02-07 14:21:25.665371,False,1,32,sounds\french\audio/french_776.wav,"[[  0.          -9.17095967]
 [  0.1        -70.57850226]
 [  0.2         63.21349252]
 [  0.25666667  59.47578694]]","[[0.         0.42962635]
 [0.1        1.70698124]
 [0.2        1.25010697]
 [0.25666667 1.52671833]]",1,0.697
1,m,25,english,5,2,english,2024-02-07 14:21:25.665371,False,1,33,sounds\french\audio/french_995.wav,"[[  0.         -29.39777781]
 [  0.1         22.57403903]
 [  0.2        -65.41348422]
 [  0.25666667  24.23364448]]","[[0.         0.04069973]
 [0.1        0.75529124]
 [0.2        0.72194837]
 [0.25666667 0.85657711]]",0,1.513
1,m,25,english,5,2,english,2024-02-07 14:21:25.665371,False,1,34,sounds\french\audio/french_943.wav,"[[  0.          27.08075724]
 [  0.1         11.89706259]
 [  0.2        -68.36208072]
 [  0.25666667  93.65942771]]","[[0.         1.18472309]
 [0.1        0.18520331]
 [0.2        0.55970606]
 [0.25666667 0.63383354]]",0,1.144
1,m,25,english,5,2,english,2024-02-07 14:21:25.665371,False,1,35,sounds\french\audio/french_710.wav,"[[  0.         -54.00258077]
 [  0.1         34.45486491]
 [  0.2         63.8215693 ]
 [  0.25666667  15.83931319]]","[[0.         0.87889336]
 [0.1        0.7692559 ]
 [0.2        0.4253567 ]
 [0.25666667 0.40649008]]",1,1.062
1,m,25,english,5,2,english,2024-02-07 14:21:25.665371,False,1,36,sounds\french\audio/french_572.wav,"[[  0.          39.88309013]
 [  0.1        -96.79862589]
 [  0.2        -22.12237888]
 [  0.25666667 -29.01009828]]","[[0.         1.43577141]
 [0.1        0.70754044]
 [0.2        0.13254452]
 [0.25666667 0.2743676 ]]",1,2.467
1,m,25,english,5,2,english,2024-02-07 14:21:25.665371,False,1,37,sounds\french\audio/french_972.wav,"[[  0.          10.38102426]
 [  0.1        -66.54271468]
 [  0.2         -2.89265523]
 [  0.25666667 -87.42126356]]","[[0.         0.90840989]
 [0.1        1.6485676 ]
 [0.2        0.79956718]
 [0.25666667 1.28352811]]",0,5.207
1,m,25,english,5,2,english,2024-02-07 14:21:25.665371,False,1,38,sounds\french\audio/french_368.wav,"[[  0.         -50.29275674]
 [  0.1        -46.19812301]
 [  0.2         11.95097834]
 [  0.25666667  56.55273669]]","[[0.         1.3762211 ]
 [0.1        0.86881993]
 [0.2        1.63580042]
 [0.25666667 0.08134077]]",1,0.763
1,m,25,english,5,2,english,2024-02-07 14:21:25.665371,False,1,39,sounds\french\audio/french_972.wav,"[[  0.          10.38102426]
 [  0.1        -66.54271468]
 [  0.2         -2.89265523]
 [  0.25666667 -87.42126356]]","[[0.         0.90840989]
 [0.1        1.6485676 ]
 [0.2        0.79956718]
 [0.25666667 1.28352811]]",0,0.894
1,m,25,english,5,2,english,2024-02-07 14:21:25.665371,False,1,40,sounds\french\audio/french_920.wav,"[[  0.          98.83591172]
 [  0.1        -64.95643085]
 [  0.2          1.57326281]
 [  0.25666667 -25.63648329]]","[[0.         0.7646584 ]
 [0.1        1.02879579]
 [0.2        1.0684491 ]
 [0.25666667 0.89198175]]",1,1.741
1,m,25,english,5,2,english,2024-02-07 14:21:25.665371,False,1,41,sounds\french\audio/french_218.wav,"[[  0.          50.58163299]
 [  0.1        -62.47432707]
 [  0.2        -11.24403131]
 [  0.25666667 -76.23808147]]","[[0.         1.39700525]
 [0.1        0.24728847]
 [0.2        1.10420939]
 [0.25666667 0.34157158]]",0,1.101
1,m,25,english,5,2,english,2024-02-07 14:21:25.665371,False,1,42,sounds\french\audio/french_537.wav,"[[ 0.         24.94182708]
 [ 0.1        44.89034985]
 [ 0.2        79.4977598 ]
 [ 0.25666667 43.46988515]]","[[0.         0.83905816]
 [0.1        0.4078644 ]
 [0.2        1.66123527]
 [0.25666667 0.90238518]]",1,0.858
1,m,25,english,5,2,english,2024-02-07 14:21:25.665371,False,1,43,sounds\french\audio/french_654.wav,"[[  0.           4.75004181]
 [  0.1        -26.31758413]
 [  0.2          5.97151275]
 [  0.25666667 -86.03507884]]","[[0.         0.71611878]
 [0.1        1.28432707]
 [0.2        0.58455266]
 [0.25666667 1.03676738]]",0,1.591
1,m,25,english,5,2,english,2024-02-07 14:21:25.665371,False,1,44,sounds\french\audio/french_985.wav,"[[  0.          29.21663761]
 [  0.1        -71.61154632]
 [  0.2         41.30472765]
 [  0.25666667 -19.1628823 ]]","[[0.         0.89782151]
 [0.1        0.27969284]
 [0.2        1.11185271]
 [0.25666667 1.39441914]]",0,1.828
1,m,25,english,5,2,english,2024-02-07 14:21:25.665371,False,1,45,sounds\french\audio/french_142.wav,"[[  0.         -47.01050856]
 [  0.1         44.85636852]
 [  0.2         82.74517116]
 [  0.25666667 -74.59675421]]","[[0.         0.88751265]
 [0.1        1.13664387]
 [0.2        0.91175928]
 [0.25666667 0.66352734]]",1,0.726
1,m,25,english,5,2,english,2024-02-07 14:21:25.665371,False,1,46,sounds\french\audio/french_96.wav,"[[  0.         -35.67204937]
 [  0.1        -14.5967046 ]
 [  0.2         23.77171322]
 [  0.25666667 -43.45086892]]","[[0.         1.29614461]
 [0.1        0.74963508]
 [0.2        0.96397917]
 [0.25666667 0.69619931]]",1,1.088
1,m,25,english,5,2,english,2024-02-07 14:21:25.665371,False,1,47,sounds\french\audio/french_308.wav,"[[  0.          10.28514005]
 [  0.1        -39.60290217]
 [  0.2         99.30719553]
 [  0.25666667  64.43745932]]","[[0.         0.92806529]
 [0.1        0.73191769]
 [0.2        0.07740888]
 [0.25666667 0.80481059]]",0,0.818
1,m,25,english,5,2,english,2024-02-07 14:21:25.665371,False,1,48,sounds\french\audio/french_650.wav,"[[  0.         -98.04674504]
 [  0.1        -80.1546697 ]
 [  0.2        -60.9727692 ]
 [  0.25666667  39.39299736]]","[[0.         0.50091073]
 [0.1        0.94744897]
 [0.2        0.76656919]
 [0.25666667 1.29747512]]",0,2.898
1,m,25,english,5,2,english,2024-02-07 14:21:25.665371,False,1,49,sounds\french\audio/french_638.wav,"[[  0.         -18.90498038]
 [  0.1        -28.86355513]
 [  0.2        -97.62198235]
 [  0.25666667  26.30993693]]","[[0.         0.47409532]
 [0.1        1.76910273]
 [0.2        0.72222374]
 [0.25666667 0.09803926]]",1,1.194
1,m,25,english,5,2,english,2024-02-07 14:21:25.665371,False,1,50,sounds\french\audio/french_26.wav,"[[  0.         -38.52186107]
 [  0.1         92.94908957]
 [  0.2         38.63958599]
 [  0.25666667  81.76747676]]","[[0.         1.55913274]
 [0.1        0.73355846]
 [0.2        0.51766924]
 [0.25666667 0.7935304 ]]",1,1.552
1,m,25,english,5,2,english,2024-02-07 14:21:25.665371,False,1,51,sounds\french\audio/french_356.wav,"[[  0.         -28.24477507]
 [  0.1        -36.63699676]
 [  0.2         67.9524461 ]
 [  0.25666667   8.53170414]]","[[0.         0.35227097]
 [0.1        1.16218152]
 [0.2        1.82395355]
 [0.25666667 1.63669257]]",1,4.391
1,m,25,english,5,2,english,2024-02-07 14:21:25.665371,False,1,52,sounds\french\audio/french_340.wav,"[[  0.         -77.74428769]
 [  0.1        -23.36816436]
 [  0.2        -44.47255335]
 [  0.25666667 -51.35474548]]","[[0.         1.5012345 ]
 [0.1        1.72338521]
 [0.2        0.55046319]
 [0.25666667 0.98182936]]",1,0.795
1,m,25,english,5,2,english,2024-02-07 14:21:25.665371,False,1,53,sounds\french\audio/french_349.wav,"[[  0.          73.89254537]
 [  0.1        -84.33493486]
 [  0.2         -3.2709249 ]
 [  0.25666667 -21.54511299]]","[[0.         0.17403551]
 [0.1        1.66487719]
 [0.2        1.53740634]
 [0.25666667 1.56834066]]",0,0.393
1,m,25,english,5,2,english,2024-02-07 14:21:25.665371,False,1,54,sounds\french\audio/french_976.wav,"[[  0.         -70.02335232]
 [  0.1        -61.25816472]
 [  0.2         38.21349803]
 [  0.25666667  27.10323863]]","[[0.         0.30263581]
 [0.1        1.77513966]
 [0.2        0.48920434]
 [0.25666667 1.97348905]]",0,5.134
1,m,25,english,5,2,english,2024-02-07 14:21:25.665371,False,1,55,sounds\french\audio/french_596.wav,"[[  0.         -19.67623174]
 [  0.1          5.02630097]
 [  0.2         17.71933024]
 [  0.25666667 -99.90911374]]","[[0.         1.19630482]
 [0.1        1.45796377]
 [0.2        1.33112957]
 [0.25666667 0.42422988]]",1,0.848
1,m,25,english,5,2,english,2024-02-07 14:21:25.665371,False,1,56,sounds\french\audio/french_960.wav,"[[  0.         -21.44081237]
 [  0.1        -88.4923718 ]
 [  0.2         38.79957112]
 [  0.25666667 -94.67313386]]","[[0.         0.51475761]
 [0.1        1.11613408]
 [0.2        0.09358172]
 [0.25666667 1.96196729]]",0,0.59
1,m,25,english,5,2,english,2024-02-07 14:21:25.665371,False,1,57,sounds\french\audio/french_643.wav,"[[  0.          63.91458592]
 [  0.1        -87.79617997]
 [  0.2        -35.4412084 ]
 [  0.25666667  41.82610472]]","[[0.         0.06817761]
 [0.1        1.72915736]
 [0.2        1.06879305]
 [0.25666667 1.26220402]]",0,3.289
1,m,25,english,5,2,english,2024-02-07 14:21:25.665371,False,1,58,sounds\french\audio/french_421.wav,"[[  0.          97.07315942]
 [  0.1        -83.39673754]
 [  0.2         82.21564407]
 [  0.25666667  -4.22049535]]","[[0.         0.55056447]
 [0.1        1.15764891]
 [0.2        0.98396665]
 [0.25666667 0.77781273]]",1,0.634
1,m,25,english,5,2,english,2024-02-07 14:21:25.665371,False,1,59,sounds\french\audio/french_638.wav,"[[  0.         -18.90498038]
 [  0.1        -28.86355513]
 [  0.2        -97.62198235]
 [  0.25666667  26.30993693]]","[[0.         0.47409532]
 [0.1        1.76910273]
 [0.2        0.72222374]
 [0.25666667 0.09803926]]",1,0.747
1,m,25,english,5,2,english,2024-02-07 14:21:25.665371,False,1,60,sounds\french\audio/french_101.wav,"[[  0.           2.45558497]
 [  0.1        -89.46857105]
 [  0.2         26.84471845]
 [  0.25666667 -40.2942876 ]]","[[0.         0.33272101]
 [0.1        1.30167387]
 [0.2        0.45771198]
 [0.25666667 1.30875705]]",0,0.995
1,m,25,english,5,2,english,2024-02-07 14:21:25.665371,False,1,61,sounds\french\audio/french_778.wav,"[[ 0.         -2.76577218]
 [ 0.1         4.49344871]
 [ 0.2        68.81762054]
 [ 0.25666667 89.13075651]]","[[0.         0.74255963]
 [0.1        1.48176587]
 [0.2        1.59399306]
 [0.25666667 1.18058537]]",1,0.485
1,m,25,english,5,2,english,2024-02-07 14:21:25.665371,False,1,62,sounds\french\audio/french_60.wav,"[[  0.         -40.9463495 ]
 [  0.1          8.65325309]
 [  0.2        -18.23980249]
 [  0.25666667 -34.79014982]]","[[0.         0.32779355]
 [0.1        0.55656076]
 [0.2        0.81322525]
 [0.25666667 0.57120985]]",0,0.592
1,m,25,english,5,2,english,2024-02-07 14:21:25.665371,False,1,63,sounds\french\audio/french_186.wav,"[[  0.         -80.05391137]
 [  0.1        -76.4275614 ]
 [  0.2          7.24631247]
 [  0.25666667 -47.449751  ]]","[[0.         1.48946386]
 [0.1        1.35064599]
 [0.2        0.88239158]
 [0.25666667 1.60975952]]",1,0.429
1,m,25,english,5,2,english,2024-02-07 14:21:25.665371,False,1,64,sounds\french\audio/french_103.wav,"[[  0.         -37.64273041]
 [  0.1         41.40974178]
 [  0.2        -53.90098235]
 [  0.25666667 -57.22614073]]","[[0.         0.8608001 ]
 [0.1        0.05604445]
 [0.2        0.48473984]
 [0.25666667 0.01055005]]",0,0.621
1,m,25,english,5,2,english,2024-02-07 14:21:25.665371,False,1,65,sounds\french\audio/french_355.wav,"[[  0.         -92.75119925]
 [  0.1         77.20775246]
 [  0.2        -51.05688592]
 [  0.25666667  27.03743598]]","[[0.         0.18544254]
 [0.1        0.07031399]
 [0.2        0.46666342]
 [0.25666667 1.78468618]]",0,0.652
1,m,25,english,5,2,english,2024-02-07 14:21:25.665371,False,1,66,sounds\french\audio/french_686.wav,"[[ 0.         20.49516986]
 [ 0.1        27.4040505 ]
 [ 0.2        31.96095965]
 [ 0.25666667 61.08066052]]","[[0.         1.86861476]
 [0.1        1.87689714]
 [0.2        0.80940067]
 [0.25666667 0.04075967]]",1,0.485
1,m,25,english,5,2,english,2024-02-07 14:21:25.665371,False,1,67,sounds\french\audio/french_882.wav,"[[  0.         -76.64131244]
 [  0.1        -39.91871486]
 [  0.2        -10.31613543]
 [  0.25666667  20.39966841]]","[[0.         0.67668261]
 [0.1        0.28498495]
 [0.2        0.59130788]
 [0.25666667 1.12904738]]",0,0.838
1,m,25,english,5,2,english,2024-02-07 14:21:25.665371,False,1,68,sounds\french\audio/french_549.wav,"[[  0.          40.06296083]
 [  0.1        -25.7595798 ]
 [  0.2         45.79306888]
 [  0.25666667  27.44668145]]","[[0.         1.11554245]
 [0.1        1.21579497]
 [0.2        1.32867101]
 [0.25666667 0.7142841 ]]",1,0.546
1,m,25,english,5,2,english,2024-02-07 14:21:25.665371,False,1,69,sounds\french\audio/french_658.wav,"[[  0.         -96.64822149]
 [  0.1         49.0828934 ]
 [  0.2         12.17217875]
 [  0.25666667  21.40759607]]","[[0.         1.39139244]
 [0.1        0.52881355]
 [0.2        0.81868418]
 [0.25666667 0.56425508]]",0,0.806
1,m,25,english,5,2,english,2024-02-07 14:21:25.665371,False,1,70,sounds\french\audio/french_999.wav,"[[  0.          47.65145935]
 [  0.1         64.90222313]
 [  0.2         79.66636989]
 [  0.25666667 -10.95327426]]","[[0.         0.42993564]
 [0.1        1.41824969]
 [0.2        1.25132817]
 [0.25666667 1.10016678]]",1,0.519
1,m,25,english,5,2,english,2024-02-07 14:21:25.665371,False,1,71,sounds\french\audio/french_992.wav,"[[ 0.         88.64163737]
 [ 0.1        46.51622821]
 [ 0.2        89.40723484]
 [ 0.25666667 -7.16948766]]","[[0.         1.670281  ]
 [0.1        0.7447474 ]
 [0.2        0.87778012]
 [0.25666667 1.06303204]]",0,0.508
1,m,25,english,5,2,english,2024-02-07 14:21:25.665371,False,1,72,sounds\french\audio/french_600.wav,"[[  0.          29.66563504]
 [  0.1         -8.64659381]
 [  0.2        -34.77347642]
 [  0.25666667 -62.75040759]]","[[0.         0.34173365]
 [0.1        0.28144694]
 [0.2        1.5541161 ]
 [0.25666667 1.60255421]]",0,0.56
1,m,25,english,5,2,english,2024-02-07 14:21:25.665371,False,1,73,sounds\french\audio/french_325.wav,"[[  0.          88.71142286]
 [  0.1        -56.3206586 ]
 [  0.2         41.53206129]
 [  0.25666667 -39.91784783]]","[[0.         0.52996958]
 [0.1        1.24996424]
 [0.2        1.51417943]
 [0.25666667 1.21569626]]",0,2.355
1,m,25,english,5,2,english,2024-02-07 14:21:25.665371,False,1,74,sounds\french\audio/french_85.wav,"[[  0.           8.05629124]
 [  0.1        -30.28403137]
 [  0.2        -73.3047666 ]
 [  0.25666667  49.81841991]]","[[0.         0.15740805]
 [0.1        1.38994818]
 [0.2        0.58823714]
 [0.25666667 0.54603307]]",1,0.7
1,m,25,english,5,2,english,2024-02-07 14:21:25.665371,False,1,75,sounds\french\audio/french_128.wav,"[[ 0.         -0.75176629]
 [ 0.1        -3.23197706]
 [ 0.2        64.47029617]
 [ 0.25666667 94.12909321]]","[[0.         0.45078366]
 [0.1        0.83766587]
 [0.2        1.36622775]
 [0.25666667 1.47043343]]",0,0.713
1,m,25,english,5,2,english,2024-02-07 14:21:25.665371,False,1,76,sounds\french\audio/french_415.wav,"[[  0.         -78.44301617]
 [  0.1         84.17180311]
 [  0.2         32.05176365]
 [  0.25666667   1.79049447]]","[[0.         1.61962555]
 [0.1        0.78674907]
 [0.2        0.83302444]
 [0.25666667 0.85177262]]",1,0.524
1,m,25,english,5,2,english,2024-02-07 14:21:25.665371,False,1,77,sounds\french\audio/french_238.wav,"[[ 0.         -7.77377299]
 [ 0.1        24.08862247]
 [ 0.2        87.10581208]
 [ 0.25666667 73.57906518]]","[[0.         1.79398275]
 [0.1        0.12404774]
 [0.2        0.76943839]
 [0.25666667 1.68164748]]",0,0.548
1,m,25,english,5,2,english,2024-02-07 14:21:25.665371,False,1,78,sounds\french\audio/french_808.wav,"[[  0.         -62.09526538]
 [  0.1         21.23234707]
 [  0.2        -93.15759374]
 [  0.25666667 -35.4638748 ]]","[[0.         1.28254738]
 [0.1        0.50843795]
 [0.2        0.88416038]
 [0.25666667 1.60061847]]",0,0.615
1,m,25,english,5,2,english,2024-02-07 14:21:25.665371,False,1,79,sounds\french\audio/french_295.wav,"[[ 0.         98.71232228]
 [ 0.1        19.8777742 ]
 [ 0.2         2.02188034]
 [ 0.25666667 -4.73018768]]","[[0.         1.58912918]
 [0.1        0.8460381 ]
 [0.2        1.72839065]
 [0.25666667 1.75057888]]",1,0.368
1,m,25,english,5,2,english,2024-02-07 14:21:25.665371,False,1,80,sounds\french\audio/french_574.wav,"[[  0.         -78.43657591]
 [  0.1         25.16959944]
 [  0.2         42.97785019]
 [  0.25666667  77.36764491]]","[[0.         1.27247015]
 [0.1        0.78898338]
 [0.2        1.49121094]
 [0.25666667 0.68004104]]",0,0.68
1,m,25,english,5,2,english,2024-02-07 14:21:25.665371,False,1,81,sounds\french\audio/french_260.wav,"[[  0.          -3.22947754]
 [  0.1        -16.22535722]
 [  0.2        -91.54207183]
 [  0.25666667 -55.70642268]]","[[0.         0.22766361]
 [0.1        1.16747398]
 [0.2        1.39667181]
 [0.25666667 1.03484551]]",1,0.791
1,m,25,english,5,2,english,2024-02-07 14:21:25.665371,False,1,82,sounds\french\audio/french_888.wav,"[[  0.          -7.09076065]
 [  0.1         62.1549683 ]
 [  0.2        -14.42714579]
 [  0.25666667 -85.6987995 ]]","[[0.         0.01679895]
 [0.1        1.75942782]
 [0.2        0.28698877]
 [0.25666667 1.72009857]]",0,2.386
1,m,25,english,5,2,english,2024-02-07 14:21:25.665371,False,1,83,sounds\french\audio/french_130.wav,"[[  0.         -60.11706856]
 [  0.1        -55.59065296]
 [  0.2         42.64329023]
 [  0.25666667 -50.60909081]]","[[0.         0.96947481]
 [0.1        0.3967065 ]
 [0.2        1.87184893]
 [0.25666667 1.6881176 ]]",0,1.421
1,m,25,english,5,2,english,2024-02-07 14:21:25.665371,False,1,84,sounds\french\audio/french_228.wav,"[[  0.         -13.78258648]
 [  0.1         27.88870681]
 [  0.2         -8.73674486]
 [  0.25666667 -13.88179653]]","[[0.         1.36655769]
 [0.1        1.56643938]
 [0.2        0.29403468]
 [0.25666667 0.32348249]]",1,0.507
1,m,25,english,5,2,english,2024-02-07 14:21:25.665371,False,1,85,sounds\french\audio/french_221.wav,"[[  0.         -51.4093514 ]
 [  0.1        -69.26159538]
 [  0.2        -72.79183118]
 [  0.25666667  34.31828887]]","[[0.         1.39236456]
 [0.1        1.1318895 ]
 [0.2        0.94601275]
 [0.25666667 1.80964418]]",1,0.7
1,m,25,english,5,2,english,2024-02-07 14:21:25.665371,False,1,86,sounds\french\audio/french_689.wav,"[[  0.         -76.83712438]
 [  0.1         64.54047654]
 [  0.2         42.91011154]
 [  0.25666667 -94.73892594]]","[[0.         1.91162084]
 [0.1        0.68488006]
 [0.2        0.17067082]
 [0.25666667 1.05586556]]",0,0.617
1,m,25,english,5,2,english,2024-02-07 14:21:25.665371,False,1,87,sounds\french\audio/french_378.wav,"[[ 0.         74.25757507]
 [ 0.1        69.54270197]
 [ 0.2        91.83328043]
 [ 0.25666667 65.12199987]]","[[0.         1.44636003]
 [0.1        0.18429149]
 [0.2        0.75177649]
 [0.25666667 0.49263706]]",0,1.601
1,m,25,english,5,2,english,2024-02-07 14:21:25.665371,False,1,88,sounds\french\audio/french_499.wav,"[[  0.          24.28229917]
 [  0.1        -90.85236303]
 [  0.2        -60.29957953]
 [  0.25666667  91.79807534]]","[[0.         0.76159538]
 [0.1        0.50536641]
 [0.2        0.99158085]
 [0.25666667 1.05465089]]",0,0.641
1,m,25,english,5,2,english,2024-02-07 14:21:25.665371,False,1,89,sounds\french\audio/french_37.wav,"[[  0.          74.40318054]
 [  0.1          1.61071593]
 [  0.2        -60.86815184]
 [  0.25666667  35.44737922]]","[[0.         1.78030803]
 [0.1        1.06555703]
 [0.2        0.67417333]
 [0.25666667 1.14925698]]",1,0.562
1,m,25,english,5,2,english,2024-02-07 14:21:25.665371,False,1,90,sounds\french\audio/french_924.wav,"[[  0.          19.51956159]
 [  0.1        -22.93629197]
 [  0.2         72.54596199]
 [  0.25666667  13.27885696]]","[[0.         0.29322561]
 [0.1        0.34885274]
 [0.2        0.3497483 ]
 [0.25666667 0.14375838]]",0,1.554
1,m,25,english,5,2,english,2024-02-07 14:21:25.665371,False,1,91,sounds\french\audio/french_392.wav,"[[  0.         -11.14407327]
 [  0.1        -20.38505303]
 [  0.2         21.27154916]
 [  0.25666667 -29.54267832]]","[[0.         1.55151156]
 [0.1        0.49285085]
 [0.2        0.56092788]
 [0.25666667 1.54424804]]",0,1.449
1,m,25,english,5,2,english,2024-02-07 14:21:25.665371,False,1,92,sounds\french\audio/french_49.wav,"[[  0.         -34.40531311]
 [  0.1        -47.89713654]
 [  0.2          1.74747298]
 [  0.25666667  24.1153847 ]]","[[0.         0.38592943]
 [0.1        0.82636765]
 [0.2        1.60738751]
 [0.25666667 0.61367061]]",1,0.534
1,m,25,english,5,2,english,2024-02-07 14:21:25.665371,False,1,93,sounds\french\audio/french_243.wav,"[[  0.          94.15218044]
 [  0.1         77.54642038]
 [  0.2        -54.61145872]
 [  0.25666667 -22.57869657]]","[[0.         0.53955239]
 [0.1        1.33237065]
 [0.2        1.76705621]
 [0.25666667 1.15577178]]",1,2.031
1,m,25,english,5,2,english,2024-02-07 14:21:25.665371,False,1,94,sounds\french\audio/french_305.wav,"[[  0.         -54.69953739]
 [  0.1        -55.57420142]
 [  0.2         69.52625069]
 [  0.25666667 -71.2713804 ]]","[[0.         0.89911595]
 [0.1        0.95414013]
 [0.2        1.47998422]
 [0.25666667 1.78847242]]",0,1.109
1,m,25,english,5,2,english,2024-02-07 14:21:25.665371,False,1,95,sounds\french\audio/french_586.wav,"[[ 0.         86.96734506]
 [ 0.1        -8.603444  ]
 [ 0.2        11.78169212]
 [ 0.25666667 14.18547806]]","[[0.         0.62271677]
 [0.1        1.69916535]
 [0.2        1.65961944]
 [0.25666667 1.90120182]]",1,1.998
1,m,25,english,5,2,english,2024-02-07 14:21:25.665371,False,1,96,sounds\french\audio/french_497.wav,"[[  0.         -34.77858655]
 [  0.1        -52.52188589]
 [  0.2         81.6415951 ]
 [  0.25666667  23.98828418]]","[[0.         0.98641894]
 [0.1        1.48106735]
 [0.2        1.37619597]
 [0.25666667 1.87248846]]",1,0.811
1,m,25,english,5,2,english,2024-02-07 14:21:25.665371,False,1,97,sounds\french\audio/french_385.wav,"[[  0.          -5.35501711]
 [  0.1         28.75563306]
 [  0.2         60.61846434]
 [  0.25666667 -78.89426498]]","[[0.         1.94967077]
 [0.1        0.4629862 ]
 [0.2        0.74478567]
 [0.25666667 0.69826307]]",0,0.726
1,m,25,english,5,2,english,2024-02-07 14:21:25.665371,False,1,98,sounds\french\audio/french_292.wav,"[[  0.          -5.98307963]
 [  0.1        -89.4143915 ]
 [  0.2         50.82370108]
 [  0.25666667 -75.87081721]]","[[0.         1.30181039]
 [0.1        0.71580693]
 [0.2        0.58623796]
 [0.25666667 1.49080339]]",0,1.454
1,m,25,english,5,2,english,2024-02-07 14:21:25.665371,False,1,99,sounds\french\audio/french_955.wav,"[[ 0.         49.41572239]
 [ 0.1        75.37923123]
 [ 0.2         0.1370905 ]
 [ 0.25666667 22.03577701]]","[[0.         1.13440167]
 [0.1        1.49278765]
 [0.2        0.20624254]
 [0.25666667 0.01599226]]",1,0.571
1,m,25,english,5,2,english,2024-02-07 14:21:25.665371,False,1,100,sounds\french\audio/french_496.wav,"[[  0.          95.35910422]
 [  0.1         -6.65722592]
 [  0.2         -0.21871516]
 [  0.25666667 -55.34055424]]","[[0.         1.71732874]
 [0.1        0.79073406]
 [0.2        0.34583293]
 [0.25666667 0.39020762]]",0,0.59
1,m,25,english,5,2,english,2024-02-07 14:21:25.665371,False,1,101,sounds\french\audio/french_890.wav,"[[  0.          17.48321345]
 [  0.1        -18.95749083]
 [  0.2          0.74707456]
 [  0.25666667  92.62024404]]","[[0.         1.85587598]
 [0.1        0.79262665]
 [0.2        0.19694232]
 [0.25666667 1.22282027]]",1,0.564
1,m,25,english,5,2,english,2024-02-07 14:21:25.665371,False,1,102,sounds\french\audio/french_118.wav,"[[  0.          26.93316006]
 [  0.1        -22.92967869]
 [  0.2        -61.93287208]
 [  0.25666667 -97.08418949]]","[[0.         1.47067426]
 [0.1        1.58231537]
 [0.2        1.01494319]
 [0.25666667 0.71977579]]",0,2.322
1,m,25,english,5,2,english,2024-02-07 14:21:25.665371,False,1,103,sounds\french\audio/french_12.wav,"[[  0.         -57.76127346]
 [  0.1         13.80138245]
 [  0.2         70.02389064]
 [  0.25666667 -46.37027392]]","[[0.         1.31680682]
 [0.1        1.40135686]
 [0.2        0.63152994]
 [0.25666667 0.33836826]]",1,0.867
1,m,25,english,5,2,english,2024-02-07 14:21:25.665371,False,1,104,sounds\french\audio/french_497.wav,"[[  0.         -34.77858655]
 [  0.1        -52.52188589]
 [  0.2         81.6415951 ]
 [  0.25666667  23.98828418]]","[[0.         0.98641894]
 [0.1        1.48106735]
 [0.2        1.37619597]
 [0.25666667 1.87248846]]",1,4.591
1,m,25,english,5,2,english,2024-02-07 14:21:25.665371,False,1,105,sounds\french\audio/french_390.wav,"[[  0.          13.63716389]
 [  0.1        -61.62928039]
 [  0.2         89.99724903]
 [  0.25666667 -99.60285567]]","[[0.         0.73987932]
 [0.1        1.19791102]
 [0.2        0.30500022]
 [0.25666667 1.08417724]]",0,0.677
1,m,25,english,5,2,english,2024-02-07 14:21:25.665371,False,1,106,sounds\french\audio/french_348.wav,"[[  0.          68.47734878]
 [  0.1         54.05190865]
 [  0.2          0.19125453]
 [  0.25666667 -34.65909089]]","[[0.         1.61227716]
 [0.1        0.93770463]
 [0.2        1.53689085]
 [0.25666667 1.17337711]]",1,0.485
1,m,25,english,5,2,english,2024-02-07 14:21:25.665371,False,1,107,sounds\french\audio/french_638.wav,"[[  0.         -18.90498038]
 [  0.1        -28.86355513]
 [  0.2        -97.62198235]
 [  0.25666667  26.30993693]]","[[0.         0.47409532]
 [0.1        1.76910273]
 [0.2        0.72222374]
 [0.25666667 0.09803926]]",0,1.69
1,m,25,english,5,2,english,2024-02-07 14:21:25.665371,False,1,108,sounds\french\audio/french_342.wav,"[[  0.         -84.22246184]
 [  0.1        -88.55202377]
 [  0.2         12.74462997]
 [  0.25666667 -73.67155113]]","[[0.         0.80111929]
 [0.1        0.92289162]
 [0.2        0.96187701]
 [0.25666667 0.57764427]]",1,0.784
1,m,25,english,5,2,english,2024-02-07 14:21:25.665371,False,1,109,sounds\french\audio/french_413.wav,"[[  0.         -15.90568805]
 [  0.1         76.04965913]
 [  0.2         55.08996682]
 [  0.25666667  17.39731584]]","[[0.         0.35618922]
 [0.1        1.72047272]
 [0.2        1.40872317]
 [0.25666667 1.8089724 ]]",1,0.775
1,m,25,english,5,2,english,2024-02-07 14:21:25.665371,False,1,110,sounds\french\audio/french_438.wav,"[[  0.          38.28600595]
 [  0.1         -2.73615403]
 [  0.2        -43.32822043]
 [  0.25666667 -21.43836029]]","[[0.         0.24947118]
 [0.1        0.88566368]
 [0.2        0.23078024]
 [0.25666667 1.64360752]]",0,0.571
1,m,25,english,5,2,english,2024-02-07 14:21:25.665371,False,1,111,sounds\french\audio/french_825.wav,"[[ 0.         84.83698811]
 [ 0.1        58.10246948]
 [ 0.2        95.28795352]
 [ 0.25666667 40.96055212]]","[[0.         1.37161619]
 [0.1        1.88160769]
 [0.2        0.7228962 ]
 [0.25666667 1.18109596]]",1,0.724
1,m,25,english,5,2,english,2024-02-07 14:21:25.665371,False,1,112,sounds\french\audio/french_83.wav,"[[ 0.         45.44740295]
 [ 0.1        42.82646372]
 [ 0.2        -9.21139132]
 [ 0.25666667 30.29486893]]","[[0.         0.80263788]
 [0.1        1.96742974]
 [0.2        0.40483772]
 [0.25666667 0.1024326 ]]",1,1.13
1,m,25,english,5,2,english,2024-02-07 14:21:25.665371,False,1,113,sounds\french\audio/french_485.wav,"[[  0.          49.72116837]
 [  0.1         30.83147643]
 [  0.2         37.98454641]
 [  0.25666667 -93.0468476 ]]","[[0.         1.80184077]
 [0.1        1.80095915]
 [0.2        1.42682554]
 [0.25666667 0.86529676]]",1,0.322
1,m,25,english,5,2,english,2024-02-07 14:21:25.665371,False,1,114,sounds\french\audio/french_64.wav,"[[  0.          -2.85479512]
 [  0.1        -22.43053594]
 [  0.2         99.07991634]
 [  0.25666667  -6.95169827]]","[[0.         1.8205441 ]
 [0.1        0.65122302]
 [0.2        0.54405082]
 [0.25666667 0.02019369]]",0,0.499
1,m,25,english,5,2,english,2024-02-07 14:21:25.665371,False,1,115,sounds\french\audio/french_650.wav,"[[  0.         -98.04674504]
 [  0.1        -80.1546697 ]
 [  0.2        -60.9727692 ]
 [  0.25666667  39.39299736]]","[[0.         0.50091073]
 [0.1        0.94744897]
 [0.2        0.76656919]
 [0.25666667 1.29747512]]",0,3.208
1,m,25,english,5,2,english,2024-02-07 14:21:25.665371,False,1,116,sounds\french\audio/french_588.wav,"[[  0.           5.6059992 ]
 [  0.1         -3.58339119]
 [  0.2        -47.44163498]
 [  0.25666667  15.68204657]]","[[0.         1.40293782]
 [0.1        1.60743551]
 [0.2        0.8250453 ]
 [0.25666667 1.87203226]]",1,0.75
1,m,25,english,5,2,english,2024-02-07 14:21:25.665371,False,1,117,sounds\french\audio/french_152.wav,"[[  0.          -3.84179402]
 [  0.1         56.28738818]
 [  0.2        -25.33799013]
 [  0.25666667 -10.23447911]]","[[0.         0.21245747]
 [0.1        1.74384484]
 [0.2        1.40208126]
 [0.25666667 0.94312755]]",0,2.179
1,m,25,english,5,2,english,2024-02-07 14:21:25.665371,False,1,118,sounds\french\audio/french_760.wav,"[[  0.         -33.74521786]
 [  0.1         38.89159258]
 [  0.2         64.82772984]
 [  0.25666667  15.52705732]]","[[0.         1.08104013]
 [0.1        0.90085836]
 [0.2        0.36080554]
 [0.25666667 0.08393315]]",0,1.373
1,m,25,english,5,2,english,2024-02-07 14:21:25.665371,False,1,119,sounds\french\audio/french_394.wav,"[[  0.         -46.0867736 ]
 [  0.1        -42.56429646]
 [  0.2         31.61260766]
 [  0.25666667  -7.99475259]]","[[0.         1.77850735]
 [0.1        0.50210825]
 [0.2        1.1233825 ]
 [0.25666667 0.72186821]]",1,0.419
1,m,25,english,5,2,english,2024-02-07 14:21:25.665371,False,1,120,sounds\french\audio/french_883.wav,"[[  0.          79.42425648]
 [  0.1        -55.57656198]
 [  0.2        -42.3009185 ]
 [  0.25666667   9.11567641]]","[[0.         0.82987007]
 [0.1        1.06788753]
 [0.2        1.49414105]
 [0.25666667 1.30049822]]",1,1.382
1,m,25,english,5,2,english,2024-02-07 14:21:25.665371,False,1,121,sounds\french\audio/french_157.wav,"[[  0.          -6.6246598 ]
 [  0.1         49.95824353]
 [  0.2         50.90371108]
 [  0.25666667 -96.22740321]]","[[0.         1.79360699]
 [0.1        1.27582672]
 [0.2        1.55422844]
 [0.25666667 0.51380788]]",1,0.582
1,m,25,english,5,2,english,2024-02-07 14:21:25.665371,False,1,122,sounds\french\audio/french_736.wav,"[[  0.         -58.2057669 ]
 [  0.1         67.4754916 ]
 [  0.2         92.18157431]
 [  0.25666667  88.23593553]]","[[0.         1.39182764]
 [0.1        0.85405242]
 [0.2        1.06665121]
 [0.25666667 0.29553719]]",0,1.221
1,m,25,english,5,2,english,2024-02-07 14:21:25.665371,False,1,123,sounds\french\audio/french_927.wav,"[[  0.         -10.52890049]
 [  0.1        -14.60087289]
 [  0.2        -23.19620382]
 [  0.25666667  -4.91748489]]","[[0.         0.60201579]
 [0.1        1.35124195]
 [0.2        0.97713268]
 [0.25666667 0.83956459]]",1,1.336
1,m,25,english,5,2,english,2024-02-07 14:21:25.665371,False,1,124,sounds\french\audio/french_342.wav,"[[  0.         -84.22246184]
 [  0.1        -88.55202377]
 [  0.2         12.74462997]
 [  0.25666667 -73.67155113]]","[[0.         0.80111929]
 [0.1        0.92289162]
 [0.2        0.96187701]
 [0.25666667 0.57764427]]",0,0.452
1,m,25,english,5,2,english,2024-02-07 14:21:25.665371,False,1,125,sounds\french\audio/french_435.wav,"[[  0.         -69.76325337]
 [  0.1         47.38197985]
 [  0.2        -46.68992054]
 [  0.25666667  49.41050132]]","[[0.         1.8844701 ]
 [0.1        1.37326168]
 [0.2        0.23230631]
 [0.25666667 0.56533705]]",1,0.535
1,m,25,english,5,2,english,2024-02-07 14:21:25.665371,False,1,126,sounds\french\audio/french_83.wav,"[[ 0.         45.44740295]
 [ 0.1        42.82646372]
 [ 0.2        -9.21139132]
 [ 0.25666667 30.29486893]]","[[0.         0.80263788]
 [0.1        1.96742974]
 [0.2        0.40483772]
 [0.25666667 0.1024326 ]]",1,1.382
1,m,25,english,5,2,english,2024-02-07 14:21:25.665371,False,1,127,sounds\french\audio/french_998.wav,"[[  0.          41.25843424]
 [  0.1         16.31759718]
 [  0.2        -45.05489169]
 [  0.25666667  -0.1364182 ]]","[[0.         1.12001973]
 [0.1        1.22226563]
 [0.2        1.68799636]
 [0.25666667 0.6107462 ]]",1,2.177
1,m,25,english,5,2,english,2024-02-07 14:21:25.665371,False,1,128,sounds\french\audio/french_24.wav,"[[  0.         -90.56488298]
 [  0.1        -50.97686263]
 [  0.2         15.79918005]
 [  0.25666667   3.83977191]]","[[0.         1.23408284]
 [0.1        0.21485458]
 [0.2        0.7737077 ]
 [0.25666667 0.99994749]]",0,0.441
1,m,25,english,5,2,english,2024-02-07 14:21:25.665371,False,1,129,sounds\french\audio/french_748.wav,"[[  0.          66.19282508]
 [  0.1        -81.39884416]
 [  0.2         72.72612179]
 [  0.25666667  76.03481505]]","[[0.         0.41357469]
 [0.1        1.04952   ]
 [0.2        1.37113635]
 [0.25666667 1.54211369]]",0,3.218
1,m,25,english,5,2,english,2024-02-07 14:21:25.665371,False,1,130,sounds\french\audio/french_69.wav,"[[  0.         -60.6968374 ]
 [  0.1        -13.66133732]
 [  0.2        -49.05218158]
 [  0.25666667 -62.82393396]]","[[0.         1.40310832]
 [0.1        0.07324596]
 [0.2        0.92091935]
 [0.25666667 0.56730757]]",0,0.76
1,m,25,english,5,2,english,2024-02-07 14:21:25.665371,False,1,131,sounds\french\audio/french_917.wav,"[[  0.          50.57286357]
 [  0.1        -63.34867724]
 [  0.2          6.48628749]
 [  0.25666667  42.71671415]]","[[0.         1.65201844]
 [0.1        1.47811083]
 [0.2        1.28993383]
 [0.25666667 0.78276191]]",1,0.309
1,m,25,english,5,2,english,2024-02-07 14:21:25.665371,False,1,132,sounds\french\audio/french_815.wav,"[[  0.         -30.97778369]
 [  0.1        -10.3506413 ]
 [  0.2         61.86726268]
 [  0.25666667 -32.12586702]]","[[0.         1.45421986]
 [0.1        0.28044698]
 [0.2        1.88309962]
 [0.25666667 1.86356454]]",1,1.427
1,m,25,english,5,2,english,2024-02-07 14:21:25.665371,False,1,133,sounds\french\audio/french_459.wav,"[[  0.           4.79398058]
 [  0.1         85.90612859]
 [  0.2        -69.41023595]
 [  0.25666667 -22.07588814]]","[[0.         1.10654006]
 [0.1        1.2996969 ]
 [0.2        0.20520219]
 [0.25666667 1.17361701]]",1,1.338
1,m,25,english,5,2,english,2024-02-07 14:21:25.665371,False,1,134,sounds\french\audio/french_494.wav,"[[  0.         -13.98983301]
 [  0.1        -42.16987525]
 [  0.2         38.88383452]
 [  0.25666667  78.77057746]]","[[0.         1.71774812]
 [0.1        1.14165471]
 [0.2        0.86838156]
 [0.25666667 1.71181958]]",0,0.493
1,m,25,english,5,2,english,2024-02-07 14:21:25.665371,False,1,135,sounds\french\audio/french_658.wav,"[[  0.         -96.64822149]
 [  0.1         49.0828934 ]
 [  0.2         12.17217875]
 [  0.25666667  21.40759607]]","[[0.         1.39139244]
 [0.1        0.52881355]
 [0.2        0.81868418]
 [0.25666667 0.56425508]]",0,0.791
1,m,25,english,5,2,english,2024-02-07 14:21:25.665371,False,1,136,sounds\french\audio/french_46.wav,"[[  0.         -59.72524318]
 [  0.1        -28.22082853]
 [  0.2          2.0739194 ]
 [  0.25666667 -12.25343829]]","[[0.         1.59606806]
 [0.1        1.01173367]
 [0.2        0.40164164]
 [0.25666667 1.6352238 ]]",1,0.453
1,m,25,english,5,2,english,2024-02-07 14:21:25.665371,False,1,137,sounds\french\audio/french_434.wav,"[[  0.           7.9294609 ]
 [  0.1         36.47837772]
 [  0.2         71.3301905 ]
 [  0.25666667 -21.81717993]]","[[0.         1.64452419]
 [0.1        0.73911435]
 [0.2        0.53221197]
 [0.25666667 1.83629349]]",0,3.37
1,m,25,english,5,2,english,2024-02-07 14:21:25.665371,False,1,138,sounds\french\audio/french_272.wav,"[[  0.          50.55701535]
 [  0.1         63.46835537]
 [  0.2        -46.63250527]
 [  0.25666667  74.93577843]]","[[0.         1.0419248 ]
 [0.1        0.05024982]
 [0.2        0.3554473 ]
 [0.25666667 1.3845464 ]]",0,0.628
1,m,25,english,5,2,english,2024-02-07 14:21:25.665371,False,1,139,sounds\french\audio/french_632.wav,"[[  0.         -75.14768165]
 [  0.1         -2.61560916]
 [  0.2        -59.30318173]
 [  0.25666667 -18.46762736]]","[[0.         1.61991752]
 [0.1        1.85762338]
 [0.2        1.4379908 ]
 [0.25666667 1.77571767]]",1,0.291
1,m,25,english,5,2,english,2024-02-07 14:21:25.665371,False,1,140,sounds\french\audio/french_481.wav,"[[  0.         -44.05926666]
 [  0.1         85.82418432]
 [  0.2         87.54559417]
 [  0.25666667  50.04191005]]","[[0.         1.24899263]
 [0.1        1.22078865]
 [0.2        0.10859618]
 [0.25666667 0.19634609]]",1,1.856
1,m,25,english,5,2,english,2024-02-07 14:21:25.665371,False,1,141,sounds\french\audio/french_81.wav,"[[ 0.         43.03410676]
 [ 0.1        37.87573495]
 [ 0.2        -9.17332854]
 [ 0.25666667 10.13667473]]","[[0.         0.84411959]
 [0.1        1.10924478]
 [0.2        1.82652056]
 [0.25666667 1.52638082]]",0,0.79
1,m,25,english,5,2,english,2024-02-07 14:21:25.665371,False,1,142,sounds\french\audio/french_127.wav,"[[ 0.         56.99195339]
 [ 0.1        71.02339704]
 [ 0.2        72.81237495]
 [ 0.25666667 99.25740409]]","[[0.         1.23888103]
 [0.1        1.9853403 ]
 [0.2        0.22936254]
 [0.25666667 0.23690129]]",1,0.478
1,m,25,english,5,2,english,2024-02-07 14:21:25.665371,False,1,143,sounds\french\audio/french_690.wav,"[[  0.          79.01312907]
 [  0.1        -50.63616883]
 [  0.2         19.49439666]
 [  0.25666667 -20.64233715]]","[[0.         1.49686193]
 [0.1        0.92741038]
 [0.2        0.30770403]
 [0.25666667 0.53460579]]",0,0.549
1,m,25,english,5,2,english,2024-02-07 14:21:25.665371,False,1,144,sounds\french\audio/french_755.wav,"[[  0.         -17.09048823]
 [  0.1         56.35208106]
 [  0.2         33.77031601]
 [  0.25666667  73.0579331 ]]","[[0.         0.26038806]
 [0.1        0.92084882]
 [0.2        1.14499291]
 [0.25666667 1.40582081]]",1,2.074
1,m,25,english,5,2,english,2024-02-07 14:21:25.665371,False,1,145,sounds\french\audio/french_116.wav,"[[  0.          79.79090537]
 [  0.1        -16.04583445]
 [  0.2         31.94743211]
 [  0.25666667  81.27397215]]","[[0.         0.91211254]
 [0.1        0.43560368]
 [0.2        0.92781712]
 [0.25666667 0.62795331]]",0,1.086
1,m,25,english,5,2,english,2024-02-07 14:21:25.665371,False,1,146,sounds\french\audio/french_851.wav,"[[  0.         -16.14738252]
 [  0.1         19.84507786]
 [  0.2        -46.64792285]
 [  0.25666667 -81.41203514]]","[[0.         1.77999263]
 [0.1        0.90385235]
 [0.2        0.51993189]
 [0.25666667 1.06673989]]",1,0.448
1,m,25,english,5,2,english,2024-02-07 14:21:25.665371,False,1,147,sounds\french\audio/french_272.wav,"[[  0.          50.55701535]
 [  0.1         63.46835537]
 [  0.2        -46.63250527]
 [  0.25666667  74.93577843]]","[[0.         1.0419248 ]
 [0.1        0.05024982]
 [0.2        0.3554473 ]
 [0.25666667 1.3845464 ]]",0,0.971
1,m,25,english,5,2,english,2024-02-07 14:21:25.665371,False,1,148,sounds\french\audio/french_627.wav,"[[  0.           2.1799823 ]
 [  0.1         30.63833179]
 [  0.2         99.93583097]
 [  0.25666667 -23.95585557]]","[[0.         1.97167661]
 [0.1        1.14790719]
 [0.2        1.70510721]
 [0.25666667 1.67415678]]",1,0.328
1,m,25,english,5,2,english,2024-02-07 14:21:25.665371,False,1,149,sounds\french\audio/french_153.wav,"[[  0.          47.87386837]
 [  0.1          7.07648522]
 [  0.2         20.87760624]
 [  0.25666667 -54.47130494]]","[[0.         0.75426526]
 [0.1        1.23801955]
 [0.2        0.38230121]
 [0.25666667 0.58190832]]",0,0.473
1,m,25,english,5,2,english,2024-02-07 14:21:25.665371,False,1,150,sounds\french\audio/french_97.wav,"[[  0.         -26.25195718]
 [  0.1         46.36733761]
 [  0.2        -70.05850246]
 [  0.25666667 -12.16166803]]","[[0.         1.78322942]
 [0.1        0.61428926]
 [0.2        0.23760427]
 [0.25666667 0.84541126]]",0,0.864
1,m,25,english,5,2,english,2024-02-07 14:21:25.665371,False,1,151,sounds\french\audio/french_626.wav,"[[  0.         -93.35692854]
 [  0.1         98.43225428]
 [  0.2        -65.0946996 ]
 [  0.25666667  62.51553639]]","[[0.         1.28523942]
 [0.1        0.26610399]
 [0.2        0.08304138]
 [0.25666667 1.47830697]]",0,0.596
1,m,25,english,5,2,english,2024-02-07 14:21:25.665371,False,1,152,sounds\french\audio/french_657.wav,"[[  0.          99.76716584]
 [  0.1         11.51898435]
 [  0.2        -43.45408234]
 [  0.25666667  22.46427071]]","[[0.         0.85695778]
 [0.1        1.00645436]
 [0.2        0.73989588]
 [0.25666667 1.57217431]]",1,2.663
1,m,25,english,5,2,english,2024-02-07 14:21:25.665371,False,1,153,sounds\french\audio/french_425.wav,"[[  0.          36.0896382 ]
 [  0.1        -60.28824884]
 [  0.2        -83.12671609]
 [  0.25666667  32.66103116]]","[[0.         0.72680638]
 [0.1        0.01839492]
 [0.2        1.09901753]
 [0.25666667 1.13928828]]",0,0.759
1,m,25,english,5,2,english,2024-02-07 14:21:25.665371,False,1,154,sounds\french\audio/french_169.wav,"[[  0.          14.47590961]
 [  0.1         38.07545665]
 [  0.2        -50.40298695]
 [  0.25666667  25.61467991]]","[[0.         1.38784349]
 [0.1        1.28983767]
 [0.2        0.58936297]
 [0.25666667 0.49151359]]",1,0.713
1,m,25,english,5,2,english,2024-02-07 14:21:25.665371,False,1,155,sounds\french\audio/french_747.wav,"[[  0.          81.67289695]
 [  0.1        -95.51692527]
 [  0.2          8.63144179]
 [  0.25666667 -85.56554801]]","[[0.         0.03581997]
 [0.1        0.40356434]
 [0.2        0.58773385]
 [0.25666667 1.10376778]]",0,0.604
1,m,25,english,5,2,english,2024-02-07 14:21:25.665371,False,1,156,sounds\french\audio/french_921.wav,"[[  0.          24.11125356]
 [  0.1         37.62729467]
 [  0.2        -94.55025244]
 [  0.25666667  10.27679313]]","[[0.         1.60122976]
 [0.1        0.45720022]
 [0.2        1.67775241]
 [0.25666667 0.96598245]]",1,0.307
1,m,25,english,5,2,english,2024-02-07 14:21:25.665371,False,1,157,sounds\french\audio/french_6.wav,"[[  0.          67.46153681]
 [  0.1        -88.84735091]
 [  0.2        -91.91919173]
 [  0.25666667  29.60258617]]","[[0.         1.53277947]
 [0.1        1.45938327]
 [0.2        0.73643418]
 [0.25666667 1.91810532]]",1,0.512
1,m,25,english,5,2,english,2024-02-07 14:21:25.665371,False,1,158,sounds\french\audio/french_876.wav,"[[  0.         -63.60663495]
 [  0.1        -33.069551  ]
 [  0.2         44.38072254]
 [  0.25666667   3.25210733]]","[[0.         1.31328738]
 [0.1        1.53761103]
 [0.2        1.15738415]
 [0.25666667 1.33428182]]",1,0.618
1,m,25,english,5,2,english,2024-02-07 14:21:25.665371,False,1,159,sounds\french\audio/french_966.wav,"[[  0.          94.80811126]
 [  0.1        -90.73743651]
 [  0.2         94.60686235]
 [  0.25666667 -83.76406221]]","[[0.         1.26057873]
 [0.1        1.58996588]
 [0.2        0.08752829]
 [0.25666667 0.32239013]]",1,0.856
1,m,25,english,5,2,english,2024-02-07 14:21:25.665371,False,1,160,sounds\french\audio/french_53.wav,"[[  0.          -2.35814843]
 [  0.1        -48.73544303]
 [  0.2         38.27016364]
 [  0.25666667 -31.96265424]]","[[0.         1.83928924]
 [0.1        0.78912936]
 [0.2        0.60668558]
 [0.25666667 0.83130548]]",1,1.99
1,m,25,english,5,2,english,2024-02-07 14:21:25.665371,False,1,161,sounds\french\audio/french_109.wav,"[[  0.         -57.66612313]
 [  0.1        -72.54090479]
 [  0.2         -5.66573875]
 [  0.25666667 -86.22212262]]","[[0.         0.91141338]
 [0.1        1.63809523]
 [0.2        1.08686957]
 [0.25666667 0.85420458]]",1,1.333
1,m,25,english,5,2,english,2024-02-07 14:21:25.665371,False,1,162,sounds\french\audio/french_142.wav,"[[  0.         -47.01050856]
 [  0.1         44.85636852]
 [  0.2         82.74517116]
 [  0.25666667 -74.59675421]]","[[0.         0.88751265]
 [0.1        1.13664387]
 [0.2        0.91175928]
 [0.25666667 0.66352734]]",0,0.609
1,m,25,english,5,2,english,2024-02-07 14:21:25.665371,False,1,163,sounds\french\audio/french_945.wav,"[[  0.         -68.75533602]
 [  0.1        -70.31736245]
 [  0.2         30.11750803]
 [  0.25666667 -35.89247017]]","[[0.         0.74886616]
 [0.1        1.09629777]
 [0.2        0.8052417 ]
 [0.25666667 0.22664311]]",1,0.588
1,m,25,english,5,2,english,2024-02-07 14:21:25.665371,False,1,164,sounds\french\audio/french_340.wav,"[[  0.         -77.74428769]
 [  0.1        -23.36816436]
 [  0.2        -44.47255335]
 [  0.25666667 -51.35474548]]","[[0.         1.5012345 ]
 [0.1        1.72338521]
 [0.2        0.55046319]
 [0.25666667 0.98182936]]",1,0.673
1,m,25,english,5,2,english,2024-02-07 14:21:25.665371,False,1,165,sounds\french\audio/french_217.wav,"[[ 0.         -8.63904718]
 [ 0.1        71.12460489]
 [ 0.2        81.48384407]
 [ 0.25666667 64.01477431]]","[[0.         0.91131932]
 [0.1        1.66035555]
 [0.2        0.95248702]
 [0.25666667 0.54451157]]",0,1.585
1,m,25,english,5,2,english,2024-02-07 14:21:25.665371,False,1,166,sounds\french\audio/french_498.wav,"[[  0.           4.68377609]
 [  0.1        -15.28708952]
 [  0.2         12.01036293]
 [  0.25666667   2.49690218]]","[[0.         1.22559932]
 [0.1        1.70630703]
 [0.2        0.54123502]
 [0.25666667 0.39602685]]",1,0.475
1,m,25,english,5,2,english,2024-02-07 14:21:25.665371,False,1,167,sounds\french\audio/french_955.wav,"[[ 0.         49.41572239]
 [ 0.1        75.37923123]
 [ 0.2         0.1370905 ]
 [ 0.25666667 22.03577701]]","[[0.         1.13440167]
 [0.1        1.49278765]
 [0.2        0.20624254]
 [0.25666667 0.01599226]]",0,0.56
1,m,25,english,5,2,english,2024-02-07 14:21:25.665371,False,1,168,sounds\french\audio/french_942.wav,"[[  0.         -53.20970077]
 [  0.1        -81.68739914]
 [  0.2         39.47129185]
 [  0.25666667 -77.13084916]]","[[0.         1.55725844]
 [0.1        1.2093944 ]
 [0.2        0.05517711]
 [0.25666667 1.56672295]]",1,0.568
1,m,25,english,5,2,english,2024-02-07 14:21:25.665371,False,1,169,sounds\french\audio/french_769.wav,"[[  0.          78.39802529]
 [  0.1         98.35868913]
 [  0.2        -63.4251983 ]
 [  0.25666667 -17.35256236]]","[[0.         0.31346408]
 [0.1        0.8359084 ]
 [0.2        1.75433615]
 [0.25666667 0.30245362]]",0,0.505
1,m,25,english,5,2,english,2024-02-07 14:21:25.665371,False,1,170,sounds\french\audio/french_706.wav,"[[  0.          53.91986852]
 [  0.1        -86.79287422]
 [  0.2        -18.13553248]
 [  0.25666667 -98.41078943]]","[[0.         0.595313  ]
 [0.1        0.19033695]
 [0.2        1.2444166 ]
 [0.25666667 0.51551453]]",0,0.563
1,m,25,english,5,2,english,2024-02-07 14:21:25.665371,False,1,171,sounds\french\audio/french_45.wav,"[[  0.           6.51510613]
 [  0.1        -86.25018513]
 [  0.2        -60.46903131]
 [  0.25666667 -48.31089161]]","[[0.         0.83763225]
 [0.1        1.19709151]
 [0.2        0.87484565]
 [0.25666667 0.45414185]]",1,0.63
1,m,25,english,5,2,english,2024-02-07 14:21:25.665371,False,1,172,sounds\french\audio/french_808.wav,"[[  0.         -62.09526538]
 [  0.1         21.23234707]
 [  0.2        -93.15759374]
 [  0.25666667 -35.4638748 ]]","[[0.         1.28254738]
 [0.1        0.50843795]
 [0.2        0.88416038]
 [0.25666667 1.60061847]]",1,0.627
1,m,25,english,5,2,english,2024-02-07 14:21:25.665371,False,1,173,sounds\french\audio/french_39.wav,"[[  0.         -37.58690814]
 [  0.1         64.36969435]
 [  0.2        -16.17747505]
 [  0.25666667 -31.52468705]]","[[0.         0.69509593]
 [0.1        0.9899387 ]
 [0.2        1.54991446]
 [0.25666667 1.42558302]]",0,0.591
1,m,25,english,5,2,english,2024-02-07 14:21:25.665371,False,1,174,sounds\french\audio/french_25.wav,"[[  0.          46.82844357]
 [  0.1          5.52502331]
 [  0.2        -34.25373026]
 [  0.25666667 -52.44039001]]","[[0.         1.1493518 ]
 [0.1        1.41536953]
 [0.2        0.41949869]
 [0.25666667 0.5013656 ]]",1,0.582
1,m,25,english,5,2,english,2024-02-07 14:21:25.665371,False,1,175,sounds\french\audio/french_946.wav,"[[  0.         -59.20376503]
 [  0.1         41.31347152]
 [  0.2        -58.18080138]
 [  0.25666667 -28.00273528]]","[[0.         1.07432488]
 [0.1        0.26624757]
 [0.2        0.53636085]
 [0.25666667 1.77786979]]",0,0.554
1,m,25,english,5,2,english,2024-02-07 14:21:25.665371,False,1,176,sounds\french\audio/french_622.wav,"[[ 0.         47.12624694]
 [ 0.1        27.16283734]
 [ 0.2        55.37707654]
 [ 0.25666667 -3.25728377]]","[[0.         0.11708635]
 [0.1        1.67756831]
 [0.2        0.50575055]
 [0.25666667 0.46543416]]",1,1.553
1,m,25,english,5,2,english,2024-02-07 14:21:25.665371,False,1,177,sounds\french\audio/french_701.wav,"[[  0.         -44.50216008]
 [  0.1         39.62093866]
 [  0.2         59.49522687]
 [  0.25666667 -55.32580216]]","[[0.         0.81644439]
 [0.1        1.46668212]
 [0.2        1.68659205]
 [0.25666667 1.60664037]]",0,0.994
1,m,25,english,5,2,english,2024-02-07 14:21:25.665371,False,1,178,sounds\french\audio/french_40.wav,"[[  0.         -78.27349013]
 [  0.1        -11.45872421]
 [  0.2         54.77710365]
 [  0.25666667  77.61698443]]","[[0.         1.3593064 ]
 [0.1        0.13307668]
 [0.2        1.8527892 ]
 [0.25666667 1.82448351]]",0,0.554
1,m,25,english,5,2,english,2024-02-07 14:21:25.665371,False,1,179,sounds\french\audio/french_919.wav,"[[  0.         -50.18617417]
 [  0.1        -24.76321709]
 [  0.2        -27.90521194]
 [  0.25666667  55.47311868]]","[[0.         1.92623259]
 [0.1        1.20800331]
 [0.2        0.01078602]
 [0.25666667 0.27796628]]",1,0.573
1,m,25,english,5,2,english,2024-02-07 14:21:25.665371,False,1,180,sounds\french\audio/french_62.wav,"[[  0.         -14.31975686]
 [  0.1         44.56193131]
 [  0.2        -86.7672378 ]
 [  0.25666667  88.73328565]]","[[0.         0.1654928 ]
 [0.1        0.95189119]
 [0.2        0.13775192]
 [0.25666667 1.69441392]]",0,0.702
1,m,25,english,5,2,english,2024-02-07 14:21:25.665371,False,1,181,sounds\french\audio/french_343.wav,"[[  0.         -21.71261116]
 [  0.1         63.21036052]
 [  0.2        -29.86802649]
 [  0.25666667  57.96835755]]","[[0.         1.74552957]
 [0.1        1.86769095]
 [0.2        0.55355845]
 [0.25666667 1.24725328]]",1,0.535
1,m,25,english,5,2,english,2024-02-07 14:21:25.665371,False,1,182,sounds\french\audio/french_988.wav,"[[  0.          -4.11470775]
 [  0.1        -66.00013865]
 [  0.2         59.59027652]
 [  0.25666667   0.47429662]]","[[0.         0.28957615]
 [0.1        0.7977557 ]
 [0.2        1.24206297]
 [0.25666667 1.11640868]]",1,3.586
1,m,25,english,5,2,english,2024-02-07 14:21:25.665371,False,1,183,sounds\french\audio/french_207.wav,"[[ 0.         15.24625839]
 [ 0.1        68.60229744]
 [ 0.2        51.04898438]
 [ 0.25666667  8.99799409]]","[[0.         0.95120839]
 [0.1        1.50295804]
 [0.2        0.44335537]
 [0.25666667 1.65047569]]",1,1.236
1,m,25,english,5,2,english,2024-02-07 14:21:25.665371,False,1,184,sounds\french\audio/french_881.wav,"[[  0.         -25.82648211]
 [  0.1         13.08751975]
 [  0.2        -84.06590477]
 [  0.25666667 -28.7935441 ]]","[[0.         0.15296837]
 [0.1        1.42149925]
 [0.2        1.29281362]
 [0.25666667 1.41538706]]",0,0.379
1,m,25,english,5,2,english,2024-02-07 14:21:25.665371,False,1,185,sounds\french\audio/french_567.wav,"[[ 0.         27.43626477]
 [ 0.1        41.78362701]
 [ 0.2        54.76706712]
 [ 0.25666667 32.83264266]]","[[0.         1.24283832]
 [0.1        1.94246111]
 [0.2        1.04642714]
 [0.25666667 0.77358904]]",1,0.604
1,m,25,english,5,2,english,2024-02-07 14:21:25.665371,False,1,186,sounds\french\audio/french_623.wav,"[[  0.          39.03330695]
 [  0.1         53.03253456]
 [  0.2        -58.78521604]
 [  0.25666667  58.72042033]]","[[0.         1.53300878]
 [0.1        0.64917122]
 [0.2        0.12116027]
 [0.25666667 1.19887121]]",0,0.316
1,m,25,english,5,2,english,2024-02-07 14:21:25.665371,False,1,187,sounds\french\audio/french_793.wav,"[[  0.          24.81509803]
 [  0.1        -63.66512484]
 [  0.2        -35.07665133]
 [  0.25666667  -2.30327069]]","[[0.         0.12690374]
 [0.1        0.60816637]
 [0.2        0.42682998]
 [0.25666667 0.74050477]]",0,0.717
1,m,25,english,5,2,english,2024-02-07 14:21:25.665371,False,1,188,sounds\french\audio/french_9.wav,"[[ 0.         19.3207086 ]
 [ 0.1        55.1250277 ]
 [ 0.2        31.60633129]
 [ 0.25666667 31.4464946 ]]","[[0.         1.35934995]
 [0.1        1.31727385]
 [0.2        0.52824511]
 [0.25666667 1.75131645]]",1,0.473
1,m,25,english,5,2,english,2024-02-07 14:21:25.665371,False,1,189,sounds\french\audio/french_135.wav,"[[  0.         -14.44114523]
 [  0.1         22.88033262]
 [  0.2         45.87784319]
 [  0.25666667  14.60103067]]","[[0.         1.1198793 ]
 [0.1        0.12707755]
 [0.2        1.72429487]
 [0.25666667 0.79769027]]",0,0.473
1,m,25,english,5,2,english,2024-02-07 14:21:25.665371,False,1,190,sounds\french\audio/french_497.wav,"[[  0.         -34.77858655]
 [  0.1        -52.52188589]
 [  0.2         81.6415951 ]
 [  0.25666667  23.98828418]]","[[0.         0.98641894]
 [0.1        1.48106735]
 [0.2        1.37619597]
 [0.25666667 1.87248846]]",1,0.425
1,m,25,english,5,2,english,2024-02-07 14:21:25.665371,False,1,191,sounds\french\audio/french_272.wav,"[[  0.          50.55701535]
 [  0.1         63.46835537]
 [  0.2        -46.63250527]
 [  0.25666667  74.93577843]]","[[0.         1.0419248 ]
 [0.1        0.05024982]
 [0.2        0.3554473 ]
 [0.25666667 1.3845464 ]]",0,0.4
1,m,25,english,5,2,english,2024-02-07 14:21:25.665371,False,1,192,sounds\french\audio/french_598.wav,"[[  0.          21.68363658]
 [  0.1        -21.32750779]
 [  0.2          7.72514192]
 [  0.25666667 -29.17866519]]","[[0.         1.67467049]
 [0.1        0.64095668]
 [0.2        0.23575639]
 [0.25666667 0.51628457]]",0,0.72
1,m,25,english,5,2,english,2024-02-07 14:21:25.665371,False,1,193,sounds\french\audio/french_244.wav,"[[  0.          -1.19097064]
 [  0.1        -92.85229973]
 [  0.2        -96.93666457]
 [  0.25666667 -48.92774089]]","[[0.         0.99374935]
 [0.1        0.05831089]
 [0.2        1.01399938]
 [0.25666667 0.05507298]]",0,0.475
1,m,25,english,5,2,english,2024-02-07 14:21:25.665371,False,1,194,sounds\french\audio/french_998.wav,"[[  0.          41.25843424]
 [  0.1         16.31759718]
 [  0.2        -45.05489169]
 [  0.25666667  -0.1364182 ]]","[[0.         1.12001973]
 [0.1        1.22226563]
 [0.2        1.68799636]
 [0.25666667 0.6107462 ]]",1,0.43
1,m,25,english,5,2,english,2024-02-07 14:21:25.665371,False,1,195,sounds\french\audio/french_356.wav,"[[  0.         -28.24477507]
 [  0.1        -36.63699676]
 [  0.2         67.9524461 ]
 [  0.25666667   8.53170414]]","[[0.         0.35227097]
 [0.1        1.16218152]
 [0.2        1.82395355]
 [0.25666667 1.63669257]]",0,0.408
1,m,25,english,5,2,english,2024-02-07 14:21:25.665371,False,1,196,sounds\french\audio/french_852.wav,"[[  0.         -21.25647341]
 [  0.1         44.09899268]
 [  0.2        -20.54343266]
 [  0.25666667 -73.6389021 ]]","[[0.         1.59129412]
 [0.1        0.90931534]
 [0.2        0.17046498]
 [0.25666667 0.95788578]]",1,0.414
1,m,25,english,5,2,english,2024-02-07 14:21:25.665371,False,1,197,sounds\french\audio/french_274.wav,"[[  0.          43.75822691]
 [  0.1         86.10199067]
 [  0.2        -33.25278445]
 [  0.25666667 -94.53609652]]","[[0.         1.39255027]
 [0.1        1.73272922]
 [0.2        0.27567755]
 [0.25666667 1.08955952]]",1,0.483
1,m,25,english,5,2,english,2024-02-07 14:21:25.665371,False,1,198,sounds\french\audio/french_145.wav,"[[  0.          45.95226671]
 [  0.1        -66.66601381]
 [  0.2        -89.77596615]
 [  0.25666667   8.03115864]]","[[0.         0.38136586]
 [0.1        1.38589502]
 [0.2        0.43712509]
 [0.25666667 1.92826262]]",0,0.473
1,m,25,english,5,2,english,2024-02-07 14:21:25.665371,False,1,199,sounds\french\audio/french_234.wav,"[[  0.          40.80444991]
 [  0.1        -12.8326651 ]
 [  0.2         35.77292413]
 [  0.25666667  70.48005605]]","[[0.         0.6735757 ]
 [0.1        0.4328315 ]
 [0.2        1.793606  ]
 [0.25666667 0.88572041]]",1,1.024
1,m,25,english,5,2,english,2024-02-07 14:21:25.665371,False,1,200,sounds\french\audio/french_590.wav,"[[  0.         -77.28287391]
 [  0.1        -59.34931175]
 [  0.2        -59.15957395]
 [  0.25666667  88.90935082]]","[[0.         1.10563408]
 [0.1        0.27897949]
 [0.2        1.42245938]
 [0.25666667 0.18524725]]",0,0.794
1,m,25,english,5,2,english,2024-02-07 14:21:25.665371,False,1,201,sounds\french\audio/french_134.wav,"[[  0.         -65.58132827]
 [  0.1        -89.82992505]
 [  0.2          9.99695038]
 [  0.25666667  24.50908123]]","[[0.         0.68669704]
 [0.1        1.50131287]
 [0.2        0.69598371]
 [0.25666667 1.57047358]]",1,0.417
1,m,25,english,5,2,english,2024-02-07 14:21:25.665371,False,1,202,sounds\french\audio/french_932.wav,"[[  0.         -46.06723632]
 [  0.1         66.80974186]
 [  0.2         39.28685727]
 [  0.25666667 -66.26323275]]","[[0.         0.59994833]
 [0.1        1.29573715]
 [0.2        0.97302603]
 [0.25666667 1.65300799]]",0,0.4
1,m,25,english,5,2,english,2024-02-07 14:21:25.665371,False,1,203,sounds\french\audio/french_726.wav,"[[  0.          24.00791096]
 [  0.1        -92.28715444]
 [  0.2        -14.16316682]
 [  0.25666667  30.70182153]]","[[0.         1.57962765]
 [0.1        0.67026409]
 [0.2        0.1799528 ]
 [0.25666667 1.72405897]]",0,1.017
1,m,25,english,5,2,english,2024-02-07 14:21:25.665371,False,1,204,sounds\french\audio/french_145.wav,"[[  0.          45.95226671]
 [  0.1        -66.66601381]
 [  0.2        -89.77596615]
 [  0.25666667   8.03115864]]","[[0.         0.38136586]
 [0.1        1.38589502]
 [0.2        0.43712509]
 [0.25666667 1.92826262]]",1,0.436
1,m,25,english,5,2,english,2024-02-07 14:21:25.665371,False,1,205,sounds\french\audio/french_10.wav,"[[  0.          34.48773494]
 [  0.1         82.41652137]
 [  0.2        -51.47900312]
 [  0.25666667  70.4490668 ]]","[[0.         0.90390655]
 [0.1        1.13926368]
 [0.2        1.63497012]
 [0.25666667 0.74730693]]",0,0.245
1,m,25,english,5,2,english,2024-02-07 14:21:25.665371,False,1,206,sounds\french\audio/french_292.wav,"[[  0.          -5.98307963]
 [  0.1        -89.4143915 ]
 [  0.2         50.82370108]
 [  0.25666667 -75.87081721]]","[[0.         1.30181039]
 [0.1        0.71580693]
 [0.2        0.58623796]
 [0.25666667 1.49080339]]",0,0.677
1,m,25,english,5,2,english,2024-02-07 14:21:25.665371,False,1,207,sounds\french\audio/french_265.wav,"[[ 0.         12.13424101]
 [ 0.1        31.84170149]
 [ 0.2        45.73784214]
 [ 0.25666667 35.60173059]]","[[0.         1.65569129]
 [0.1        1.94822248]
 [0.2        0.46939125]
 [0.25666667 0.82856794]]",0,0.392
1,m,25,english,5,2,english,2024-02-07 14:21:25.665371,False,1,208,sounds\french\audio/french_969.wav,"[[  0.         -10.47620341]
 [  0.1         -9.05898311]
 [  0.2        -40.12378042]
 [  0.25666667   9.74664574]]","[[0.         0.56181474]
 [0.1        1.62172025]
 [0.2        1.31687422]
 [0.25666667 0.40962586]]",1,0.379
1,m,25,english,5,2,english,2024-02-07 14:21:25.665371,False,1,209,sounds\french\audio/french_610.wav,"[[  0.          41.67803598]
 [  0.1         50.6586837 ]
 [  0.2        -85.20353251]
 [  0.25666667 -12.88596769]]","[[0.         0.10564039]
 [0.1        1.22556883]
 [0.2        1.48633574]
 [0.25666667 1.12124299]]",1,0.791
1,m,25,english,5,2,english,2024-02-07 14:21:25.665371,False,1,210,sounds\french\audio/french_499.wav,"[[  0.          24.28229917]
 [  0.1        -90.85236303]
 [  0.2        -60.29957953]
 [  0.25666667  91.79807534]]","[[0.         0.76159538]
 [0.1        0.50536641]
 [0.2        0.99158085]
 [0.25666667 1.05465089]]",0,0.467
1,m,25,english,5,2,english,2024-02-07 14:21:25.665371,False,1,211,sounds\french\audio/french_160.wav,"[[  0.          94.580754  ]
 [  0.1        -77.59057929]
 [  0.2         49.28871101]
 [  0.25666667  54.34008904]]","[[0.         1.48632924]
 [0.1        0.83284567]
 [0.2        1.32543638]
 [0.25666667 1.18016963]]",1,0.521
1,m,25,english,5,2,english,2024-02-07 14:21:25.665371,False,1,212,sounds\french\audio/french_563.wav,"[[  0.           1.48089244]
 [  0.1         19.03426996]
 [  0.2        -28.07832236]
 [  0.25666667  33.25369521]]","[[0.         0.83142925]
 [0.1        1.65727988]
 [0.2        1.36487064]
 [0.25666667 0.18463038]]",1,0.42
1,m,25,english,5,2,english,2024-02-07 14:21:25.665371,False,1,213,sounds\french\audio/french_979.wav,"[[  0.          58.05333973]
 [  0.1        -10.78982684]
 [  0.2         -1.76147191]
 [  0.25666667  35.54131035]]","[[0.         1.60321768]
 [0.1        0.5155038 ]
 [0.2        0.80270828]
 [0.25666667 0.30870089]]",0,0.517
1,m,25,english,5,2,english,2024-02-07 14:21:25.665371,False,1,214,sounds\french\audio/french_952.wav,"[[  0.          89.6944408 ]
 [  0.1         29.6191185 ]
 [  0.2         82.60414553]
 [  0.25666667 -20.57336344]]","[[0.         1.65049473]
 [0.1        0.9962644 ]
 [0.2        0.25471402]
 [0.25666667 0.85149117]]",1,0.773
1,m,25,english,5,2,english,2024-02-07 14:21:25.665371,False,1,215,sounds\french\audio/french_768.wav,"[[ 0.         43.80393873]
 [ 0.1        23.97019037]
 [ 0.2        96.73627246]
 [ 0.25666667 86.69297093]]","[[0.         0.16736189]
 [0.1        0.82539527]
 [0.2        1.26581733]
 [0.25666667 1.40091334]]",0,0.456
1,m,25,english,5,2,english,2024-02-07 14:21:25.665371,False,1,216,sounds\french\audio/french_989.wav,"[[  0.           9.12508282]
 [  0.1        -26.45358769]
 [  0.2        -51.08796106]
 [  0.25666667 -22.70445117]]","[[0.         1.4573698 ]
 [0.1        0.87656303]
 [0.2        0.58961018]
 [0.25666667 1.46090447]]",1,1.284
1,m,25,english,5,2,english,2024-02-07 14:21:25.665371,False,1,217,sounds\french\audio/french_639.wav,"[[  0.          11.64385005]
 [  0.1        -83.53772589]
 [  0.2        -26.70113898]
 [  0.25666667 -28.21717215]]","[[0.         1.86180111]
 [0.1        1.31531339]
 [0.2        0.16484712]
 [0.25666667 0.08923993]]",0,0.673
1,m,25,english,5,2,english,2024-02-07 14:21:25.665371,False,1,218,sounds\french\audio/french_131.wav,"[[  0.          55.95469812]
 [  0.1        -96.48122085]
 [  0.2        -45.26115565]
 [  0.25666667  97.10583427]]","[[0.         0.7326606 ]
 [0.1        0.77747938]
 [0.2        1.02132862]
 [0.25666667 0.34109041]]",0,0.666
1,m,25,english,5,2,english,2024-02-07 14:21:25.665371,False,1,219,sounds\french\audio/french_544.wav,"[[  0.         -53.15565046]
 [  0.1        -92.4791724 ]
 [  0.2         38.15839594]
 [  0.25666667  24.38113977]]","[[0.         1.35860228]
 [0.1        0.93453098]
 [0.2        0.5056151 ]
 [0.25666667 1.47508   ]]",1,0.536
1,m,25,english,5,2,english,2024-02-07 14:21:25.665371,False,1,220,sounds\french\audio/french_785.wav,"[[  0.         -85.51822201]
 [  0.1         -3.83792251]
 [  0.2         45.88945115]
 [  0.25666667  38.51931882]]","[[0.         1.39201941]
 [0.1        0.93814534]
 [0.2        0.59493864]
 [0.25666667 0.08649149]]",1,0.868
1,m,25,english,5,2,english,2024-02-07 14:21:25.665371,False,1,221,sounds\french\audio/french_638.wav,"[[  0.         -18.90498038]
 [  0.1        -28.86355513]
 [  0.2        -97.62198235]
 [  0.25666667  26.30993693]]","[[0.         0.47409532]
 [0.1        1.76910273]
 [0.2        0.72222374]
 [0.25666667 0.09803926]]",1,1.772
1,m,25,english,5,2,english,2024-02-07 14:21:25.665371,False,1,222,sounds\french\audio/french_33.wav,"[[  0.          57.46883034]
 [  0.1        -37.75467747]
 [  0.2         37.26126111]
 [  0.25666667  30.73694303]]","[[0.         0.51774601]
 [0.1        0.34297047]
 [0.2        0.88429292]
 [0.25666667 0.45040489]]",0,0.615
1,m,25,english,5,2,english,2024-02-07 14:21:25.665371,False,1,223,sounds\french\audio/french_949.wav,"[[  0.          29.18752906]
 [  0.1        -67.27756955]
 [  0.2         55.26419326]
 [  0.25666667  11.27327126]]","[[0.         0.08608659]
 [0.1        1.93613179]
 [0.2        0.81834021]
 [0.25666667 0.09029871]]",1,1.687
1,m,25,english,5,2,english,2024-02-07 14:21:25.665371,False,1,224,sounds\french\audio/french_561.wav,"[[  0.          43.72245453]
 [  0.1        -99.96065046]
 [  0.2        -79.74506532]
 [  0.25666667   3.19515671]]","[[0.         1.14403907]
 [0.1        0.22103922]
 [0.2        0.12690813]
 [0.25666667 1.47601923]]",0,0.661
1,m,25,english,5,2,english,2024-02-07 14:21:25.665371,False,1,225,sounds\french\audio/french_9.wav,"[[ 0.         19.3207086 ]
 [ 0.1        55.1250277 ]
 [ 0.2        31.60633129]
 [ 0.25666667 31.4464946 ]]","[[0.         1.35934995]
 [0.1        1.31727385]
 [0.2        0.52824511]
 [0.25666667 1.75131645]]",1,0.343
1,m,25,english,5,2,english,2024-02-07 14:21:25.665371,False,1,226,sounds\french\audio/french_66.wav,"[[ 0.          3.84925572]
 [ 0.1        75.48045935]
 [ 0.2        22.76512124]
 [ 0.25666667 45.08821781]]","[[0.         1.88939432]
 [0.1        0.3012797 ]
 [0.2        0.5045755 ]
 [0.25666667 1.63034278]]",0,0.546
1,m,25,english,5,2,english,2024-02-07 14:21:25.665371,False,1,227,sounds\french\audio/french_599.wav,"[[  0.          67.35107794]
 [  0.1        -80.59112066]
 [  0.2          8.51369184]
 [  0.25666667  74.29539318]]","[[0.         1.27225877]
 [0.1        1.42607556]
 [0.2        0.27008032]
 [0.25666667 0.36016313]]",1,0.44
1,m,25,english,5,2,english,2024-02-07 14:21:25.665371,False,1,228,sounds\french\audio/french_78.wav,"[[  0.         -36.45256911]
 [  0.1         52.80709263]
 [  0.2        -45.25624127]
 [  0.25666667  18.96418323]]","[[0.         0.98498246]
 [0.1        1.84515784]
 [0.2        1.50799972]
 [0.25666667 1.61920031]]",1,0.39
1,m,25,english,5,2,english,2024-02-07 14:21:25.665371,False,1,229,sounds\french\audio/french_954.wav,"[[  0.         -31.81965022]
 [  0.1         82.90828133]
 [  0.2         94.68318648]
 [  0.25666667 -42.01635115]]","[[0.         1.69468269]
 [0.1        0.7734121 ]
 [0.2        0.43346946]
 [0.25666667 0.14112827]]",1,2.128
1,m,25,english,5,2,english,2024-02-07 14:21:25.665371,False,1,230,sounds\french\audio/french_353.wav,"[[  0.         -27.01804801]
 [  0.1         16.22716876]
 [  0.2        -38.75476954]
 [  0.25666667  38.92446625]]","[[0.         0.51521002]
 [0.1        1.40915564]
 [0.2        1.13160084]
 [0.25666667 0.21009684]]",1,0.768
1,m,25,english,5,2,english,2024-02-07 14:21:25.665371,False,1,231,sounds\french\audio/french_988.wav,"[[  0.          -4.11470775]
 [  0.1        -66.00013865]
 [  0.2         59.59027652]
 [  0.25666667   0.47429662]]","[[0.         0.28957615]
 [0.1        0.7977557 ]
 [0.2        1.24206297]
 [0.25666667 1.11640868]]",0,0.34
1,m,25,english,5,2,english,2024-02-07 14:21:25.665371,False,1,232,sounds\french\audio/french_748.wav,"[[  0.          66.19282508]
 [  0.1        -81.39884416]
 [  0.2         72.72612179]
 [  0.25666667  76.03481505]]","[[0.         0.41357469]
 [0.1        1.04952   ]
 [0.2        1.37113635]
 [0.25666667 1.54211369]]",1,0.304
1,m,25,english,5,2,english,2024-02-07 14:21:25.665371,False,1,233,sounds\french\audio/french_49.wav,"[[  0.         -34.40531311]
 [  0.1        -47.89713654]
 [  0.2          1.74747298]
 [  0.25666667  24.1153847 ]]","[[0.         0.38592943]
 [0.1        0.82636765]
 [0.2        1.60738751]
 [0.25666667 0.61367061]]",1,0.54
1,m,25,english,5,2,english,2024-02-07 14:21:25.665371,False,1,234,sounds\french\audio/french_97.wav,"[[  0.         -26.25195718]
 [  0.1         46.36733761]
 [  0.2        -70.05850246]
 [  0.25666667 -12.16166803]]","[[0.         1.78322942]
 [0.1        0.61428926]
 [0.2        0.23760427]
 [0.25666667 0.84541126]]",0,0.488
1,m,25,english,5,2,english,2024-02-07 14:21:25.665371,False,1,235,sounds\french\audio/french_749.wav,"[[  0.          -6.52512876]
 [  0.1         66.04972296]
 [  0.2        -72.89621134]
 [  0.25666667 -46.82302434]]","[[0.         1.71102694]
 [0.1        0.07130547]
 [0.2        1.03709586]
 [0.25666667 1.99027801]]",0,0.87
1,m,25,english,5,2,english,2024-02-07 14:21:25.665371,False,1,236,sounds\french\audio/french_956.wav,"[[  0.         -17.2568339 ]
 [  0.1         60.67626876]
 [  0.2         40.71216363]
 [  0.25666667  16.50619481]]","[[0.         1.05718214]
 [0.1        1.43914937]
 [0.2        0.83140318]
 [0.25666667 0.14426626]]",1,0.925
1,m,25,english,5,2,english,2024-02-07 14:21:25.665371,False,1,237,sounds\french\audio/french_167.wav,"[[  0.          35.64973643]
 [  0.1         44.83065125]
 [  0.2         -2.88275541]
 [  0.25666667 -92.53521205]]","[[0.         1.28189169]
 [0.1        1.79221575]
 [0.2        1.75452965]
 [0.25666667 1.25057705]]",1,0.472
1,m,25,english,5,2,english,2024-02-07 14:21:25.665371,False,1,238,sounds\french\audio/french_93.wav,"[[  0.          23.57211404]
 [  0.1        -16.15934767]
 [  0.2         25.54711871]
 [  0.25666667  65.09284613]]","[[0.         0.62732128]
 [0.1        0.10811818]
 [0.2        0.30787392]
 [0.25666667 1.57978374]]",0,0.608
1,m,25,english,5,2,english,2024-02-07 14:21:25.665371,False,1,239,sounds\french\audio/french_961.wav,"[[  0.         -20.33448842]
 [  0.1         -4.78685128]
 [  0.2        -11.93718074]
 [  0.25666667 -89.16955282]]","[[0.         1.15404666]
 [0.1        0.60063951]
 [0.2        0.7481002 ]
 [0.25666667 0.88090291]]",1,0.749
1,m,25,english,5,2,english,2024-02-07 14:21:25.665371,False,1,240,sounds\french\audio/french_224.wav,"[[  0.          29.30439333]
 [  0.1        -18.8355858 ]
 [  0.2         53.95388402]
 [  0.25666667 -99.38068318]]","[[0.         0.07263044]
 [0.1        0.50126241]
 [0.2        0.66381289]
 [0.25666667 0.98911363]]",0,0.678
1,m,25,english,5,2,english,2024-02-07 14:21:25.665371,False,1,241,sounds\french\audio/french_356.wav,"[[  0.         -28.24477507]
 [  0.1        -36.63699676]
 [  0.2         67.9524461 ]
 [  0.25666667   8.53170414]]","[[0.         0.35227097]
 [0.1        1.16218152]
 [0.2        1.82395355]
 [0.25666667 1.63669257]]",1,1.82
1,m,25,english,5,2,english,2024-02-07 14:21:25.665371,False,1,242,sounds\french\audio/french_23.wav,"[[  0.          60.31001525]
 [  0.1        -66.5420171 ]
 [  0.2         63.07925381]
 [  0.25666667 -69.51509132]]","[[0.         1.86606536]
 [0.1        0.5728784 ]
 [0.2        0.71513043]
 [0.25666667 1.52612213]]",1,0.717
1,m,25,english,5,2,english,2024-02-07 14:21:25.665371,False,1,243,sounds\french\audio/french_533.wav,"[[  0.          16.04004141]
 [  0.1         56.74964814]
 [  0.2         94.00728235]
 [  0.25666667 -15.92685786]]","[[0.         1.94214745]
 [0.1        0.96958639]
 [0.2        1.49563925]
 [0.25666667 1.75047909]]",1,0.415
1,m,25,english,5,2,english,2024-02-07 14:21:25.665371,False,1,244,sounds\french\audio/french_969.wav,"[[  0.         -10.47620341]
 [  0.1         -9.05898311]
 [  0.2        -40.12378042]
 [  0.25666667   9.74664574]]","[[0.         0.56181474]
 [0.1        1.62172025]
 [0.2        1.31687422]
 [0.25666667 0.40962586]]",1,0.944
1,m,25,english,5,2,english,2024-02-07 14:21:25.665371,False,1,245,sounds\french\audio/french_507.wav,"[[  0.         -39.00130205]
 [  0.1          8.15448279]
 [  0.2        -39.88004764]
 [  0.25666667  66.54300966]]","[[0.         0.88980729]
 [0.1        1.12034654]
 [0.2        1.15006522]
 [0.25666667 1.10945683]]",0,3.272
1,m,25,english,5,2,english,2024-02-07 14:21:25.665371,False,1,246,sounds\french\audio/french_97.wav,"[[  0.         -26.25195718]
 [  0.1         46.36733761]
 [  0.2        -70.05850246]
 [  0.25666667 -12.16166803]]","[[0.         1.78322942]
 [0.1        0.61428926]
 [0.2        0.23760427]
 [0.25666667 0.84541126]]",1,0.52
1,m,25,english,5,2,english,2024-02-07 14:21:25.665371,False,1,247,sounds\french\audio/french_853.wav,"[[  0.         -51.03576257]
 [  0.1         41.51658453]
 [  0.2        -92.89610403]
 [  0.25666667 -36.6460181 ]]","[[0.         1.07641583]
 [0.1        0.77538457]
 [0.2        0.19170679]
 [0.25666667 1.18241166]]",0,0.633
1,m,25,english,5,2,english,2024-02-07 14:21:25.665371,False,1,248,sounds\french\audio/french_570.wav,"[[  0.         -73.07970403]
 [  0.1        -29.06072458]
 [  0.2        -25.44054287]
 [  0.25666667  96.93308839]]","[[0.         1.97071113]
 [0.1        1.64236312]
 [0.2        0.27343611]
 [0.25666667 1.31029171]]",1,0.72
1,m,25,english,5,2,english,2024-02-07 14:21:25.665371,False,1,249,sounds\french\audio/french_964.wav,"[[  0.         -56.07629317]
 [  0.1        -19.45500988]
 [  0.2         97.83653085]
 [  0.25666667  70.5600413 ]]","[[0.         1.19943116]
 [0.1        0.89458005]
 [0.2        1.94180509]
 [0.25666667 0.3273771 ]]",1,0.351
1,m,25,english,5,2,english,2024-02-07 14:21:25.665371,False,1,250,sounds\french\audio/french_108.wav,"[[  0.         -38.50953818]
 [  0.1         44.47590219]
 [  0.2         35.73303492]
 [  0.25666667 -90.35369633]]","[[0.         1.14488094]
 [0.1        1.3820118 ]
 [0.2        1.04224754]
 [0.25666667 1.51933791]]",1,1.081
1,m,25,english,5,2,english,2024-02-07 14:21:25.665371,False,1,251,sounds\french\audio/french_182.wav,"[[  0.          -1.23949724]
 [  0.1         97.8493481 ]
 [  0.2        -69.4259963 ]
 [  0.25666667  68.50854418]]","[[0.         0.32203143]
 [0.1        0.76081704]
 [0.2        1.30995173]
 [0.25666667 1.49369116]]",1,3.724
1,m,25,english,5,2,english,2024-02-07 14:21:25.665371,False,1,252,sounds\french\audio/french_822.wav,"[[  0.          70.1141555 ]
 [  0.1        -32.80370271]
 [  0.2          9.36864383]
 [  0.25666667 -70.41865943]]","[[0.         0.03091404]
 [0.1        1.54599653]
 [0.2        0.45983016]
 [0.25666667 0.57036726]]",0,0.567
1,m,25,english,5,2,english,2024-02-07 14:21:25.665371,False,1,253,sounds\french\audio/french_565.wav,"[[  0.          50.78822436]
 [  0.1        -75.93967217]
 [  0.2        -58.95969425]
 [  0.25666667 -53.32673619]]","[[0.         1.00864226]
 [0.1        1.52231663]
 [0.2        0.24874103]
 [0.25666667 1.47271882]]",1,1.0
1,m,25,english,5,2,english,2024-02-07 14:21:25.665371,False,1,254,sounds\french\audio/french_139.wav,"[[  0.          55.8945715 ]
 [  0.1        -37.58065727]
 [  0.2        -36.76334563]
 [  0.25666667   4.9296063 ]]","[[0.         0.94357116]
 [0.1        0.51247941]
 [0.2        1.17002066]
 [0.25666667 0.00285273]]",0,0.681
1,m,25,english,5,2,english,2024-02-07 14:21:25.665371,False,1,255,sounds\french\audio/french_528.wav,"[[  0.          88.85530458]
 [  0.1        -87.19636625]
 [  0.2        -45.08147721]
 [  0.25666667  86.03081593]]","[[0.         1.69331748]
 [0.1        0.73621757]
 [0.2        0.82405603]
 [0.25666667 0.01123483]]",1,0.677
1,m,25,english,5,2,english,2024-02-07 14:21:25.665371,False,1,256,sounds\french\audio/french_360.wav,"[[ 0.00000000e+00 -2.35073025e-03]
 [ 1.00000000e-01  7.51310722e+01]
 [ 2.00000000e-01 -5.59073348e+01]
 [ 2.56666667e-01 -5.96885988e+01]]","[[0.         1.59141319]
 [0.1        0.32502124]
 [0.2        0.48861064]
 [0.25666667 0.13551716]]",0,0.518
1,m,25,english,5,2,english,2024-02-07 14:21:25.665371,False,1,257,sounds\french\audio/french_820.wav,"[[  0.         -23.2512771 ]
 [  0.1         -3.42093224]
 [  0.2        -78.83822409]
 [  0.25666667 -24.79307177]]","[[0.         0.85914582]
 [0.1        1.44867235]
 [0.2        1.61907263]
 [0.25666667 1.11055267]]",1,0.694
1,m,25,english,5,2,english,2024-02-07 14:21:25.665371,False,1,258,sounds\french\audio/french_671.wav,"[[  0.         -43.02390558]
 [  0.1         13.89093856]
 [  0.2          3.48608914]
 [  0.25666667 -98.36263583]]","[[0.         0.93196934]
 [0.1        1.15314194]
 [0.2        0.54353121]
 [0.25666667 1.08598707]]",0,1.443
1,m,25,english,5,2,english,2024-02-07 14:21:25.665371,False,1,259,sounds\french\audio/french_258.wav,"[[  0.          49.87761594]
 [  0.1        -83.77774399]
 [  0.2         58.69904626]
 [  0.25666667 -57.68721695]]","[[0.         0.27922365]
 [0.1        1.89432374]
 [0.2        0.22934206]
 [0.25666667 0.35615934]]",0,1.57
1,m,25,english,5,2,english,2024-02-07 14:21:25.665371,False,1,260,sounds\french\audio/french_455.wav,"[[  0.         -38.32224649]
 [  0.1         16.6107471 ]
 [  0.2        -53.73538957]
 [  0.25666667 -39.28573671]]","[[0.         1.67202697]
 [0.1        0.91904085]
 [0.2        1.09329776]
 [0.25666667 1.37901108]]",1,0.466
1,m,25,english,5,2,english,2024-02-07 14:21:25.665371,False,1,261,sounds\french\audio/french_810.wav,"[[  0.          76.35600219]
 [  0.1         33.05643104]
 [  0.2         14.69103946]
 [  0.25666667 -16.26362119]]","[[0.         0.51042634]
 [0.1        0.40354819]
 [0.2        0.8135704 ]
 [0.25666667 0.38644961]]",0,0.701
1,m,25,english,5,2,english,2024-02-07 14:21:25.665371,False,1,262,sounds\french\audio/french_211.wav,"[[  0.          26.09911827]
 [  0.1         37.88219535]
 [  0.2         25.3370042 ]
 [  0.25666667 -31.50750366]]","[[0.         0.38797522]
 [0.1        0.97106999]
 [0.2        0.82384696]
 [0.25666667 0.88987221]]",1,7.954
1,m,25,english,5,2,english,2024-02-07 14:21:25.665371,False,1,263,sounds\french\audio/french_484.wav,"[[  0.          -9.6162674 ]
 [  0.1          9.27811619]
 [  0.2        -71.03065972]
 [  0.25666667 -29.12959292]]","[[0.         0.19772274]
 [0.1        0.11941549]
 [0.2        1.54802806]
 [0.25666667 1.03524562]]",0,0.419
1,m,25,english,5,2,english,2024-02-07 14:21:25.665371,False,1,264,sounds\french\audio/french_336.wav,"[[  0.         -59.08437243]
 [  0.1        -11.33502928]
 [  0.2         -8.85944942]
 [  0.25666667  -2.33471857]]","[[0.         0.65572155]
 [0.1        1.68249373]
 [0.2        0.52457197]
 [0.25666667 1.1312199 ]]",1,1.146
1,m,25,english,5,2,english,2024-02-07 14:21:25.665371,False,1,265,sounds\french\audio/french_833.wav,"[[  0.          -6.16556676]
 [  0.1        -32.48345992]
 [  0.2        -28.28033803]
 [  0.25666667  48.73445236]]","[[0.         1.54939137]
 [0.1        0.45028205]
 [0.2        0.55227402]
 [0.25666667 0.7790443 ]]",0,1.684
1,m,25,english,5,2,english,2024-02-07 14:21:25.665371,False,1,266,sounds\french\audio/french_13.wav,"[[  0.         -32.13252367]
 [  0.1         70.64746455]
 [  0.2        -67.50971173]
 [  0.25666667  94.74832862]]","[[0.         0.96861247]
 [0.1        0.7552715 ]
 [0.2        1.7097775 ]
 [0.25666667 1.62121013]]",1,0.484
1,m,25,english,5,2,english,2024-02-07 14:21:25.665371,False,1,267,sounds\french\audio/french_276.wav,"[[  0.         -30.59490391]
 [  0.1         35.14119383]
 [  0.2        -47.54137466]
 [  0.25666667 -36.46330553]]","[[0.         1.59191255]
 [0.1        1.08920427]
 [0.2        1.15204711]
 [0.25666667 0.56107217]]",1,0.669
1,m,25,english,5,2,english,2024-02-07 14:21:25.665371,False,1,268,sounds\french\audio/french_309.wav,"[[  0.         -43.78964232]
 [  0.1         78.2069368 ]
 [  0.2        -31.15110399]
 [  0.25666667 -73.94684578]]","[[0.         0.29425556]
 [0.1        1.94220297]
 [0.2        1.27018493]
 [0.25666667 1.0788176 ]]",1,0.59
1,m,25,english,5,2,english,2024-02-07 14:21:25.665371,False,1,269,sounds\french\audio/french_73.wav,"[[  0.          79.91377479]
 [  0.1         21.44914026]
 [  0.2         94.23892751]
 [  0.25666667 -26.36168046]]","[[0.         0.94290919]
 [0.1        0.58511712]
 [0.2        1.07660977]
 [0.25666667 0.0399298 ]]",0,0.508
1,m,25,english,5,2,english,2024-02-07 14:21:25.665371,False,1,270,sounds\french\audio/french_198.wav,"[[  0.          72.51067349]
 [  0.1         26.15359829]
 [  0.2        -38.06500424]
 [  0.25666667 -63.59150526]]","[[0.         0.65547069]
 [0.1        0.30610144]
 [0.2        0.27462822]
 [0.25666667 1.37790723]]",0,0.421
1,m,25,english,5,2,english,2024-02-07 14:21:25.665371,False,1,271,sounds\french\audio/french_241.wav,"[[ 0.         89.40240056]
 [ 0.1        40.19017079]
 [ 0.2         6.95264839]
 [ 0.25666667 60.0147698 ]]","[[0.         1.53101086]
 [0.1        0.22293869]
 [0.2        0.66477428]
 [0.25666667 1.1640228 ]]",0,0.495
1,m,25,english,5,2,english,2024-02-07 14:21:25.665371,False,1,272,sounds\french\audio/french_457.wav,"[[ 0.         42.86960152]
 [ 0.1        79.85160671]
 [ 0.2        98.12255829]
 [ 0.25666667 78.01153847]]","[[0.         1.10156515]
 [0.1        0.90608198]
 [0.2        0.87189229]
 [0.25666667 1.12024719]]",1,1.024
1,m,25,english,5,2,english,2024-02-07 14:21:25.665371,False,1,273,sounds\french\audio/french_467.wav,"[[  0.          26.36588123]
 [  0.1        -91.62831039]
 [  0.2         14.27679522]
 [  0.25666667 -77.75485007]]","[[0.         0.49078583]
 [0.1        1.37574102]
 [0.2        0.10009029]
 [0.25666667 1.32516535]]",0,0.862
1,m,25,english,5,2,english,2024-02-07 14:21:25.665371,False,1,274,sounds\french\audio/french_319.wav,"[[  0.          63.69489547]
 [  0.1         60.76449486]
 [  0.2        -58.82123998]
 [  0.25666667  43.46614377]]","[[0.         0.79356863]
 [0.1        1.37507237]
 [0.2        1.06369674]
 [0.25666667 1.64660946]]",0,0.713
1,m,25,english,5,2,english,2024-02-07 14:21:25.665371,False,1,275,sounds\french\audio/french_849.wav,"[[  0.         -28.99181256]
 [  0.1        -23.83365043]
 [  0.2        -51.88410218]
 [  0.25666667 -29.11212869]]","[[0.         1.60316931]
 [0.1        0.33831848]
 [0.2        1.05589654]
 [0.25666667 1.53017224]]",1,0.657
1,m,25,english,5,2,english,2024-02-07 14:21:25.665371,False,1,276,sounds\french\audio/french_67.wav,"[[  0.         -85.58948589]
 [  0.1         13.09838054]
 [  0.2        -56.56906679]
 [  0.25666667  57.4599261 ]]","[[0.         0.63200809]
 [0.1        1.95867716]
 [0.2        0.48937635]
 [0.25666667 1.24156625]]",0,1.311
1,m,25,english,5,2,english,2024-02-07 14:21:25.665371,False,1,277,sounds\french\audio/french_809.wav,"[[  0.         -35.34138518]
 [  0.1        -27.53268432]
 [  0.2         -4.59062168]
 [  0.25666667  54.17413939]]","[[0.         0.91250327]
 [0.1        1.55486221]
 [0.2        0.05513513]
 [0.25666667 0.74937359]]",0,1.173
1,m,25,english,5,2,english,2024-02-07 14:21:25.665371,False,1,278,sounds\french\audio/french_721.wav,"[[ 0.         83.32262744]
 [ 0.1        53.43911967]
 [ 0.2        45.88272958]
 [ 0.25666667 34.59804534]]","[[0.         0.77898197]
 [0.1        1.2749748 ]
 [0.2        1.13618558]
 [0.25666667 1.96642304]]",1,0.455
1,m,25,english,5,2,english,2024-02-07 14:21:25.665371,False,1,279,sounds\french\audio/french_650.wav,"[[  0.         -98.04674504]
 [  0.1        -80.1546697 ]
 [  0.2        -60.9727692 ]
 [  0.25666667  39.39299736]]","[[0.         0.50091073]
 [0.1        0.94744897]
 [0.2        0.76656919]
 [0.25666667 1.29747512]]",0,4.693
1,m,25,english,5,2,english,2024-02-07 14:21:25.665371,False,1,280,sounds\french\audio/french_811.wav,"[[  0.          35.12158591]
 [  0.1          4.09145181]
 [  0.2        -79.3353891 ]
 [  0.25666667 -59.5865152 ]]","[[0.         1.63803033]
 [0.1        0.91441893]
 [0.2        1.53056324]
 [0.25666667 1.20408751]]",1,0.822
1,m,25,english,5,2,english,2024-02-07 14:21:25.665371,False,1,281,sounds\french\audio/french_404.wav,"[[  0.         -69.94435752]
 [  0.1        -71.78209065]
 [  0.2          1.54660235]
 [  0.25666667 -64.99062427]]","[[0.         1.52233517]
 [0.1        0.64310095]
 [0.2        1.70982079]
 [0.25666667 0.43662649]]",1,2.943
1,m,25,english,5,2,english,2024-02-07 14:21:25.665371,False,1,282,sounds\french\audio/french_778.wav,"[[ 0.         -2.76577218]
 [ 0.1         4.49344871]
 [ 0.2        68.81762054]
 [ 0.25666667 89.13075651]]","[[0.         0.74255963]
 [0.1        1.48176587]
 [0.2        1.59399306]
 [0.25666667 1.18058537]]",1,3.499
1,m,25,english,5,2,english,2024-02-07 14:21:25.665371,False,1,283,sounds\french\audio/french_186.wav,"[[  0.         -80.05391137]
 [  0.1        -76.4275614 ]
 [  0.2          7.24631247]
 [  0.25666667 -47.449751  ]]","[[0.         1.48946386]
 [0.1        1.35064599]
 [0.2        0.88239158]
 [0.25666667 1.60975952]]",1,0.817
1,m,25,english,5,2,english,2024-02-07 14:21:25.665371,False,1,284,sounds\french\audio/french_511.wav,"[[  0.         -19.9871771 ]
 [  0.1        -61.98813266]
 [  0.2        -51.99144191]
 [  0.25666667  26.5419494 ]]","[[0.         1.33271467]
 [0.1        1.54343533]
 [0.2        1.11888865]
 [0.25666667 1.56196296]]",1,0.526
1,m,25,english,5,2,english,2024-02-07 14:21:25.665371,False,1,285,sounds\french\audio/french_682.wav,"[[  0.         -16.33102186]
 [  0.1        -49.72009429]
 [  0.2        -23.39596266]
 [  0.25666667 -34.72439006]]","[[0.         0.79850708]
 [0.1        1.31273679]
 [0.2        1.51298147]
 [0.25666667 0.92861139]]",1,1.105
1,m,25,english,5,2,english,2024-02-07 14:21:25.665371,False,1,286,sounds\french\audio/french_957.wav,"[[  0.         -18.56504594]
 [  0.1         17.87447177]
 [  0.2         57.20134839]
 [  0.25666667  64.73544538]]","[[0.         1.70357669]
 [0.1        1.95920141]
 [0.2        1.7386973 ]
 [0.25666667 0.56015389]]",0,0.206
1,m,25,english,5,2,english,2024-02-07 14:21:25.665371,False,1,287,sounds\french\audio/french_296.wav,"[[  0.          93.71479572]
 [  0.1        -75.79046522]
 [  0.2        -87.29598303]
 [  0.25666667  31.73776098]]","[[0.         0.08926169]
 [0.1        1.27041306]
 [0.2        1.46433067]
 [0.25666667 0.42599999]]",0,0.473
1,m,25,english,5,2,english,2024-02-07 14:21:25.665371,False,1,288,sounds\french\audio/french_778.wav,"[[ 0.         -2.76577218]
 [ 0.1         4.49344871]
 [ 0.2        68.81762054]
 [ 0.25666667 89.13075651]]","[[0.         0.74255963]
 [0.1        1.48176587]
 [0.2        1.59399306]
 [0.25666667 1.18058537]]",1,1.217
1,m,25,english,5,2,english,2024-02-07 14:21:25.665371,False,1,289,sounds\french\audio/french_426.wav,"[[ 0.         94.83015244]
 [ 0.1        80.74954266]
 [ 0.2        14.22402444]
 [ 0.25666667 92.85203769]]","[[0.         1.95768421]
 [0.1        0.5170286 ]
 [0.2        0.27456075]
 [0.25666667 1.53042381]]",0,0.465
1,m,25,english,5,2,english,2024-02-07 14:21:25.665371,False,1,290,sounds\french\audio/french_793.wav,"[[  0.          24.81509803]
 [  0.1        -63.66512484]
 [  0.2        -35.07665133]
 [  0.25666667  -2.30327069]]","[[0.         0.12690374]
 [0.1        0.60816637]
 [0.2        0.42682998]
 [0.25666667 0.74050477]]",0,0.695
1,m,25,english,5,2,english,2024-02-07 14:21:25.665371,False,1,291,sounds\french\audio/french_186.wav,"[[  0.         -80.05391137]
 [  0.1        -76.4275614 ]
 [  0.2          7.24631247]
 [  0.25666667 -47.449751  ]]","[[0.         1.48946386]
 [0.1        1.35064599]
 [0.2        0.88239158]
 [0.25666667 1.60975952]]",1,0.413
1,m,25,english,5,2,english,2024-02-07 14:21:25.665371,False,1,292,sounds\french\audio/french_327.wav,"[[  0.          75.01862194]
 [  0.1        -83.8502905 ]
 [  0.2         63.63621512]
 [  0.25666667 -22.5018405 ]]","[[0.         1.26930687]
 [0.1        1.47688931]
 [0.2        1.339502  ]
 [0.25666667 0.76786237]]",1,0.545
1,m,25,english,5,2,english,2024-02-07 14:21:25.665371,False,1,293,sounds\french\audio/french_526.wav,"[[ 0.         88.08406442]
 [ 0.1        34.72799638]
 [ 0.2         4.2178472 ]
 [ 0.25666667 90.74946068]]","[[0.         1.10890049]
 [0.1        1.05741796]
 [0.2        1.4706377 ]
 [0.25666667 0.12061003]]",0,0.634
1,m,25,english,5,2,english,2024-02-07 14:21:25.665371,False,1,294,sounds\french\audio/french_307.wav,"[[  0.           1.2534749 ]
 [  0.1         79.3326992 ]
 [  0.2         24.93038066]
 [  0.25666667 -37.26133342]]","[[0.         1.28672407]
 [0.1        0.47718292]
 [0.2        1.37451018]
 [0.25666667 1.21026525]]",0,1.272
1,m,25,english,5,2,english,2024-02-07 14:21:25.665371,False,1,295,sounds\french\audio/french_376.wav,"[[  0.         -29.78300729]
 [  0.1        -14.6608331 ]
 [  0.2         93.91149251]
 [  0.25666667  61.08695399]]","[[0.         1.32478843]
 [0.1        1.46487259]
 [0.2        1.42207254]
 [0.25666667 1.23206205]]",1,0.341
1,m,25,english,5,2,english,2024-02-07 14:21:25.665371,False,1,296,sounds\french\audio/french_917.wav,"[[  0.          50.57286357]
 [  0.1        -63.34867724]
 [  0.2          6.48628749]
 [  0.25666667  42.71671415]]","[[0.         1.65201844]
 [0.1        1.47811083]
 [0.2        1.28993383]
 [0.25666667 0.78276191]]",1,2.536
1,m,25,english,5,2,english,2024-02-07 14:21:25.665371,False,1,297,sounds\french\audio/french_359.wav,"[[  0.           4.86221528]
 [  0.1         41.19609007]
 [  0.2         55.98013436]
 [  0.25666667 -59.88256532]]","[[0.         1.66863127]
 [0.1        0.25992168]
 [0.2        1.95186144]
 [0.25666667 1.64110453]]",0,0.473
1,m,25,english,5,2,english,2024-02-07 14:21:25.665371,False,1,298,sounds\french\audio/french_395.wav,"[[  0.          53.54317287]
 [  0.1        -58.7899365 ]
 [  0.2        -16.29959602]
 [  0.25666667 -29.17949613]]","[[0.         1.78210887]
 [0.1        0.28539332]
 [0.2        1.44255764]
 [0.25666667 0.93749012]]",1,0.671
1,m,25,english,5,2,english,2024-02-07 14:21:25.665371,False,1,299,sounds\french\audio/french_161.wav,"[[  0.          61.58397479]
 [  0.1         44.64347815]
 [  0.2        -11.65199572]
 [  0.25666667  76.59463145]]","[[0.         1.02686065]
 [0.1        1.42523068]
 [0.2        0.36377374]
 [0.25666667 0.41836879]]",0,0.745
1,m,25,english,5,2,english,2024-02-07 14:21:25.665371,False,1,300,sounds\french\audio/french_82.wav,"[[  0.          82.26293442]
 [  0.1        -13.98955844]
 [  0.2         44.8739745 ]
 [  0.25666667  23.31967993]]","[[0.         0.95636636]
 [0.1        0.8765529 ]
 [0.2        0.75785774]
 [0.25666667 0.26363467]]",1,2.249
1,m,25,english,5,2,english,2024-02-07 14:21:25.665371,False,1,301,sounds\french\audio/french_396.wav,"[[  0.         -42.7744445 ]
 [  0.1          3.59774391]
 [  0.2        -86.41595133]
 [  0.25666667  76.20152203]]","[[0.         0.31798537]
 [0.1        0.67756986]
 [0.2        1.44355676]
 [0.25666667 1.44326023]]",0,9.653
1,m,25,english,5,2,english,2024-02-07 14:21:25.665371,False,1,302,sounds\french\audio/french_70.wav,"[[  0.          24.17054112]
 [  0.1        -33.49200779]
 [  0.2        -94.66214176]
 [  0.25666667  65.90688931]]","[[0.         1.64784081]
 [0.1        0.51465366]
 [0.2        1.24573935]
 [0.25666667 1.78963367]]",1,2.18
