subj,sex,age,language,english,french,native_lang,date,practice,block,trial,stim,pitch,stretch,response,rt
8732112179,m,20,english,5,4,english,2024-02-01 10:37:13.481511,True,0,0,sounds\french\audio/french_212.wav,"[[  0.         -65.85125812]
 [  0.1          4.72891676]
 [  0.2         52.80654505]
 [  0.25666667  75.91927134]]","[[0.         0.99084671]
 [0.1        1.71951251]
 [0.2        1.56745001]
 [0.25666667 1.70119676]]",0,5.929
8732112179,m,20,english,5,4,english,2024-02-01 10:37:13.481511,True,0,1,sounds\french\audio/french_197.wav,"[[  0.          -6.69305154]
 [  0.1         23.33285596]
 [  0.2        -47.26714808]
 [  0.25666667 -64.80738279]]","[[0.         1.22063961]
 [0.1        0.20505699]
 [0.2        1.45150796]
 [0.25666667 0.00954455]]",0,2.278
8732112179,m,20,english,5,4,english,2024-02-01 10:37:13.481511,True,0,2,sounds\french\audio/french_913.wav,"[[  0.           5.31236155]
 [  0.1        -59.65057946]
 [  0.2         27.87230438]
 [  0.25666667 -58.49443874]]","[[0.         1.37558602]
 [0.1        0.3561265 ]
 [0.2        1.61604884]
 [0.25666667 0.97981321]]",1,0.832
8732112179,m,20,english,5,4,english,2024-02-01 10:37:13.481511,False,1,3,sounds\french\audio/french_689.wav,"[[  0.         -76.83712438]
 [  0.1         64.54047654]
 [  0.2         42.91011154]
 [  0.25666667 -94.73892594]]","[[0.         1.91162084]
 [0.1        0.68488006]
 [0.2        0.17067082]
 [0.25666667 1.05586556]]",1,0.609
8732112179,m,20,english,5,4,english,2024-02-01 10:37:13.481511,False,1,4,sounds\french\audio/french_986.wav,"[[  0.         -69.96795985]
 [  0.1        -65.30377544]
 [  0.2         27.38987225]
 [  0.25666667 -55.80740264]]","[[0.         1.93285955]
 [0.1        1.55838575]
 [0.2        0.12645153]
 [0.25666667 0.78072242]]",1,0.37
8732112179,m,20,english,5,4,english,2024-02-01 10:37:13.481511,False,1,5,sounds\french\audio/french_253.wav,"[[  0.          46.57034738]
 [  0.1         95.71705704]
 [  0.2        -25.2299753 ]
 [  0.25666667 -10.51050389]]","[[0.         1.71066879]
 [0.1        0.77231307]
 [0.2        0.81370988]
 [0.25666667 1.71668189]]",1,1.431
8732112179,m,20,english,5,4,english,2024-02-01 10:37:13.481511,False,1,6,sounds\french\audio/french_573.wav,"[[  0.         -82.60587544]
 [  0.1         24.10475325]
 [  0.2         12.83458345]
 [  0.25666667 -92.36985106]]","[[0.         1.7811252 ]
 [0.1        1.67511136]
 [0.2        1.07369657]
 [0.25666667 0.78659629]]",1,0.593
8732112179,m,20,english,5,4,english,2024-02-01 10:37:13.481511,False,1,7,sounds\french\audio/french_362.wav,"[[  0.          -5.18125688]
 [  0.1        -33.24228679]
 [  0.2         13.99395474]
 [  0.25666667 -44.70505318]]","[[0.         1.66521149]
 [0.1        1.63330091]
 [0.2        0.18995652]
 [0.25666667 0.66219279]]",0,1.195
8732112179,m,20,english,5,4,english,2024-02-01 10:37:13.481511,False,1,8,sounds\french\audio/french_765.wav,"[[  0.          37.74619949]
 [  0.1         35.79177818]
 [  0.2         -4.82792988]
 [  0.25666667 -29.99687949]]","[[0.         1.94846132]
 [0.1        0.74629838]
 [0.2        1.12672767]
 [0.25666667 0.50330326]]",1,0.431
8732112179,m,20,english,5,4,english,2024-02-01 10:37:13.481511,False,1,9,sounds\french\audio/french_550.wav,"[[  0.         -75.40042164]
 [  0.1          3.66999977]
 [  0.2        -80.45508953]
 [  0.25666667 -81.93938104]]","[[0.         1.22660115]
 [0.1        1.1302768 ]
 [0.2        0.71194131]
 [0.25666667 1.14992067]]",1,0.252
8732112179,m,20,english,5,4,english,2024-02-01 10:37:13.481511,False,1,10,sounds\french\audio/french_229.wav,"[[  0.          17.32899675]
 [  0.1        -73.09434366]
 [  0.2        -24.47190501]
 [  0.25666667  11.45282545]]","[[0.         0.73401758]
 [0.1        0.90990932]
 [0.2        0.8791544 ]
 [0.25666667 1.1872524 ]]",1,0.409
8732112179,m,20,english,5,4,english,2024-02-01 10:37:13.481511,False,1,11,sounds\french\audio/french_244.wav,"[[  0.          -1.19097064]
 [  0.1        -92.85229973]
 [  0.2        -96.93666457]
 [  0.25666667 -48.92774089]]","[[0.         0.99374935]
 [0.1        0.05831089]
 [0.2        1.01399938]
 [0.25666667 0.05507298]]",1,0.608
8732112179,m,20,english,5,4,english,2024-02-01 10:37:13.481511,False,1,12,sounds\french\audio/french_905.wav,"[[  0.          87.86620346]
 [  0.1         17.88859649]
 [  0.2         51.58456374]
 [  0.25666667 -98.76806622]]","[[0.         1.28585996]
 [0.1        0.57714405]
 [0.2        0.3219524 ]
 [0.25666667 1.69480445]]",1,0.834
8732112179,m,20,english,5,4,english,2024-02-01 10:37:13.481511,False,1,13,sounds\french\audio/french_71.wav,"[[  0.         -97.29707499]
 [  0.1         41.74238765]
 [  0.2        -91.89336592]
 [  0.25666667  53.06515209]]","[[0.         0.6163898 ]
 [0.1        1.06775198]
 [0.2        1.31906527]
 [0.25666667 0.58556407]]",1,1.458
8732112179,m,20,english,5,4,english,2024-02-01 10:37:13.481511,False,1,14,sounds\french\audio/french_943.wav,"[[  0.          27.08075724]
 [  0.1         11.89706259]
 [  0.2        -68.36208072]
 [  0.25666667  93.65942771]]","[[0.         1.18472309]
 [0.1        0.18520331]
 [0.2        0.55970606]
 [0.25666667 0.63383354]]",0,0.579
8732112179,m,20,english,5,4,english,2024-02-01 10:37:13.481511,False,1,15,sounds\french\audio/french_842.wav,"[[  0.          74.80920959]
 [  0.1        -40.95587484]
 [  0.2         40.36105872]
 [  0.25666667 -80.22764814]]","[[0.         0.40194032]
 [0.1        0.66729024]
 [0.2        0.3355789 ]
 [0.25666667 0.97335266]]",0,0.535
8732112179,m,20,english,5,4,english,2024-02-01 10:37:13.481511,False,1,16,sounds\french\audio/french_982.wav,"[[  0.         -37.50079515]
 [  0.1        -23.37923681]
 [  0.2        -55.8234839 ]
 [  0.25666667 -58.92111767]]","[[0.         0.32253899]
 [0.1        1.88868261]
 [0.2        0.59835015]
 [0.25666667 1.21615752]]",1,0.415
8732112179,m,20,english,5,4,english,2024-02-01 10:37:13.481511,False,1,17,sounds\french\audio/french_30.wav,"[[ 0.         76.62673318]
 [ 0.1        68.4553342 ]
 [ 0.2        55.51592845]
 [ 0.25666667 80.18190702]]","[[0.         0.98317975]
 [0.1        1.99903841]
 [0.2        1.19167606]
 [0.25666667 0.01328513]]",1,0.531
8732112179,m,20,english,5,4,english,2024-02-01 10:37:13.481511,False,1,18,sounds\french\audio/french_831.wav,"[[ 0.         63.54740934]
 [ 0.1        37.72830153]
 [ 0.2        -3.45882983]
 [ 0.25666667 83.86154552]]","[[0.         1.51153345]
 [0.1        0.09945987]
 [0.2        0.22010167]
 [0.25666667 0.71497999]]",1,1.162
8732112179,m,20,english,5,4,english,2024-02-01 10:37:13.481511,False,1,19,sounds\french\audio/french_692.wav,"[[  0.         -30.56073905]
 [  0.1         67.72997498]
 [  0.2         55.48980932]
 [  0.25666667  99.47423215]]","[[0.         0.00354931]
 [0.1        1.79271885]
 [0.2        1.35474436]
 [0.25666667 1.33636308]]",1,1.546
8732112179,m,20,english,5,4,english,2024-02-01 10:37:13.481511,False,1,20,sounds\french\audio/french_822.wav,"[[  0.          70.1141555 ]
 [  0.1        -32.80370271]
 [  0.2          9.36864383]
 [  0.25666667 -70.41865943]]","[[0.         0.03091404]
 [0.1        1.54599653]
 [0.2        0.45983016]
 [0.25666667 0.57036726]]",1,1.231
8732112179,m,20,english,5,4,english,2024-02-01 10:37:13.481511,False,1,21,sounds\french\audio/french_451.wav,"[[  0.           4.63188994]
 [  0.1         28.08955108]
 [  0.2         71.15157801]
 [  0.25666667 -28.31676071]]","[[0.         1.82787098]
 [0.1        0.29502826]
 [0.2        0.14883578]
 [0.25666667 0.64245631]]",1,1.458
8732112179,m,20,english,5,4,english,2024-02-01 10:37:13.481511,False,1,22,sounds\french\audio/french_806.wav,"[[  0.          97.26957313]
 [  0.1         79.44562669]
 [  0.2         79.77586719]
 [  0.25666667 -46.2684083 ]]","[[0.         1.48673004]
 [0.1        1.9967546 ]
 [0.2        0.9238106 ]
 [0.25666667 1.39755131]]",1,0.52
8732112179,m,20,english,5,4,english,2024-02-01 10:37:13.481511,False,1,23,sounds\french\audio/french_814.wav,"[[  0.          83.0056253 ]
 [  0.1        -71.4586846 ]
 [  0.2         12.63844789]
 [  0.25666667  12.39326704]]","[[0.         1.4499936 ]
 [0.1        0.77595229]
 [0.2        0.21302651]
 [0.25666667 0.16177964]]",0,0.634
8732112179,m,20,english,5,4,english,2024-02-01 10:37:13.481511,False,1,24,sounds\french\audio/french_735.wav,"[[  0.          16.11120967]
 [  0.1        -19.98897555]
 [  0.2         68.29513728]
 [  0.25666667  31.40150104]]","[[0.         0.14330821]
 [0.1        0.00237292]
 [0.2        1.1733856 ]
 [0.25666667 0.51599842]]",0,1.094
8732112179,m,20,english,5,4,english,2024-02-01 10:37:13.481511,False,1,25,sounds\french\audio/french_756.wav,"[[  0.          35.62001521]
 [  0.1         29.8199127 ]
 [  0.2         -2.36977437]
 [  0.25666667 -73.14220453]]","[[0.         0.86430693]
 [0.1        1.17673467]
 [0.2        1.63370718]
 [0.25666667 1.98740672]]",1,0.309
8732112179,m,20,english,5,4,english,2024-02-01 10:37:13.481511,False,1,26,sounds\french\audio/french_641.wav,"[[  0.         -92.89939655]
 [  0.1         80.14352585]
 [  0.2         74.03041043]
 [  0.25666667  18.97683281]]","[[0.         0.72916007]
 [0.1        1.01323436]
 [0.2        0.998205  ]
 [0.25666667 0.30086371]]",1,0.626
8732112179,m,20,english,5,4,english,2024-02-01 10:37:13.481511,False,1,27,sounds\french\audio/french_655.wav,"[[  0.           4.60078694]
 [  0.1         90.51966262]
 [  0.2        -72.80105835]
 [  0.25666667  32.46228297]]","[[0.         1.00375004]
 [0.1        1.23726083]
 [0.2        1.08672065]
 [0.25666667 0.32613357]]",1,0.488
8732112179,m,20,english,5,4,english,2024-02-01 10:37:13.481511,False,1,28,sounds\french\audio/french_458.wav,"[[  0.          13.7688173 ]
 [  0.1         19.53863665]
 [  0.2        -90.92797006]
 [  0.25666667  55.23452131]]","[[0.         1.1950835 ]
 [0.1        0.33129566]
 [0.2        0.65773392]
 [0.25666667 1.54778139]]",1,0.591
8732112179,m,20,english,5,4,english,2024-02-01 10:37:13.481511,False,1,29,sounds\french\audio/french_71.wav,"[[  0.         -97.29707499]
 [  0.1         41.74238765]
 [  0.2        -91.89336592]
 [  0.25666667  53.06515209]]","[[0.         0.6163898 ]
 [0.1        1.06775198]
 [0.2        1.31906527]
 [0.25666667 0.58556407]]",0,1.003
8732112179,m,20,english,5,4,english,2024-02-01 10:37:13.481511,False,1,30,sounds\french\audio/french_42.wav,"[[  0.         -62.21237173]
 [  0.1        -98.4992591 ]
 [  0.2         97.73183718]
 [  0.25666667 -56.73891221]]","[[0.         0.70589884]
 [0.1        0.40467669]
 [0.2        0.72488221]
 [0.25666667 0.44273829]]",1,0.651
8732112179,m,20,english,5,4,english,2024-02-01 10:37:13.481511,False,1,31,sounds\french\audio/french_41.wav,"[[  0.         -11.6612147 ]
 [  0.1         96.56624365]
 [  0.2         69.39294216]
 [  0.25666667 -30.30775932]]","[[0.         0.49328208]
 [0.1        1.84762861]
 [0.2        1.1434724 ]
 [0.25666667 1.13333186]]",1,0.754
8732112179,m,20,english,5,4,english,2024-02-01 10:37:13.481511,False,1,32,sounds\french\audio/french_570.wav,"[[  0.         -73.07970403]
 [  0.1        -29.06072458]
 [  0.2        -25.44054287]
 [  0.25666667  96.93308839]]","[[0.         1.97071113]
 [0.1        1.64236312]
 [0.2        0.27343611]
 [0.25666667 1.31029171]]",0,0.917
8732112179,m,20,english,5,4,english,2024-02-01 10:37:13.481511,False,1,33,sounds\french\audio/french_119.wav,"[[  0.           9.8100641 ]
 [  0.1         19.57169954]
 [  0.2         -1.41265712]
 [  0.25666667 -78.33165967]]","[[0.         0.76259974]
 [0.1        1.49190063]
 [0.2        0.43709034]
 [0.25666667 1.93463996]]",1,0.526
8732112179,m,20,english,5,4,english,2024-02-01 10:37:13.481511,False,1,34,sounds\french\audio/french_169.wav,"[[  0.          14.47590961]
 [  0.1         38.07545665]
 [  0.2        -50.40298695]
 [  0.25666667  25.61467991]]","[[0.         1.38784349]
 [0.1        1.28983767]
 [0.2        0.58936297]
 [0.25666667 0.49151359]]",1,0.916
8732112179,m,20,english,5,4,english,2024-02-01 10:37:13.481511,False,1,35,sounds\french\audio/french_325.wav,"[[  0.          88.71142286]
 [  0.1        -56.3206586 ]
 [  0.2         41.53206129]
 [  0.25666667 -39.91784783]]","[[0.         0.52996958]
 [0.1        1.24996424]
 [0.2        1.51417943]
 [0.25666667 1.21569626]]",1,0.563
8732112179,m,20,english,5,4,english,2024-02-01 10:37:13.481511,False,1,36,sounds\french\audio/french_466.wav,"[[  0.          73.58992944]
 [  0.1         63.97983353]
 [  0.2         36.10141743]
 [  0.25666667 -59.38235663]]","[[0.         1.41071494]
 [0.1        0.05598534]
 [0.2        1.99104708]
 [0.25666667 0.89990448]]",1,0.594
8732112179,m,20,english,5,4,english,2024-02-01 10:37:13.481511,False,1,37,sounds\french\audio/french_382.wav,"[[  0.         -28.76508335]
 [  0.1         37.36249056]
 [  0.2         12.02014155]
 [  0.25666667 -78.65251684]]","[[0.         1.75225743]
 [0.1        1.09069334]
 [0.2        1.36067751]
 [0.25666667 0.9131152 ]]",1,0.296
8732112179,m,20,english,5,4,english,2024-02-01 10:37:13.481511,False,1,38,sounds\french\audio/french_128.wav,"[[ 0.         -0.75176629]
 [ 0.1        -3.23197706]
 [ 0.2        64.47029617]
 [ 0.25666667 94.12909321]]","[[0.         0.45078366]
 [0.1        0.83766587]
 [0.2        1.36622775]
 [0.25666667 1.47043343]]",1,2.486
8732112179,m,20,english,5,4,english,2024-02-01 10:37:13.481511,False,1,39,sounds\french\audio/french_816.wav,"[[  0.         -39.39804621]
 [  0.1         14.23792488]
 [  0.2        -84.08825282]
 [  0.25666667 -46.46940665]]","[[0.         1.26291691]
 [0.1        1.60181117]
 [0.2        0.57012939]
 [0.25666667 1.06315664]]",1,0.794
8732112179,m,20,english,5,4,english,2024-02-01 10:37:13.481511,False,1,40,sounds\french\audio/french_815.wav,"[[  0.         -30.97778369]
 [  0.1        -10.3506413 ]
 [  0.2         61.86726268]
 [  0.25666667 -32.12586702]]","[[0.         1.45421986]
 [0.1        0.28044698]
 [0.2        1.88309962]
 [0.25666667 1.86356454]]",1,0.578
8732112179,m,20,english,5,4,english,2024-02-01 10:37:13.481511,False,1,41,sounds\french\audio/french_993.wav,"[[  0.           3.12847982]
 [  0.1        -78.95304083]
 [  0.2        -13.84245357]
 [  0.25666667  66.66979397]]","[[0.         1.75015027]
 [0.1        0.83743251]
 [0.2        0.53594991]
 [0.25666667 1.46895698]]",1,0.904
8732112179,m,20,english,5,4,english,2024-02-01 10:37:13.481511,False,1,42,sounds\french\audio/french_734.wav,"[[  0.          24.54171911]
 [  0.1         62.00217695]
 [  0.2        -55.547606  ]
 [  0.25666667  25.07561383]]","[[0.         0.95806039]
 [0.1        1.43009574]
 [0.2        0.47319646]
 [0.25666667 0.83118698]]",1,0.89
8732112179,m,20,english,5,4,english,2024-02-01 10:37:13.481511,False,1,43,sounds\french\audio/french_488.wav,"[[  0.          83.09023231]
 [  0.1         31.08155804]
 [  0.2         23.00603586]
 [  0.25666667 -14.42068905]]","[[0.         0.61404301]
 [0.1        1.79467821]
 [0.2        0.24163263]
 [0.25666667 1.80620701]]",1,0.358
8732112179,m,20,english,5,4,english,2024-02-01 10:37:13.481511,False,1,44,sounds\french\audio/french_883.wav,"[[  0.          79.42425648]
 [  0.1        -55.57656198]
 [  0.2        -42.3009185 ]
 [  0.25666667   9.11567641]]","[[0.         0.82987007]
 [0.1        1.06788753]
 [0.2        1.49414105]
 [0.25666667 1.30049822]]",1,0.739
8732112179,m,20,english,5,4,english,2024-02-01 10:37:13.481511,False,1,45,sounds\french\audio/french_481.wav,"[[  0.         -44.05926666]
 [  0.1         85.82418432]
 [  0.2         87.54559417]
 [  0.25666667  50.04191005]]","[[0.         1.24899263]
 [0.1        1.22078865]
 [0.2        0.10859618]
 [0.25666667 0.19634609]]",1,0.744
8732112179,m,20,english,5,4,english,2024-02-01 10:37:13.481511,False,1,46,sounds\french\audio/french_194.wav,"[[  0.          82.45325258]
 [  0.1         88.9094727 ]
 [  0.2        -44.07936747]
 [  0.25666667  97.80970813]]","[[0.         0.54112087]
 [0.1        0.47601939]
 [0.2        1.71905709]
 [0.25666667 1.16289195]]",0,0.441
8732112179,m,20,english,5,4,english,2024-02-01 10:37:13.481511,False,1,47,sounds\french\audio/french_466.wav,"[[  0.          73.58992944]
 [  0.1         63.97983353]
 [  0.2         36.10141743]
 [  0.25666667 -59.38235663]]","[[0.         1.41071494]
 [0.1        0.05598534]
 [0.2        1.99104708]
 [0.25666667 0.89990448]]",1,0.807
8732112179,m,20,english,5,4,english,2024-02-01 10:37:13.481511,False,1,48,sounds\french\audio/french_350.wav,"[[  0.         -94.89147327]
 [  0.1        -69.96874844]
 [  0.2        -41.05008416]
 [  0.25666667  27.21030297]]","[[0.         1.34276454]
 [0.1        1.56346818]
 [0.2        0.76037532]
 [0.25666667 1.08356683]]",0,0.503
8732112179,m,20,english,5,4,english,2024-02-01 10:37:13.481511,False,1,49,sounds\french\audio/french_131.wav,"[[  0.          55.95469812]
 [  0.1        -96.48122085]
 [  0.2        -45.26115565]
 [  0.25666667  97.10583427]]","[[0.         0.7326606 ]
 [0.1        0.77747938]
 [0.2        1.02132862]
 [0.25666667 0.34109041]]",1,1.223
8732112179,m,20,english,5,4,english,2024-02-01 10:37:13.481511,False,1,50,sounds\french\audio/french_313.wav,"[[  0.          50.15458506]
 [  0.1          2.46815661]
 [  0.2         44.14025365]
 [  0.25666667 -56.8276357 ]]","[[0.         0.55380102]
 [0.1        0.88494107]
 [0.2        0.65214702]
 [0.25666667 0.5616472 ]]",1,0.533
8732112179,m,20,english,5,4,english,2024-02-01 10:37:13.481511,False,1,51,sounds\french\audio/french_444.wav,"[[  0.          55.47353293]
 [  0.1         12.04434333]
 [  0.2         14.09264182]
 [  0.25666667 -80.20656615]]","[[0.         0.9328321 ]
 [0.1        1.46542582]
 [0.2        1.44584709]
 [0.25666667 1.50777595]]",1,0.21
8732112179,m,20,english,5,4,english,2024-02-01 10:37:13.481511,False,1,52,sounds\french\audio/french_762.wav,"[[  0.         -45.61990315]
 [  0.1        -38.16727298]
 [  0.2        -15.44626984]
 [  0.25666667 -31.31206952]]","[[0.         0.95776955]
 [0.1        0.16992331]
 [0.2        1.21301125]
 [0.25666667 0.49399223]]",1,1.106
8732112179,m,20,english,5,4,english,2024-02-01 10:37:13.481511,False,1,53,sounds\french\audio/french_652.wav,"[[  0.          19.60271983]
 [  0.1        -55.33376602]
 [  0.2         42.10956493]
 [  0.25666667 -47.80028189]]","[[0.         1.92708098]
 [0.1        1.28238944]
 [0.2        0.03244996]
 [0.25666667 1.59505934]]",1,1.453
8732112179,m,20,english,5,4,english,2024-02-01 10:37:13.481511,False,1,54,sounds\french\audio/french_451.wav,"[[  0.           4.63188994]
 [  0.1         28.08955108]
 [  0.2         71.15157801]
 [  0.25666667 -28.31676071]]","[[0.         1.82787098]
 [0.1        0.29502826]
 [0.2        0.14883578]
 [0.25666667 0.64245631]]",1,0.848
8732112179,m,20,english,5,4,english,2024-02-01 10:37:13.481511,False,1,55,sounds\french\audio/french_490.wav,"[[  0.         -77.54246231]
 [  0.1         -0.13066058]
 [  0.2        -90.37490593]
 [  0.25666667  62.21960288]]","[[0.         1.03559912]
 [0.1        0.94588293]
 [0.2        1.16449319]
 [0.25666667 1.46557017]]",1,0.593
8732112179,m,20,english,5,4,english,2024-02-01 10:37:13.481511,False,1,56,sounds\french\audio/french_894.wav,"[[  0.          34.15690998]
 [  0.1         66.60232679]
 [  0.2         79.95982278]
 [  0.25666667 -20.39269858]]","[[0.         0.96571794]
 [0.1        0.73360337]
 [0.2        1.43440198]
 [0.25666667 0.64269279]]",1,1.076
8732112179,m,20,english,5,4,english,2024-02-01 10:37:13.481511,False,1,57,sounds\french\audio/french_593.wav,"[[  0.          28.63563643]
 [  0.1        -92.54588956]
 [  0.2         54.29574758]
 [  0.25666667 -51.0775076 ]]","[[0.         0.95899308]
 [0.1        1.11632192]
 [0.2        0.28179711]
 [0.25666667 1.92785686]]",1,0.928
8732112179,m,20,english,5,4,english,2024-02-01 10:37:13.481511,False,1,58,sounds\french\audio/french_533.wav,"[[  0.          16.04004141]
 [  0.1         56.74964814]
 [  0.2         94.00728235]
 [  0.25666667 -15.92685786]]","[[0.         1.94214745]
 [0.1        0.96958639]
 [0.2        1.49563925]
 [0.25666667 1.75047909]]",1,0.359
8732112179,m,20,english,5,4,english,2024-02-01 10:37:13.481511,False,1,59,sounds\french\audio/french_342.wav,"[[  0.         -84.22246184]
 [  0.1        -88.55202377]
 [  0.2         12.74462997]
 [  0.25666667 -73.67155113]]","[[0.         0.80111929]
 [0.1        0.92289162]
 [0.2        0.96187701]
 [0.25666667 0.57764427]]",1,0.606
8732112179,m,20,english,5,4,english,2024-02-01 10:37:13.481511,False,1,60,sounds\french\audio/french_344.wav,"[[  0.          52.58849346]
 [  0.1        -22.3140036 ]
 [  0.2        -66.1637605 ]
 [  0.25666667 -23.8196401 ]]","[[0.         0.27482393]
 [0.1        0.23105003]
 [0.2        0.54206464]
 [0.25666667 1.18246439]]",1,1.302
8732112179,m,20,english,5,4,english,2024-02-01 10:37:13.481511,False,1,61,sounds\french\audio/french_980.wav,"[[  0.         -38.7537279 ]
 [  0.1         12.31277697]
 [  0.2          6.50697833]
 [  0.25666667 -34.92912415]]","[[0.         0.7061587 ]
 [0.1        1.27161124]
 [0.2        0.8921187 ]
 [0.25666667 1.97802528]]",1,0.365
8732112179,m,20,english,5,4,english,2024-02-01 10:37:13.481511,False,1,62,sounds\french\audio/french_499.wav,"[[  0.          24.28229917]
 [  0.1        -90.85236303]
 [  0.2        -60.29957953]
 [  0.25666667  91.79807534]]","[[0.         0.76159538]
 [0.1        0.50536641]
 [0.2        0.99158085]
 [0.25666667 1.05465089]]",1,0.481
8732112179,m,20,english,5,4,english,2024-02-01 10:37:13.481511,False,1,63,sounds\french\audio/french_940.wav,"[[  0.          60.64207397]
 [  0.1        -16.07257124]
 [  0.2        -38.93693506]
 [  0.25666667 -22.19838027]]","[[0.         1.38818271]
 [0.1        1.64047706]
 [0.2        1.31963125]
 [0.25666667 1.73227719]]",1,0.407
8732112179,m,20,english,5,4,english,2024-02-01 10:37:13.481511,False,1,64,sounds\french\audio/french_606.wav,"[[  0.         -20.93687271]
 [  0.1         59.55385743]
 [  0.2         61.58713619]
 [  0.25666667 -92.8987734 ]]","[[0.         1.9895698 ]
 [0.1        1.17728958]
 [0.2        1.48827242]
 [0.25666667 0.79910733]]",1,0.577
8732112179,m,20,english,5,4,english,2024-02-01 10:37:13.481511,False,1,65,sounds\french\audio/french_324.wav,"[[  0.          19.03085887]
 [  0.1         67.89064078]
 [  0.2        -77.83323733]
 [  0.25666667 -13.49414868]]","[[0.         0.73874118]
 [0.1        0.03678538]
 [0.2        0.54818629]
 [0.25666667 1.04853797]]",1,0.552
8732112179,m,20,english,5,4,english,2024-02-01 10:37:13.481511,False,1,66,sounds\french\audio/french_614.wav,"[[ 0.         13.55245103]
 [ 0.1        56.56377999]
 [ 0.2        18.28165036]
 [ 0.25666667 42.87971424]]","[[0.         0.76920018]
 [0.1        1.46632319]
 [0.2        0.77890927]
 [0.25666667 1.0073418 ]]",1,0.389
8732112179,m,20,english,5,4,english,2024-02-01 10:37:13.481511,False,1,67,sounds\french\audio/french_903.wav,"[[  0.         -17.08871031]
 [  0.1         52.87150714]
 [  0.2        -46.35078868]
 [  0.25666667  67.27089244]]","[[0.         0.50691937]
 [0.1        1.06902364]
 [0.2        1.77440634]
 [0.25666667 0.5573406 ]]",1,0.594
8732112179,m,20,english,5,4,english,2024-02-01 10:37:13.481511,False,1,68,sounds\french\audio/french_968.wav,"[[  0.          45.43845159]
 [  0.1         86.71618344]
 [  0.2        -29.06718199]
 [  0.25666667  11.394495  ]]","[[0.         0.89884875]
 [0.1        1.25950681]
 [0.2        0.29298434]
 [0.25666667 1.98021593]]",1,0.556
8732112179,m,20,english,5,4,english,2024-02-01 10:37:13.481511,False,1,69,sounds\french\audio/french_390.wav,"[[  0.          13.63716389]
 [  0.1        -61.62928039]
 [  0.2         89.99724903]
 [  0.25666667 -99.60285567]]","[[0.         0.73987932]
 [0.1        1.19791102]
 [0.2        0.30500022]
 [0.25666667 1.08417724]]",1,0.826
8732112179,m,20,english,5,4,english,2024-02-01 10:37:13.481511,False,1,70,sounds\french\audio/french_981.wav,"[[  0.          -1.54223553]
 [  0.1        -78.86121057]
 [  0.2        -33.48141771]
 [  0.25666667 -47.78773965]]","[[0.         0.66538198]
 [0.1        1.42802268]
 [0.2        0.92303184]
 [0.25666667 0.82545089]]",1,0.551
8732112179,m,20,english,5,4,english,2024-02-01 10:37:13.481511,False,1,71,sounds\french\audio/french_89.wav,"[[  0.         -79.59355323]
 [  0.1        -86.9945706 ]
 [  0.2         81.38410409]
 [  0.25666667 -11.31628481]]","[[0.         1.69180454]
 [0.1        1.08047967]
 [0.2        1.92177075]
 [0.25666667 1.93759104]]",1,0.658
8732112179,m,20,english,5,4,english,2024-02-01 10:37:13.481511,False,1,72,sounds\french\audio/french_703.wav,"[[  0.          84.48201003]
 [  0.1        -13.2968245 ]
 [  0.2        -49.01598543]
 [  0.25666667 -63.56156529]]","[[0.         0.82331622]
 [0.1        1.50639414]
 [0.2        0.83966854]
 [0.25666667 1.27848793]]",1,0.388
8732112179,m,20,english,5,4,english,2024-02-01 10:37:13.481511,False,1,73,sounds\french\audio/french_736.wav,"[[  0.         -58.2057669 ]
 [  0.1         67.4754916 ]
 [  0.2         92.18157431]
 [  0.25666667  88.23593553]]","[[0.         1.39182764]
 [0.1        0.85405242]
 [0.2        1.06665121]
 [0.25666667 0.29553719]]",1,1.334
8732112179,m,20,english,5,4,english,2024-02-01 10:37:13.481511,False,1,74,sounds\french\audio/french_936.wav,"[[  0.         -20.69739044]
 [  0.1         11.25896305]
 [  0.2        -73.43688333]
 [  0.25666667  14.6038409 ]]","[[0.         1.81100612]
 [0.1        0.34150345]
 [0.2        0.78598688]
 [0.25666667 0.34536881]]",1,0.546
8732112179,m,20,english,5,4,english,2024-02-01 10:37:13.481511,False,1,75,sounds\french\audio/french_437.wav,"[[  0.          59.70067771]
 [  0.1         78.61233767]
 [  0.2         76.18154157]
 [  0.25666667 -54.28538078]]","[[0.         0.22659206]
 [0.1        0.85429053]
 [0.2        1.36297282]
 [0.25666667 1.46039745]]",1,1.551
8732112179,m,20,english,5,4,english,2024-02-01 10:37:13.481511,False,1,76,sounds\french\audio/french_558.wav,"[[  0.         -24.56305845]
 [  0.1         18.75830467]
 [  0.2         -0.86444976]
 [  0.25666667 -67.61408917]]","[[0.         0.85912435]
 [0.1        1.74056956]
 [0.2        0.35762899]
 [0.25666667 1.29508782]]",1,0.528
8732112179,m,20,english,5,4,english,2024-02-01 10:37:13.481511,False,1,77,sounds\french\audio/french_652.wav,"[[  0.          19.60271983]
 [  0.1        -55.33376602]
 [  0.2         42.10956493]
 [  0.25666667 -47.80028189]]","[[0.         1.92708098]
 [0.1        1.28238944]
 [0.2        0.03244996]
 [0.25666667 1.59505934]]",0,1.257
8732112179,m,20,english,5,4,english,2024-02-01 10:37:13.481511,False,1,78,sounds\french\audio/french_390.wav,"[[  0.          13.63716389]
 [  0.1        -61.62928039]
 [  0.2         89.99724903]
 [  0.25666667 -99.60285567]]","[[0.         0.73987932]
 [0.1        1.19791102]
 [0.2        0.30500022]
 [0.25666667 1.08417724]]",0,0.453
8732112179,m,20,english,5,4,english,2024-02-01 10:37:13.481511,False,1,79,sounds\french\audio/french_48.wav,"[[  0.          39.79198264]
 [  0.1         66.47948286]
 [  0.2         57.39946228]
 [  0.25666667 -39.27972342]]","[[0.         1.78905862]
 [0.1        1.41226809]
 [0.2        1.54721415]
 [0.25666667 0.33574946]]",0,0.567
8732112179,m,20,english,5,4,english,2024-02-01 10:37:13.481511,False,1,80,sounds\french\audio/french_120.wav,"[[  0.          59.29212404]
 [  0.1          4.80411823]
 [  0.2         12.26509955]
 [  0.25666667 -79.44354783]]","[[0.         1.04724114]
 [0.1        0.97380182]
 [0.2        0.22521264]
 [0.25666667 0.8027629 ]]",1,0.514
8732112179,m,20,english,5,4,english,2024-02-01 10:37:13.481511,False,1,81,sounds\french\audio/french_182.wav,"[[  0.          -1.23949724]
 [  0.1         97.8493481 ]
 [  0.2        -69.4259963 ]
 [  0.25666667  68.50854418]]","[[0.         0.32203143]
 [0.1        0.76081704]
 [0.2        1.30995173]
 [0.25666667 1.49369116]]",1,0.601
8732112179,m,20,english,5,4,english,2024-02-01 10:37:13.481511,False,1,82,sounds\french\audio/french_878.wav,"[[  0.         -11.41587957]
 [  0.1        -52.86145621]
 [  0.2         10.56905128]
 [  0.25666667  87.23323491]]","[[0.         1.5495917 ]
 [0.1        0.92573348]
 [0.2        0.71371417]
 [0.25666667 0.72785239]]",1,0.713
8732112179,m,20,english,5,4,english,2024-02-01 10:37:13.481511,False,1,83,sounds\french\audio/french_987.wav,"[[ 0.         29.59235099]
 [ 0.1        34.94187385]
 [ 0.2        50.69614072]
 [ 0.25666667 30.08512425]]","[[0.         0.62183529]
 [0.1        0.21370909]
 [0.2        0.33639435]
 [0.25666667 1.23768731]]",0,0.781
8732112179,m,20,english,5,4,english,2024-02-01 10:37:13.481511,False,1,84,sounds\french\audio/french_410.wav,"[[  0.         -57.70995681]
 [  0.1         48.77026686]
 [  0.2        -48.38648813]
 [  0.25666667  53.40375253]]","[[0.         0.42078672]
 [0.1        1.91428116]
 [0.2        0.69257086]
 [0.25666667 1.23009328]]",1,0.311
8732112179,m,20,english,5,4,english,2024-02-01 10:37:13.481511,False,1,85,sounds\french\audio/french_523.wav,"[[  0.         -20.54401218]
 [  0.1        -64.61887171]
 [  0.2        -56.67652055]
 [  0.25666667 -29.90055738]]","[[0.         1.01178449]
 [0.1        1.79283511]
 [0.2        0.92711934]
 [0.25666667 1.0186138 ]]",0,1.022
8732112179,m,20,english,5,4,english,2024-02-01 10:37:13.481511,False,1,86,sounds\french\audio/french_690.wav,"[[  0.          79.01312907]
 [  0.1        -50.63616883]
 [  0.2         19.49439666]
 [  0.25666667 -20.64233715]]","[[0.         1.49686193]
 [0.1        0.92741038]
 [0.2        0.30770403]
 [0.25666667 0.53460579]]",1,1.136
8732112179,m,20,english,5,4,english,2024-02-01 10:37:13.481511,False,1,87,sounds\french\audio/french_134.wav,"[[  0.         -65.58132827]
 [  0.1        -89.82992505]
 [  0.2          9.99695038]
 [  0.25666667  24.50908123]]","[[0.         0.68669704]
 [0.1        1.50131287]
 [0.2        0.69598371]
 [0.25666667 1.57047358]]",1,0.94
8732112179,m,20,english,5,4,english,2024-02-01 10:37:13.481511,False,1,88,sounds\french\audio/french_565.wav,"[[  0.          50.78822436]
 [  0.1        -75.93967217]
 [  0.2        -58.95969425]
 [  0.25666667 -53.32673619]]","[[0.         1.00864226]
 [0.1        1.52231663]
 [0.2        0.24874103]
 [0.25666667 1.47271882]]",1,0.474
8732112179,m,20,english,5,4,english,2024-02-01 10:37:13.481511,False,1,89,sounds\french\audio/french_970.wav,"[[  0.          45.66425393]
 [  0.1        -82.79761983]
 [  0.2         16.19264407]
 [  0.25666667  56.04070076]]","[[0.         0.15526341]
 [0.1        0.70533305]
 [0.2        1.08595816]
 [0.25666667 0.89955958]]",0,0.686
8732112179,m,20,english,5,4,english,2024-02-01 10:37:13.481511,False,1,90,sounds\french\audio/french_772.wav,"[[  0.          13.96800705]
 [  0.1          5.87945336]
 [  0.2         15.35769187]
 [  0.25666667 -12.22278281]]","[[0.         0.2991113 ]
 [0.1        0.00189684]
 [0.2        0.99190584]
 [0.25666667 1.49955539]]",1,1.399
8732112179,m,20,english,5,4,english,2024-02-01 10:37:13.481511,False,1,91,sounds\french\audio/french_449.wav,"[[  0.          49.95404734]
 [  0.1        -42.73933853]
 [  0.2         16.44287486]
 [  0.25666667 -12.34539139]]","[[0.         0.88379096]
 [0.1        1.13878319]
 [0.2        0.43325684]
 [0.25666667 0.01727343]]",0,1.291
8732112179,m,20,english,5,4,english,2024-02-01 10:37:13.481511,False,1,92,sounds\french\audio/french_551.wav,"[[  0.         -87.08357851]
 [  0.1         71.56090061]
 [  0.2        -46.55712742]
 [  0.25666667 -57.93002391]]","[[0.         1.2328931 ]
 [0.1        1.28136219]
 [0.2        0.3781059 ]
 [0.25666667 1.42095582]]",1,0.459
8732112179,m,20,english,5,4,english,2024-02-01 10:37:13.481511,False,1,93,sounds\french\audio/french_527.wav,"[[  0.          97.81644093]
 [  0.1         68.05004199]
 [  0.2        -44.05597581]
 [  0.25666667  40.91945638]]","[[0.         0.09503525]
 [0.1        0.33267387]
 [0.2        1.51053464]
 [0.25666667 1.37458991]]",1,1.12
8732112179,m,20,english,5,4,english,2024-02-01 10:37:13.481511,False,1,94,sounds\french\audio/french_730.wav,"[[  0.          45.92676741]
 [  0.1        -44.36449205]
 [  0.2         -0.92451291]
 [  0.25666667  30.80646356]]","[[0.         0.18014666]
 [0.1        1.39371349]
 [0.2        1.11032992]
 [0.25666667 1.142585  ]]",1,0.482
8732112179,m,20,english,5,4,english,2024-02-01 10:37:13.481511,False,1,95,sounds\french\audio/french_227.wav,"[[  0.           0.51486219]
 [  0.1         -7.58300973]
 [  0.2         -1.58102923]
 [  0.25666667 -53.33162074]]","[[0.         1.24333394]
 [0.1        1.87169026]
 [0.2        1.73620524]
 [0.25666667 0.85172824]]",0,0.977
8732112179,m,20,english,5,4,english,2024-02-01 10:37:13.481511,False,1,96,sounds\french\audio/french_486.wav,"[[  0.         -65.13732965]
 [  0.1        -93.57114331]
 [  0.2        -51.69797787]
 [  0.25666667  -3.30938414]]","[[0.         0.7755652 ]
 [0.1        0.9577819 ]
 [0.2        0.68553835]
 [0.25666667 0.55056833]]",1,0.441
8732112179,m,20,english,5,4,english,2024-02-01 10:37:13.481511,False,1,97,sounds\french\audio/french_646.wav,"[[  0.          98.47808426]
 [  0.1         98.7741611 ]
 [  0.2        -51.76092723]
 [  0.25666667  53.55118827]]","[[0.         1.66300853]
 [0.1        0.58876545]
 [0.2        0.47940067]
 [0.25666667 0.48942216]]",1,1.144
8732112179,m,20,english,5,4,english,2024-02-01 10:37:13.481511,False,1,98,sounds\french\audio/french_77.wav,"[[  0.         -38.97456477]
 [  0.1        -27.77573133]
 [  0.2         62.31685549]
 [  0.25666667  13.7751853 ]]","[[0.         1.51906971]
 [0.1        1.43123518]
 [0.2        1.04030098]
 [0.25666667 1.45792424]]",1,1.005
8732112179,m,20,english,5,4,english,2024-02-01 10:37:13.481511,False,1,99,sounds\french\audio/french_825.wav,"[[ 0.         84.83698811]
 [ 0.1        58.10246948]
 [ 0.2        95.28795352]
 [ 0.25666667 40.96055212]]","[[0.         1.37161619]
 [0.1        1.88160769]
 [0.2        0.7228962 ]
 [0.25666667 1.18109596]]",1,0.863
8732112179,m,20,english,5,4,english,2024-02-01 10:37:13.481511,False,1,100,sounds\french\audio/french_124.wav,"[[  0.         -40.67960973]
 [  0.1          1.84202377]
 [  0.2         31.56915939]
 [  0.25666667   9.71654757]]","[[0.         1.69845324]
 [0.1        0.10570995]
 [0.2        0.86198312]
 [0.25666667 1.20479065]]",1,0.795
8732112179,m,20,english,5,4,english,2024-02-01 10:37:13.481511,False,1,101,sounds\french\audio/french_310.wav,"[[  0.         -83.78338178]
 [  0.1        -13.73891655]
 [  0.2         58.07821313]
 [  0.25666667  26.26954934]]","[[0.         0.11877442]
 [0.1        1.32851017]
 [0.2        0.76082745]
 [0.25666667 1.37378881]]",1,0.587
8732112179,m,20,english,5,4,english,2024-02-01 10:37:13.481511,False,1,102,sounds\french\audio/french_706.wav,"[[  0.          53.91986852]
 [  0.1        -86.79287422]
 [  0.2        -18.13553248]
 [  0.25666667 -98.41078943]]","[[0.         0.595313  ]
 [0.1        0.19033695]
 [0.2        1.2444166 ]
 [0.25666667 0.51551453]]",1,0.852
8732112179,m,20,english,5,4,english,2024-02-01 10:37:13.481511,False,1,103,sounds\french\audio/french_839.wav,"[[ 0.         11.03740457]
 [ 0.1        23.46119987]
 [ 0.2        -0.31614798]
 [ 0.25666667 62.63183259]]","[[0.         0.76467652]
 [0.1        0.76268055]
 [0.2        1.64444165]
 [0.25666667 0.69482811]]",1,0.577
8732112179,m,20,english,5,4,english,2024-02-01 10:37:13.481511,False,1,104,sounds\french\audio/french_17.wav,"[[ 0.         61.86852427]
 [ 0.1        14.81642836]
 [ 0.2        -8.48865215]
 [ 0.25666667 71.68336874]]","[[0.         1.05769551]
 [0.1        0.81667418]
 [0.2        0.51249479]
 [0.25666667 0.29939213]]",1,0.44
8732112179,m,20,english,5,4,english,2024-02-01 10:37:13.481511,False,1,105,sounds\french\audio/french_863.wav,"[[ 0.         30.03534105]
 [ 0.1        70.10019967]
 [ 0.2        38.31171189]
 [ 0.25666667 76.0150774 ]]","[[0.         0.49205925]
 [0.1        1.5612805 ]
 [0.2        1.70745742]
 [0.25666667 0.79908683]]",1,0.483
8732112179,m,20,english,5,4,english,2024-02-01 10:37:13.481511,False,1,106,sounds\french\audio/french_798.wav,"[[  0.          80.80013175]
 [  0.1          8.18850232]
 [  0.2        -10.54144101]
 [  0.25666667  26.86908184]]","[[0.         1.56222047]
 [0.1        1.67765441]
 [0.2        1.93747014]
 [0.25666667 1.76378238]]",1,0.489
8732112179,m,20,english,5,4,english,2024-02-01 10:37:13.481511,False,1,107,sounds\french\audio/french_239.wav,"[[  0.          28.79978772]
 [  0.1        -73.21999651]
 [  0.2        -92.33353735]
 [  0.25666667 -92.59521946]]","[[0.         0.08316766]
 [0.1        0.38167469]
 [0.2        1.82525895]
 [0.25666667 1.04737586]]",0,0.458
8732112179,m,20,english,5,4,english,2024-02-01 10:37:13.481511,False,1,108,sounds\french\audio/french_695.wav,"[[ 0.00000000e+00 -5.76665866e+01]
 [ 1.00000000e-01  6.09893846e+00]
 [ 2.00000000e-01 -8.08229011e+01]
 [ 2.56666667e-01  7.37669519e-03]]","[[0.         1.09792482]
 [0.1        1.46549104]
 [0.2        1.66085764]
 [0.25666667 1.19228029]]",0,0.517
8732112179,m,20,english,5,4,english,2024-02-01 10:37:13.481511,False,1,109,sounds\french\audio/french_625.wav,"[[ 0.         79.19979266]
 [ 0.1        14.54258285]
 [ 0.2        86.07148008]
 [ 0.25666667 45.85831434]]","[[0.         0.47634137]
 [0.1        0.73497705]
 [0.2        0.05854955]
 [0.25666667 0.79046633]]",0,0.441
8732112179,m,20,english,5,4,english,2024-02-01 10:37:13.481511,False,1,110,sounds\french\audio/french_874.wav,"[[  0.         -35.96007818]
 [  0.1         93.27546243]
 [  0.2        -82.54110259]
 [  0.25666667   1.86870901]]","[[0.         0.94126631]
 [0.1        1.47253108]
 [0.2        1.71868685]
 [0.25666667 0.93280664]]",0,0.728
8732112179,m,20,english,5,4,english,2024-02-01 10:37:13.481511,False,1,111,sounds\french\audio/french_810.wav,"[[  0.          76.35600219]
 [  0.1         33.05643104]
 [  0.2         14.69103946]
 [  0.25666667 -16.26362119]]","[[0.         0.51042634]
 [0.1        0.40354819]
 [0.2        0.8135704 ]
 [0.25666667 0.38644961]]",1,1.315
8732112179,m,20,english,5,4,english,2024-02-01 10:37:13.481511,False,1,112,sounds\french\audio/french_323.wav,"[[ 0.         32.98542524]
 [ 0.1        23.31860642]
 [ 0.2        85.24347173]
 [ 0.25666667 17.19160257]]","[[0.         1.64001987]
 [0.1        0.049539  ]
 [0.2        1.32093022]
 [0.25666667 0.33485384]]",1,0.568
8732112179,m,20,english,5,4,english,2024-02-01 10:37:13.481511,False,1,113,sounds\french\audio/french_871.wav,"[[  0.          -4.85456223]
 [  0.1         78.38715758]
 [  0.2        -65.12117647]
 [  0.25666667  96.09900544]]","[[0.         1.97775754]
 [0.1        1.19373072]
 [0.2        1.5578529 ]
 [0.25666667 1.61262149]]",1,0.837
8732112179,m,20,english,5,4,english,2024-02-01 10:37:13.481511,False,1,114,sounds\french\audio/french_343.wav,"[[  0.         -21.71261116]
 [  0.1         63.21036052]
 [  0.2        -29.86802649]
 [  0.25666667  57.96835755]]","[[0.         1.74552957]
 [0.1        1.86769095]
 [0.2        0.55355845]
 [0.25666667 1.24725328]]",0,1.461
8732112179,m,20,english,5,4,english,2024-02-01 10:37:13.481511,False,1,115,sounds\french\audio/french_535.wav,"[[  0.         -81.47221285]
 [  0.1         42.68543716]
 [  0.2        -73.81682794]
 [  0.25666667 -85.27887702]]","[[0.         1.61446576]
 [0.1        1.13976105]
 [0.2        0.22032829]
 [0.25666667 0.61620659]]",1,1.459
8732112179,m,20,english,5,4,english,2024-02-01 10:37:13.481511,False,1,116,sounds\french\audio/french_477.wav,"[[  0.         -42.83355645]
 [  0.1        -62.82113547]
 [  0.2         87.24330329]
 [  0.25666667  51.53483355]]","[[0.         0.5966768 ]
 [0.1        0.86071515]
 [0.2        1.68377915]
 [0.25666667 1.05396705]]",1,0.68
8732112179,m,20,english,5,4,english,2024-02-01 10:37:13.481511,False,1,117,sounds\french\audio/french_179.wav,"[[  0.         -38.66887761]
 [  0.1        -45.74367449]
 [  0.2         41.91599006]
 [  0.25666667  36.18860402]]","[[0.         0.36967864]
 [0.1        1.41588785]
 [0.2        1.38004937]
 [0.25666667 1.10239155]]",1,1.882
8732112179,m,20,english,5,4,english,2024-02-01 10:37:13.481511,False,1,118,sounds\french\audio/french_36.wav,"[[  0.          97.14143801]
 [  0.1         96.24936774]
 [  0.2         69.49703902]
 [  0.25666667 -77.37121036]]","[[0.         0.84704198]
 [0.1        1.47086473]
 [0.2        1.29858496]
 [0.25666667 1.24445776]]",1,0.374
8732112179,m,20,english,5,4,english,2024-02-01 10:37:13.481511,False,1,119,sounds\french\audio/french_910.wav,"[[  0.         -48.65293901]
 [  0.1         -4.89021115]
 [  0.2        -57.2651588 ]
 [  0.25666667 -57.53771148]]","[[0.         0.34246772]
 [0.1        1.03510625]
 [0.2        1.59317518]
 [0.25666667 0.91667414]]",1,1.153
8732112179,m,20,english,5,4,english,2024-02-01 10:37:13.481511,False,1,120,sounds\french\audio/french_744.wav,"[[  0.          20.71284991]
 [  0.1         43.41893938]
 [  0.2         65.94530402]
 [  0.25666667 -59.234779  ]]","[[0.         1.22360564]
 [0.1        1.58460028]
 [0.2        0.38406236]
 [0.25666667 0.69273959]]",1,2.404
8732112179,m,20,english,5,4,english,2024-02-01 10:37:13.481511,False,1,121,sounds\french\audio/french_727.wav,"[[  0.         -15.29396541]
 [  0.1        -26.29552155]
 [  0.2         79.97121571]
 [  0.25666667  55.89998316]]","[[0.         0.40840987]
 [0.1        0.3000398 ]
 [0.2        1.00640838]
 [0.25666667 1.06507384]]",0,0.941
8732112179,m,20,english,5,4,english,2024-02-01 10:37:13.481511,False,1,122,sounds\french\audio/french_617.wav,"[[  0.         -34.18466024]
 [  0.1         35.41565559]
 [  0.2         59.04414741]
 [  0.25666667  80.0519445 ]]","[[0.         0.10021852]
 [0.1        0.72859392]
 [0.2        0.77782194]
 [0.25666667 1.13599019]]",1,1.391
8732112179,m,20,english,5,4,english,2024-02-01 10:37:13.481511,False,1,123,sounds\french\audio/french_857.wav,"[[  0.          40.93487779]
 [  0.1        -17.75235864]
 [  0.2         39.31370365]
 [  0.25666667 -10.04228362]]","[[0.         1.95936394]
 [0.1        1.43648621]
 [0.2        1.12127335]
 [0.25666667 0.40363044]]",1,0.738
8732112179,m,20,english,5,4,english,2024-02-01 10:37:13.481511,False,1,124,sounds\french\audio/french_537.wav,"[[ 0.         24.94182708]
 [ 0.1        44.89034985]
 [ 0.2        79.4977598 ]
 [ 0.25666667 43.46988515]]","[[0.         0.83905816]
 [0.1        0.4078644 ]
 [0.2        1.66123527]
 [0.25666667 0.90238518]]",1,0.974
8732112179,m,20,english,5,4,english,2024-02-01 10:37:13.481511,False,1,125,sounds\french\audio/french_652.wav,"[[  0.          19.60271983]
 [  0.1        -55.33376602]
 [  0.2         42.10956493]
 [  0.25666667 -47.80028189]]","[[0.         1.92708098]
 [0.1        1.28238944]
 [0.2        0.03244996]
 [0.25666667 1.59505934]]",0,0.302
8732112179,m,20,english,5,4,english,2024-02-01 10:37:13.481511,False,1,126,sounds\french\audio/french_613.wav,"[[  0.         -39.45599103]
 [  0.1         37.73715393]
 [  0.2        -28.02237212]
 [  0.25666667 -24.74266242]]","[[0.         0.33894647]
 [0.1        0.28387009]
 [0.2        1.91952712]
 [0.25666667 0.2340562 ]]",1,0.622
8732112179,m,20,english,5,4,english,2024-02-01 10:37:13.481511,False,1,127,sounds\french\audio/french_723.wav,"[[  0.         -46.61221312]
 [  0.1        -11.45492587]
 [  0.2         -2.50722763]
 [  0.25666667 -31.56133571]]","[[0.         0.88342187]
 [0.1        0.45371046]
 [0.2        1.8565603 ]
 [0.25666667 0.74236501]]",0,0.696
8732112179,m,20,english,5,4,english,2024-02-01 10:37:13.481511,False,1,128,sounds\french\audio/french_401.wav,"[[  0.         -70.28001137]
 [  0.1        -33.39817342]
 [  0.2         31.30905025]
 [  0.25666667  85.09993336]]","[[0.         0.55430578]
 [0.1        1.52055291]
 [0.2        1.05517946]
 [0.25666667 0.68126919]]",1,0.981
8732112179,m,20,english,5,4,english,2024-02-01 10:37:13.481511,False,1,129,sounds\french\audio/french_478.wav,"[[  0.          83.43470999]
 [  0.1         -2.90020724]
 [  0.2          3.04122674]
 [  0.25666667 -16.94968741]]","[[0.         1.59134243]
 [0.1        1.87737404]
 [0.2        1.09323353]
 [0.25666667 0.48225636]]",1,0.49
8732112179,m,20,english,5,4,english,2024-02-01 10:37:13.481511,False,1,130,sounds\french\audio/french_388.wav,"[[  0.         -56.99851318]
 [  0.1        -28.42117093]
 [  0.2        -17.37440647]
 [  0.25666667  19.5608334 ]]","[[0.         0.76802497]
 [0.1        1.07190306]
 [0.2        0.91030877]
 [0.25666667 0.1576099 ]]",1,1.364
8732112179,m,20,english,5,4,english,2024-02-01 10:37:13.481511,False,1,131,sounds\french\audio/french_511.wav,"[[  0.         -19.9871771 ]
 [  0.1        -61.98813266]
 [  0.2        -51.99144191]
 [  0.25666667  26.5419494 ]]","[[0.         1.33271467]
 [0.1        1.54343533]
 [0.2        1.11888865]
 [0.25666667 1.56196296]]",1,1.013
8732112179,m,20,english,5,4,english,2024-02-01 10:37:13.481511,False,1,132,sounds\french\audio/french_50.wav,"[[  0.         -85.65055263]
 [  0.1         -8.41774185]
 [  0.2         31.4658541 ]
 [  0.25666667  98.77299977]]","[[0.         1.56155391]
 [0.1        0.5849625 ]
 [0.2        1.04346227]
 [0.25666667 0.72937699]]",1,0.836
8732112179,m,20,english,5,4,english,2024-02-01 10:37:13.481511,False,1,133,sounds\french\audio/french_576.wav,"[[  0.         -77.18723008]
 [  0.1         32.49939157]
 [  0.2        -11.29964886]
 [  0.25666667  24.65334735]]","[[0.         1.93193878]
 [0.1        0.06461953]
 [0.2        0.24702868]
 [0.25666667 1.68209329]]",0,0.572
8732112179,m,20,english,5,4,english,2024-02-01 10:37:13.481511,False,1,134,sounds\french\audio/french_79.wav,"[[  0.         -17.81057473]
 [  0.1        -79.49788956]
 [  0.2         21.64031361]
 [  0.25666667   9.8962074 ]]","[[0.         1.07647634]
 [0.1        0.19758175]
 [0.2        1.4893643 ]
 [0.25666667 1.60982877]]",1,0.49
8732112179,m,20,english,5,4,english,2024-02-01 10:37:13.481511,False,1,135,sounds\french\audio/french_131.wav,"[[  0.          55.95469812]
 [  0.1        -96.48122085]
 [  0.2        -45.26115565]
 [  0.25666667  97.10583427]]","[[0.         0.7326606 ]
 [0.1        0.77747938]
 [0.2        1.02132862]
 [0.25666667 0.34109041]]",1,1.607
8732112179,m,20,english,5,4,english,2024-02-01 10:37:13.481511,False,1,136,sounds\french\audio/french_822.wav,"[[  0.          70.1141555 ]
 [  0.1        -32.80370271]
 [  0.2          9.36864383]
 [  0.25666667 -70.41865943]]","[[0.         0.03091404]
 [0.1        1.54599653]
 [0.2        0.45983016]
 [0.25666667 0.57036726]]",1,1.877
8732112179,m,20,english,5,4,english,2024-02-01 10:37:13.481511,False,1,137,sounds\french\audio/french_632.wav,"[[  0.         -75.14768165]
 [  0.1         -2.61560916]
 [  0.2        -59.30318173]
 [  0.25666667 -18.46762736]]","[[0.         1.61991752]
 [0.1        1.85762338]
 [0.2        1.4379908 ]
 [0.25666667 1.77571767]]",1,1.956
8732112179,m,20,english,5,4,english,2024-02-01 10:37:13.481511,False,1,138,sounds\french\audio/french_336.wav,"[[  0.         -59.08437243]
 [  0.1        -11.33502928]
 [  0.2         -8.85944942]
 [  0.25666667  -2.33471857]]","[[0.         0.65572155]
 [0.1        1.68249373]
 [0.2        0.52457197]
 [0.25666667 1.1312199 ]]",0,0.892
8732112179,m,20,english,5,4,english,2024-02-01 10:37:13.481511,False,1,139,sounds\french\audio/french_673.wav,"[[ 0.         97.1433432 ]
 [ 0.1         1.59516127]
 [ 0.2        27.02161491]
 [ 0.25666667 62.92522021]]","[[0.         1.2603    ]
 [0.1        0.42137615]
 [0.2        0.87652171]
 [0.25666667 1.1230089 ]]",1,1.09
8732112179,m,20,english,5,4,english,2024-02-01 10:37:13.481511,False,1,140,sounds\french\audio/french_870.wav,"[[ 0.         93.84124937]
 [ 0.1        28.95893835]
 [ 0.2        47.67512023]
 [ 0.25666667 -4.48390189]]","[[0.         1.21813626]
 [0.1        0.388995  ]
 [0.2        1.25544279]
 [0.25666667 0.09184868]]",0,0.504
8732112179,m,20,english,5,4,english,2024-02-01 10:37:13.481511,False,1,141,sounds\french\audio/french_753.wav,"[[  0.         -59.12708259]
 [  0.1        -84.15149344]
 [  0.2        -30.31197396]
 [  0.25666667 -23.11550189]]","[[0.         1.15236918]
 [0.1        1.24278656]
 [0.2        0.56738218]
 [0.25666667 0.65045955]]",1,0.593
8732112179,m,20,english,5,4,english,2024-02-01 10:37:13.481511,False,1,142,sounds\french\audio/french_707.wav,"[[  0.          77.25708539]
 [  0.1        -54.8008957 ]
 [  0.2        -15.62691875]
 [  0.25666667   8.64437522]]","[[0.         0.72667473]
 [0.1        1.98017833]
 [0.2        0.70006776]
 [0.25666667 1.11828401]]",0,0.591
8732112179,m,20,english,5,4,english,2024-02-01 10:37:13.481511,False,1,143,sounds\french\audio/french_420.wav,"[[  0.         -21.03631645]
 [  0.1         59.70125687]
 [  0.2         54.71539052]
 [  0.25666667  38.49486436]]","[[0.         1.00707818]
 [0.1        0.92270488]
 [0.2        1.69105963]
 [0.25666667 0.9671157 ]]",1,0.473
8732112179,m,20,english,5,4,english,2024-02-01 10:37:13.481511,False,1,144,sounds\french\audio/french_303.wav,"[[  0.         -37.35678584]
 [  0.1        -60.74389767]
 [  0.2         74.2341812 ]
 [  0.25666667  74.10759125]]","[[0.         1.71041427]
 [0.1        0.8709471 ]
 [0.2        1.02400634]
 [0.25666667 0.07072526]]",1,0.496
8732112179,m,20,english,5,4,english,2024-02-01 10:37:13.481511,False,1,145,sounds\french\audio/french_954.wav,"[[  0.         -31.81965022]
 [  0.1         82.90828133]
 [  0.2         94.68318648]
 [  0.25666667 -42.01635115]]","[[0.         1.69468269]
 [0.1        0.7734121 ]
 [0.2        0.43346946]
 [0.25666667 0.14112827]]",1,1.338
8732112179,m,20,english,5,4,english,2024-02-01 10:37:13.481511,False,1,146,sounds\french\audio/french_570.wav,"[[  0.         -73.07970403]
 [  0.1        -29.06072458]
 [  0.2        -25.44054287]
 [  0.25666667  96.93308839]]","[[0.         1.97071113]
 [0.1        1.64236312]
 [0.2        0.27343611]
 [0.25666667 1.31029171]]",1,1.14
8732112179,m,20,english,5,4,english,2024-02-01 10:37:13.481511,False,1,147,sounds\french\audio/french_827.wav,"[[ 0.         52.76736232]
 [ 0.1        43.3684124 ]
 [ 0.2         5.13351566]
 [ 0.25666667 57.45570888]]","[[0.         0.65431252]
 [0.1        1.37281261]
 [0.2        0.35708699]
 [0.25666667 0.33493738]]",1,0.918
8732112179,m,20,english,5,4,english,2024-02-01 10:37:13.481511,False,1,148,sounds\french\audio/french_59.wav,"[[  0.          39.36273925]
 [  0.1        -72.05438318]
 [  0.2        -58.73379721]
 [  0.25666667 -71.89754194]]","[[0.         0.85213244]
 [0.1        0.54541244]
 [0.2        0.77028914]
 [0.25666667 0.84538443]]",0,1.609
8732112179,m,20,english,5,4,english,2024-02-01 10:37:13.481511,False,1,149,sounds\french\audio/french_27.wav,"[[  0.         -24.90567196]
 [  0.1        -76.22865867]
 [  0.2        -70.77946922]
 [  0.25666667 -40.13018173]]","[[0.         0.77746957]
 [0.1        0.36572894]
 [0.2        1.07248112]
 [0.25666667 1.35477464]]",1,0.401
8732112179,m,20,english,5,4,english,2024-02-01 10:37:13.481511,False,1,150,sounds\french\audio/french_279.wav,"[[  0.         -82.72654322]
 [  0.1         51.19533055]
 [  0.2         81.3850192 ]
 [  0.25666667  12.9967417 ]]","[[0.         1.91034617]
 [0.1        0.35578453]
 [0.2        1.45645662]
 [0.25666667 1.34605049]]",1,1.197
8732112179,m,20,english,5,4,english,2024-02-01 10:37:13.481511,False,1,151,sounds\french\audio/french_153.wav,"[[  0.          47.87386837]
 [  0.1          7.07648522]
 [  0.2         20.87760624]
 [  0.25666667 -54.47130494]]","[[0.         0.75426526]
 [0.1        1.23801955]
 [0.2        0.38230121]
 [0.25666667 0.58190832]]",0,1.232
8732112179,m,20,english,5,4,english,2024-02-01 10:37:13.481511,False,1,152,sounds\french\audio/french_205.wav,"[[  0.          31.24463061]
 [  0.1        -22.87848896]
 [  0.2        -36.82881223]
 [  0.25666667 -47.84026219]]","[[0.         0.69283155]
 [0.1        1.55894518]
 [0.2        1.67941014]
 [0.25666667 0.92091984]]",1,0.388
8732112179,m,20,english,5,4,english,2024-02-01 10:37:13.481511,False,1,153,sounds\french\audio/french_667.wav,"[[  0.         -87.23426609]
 [  0.1         53.54997778]
 [  0.2         57.34155937]
 [  0.25666667 -19.62963402]]","[[0.         0.52575342]
 [0.1        0.6882241 ]
 [0.2        0.15612922]
 [0.25666667 0.34657669]]",0,0.667
8732112179,m,20,english,5,4,english,2024-02-01 10:37:13.481511,False,1,154,sounds\french\audio/french_66.wav,"[[ 0.          3.84925572]
 [ 0.1        75.48045935]
 [ 0.2        22.76512124]
 [ 0.25666667 45.08821781]]","[[0.         1.88939432]
 [0.1        0.3012797 ]
 [0.2        0.5045755 ]
 [0.25666667 1.63034278]]",1,0.594
8732112179,m,20,english,5,4,english,2024-02-01 10:37:13.481511,False,1,155,sounds\french\audio/french_167.wav,"[[  0.          35.64973643]
 [  0.1         44.83065125]
 [  0.2         -2.88275541]
 [  0.25666667 -92.53521205]]","[[0.         1.28189169]
 [0.1        1.79221575]
 [0.2        1.75452965]
 [0.25666667 1.25057705]]",0,0.243
8732112179,m,20,english,5,4,english,2024-02-01 10:37:13.481511,False,1,156,sounds\french\audio/french_972.wav,"[[  0.          10.38102426]
 [  0.1        -66.54271468]
 [  0.2         -2.89265523]
 [  0.25666667 -87.42126356]]","[[0.         0.90840989]
 [0.1        1.6485676 ]
 [0.2        0.79956718]
 [0.25666667 1.28352811]]",1,0.493
8732112179,m,20,english,5,4,english,2024-02-01 10:37:13.481511,False,1,157,sounds\french\audio/french_165.wav,"[[ 0.         34.81781775]
 [ 0.1        -0.63630456]
 [ 0.2        85.92593744]
 [ 0.25666667  7.56589877]]","[[0.         0.27086967]
 [0.1        1.42196963]
 [0.2        1.99513726]
 [0.25666667 0.37439059]]",0,0.798
8732112179,m,20,english,5,4,english,2024-02-01 10:37:13.481511,False,1,158,sounds\french\audio/french_238.wav,"[[ 0.         -7.77377299]
 [ 0.1        24.08862247]
 [ 0.2        87.10581208]
 [ 0.25666667 73.57906518]]","[[0.         1.79398275]
 [0.1        0.12404774]
 [0.2        0.76943839]
 [0.25666667 1.68164748]]",1,0.46
8732112179,m,20,english,5,4,english,2024-02-01 10:37:13.481511,False,1,159,sounds\french\audio/french_296.wav,"[[  0.          93.71479572]
 [  0.1        -75.79046522]
 [  0.2        -87.29598303]
 [  0.25666667  31.73776098]]","[[0.         0.08926169]
 [0.1        1.27041306]
 [0.2        1.46433067]
 [0.25666667 0.42599999]]",0,0.259
8732112179,m,20,english,5,4,english,2024-02-01 10:37:13.481511,False,1,160,sounds\french\audio/french_595.wav,"[[  0.         -73.15061419]
 [  0.1         67.23643261]
 [  0.2         29.33444659]
 [  0.25666667 -65.67909684]]","[[0.         1.40746522]
 [0.1        0.48150889]
 [0.2        0.65461581]
 [0.25666667 0.62395538]]",1,2.177
8732112179,m,20,english,5,4,english,2024-02-01 10:37:13.481511,False,1,161,sounds\french\audio/french_898.wav,"[[  0.         -10.33405821]
 [  0.1         56.62547765]
 [  0.2         26.06756425]
 [  0.25666667  61.22858123]]","[[0.         1.53220968]
 [0.1        1.11219982]
 [0.2        1.10520568]
 [0.25666667 0.66903516]]",1,0.692
8732112179,m,20,english,5,4,english,2024-02-01 10:37:13.481511,False,1,162,sounds\french\audio/french_974.wav,"[[  0.         -56.73984936]
 [  0.1         32.58414802]
 [  0.2        -45.44939314]
 [  0.25666667 -96.65983196]]","[[0.         0.20875225]
 [0.1        0.25167591]
 [0.2        1.19458688]
 [0.25666667 0.25310381]]",0,3.104
8732112179,m,20,english,5,4,english,2024-02-01 10:37:13.481511,False,1,163,sounds\french\audio/french_277.wav,"[[  0.          25.76771762]
 [  0.1        -70.25975294]
 [  0.2        -52.96477311]
 [  0.25666667  41.51950841]]","[[0.         1.36859257]
 [0.1        1.02052852]
 [0.2        1.14771146]
 [0.25666667 0.3441713 ]]",1,0.723
8732112179,m,20,english,5,4,english,2024-02-01 10:37:13.481511,False,1,164,sounds\french\audio/french_711.wav,"[[  0.          35.46622773]
 [  0.1         62.41897997]
 [  0.2        -12.16405894]
 [  0.25666667  23.8007589 ]]","[[0.         1.8142291 ]
 [0.1        1.39339975]
 [0.2        1.57822467]
 [0.25666667 1.63044315]]",0,0.291
8732112179,m,20,english,5,4,english,2024-02-01 10:37:13.481511,False,1,165,sounds\french\audio/french_594.wav,"[[  0.         -77.17245549]
 [  0.1         -9.42910309]
 [  0.2         28.840902  ]
 [  0.25666667 -27.68960177]]","[[0.         1.803544  ]
 [0.1        1.0387293 ]
 [0.2        1.64762654]
 [0.25666667 0.23150428]]",0,0.134
8732112179,m,20,english,5,4,english,2024-02-01 10:37:13.481511,False,1,166,sounds\french\audio/french_93.wav,"[[  0.          23.57211404]
 [  0.1        -16.15934767]
 [  0.2         25.54711871]
 [  0.25666667  65.09284613]]","[[0.         0.62732128]
 [0.1        0.10811818]
 [0.2        0.30787392]
 [0.25666667 1.57978374]]",1,1.975
8732112179,m,20,english,5,4,english,2024-02-01 10:37:13.481511,False,1,167,sounds\french\audio/french_737.wav,"[[  0.          13.02374388]
 [  0.1        -10.41694685]
 [  0.2        -16.29618142]
 [  0.25666667  15.62671798]]","[[0.         1.19502519]
 [0.1        0.96501463]
 [0.2        0.50712422]
 [0.25666667 0.54653665]]",0,0.304
8732112179,m,20,english,5,4,english,2024-02-01 10:37:13.481511,False,1,168,sounds\french\audio/french_504.wav,"[[  0.          -0.09953376]
 [  0.1        -56.24331475]
 [  0.2        -79.12350098]
 [  0.25666667  64.25656878]]","[[0.         1.58426169]
 [0.1        0.92396286]
 [0.2        0.70640993]
 [0.25666667 0.80299587]]",0,0.185
8732112179,m,20,english,5,4,english,2024-02-01 10:37:13.481511,False,1,169,sounds\french\audio/french_818.wav,"[[  0.         -26.74770248]
 [  0.1        -33.54864391]
 [  0.2        -23.72939517]
 [  0.25666667  53.93300908]]","[[0.         1.09674102]
 [0.1        0.98606035]
 [0.2        1.86933067]
 [0.25666667 0.6204836 ]]",1,0.304
8732112179,m,20,english,5,4,english,2024-02-01 10:37:13.481511,False,1,170,sounds\french\audio/french_147.wav,"[[  0.          -8.88234032]
 [  0.1        -14.76798318]
 [  0.2        -57.87683145]
 [  0.25666667  44.89226386]]","[[0.         0.56903223]
 [0.1        0.94922216]
 [0.2        1.80420194]
 [0.25666667 0.62760473]]",1,0.791
8732112179,m,20,english,5,4,english,2024-02-01 10:37:13.481511,False,1,171,sounds\french\audio/french_109.wav,"[[  0.         -57.66612313]
 [  0.1        -72.54090479]
 [  0.2         -5.66573875]
 [  0.25666667 -86.22212262]]","[[0.         0.91141338]
 [0.1        1.63809523]
 [0.2        1.08686957]
 [0.25666667 0.85420458]]",1,1.393
8732112179,m,20,english,5,4,english,2024-02-01 10:37:13.481511,False,1,172,sounds\french\audio/french_893.wav,"[[  0.         -94.12021506]
 [  0.1         53.79826098]
 [  0.2        -24.3553788 ]
 [  0.25666667 -81.90861644]]","[[0.         0.88252126]
 [0.1        0.31460198]
 [0.2        1.36492904]
 [0.25666667 1.93292807]]",0,0.677
8732112179,m,20,english,5,4,english,2024-02-01 10:37:13.481511,False,1,173,sounds\french\audio/french_795.wav,"[[  0.          33.06955163]
 [  0.1         99.3644883 ]
 [  0.2        -80.69510174]
 [  0.25666667  67.54375124]]","[[0.         0.26323542]
 [0.1        0.35684642]
 [0.2        0.7045199 ]
 [0.25666667 0.58342204]]",1,0.825
8732112179,m,20,english,5,4,english,2024-02-01 10:37:13.481511,False,1,174,sounds\french\audio/french_741.wav,"[[  0.          52.99239945]
 [  0.1        -62.37721768]
 [  0.2         54.26195155]
 [  0.25666667   8.23350592]]","[[0.         1.20115282]
 [0.1        0.53106937]
 [0.2        1.91925029]
 [0.25666667 0.42380295]]",0,0.987
8732112179,m,20,english,5,4,english,2024-02-01 10:37:13.481511,False,1,175,sounds\french\audio/french_614.wav,"[[ 0.         13.55245103]
 [ 0.1        56.56377999]
 [ 0.2        18.28165036]
 [ 0.25666667 42.87971424]]","[[0.         0.76920018]
 [0.1        1.46632319]
 [0.2        0.77890927]
 [0.25666667 1.0073418 ]]",1,0.881
8732112179,m,20,english,5,4,english,2024-02-01 10:37:13.481511,False,1,176,sounds\french\audio/french_134.wav,"[[  0.         -65.58132827]
 [  0.1        -89.82992505]
 [  0.2          9.99695038]
 [  0.25666667  24.50908123]]","[[0.         0.68669704]
 [0.1        1.50131287]
 [0.2        0.69598371]
 [0.25666667 1.57047358]]",1,0.341
8732112179,m,20,english,5,4,english,2024-02-01 10:37:13.481511,False,1,177,sounds\french\audio/french_205.wav,"[[  0.          31.24463061]
 [  0.1        -22.87848896]
 [  0.2        -36.82881223]
 [  0.25666667 -47.84026219]]","[[0.         0.69283155]
 [0.1        1.55894518]
 [0.2        1.67941014]
 [0.25666667 0.92091984]]",0,1.243
8732112179,m,20,english,5,4,english,2024-02-01 10:37:13.481511,False,1,178,sounds\french\audio/french_850.wav,"[[  0.         -88.87179188]
 [  0.1         15.70736636]
 [  0.2         67.7730952 ]
 [  0.25666667 -20.3872908 ]]","[[0.         0.91597825]
 [0.1        0.21425776]
 [0.2        1.52338939]
 [0.25666667 0.55241946]]",1,0.483
8732112179,m,20,english,5,4,english,2024-02-01 10:37:13.481511,False,1,179,sounds\french\audio/french_752.wav,"[[  0.         -49.05511086]
 [  0.1         68.97169656]
 [  0.2         35.56747744]
 [  0.25666667   3.91641015]]","[[0.         0.41123153]
 [0.1        0.36604045]
 [0.2        0.22184937]
 [0.25666667 1.3158831 ]]",1,1.123
8732112179,m,20,english,5,4,english,2024-02-01 10:37:13.481511,False,1,180,sounds\french\audio/french_971.wav,"[[  0.          96.00351489]
 [  0.1        -55.9328558 ]
 [  0.2        -62.43027521]
 [  0.25666667  67.10785382]]","[[0.         1.9961872 ]
 [0.1        0.96234699]
 [0.2        1.29823686]
 [0.25666667 1.44437919]]",1,0.515
8732112179,m,20,english,5,4,english,2024-02-01 10:37:13.481511,False,1,181,sounds\french\audio/french_639.wav,"[[  0.          11.64385005]
 [  0.1        -83.53772589]
 [  0.2        -26.70113898]
 [  0.25666667 -28.21717215]]","[[0.         1.86180111]
 [0.1        1.31531339]
 [0.2        0.16484712]
 [0.25666667 0.08923993]]",0,0.434
8732112179,m,20,english,5,4,english,2024-02-01 10:37:13.481511,False,1,182,sounds\french\audio/french_772.wav,"[[  0.          13.96800705]
 [  0.1          5.87945336]
 [  0.2         15.35769187]
 [  0.25666667 -12.22278281]]","[[0.         0.2991113 ]
 [0.1        0.00189684]
 [0.2        0.99190584]
 [0.25666667 1.49955539]]",1,0.408
8732112179,m,20,english,5,4,english,2024-02-01 10:37:13.481511,False,1,183,sounds\french\audio/french_850.wav,"[[  0.         -88.87179188]
 [  0.1         15.70736636]
 [  0.2         67.7730952 ]
 [  0.25666667 -20.3872908 ]]","[[0.         0.91597825]
 [0.1        0.21425776]
 [0.2        1.52338939]
 [0.25666667 0.55241946]]",1,0.873
8732112179,m,20,english,5,4,english,2024-02-01 10:37:13.481511,False,1,184,sounds\french\audio/french_450.wav,"[[  0.          32.27162082]
 [  0.1        -17.74326064]
 [  0.2         22.97944113]
 [  0.25666667 -64.06857585]]","[[0.         0.11495553]
 [0.1        0.2876958 ]
 [0.2        0.75841823]
 [0.25666667 0.46502657]]",1,0.469
8732112179,m,20,english,5,4,english,2024-02-01 10:37:13.481511,False,1,185,sounds\french\audio/french_395.wav,"[[  0.          53.54317287]
 [  0.1        -58.7899365 ]
 [  0.2        -16.29959602]
 [  0.25666667 -29.17949613]]","[[0.         1.78210887]
 [0.1        0.28539332]
 [0.2        1.44255764]
 [0.25666667 0.93749012]]",0,0.626
8732112179,m,20,english,5,4,english,2024-02-01 10:37:13.481511,False,1,186,sounds\french\audio/french_477.wav,"[[  0.         -42.83355645]
 [  0.1        -62.82113547]
 [  0.2         87.24330329]
 [  0.25666667  51.53483355]]","[[0.         0.5966768 ]
 [0.1        0.86071515]
 [0.2        1.68377915]
 [0.25666667 1.05396705]]",0,0.601
8732112179,m,20,english,5,4,english,2024-02-01 10:37:13.481511,False,1,187,sounds\french\audio/french_918.wav,"[[  0.          73.93932449]
 [  0.1        -96.38016005]
 [  0.2         52.71903464]
 [  0.25666667  71.89996729]]","[[0.         1.12285198]
 [0.1        0.52569443]
 [0.2        1.01384132]
 [0.25666667 0.74683012]]",0,0.86
8732112179,m,20,english,5,4,english,2024-02-01 10:37:13.481511,False,1,188,sounds\french\audio/french_362.wav,"[[  0.          -5.18125688]
 [  0.1        -33.24228679]
 [  0.2         13.99395474]
 [  0.25666667 -44.70505318]]","[[0.         1.66521149]
 [0.1        1.63330091]
 [0.2        0.18995652]
 [0.25666667 0.66219279]]",1,0.575
8732112179,m,20,english,5,4,english,2024-02-01 10:37:13.481511,False,1,189,sounds\french\audio/french_502.wav,"[[  0.         -20.79410197]
 [  0.1        -29.31354171]
 [  0.2         66.76157716]
 [  0.25666667  63.6653431 ]]","[[0.         1.55473715]
 [0.1        0.75660833]
 [0.2        1.40053341]
 [0.25666667 1.0602207 ]]",0,0.353
8732112179,m,20,english,5,4,english,2024-02-01 10:37:13.481511,False,1,190,sounds\french\audio/french_311.wav,"[[  0.         -11.62830293]
 [  0.1         56.07764908]
 [  0.2         -9.52866726]
 [  0.25666667  52.78176644]]","[[0.         1.293503  ]
 [0.1        1.34330607]
 [0.2        1.07022137]
 [0.25666667 0.99072219]]",1,0.208
8732112179,m,20,english,5,4,english,2024-02-01 10:37:13.481511,False,1,191,sounds\french\audio/french_55.wav,"[[  0.          54.29815268]
 [  0.1         66.77804826]
 [  0.2        -38.71051383]
 [  0.25666667   0.30980485]]","[[0.         1.84925003]
 [0.1        1.2451745 ]
 [0.2        1.48535221]
 [0.25666667 1.20016501]]",1,0.563
8732112179,m,20,english,5,4,english,2024-02-01 10:37:13.481511,False,1,192,sounds\french\audio/french_534.wav,"[[  0.          96.41776506]
 [  0.1        -53.52749338]
 [  0.2         51.10087415]
 [  0.25666667  27.39654188]]","[[0.         0.28463844]
 [0.1        1.69872517]
 [0.2        0.80798533]
 [0.25666667 1.79838566]]",1,1.166
8732112179,m,20,english,5,4,english,2024-02-01 10:37:13.481511,False,1,193,sounds\french\audio/french_95.wav,"[[ 0.         35.71270194]
 [ 0.1        34.21637588]
 [ 0.2        69.23850983]
 [ 0.25666667 -5.02213551]]","[[0.         1.05464779]
 [0.1        0.916907  ]
 [0.2        0.63861668]
 [0.25666667 0.96363956]]",1,1.272
8732112179,m,20,english,5,4,english,2024-02-01 10:37:13.481511,False,1,194,sounds\french\audio/french_203.wav,"[[  0.           9.50743764]
 [  0.1        -98.19338414]
 [  0.2         67.11536794]
 [  0.25666667 -71.08115362]]","[[0.         1.88144993]
 [0.1        1.32545529]
 [0.2        0.82099832]
 [0.25666667 1.4347795 ]]",1,0.759
8732112179,m,20,english,5,4,english,2024-02-01 10:37:13.481511,False,1,195,sounds\french\audio/french_892.wav,"[[  0.          -9.89123065]
 [  0.1        -29.48301763]
 [  0.2        -20.12274852]
 [  0.25666667 -63.31716547]]","[[0.         1.43345907]
 [0.1        0.60115207]
 [0.2        0.51672516]
 [0.25666667 0.2983609 ]]",1,0.596
8732112179,m,20,english,5,4,english,2024-02-01 10:37:13.481511,False,1,196,sounds\french\audio/french_619.wav,"[[  0.         -58.15289928]
 [  0.1         30.86987971]
 [  0.2         96.84221096]
 [  0.25666667  69.41225319]]","[[0.         0.63115023]
 [0.1        0.12868397]
 [0.2        0.73139592]
 [0.25666667 1.17738103]]",1,0.808
8732112179,m,20,english,5,4,english,2024-02-01 10:37:13.481511,False,1,197,sounds\french\audio/french_69.wav,"[[  0.         -60.6968374 ]
 [  0.1        -13.66133732]
 [  0.2        -49.05218158]
 [  0.25666667 -62.82393396]]","[[0.         1.40310832]
 [0.1        0.07324596]
 [0.2        0.92091935]
 [0.25666667 0.56730757]]",1,0.611
8732112179,m,20,english,5,4,english,2024-02-01 10:37:13.481511,False,1,198,sounds\french\audio/french_577.wav,"[[  0.         -34.34323574]
 [  0.1         42.3591335 ]
 [  0.2        -17.66243752]
 [  0.25666667 -25.14969583]]","[[0.         0.85646341]
 [0.1        0.14355807]
 [0.2        0.33082023]
 [0.25666667 0.85136365]]",1,1.136
8732112179,m,20,english,5,4,english,2024-02-01 10:37:13.481511,False,1,199,sounds\french\audio/french_219.wav,"[[  0.         -98.78648146]
 [  0.1        -54.51672601]
 [  0.2         75.82451993]
 [  0.25666667  42.52821499]]","[[0.         1.35832625]
 [0.1        0.9105506 ]
 [0.2        0.22027405]
 [0.25666667 1.53742188]]",0,0.341
8732112179,m,20,english,5,4,english,2024-02-01 10:37:13.481511,False,1,200,sounds\french\audio/french_464.wav,"[[  0.         -77.91073693]
 [  0.1         -4.27403448]
 [  0.2         93.79465132]
 [  0.25666667  49.64849416]]","[[0.         1.45882001]
 [0.1        1.08668269]
 [0.2        1.80605145]
 [0.25666667 1.6602635 ]]",0,0.084
8732112179,m,20,english,5,4,english,2024-02-01 10:37:13.481511,False,1,201,sounds\french\audio/french_867.wav,"[[  0.         -56.83459408]
 [  0.1        -43.30462201]
 [  0.2        -57.08778715]
 [  0.25666667  26.25433727]]","[[0.         0.56298114]
 [0.1        1.09173708]
 [0.2        1.10722732]
 [0.25666667 0.48299304]]",1,0.338
8732112179,m,20,english,5,4,english,2024-02-01 10:37:13.481511,False,1,202,sounds\french\audio/french_462.wav,"[[  0.         -21.95394664]
 [  0.1         40.83343907]
 [  0.2        -14.27053038]
 [  0.25666667  85.20745493]]","[[0.         1.87011175]
 [0.1        1.54087482]
 [0.2        0.9591328 ]
 [0.25666667 0.45105527]]",1,4.946
8732112179,m,20,english,5,4,english,2024-02-01 10:37:13.481511,False,1,203,sounds\french\audio/french_157.wav,"[[  0.          -6.6246598 ]
 [  0.1         49.95824353]
 [  0.2         50.90371108]
 [  0.25666667 -96.22740321]]","[[0.         1.79360699]
 [0.1        1.27582672]
 [0.2        1.55422844]
 [0.25666667 0.51380788]]",1,1.677
8732112179,m,20,english,5,4,english,2024-02-01 10:37:13.481511,False,1,204,sounds\french\audio/french_916.wav,"[[  0.         -87.80939928]
 [  0.1         68.91902004]
 [  0.2         20.82551071]
 [  0.25666667 -10.41164891]]","[[0.         0.07100827]
 [0.1        0.08308916]
 [0.2        0.48942561]
 [0.25666667 0.67278955]]",1,0.808
8732112179,m,20,english,5,4,english,2024-02-01 10:37:13.481511,False,1,205,sounds\french\audio/french_552.wav,"[[  0.         -52.32363839]
 [  0.1         23.44364533]
 [  0.2         72.20212972]
 [  0.25666667 -25.42911122]]","[[0.         0.44295398]
 [0.1        1.4520287 ]
 [0.2        0.63620541]
 [0.25666667 1.39952151]]",1,0.978
8732112179,m,20,english,5,4,english,2024-02-01 10:37:13.481511,False,1,206,sounds\french\audio/french_649.wav,"[[  0.         -26.84796804]
 [  0.1         90.50092835]
 [  0.2        -42.32642697]
 [  0.25666667  -6.05454316]]","[[0.         0.38564107]
 [0.1        0.07645681]
 [0.2        0.18898029]
 [0.25666667 0.88659006]]",0,0.464
8732112179,m,20,english,5,4,english,2024-02-01 10:37:13.481511,False,1,207,sounds\french\audio/french_822.wav,"[[  0.          70.1141555 ]
 [  0.1        -32.80370271]
 [  0.2          9.36864383]
 [  0.25666667 -70.41865943]]","[[0.         0.03091404]
 [0.1        1.54599653]
 [0.2        0.45983016]
 [0.25666667 0.57036726]]",1,1.474
8732112179,m,20,english,5,4,english,2024-02-01 10:37:13.481511,False,1,208,sounds\french\audio/french_285.wav,"[[  0.         -14.06099989]
 [  0.1         -5.26283055]
 [  0.2         18.02137941]
 [  0.25666667  46.27962364]]","[[0.         0.21649577]
 [0.1        0.66520183]
 [0.2        0.4490454 ]
 [0.25666667 1.92778075]]",1,0.783
8732112179,m,20,english,5,4,english,2024-02-01 10:37:13.481511,False,1,209,sounds\french\audio/french_150.wav,"[[  0.           8.70975457]
 [  0.1        -27.10460474]
 [  0.2        -81.59186784]
 [  0.25666667 -72.54184128]]","[[0.         0.6151883 ]
 [0.1        1.35739255]
 [0.2        1.42530839]
 [0.25666667 0.64697028]]",0,0.176
8732112179,m,20,english,5,4,english,2024-02-01 10:37:13.481511,False,1,210,sounds\french\audio/french_759.wav,"[[  0.          43.66892012]
 [  0.1         28.75822808]
 [  0.2        -53.65094598]
 [  0.25666667 -79.66264825]]","[[0.         0.9017147 ]
 [0.1        1.01118462]
 [0.2        1.43326948]
 [0.25666667 0.32927354]]",1,0.191
8732112179,m,20,english,5,4,english,2024-02-01 10:37:13.481511,False,1,211,sounds\french\audio/french_706.wav,"[[  0.          53.91986852]
 [  0.1        -86.79287422]
 [  0.2        -18.13553248]
 [  0.25666667 -98.41078943]]","[[0.         0.595313  ]
 [0.1        0.19033695]
 [0.2        1.2444166 ]
 [0.25666667 0.51551453]]",1,0.798
8732112179,m,20,english,5,4,english,2024-02-01 10:37:13.481511,False,1,212,sounds\french\audio/french_673.wav,"[[ 0.         97.1433432 ]
 [ 0.1         1.59516127]
 [ 0.2        27.02161491]
 [ 0.25666667 62.92522021]]","[[0.         1.2603    ]
 [0.1        0.42137615]
 [0.2        0.87652171]
 [0.25666667 1.1230089 ]]",1,0.847
8732112179,m,20,english,5,4,english,2024-02-01 10:37:13.481511,False,1,213,sounds\french\audio/french_586.wav,"[[ 0.         86.96734506]
 [ 0.1        -8.603444  ]
 [ 0.2        11.78169212]
 [ 0.25666667 14.18547806]]","[[0.         0.62271677]
 [0.1        1.69916535]
 [0.2        1.65961944]
 [0.25666667 1.90120182]]",1,0.938
8732112179,m,20,english,5,4,english,2024-02-01 10:37:13.481511,False,1,214,sounds\french\audio/french_491.wav,"[[ 0.00000000e+00  4.86868680e+01]
 [ 1.00000000e-01 -4.81683993e+01]
 [ 2.00000000e-01 -4.23609681e+01]
 [ 2.56666667e-01  2.49582160e-02]]","[[0.         0.42969684]
 [0.1        1.38937301]
 [0.2        1.25630672]
 [0.25666667 0.04562268]]",0,0.321
8732112179,m,20,english,5,4,english,2024-02-01 10:37:13.481511,False,1,215,sounds\french\audio/french_687.wav,"[[  0.         -41.56393701]
 [  0.1         -5.27268445]
 [  0.2         58.5588678 ]
 [  0.25666667 -41.26863304]]","[[0.         1.23976021]
 [0.1        0.49715047]
 [0.2        0.70596761]
 [0.25666667 1.34000296]]",1,1.358
8732112179,m,20,english,5,4,english,2024-02-01 10:37:13.481511,False,1,216,sounds\french\audio/french_21.wav,"[[  0.          54.83693262]
 [  0.1        -44.5884084 ]
 [  0.2        -75.20982548]
 [  0.25666667 -57.69855476]]","[[0.         0.05508037]
 [0.1        0.46211883]
 [0.2        1.96075125]
 [0.25666667 0.5365247 ]]",1,0.753
8732112179,m,20,english,5,4,english,2024-02-01 10:37:13.481511,False,1,217,sounds\french\audio/french_158.wav,"[[  0.          72.88318106]
 [  0.1         51.2800476 ]
 [  0.2        -29.39007937]
 [  0.25666667  87.52810159]]","[[0.         1.5476705 ]
 [0.1        1.92933226]
 [0.2        1.77733774]
 [0.25666667 1.82253327]]",1,0.172
8732112179,m,20,english,5,4,english,2024-02-01 10:37:13.481511,False,1,218,sounds\french\audio/french_949.wav,"[[  0.          29.18752906]
 [  0.1        -67.27756955]
 [  0.2         55.26419326]
 [  0.25666667  11.27327126]]","[[0.         0.08608659]
 [0.1        1.93613179]
 [0.2        0.81834021]
 [0.25666667 0.09029871]]",0,1.083
8732112179,m,20,english,5,4,english,2024-02-01 10:37:13.481511,False,1,219,sounds\french\audio/french_931.wav,"[[  0.          64.75046939]
 [  0.1        -55.9473081 ]
 [  0.2         32.85596214]
 [  0.25666667 -89.33798771]]","[[0.         1.51932084]
 [0.1        1.08335674]
 [0.2        0.78781639]
 [0.25666667 0.66435238]]",0,0.408
8732112179,m,20,english,5,4,english,2024-02-01 10:37:13.481511,False,1,220,sounds\french\audio/french_135.wav,"[[  0.         -14.44114523]
 [  0.1         22.88033262]
 [  0.2         45.87784319]
 [  0.25666667  14.60103067]]","[[0.         1.1198793 ]
 [0.1        0.12707755]
 [0.2        1.72429487]
 [0.25666667 0.79769027]]",1,0.373
8732112179,m,20,english,5,4,english,2024-02-01 10:37:13.481511,False,1,221,sounds\french\audio/french_379.wav,"[[  0.          22.44752401]
 [  0.1         26.97339804]
 [  0.2         53.43729248]
 [  0.25666667 -63.2778902 ]]","[[0.         1.77059304]
 [0.1        0.69418911]
 [0.2        0.76703539]
 [0.25666667 0.57510346]]",1,2.517
8732112179,m,20,english,5,4,english,2024-02-01 10:37:13.481511,False,1,222,sounds\french\audio/french_374.wav,"[[  0.          23.12233407]
 [  0.1          4.88786521]
 [  0.2         75.40336837]
 [  0.25666667 -52.23092949]]","[[0.         0.63582229]
 [0.1        0.48218095]
 [0.2        0.81003499]
 [0.25666667 1.31471089]]",1,1.658
8732112179,m,20,english,5,4,english,2024-02-01 10:37:13.481511,False,1,223,sounds\french\audio/french_365.wav,"[[  0.         -98.04571794]
 [  0.1        -73.67698607]
 [  0.2        -96.43604562]
 [  0.25666667  37.7893414 ]]","[[0.         1.18023288]
 [0.1        1.95707288]
 [0.2        0.58641449]
 [0.25666667 1.65360278]]",0,0.457
8732112179,m,20,english,5,4,english,2024-02-01 10:37:13.481511,False,1,224,sounds\french\audio/french_68.wav,"[[  0.          58.83829029]
 [  0.1         77.59339865]
 [  0.2        -73.88341881]
 [  0.25666667 -24.56901296]]","[[0.         1.80244508]
 [0.1        1.3442738 ]
 [0.2        1.16581557]
 [0.25666667 0.71132336]]",0,0.451
8732112179,m,20,english,5,4,english,2024-02-01 10:37:13.481511,False,1,225,sounds\french\audio/french_999.wav,"[[  0.          47.65145935]
 [  0.1         64.90222313]
 [  0.2         79.66636989]
 [  0.25666667 -10.95327426]]","[[0.         0.42993564]
 [0.1        1.41824969]
 [0.2        1.25132817]
 [0.25666667 1.10016678]]",1,1.485
8732112179,m,20,english,5,4,english,2024-02-01 10:37:13.481511,False,1,226,sounds\french\audio/french_707.wav,"[[  0.          77.25708539]
 [  0.1        -54.8008957 ]
 [  0.2        -15.62691875]
 [  0.25666667   8.64437522]]","[[0.         0.72667473]
 [0.1        1.98017833]
 [0.2        0.70006776]
 [0.25666667 1.11828401]]",1,1.314
8732112179,m,20,english,5,4,english,2024-02-01 10:37:13.481511,False,1,227,sounds\french\audio/french_410.wav,"[[  0.         -57.70995681]
 [  0.1         48.77026686]
 [  0.2        -48.38648813]
 [  0.25666667  53.40375253]]","[[0.         0.42078672]
 [0.1        1.91428116]
 [0.2        0.69257086]
 [0.25666667 1.23009328]]",1,0.767
8732112179,m,20,english,5,4,english,2024-02-01 10:37:13.481511,False,1,228,sounds\french\audio/french_970.wav,"[[  0.          45.66425393]
 [  0.1        -82.79761983]
 [  0.2         16.19264407]
 [  0.25666667  56.04070076]]","[[0.         0.15526341]
 [0.1        0.70533305]
 [0.2        1.08595816]
 [0.25666667 0.89955958]]",1,1.939
8732112179,m,20,english,5,4,english,2024-02-01 10:37:13.481511,False,1,229,sounds\french\audio/french_564.wav,"[[  0.         -42.85760261]
 [  0.1         78.12316343]
 [  0.2         32.53186734]
 [  0.25666667  60.20924512]]","[[0.         0.14777183]
 [0.1        1.08229262]
 [0.2        0.52251513]
 [0.25666667 1.40255579]]",0,0.662
8732112179,m,20,english,5,4,english,2024-02-01 10:37:13.481511,False,1,230,sounds\french\audio/french_130.wav,"[[  0.         -60.11706856]
 [  0.1        -55.59065296]
 [  0.2         42.64329023]
 [  0.25666667 -50.60909081]]","[[0.         0.96947481]
 [0.1        0.3967065 ]
 [0.2        1.87184893]
 [0.25666667 1.6881176 ]]",1,0.516
8732112179,m,20,english,5,4,english,2024-02-01 10:37:13.481511,False,1,231,sounds\french\audio/french_155.wav,"[[  0.         -70.22582879]
 [  0.1         -4.40112263]
 [  0.2         31.24717972]
 [  0.25666667 -33.70292804]]","[[0.         1.51870869]
 [0.1        0.92589592]
 [0.2        1.81286995]
 [0.25666667 0.86118474]]",0,0.172
8732112179,m,20,english,5,4,english,2024-02-01 10:37:13.481511,False,1,232,sounds\french\audio/french_806.wav,"[[  0.          97.26957313]
 [  0.1         79.44562669]
 [  0.2         79.77586719]
 [  0.25666667 -46.2684083 ]]","[[0.         1.48673004]
 [0.1        1.9967546 ]
 [0.2        0.9238106 ]
 [0.25666667 1.39755131]]",0,0.581
8732112179,m,20,english,5,4,english,2024-02-01 10:37:13.481511,False,1,233,sounds\french\audio/french_877.wav,"[[  0.         -23.96574217]
 [  0.1         51.07186547]
 [  0.2         26.38223439]
 [  0.25666667  57.01482149]]","[[0.         0.96253444]
 [0.1        1.01009898]
 [0.2        1.26042149]
 [0.25666667 0.37917076]]",0,0.87
8732112179,m,20,english,5,4,english,2024-02-01 10:37:13.481511,False,1,234,sounds\french\audio/french_243.wav,"[[  0.          94.15218044]
 [  0.1         77.54642038]
 [  0.2        -54.61145872]
 [  0.25666667 -22.57869657]]","[[0.         0.53955239]
 [0.1        1.33237065]
 [0.2        1.76705621]
 [0.25666667 1.15577178]]",1,0.581
8732112179,m,20,english,5,4,english,2024-02-01 10:37:13.481511,False,1,235,sounds\french\audio/french_560.wav,"[[  0.         -42.00998938]
 [  0.1        -57.33016448]
 [  0.2         94.61210268]
 [  0.25666667 -53.14621565]]","[[0.         1.48749501]
 [0.1        0.25124208]
 [0.2        1.70870291]
 [0.25666667 0.91259566]]",0,1.886
8732112179,m,20,english,5,4,english,2024-02-01 10:37:13.481511,False,1,236,sounds\french\audio/french_122.wav,"[[  0.          -9.1094999 ]
 [  0.1        -91.51691393]
 [  0.2        -80.73944639]
 [  0.25666667  -5.35945859]]","[[0.         0.88070358]
 [0.1        1.99267891]
 [0.2        0.69956237]
 [0.25666667 0.8489229 ]]",1,0.234
8732112179,m,20,english,5,4,english,2024-02-01 10:37:13.481511,False,1,237,sounds\french\audio/french_63.wav,"[[  0.         -81.8544396 ]
 [  0.1         15.35577337]
 [  0.2        -93.67975396]
 [  0.25666667   6.98256112]]","[[0.         0.29798693]
 [0.1        0.29415435]
 [0.2        1.48728433]
 [0.25666667 1.07216934]]",0,0.751
8732112179,m,20,english,5,4,english,2024-02-01 10:37:13.481511,False,1,238,sounds\french\audio/french_223.wav,"[[  0.           4.95143367]
 [  0.1         55.42619629]
 [  0.2         77.82995017]
 [  0.25666667 -85.84724551]]","[[0.         1.93703508]
 [0.1        0.30698411]
 [0.2        0.10644958]
 [0.25666667 0.25911965]]",0,0.901
8732112179,m,20,english,5,4,english,2024-02-01 10:37:13.481511,False,1,239,sounds\french\audio/french_653.wav,"[[  0.          77.9010548 ]
 [  0.1        -51.77114594]
 [  0.2         87.84855202]
 [  0.25666667  84.03497815]]","[[0.         1.15209157]
 [0.1        0.29445829]
 [0.2        0.58679482]
 [0.25666667 1.23322571]]",1,0.86
8732112179,m,20,english,5,4,english,2024-02-01 10:37:13.481511,False,1,240,sounds\french\audio/french_328.wav,"[[  0.         -82.86069205]
 [  0.1        -76.70984367]
 [  0.2        -82.63579977]
 [  0.25666667 -88.21582145]]","[[0.         0.98291516]
 [0.1        1.53428028]
 [0.2        1.97086095]
 [0.25666667 0.71580661]]",1,1.015
8732112179,m,20,english,5,4,english,2024-02-01 10:37:13.481511,False,1,241,sounds\french\audio/french_943.wav,"[[  0.          27.08075724]
 [  0.1         11.89706259]
 [  0.2        -68.36208072]
 [  0.25666667  93.65942771]]","[[0.         1.18472309]
 [0.1        0.18520331]
 [0.2        0.55970606]
 [0.25666667 0.63383354]]",1,2.578
8732112179,m,20,english,5,4,english,2024-02-01 10:37:13.481511,False,1,242,sounds\french\audio/french_819.wav,"[[  0.          10.23888344]
 [  0.1         14.33129562]
 [  0.2        -57.61493264]
 [  0.25666667  33.17012155]]","[[0.         1.93351894]
 [0.1        0.24790788]
 [0.2        1.58463495]
 [0.25666667 0.31192511]]",1,0.527
8732112179,m,20,english,5,4,english,2024-02-01 10:37:13.481511,False,1,243,sounds\french\audio/french_61.wav,"[[  0.          65.32887924]
 [  0.1         45.09641809]
 [  0.2        -37.75339878]
 [  0.25666667  87.5089899 ]]","[[0.         1.15653785]
 [0.1        1.72373813]
 [0.2        1.38726196]
 [0.25666667 0.41594812]]",1,0.289
8732112179,m,20,english,5,4,english,2024-02-01 10:37:13.481511,False,1,244,sounds\french\audio/french_143.wav,"[[  0.         -46.09253598]
 [  0.1         41.21858491]
 [  0.2         10.38405582]
 [  0.25666667 -99.98168054]]","[[0.         1.27633083]
 [0.1        0.28919458]
 [0.2        0.61917155]
 [0.25666667 0.37925836]]",1,0.546
8732112179,m,20,english,5,4,english,2024-02-01 10:37:13.481511,False,1,245,sounds\french\audio/french_39.wav,"[[  0.         -37.58690814]
 [  0.1         64.36969435]
 [  0.2        -16.17747505]
 [  0.25666667 -31.52468705]]","[[0.         0.69509593]
 [0.1        0.9899387 ]
 [0.2        1.54991446]
 [0.25666667 1.42558302]]",0,0.484
8732112179,m,20,english,5,4,english,2024-02-01 10:37:13.481511,False,1,246,sounds\french\audio/french_988.wav,"[[  0.          -4.11470775]
 [  0.1        -66.00013865]
 [  0.2         59.59027652]
 [  0.25666667   0.47429662]]","[[0.         0.28957615]
 [0.1        0.7977557 ]
 [0.2        1.24206297]
 [0.25666667 1.11640868]]",0,0.955
8732112179,m,20,english,5,4,english,2024-02-01 10:37:13.481511,False,1,247,sounds\french\audio/french_386.wav,"[[  0.          50.68041389]
 [  0.1         19.37586599]
 [  0.2          0.19752764]
 [  0.25666667 -78.73875249]]","[[0.         0.75883449]
 [0.1        1.33167931]
 [0.2        0.89836148]
 [0.25666667 0.64515466]]",0,1.296
8732112179,m,20,english,5,4,english,2024-02-01 10:37:13.481511,False,1,248,sounds\french\audio/french_915.wav,"[[  0.         -64.10930236]
 [  0.1         -7.16601985]
 [  0.2        -76.9677693 ]
 [  0.25666667  64.27469246]]","[[0.         0.7615396 ]
 [0.1        1.77142655]
 [0.2        1.45350334]
 [0.25666667 1.62999495]]",1,0.186
8732112179,m,20,english,5,4,english,2024-02-01 10:37:13.481511,False,1,249,sounds\french\audio/french_225.wav,"[[  0.          29.07754255]
 [  0.1         99.63110947]
 [  0.2        -11.85966914]
 [  0.25666667 -24.94738594]]","[[0.         1.10473325]
 [0.1        0.86614983]
 [0.2        1.10071   ]
 [0.25666667 1.32437332]]",1,0.208
8732112179,m,20,english,5,4,english,2024-02-01 10:37:13.481511,False,1,250,sounds\french\audio/french_906.wav,"[[  0.         -13.49448879]
 [  0.1         31.46373863]
 [  0.2        -49.02376816]
 [  0.25666667  26.58933429]]","[[0.         0.31236465]
 [0.1        1.12113229]
 [0.2        0.0749788 ]
 [0.25666667 0.8331551 ]]",0,0.764
8732112179,m,20,english,5,4,english,2024-02-01 10:37:13.481511,False,1,251,sounds\french\audio/french_529.wav,"[[  0.          54.97727121]
 [  0.1        -15.05833494]
 [  0.2          4.35581279]
 [  0.25666667 -47.03433584]]","[[0.         0.19662293]
 [0.1        1.39103506]
 [0.2        0.62492467]
 [0.25666667 1.10830727]]",1,0.88
8732112179,m,20,english,5,4,english,2024-02-01 10:37:13.481511,False,1,252,sounds\french\audio/french_866.wav,"[[  0.         -60.69074585]
 [  0.1        -41.67968152]
 [  0.2         -8.99838874]
 [  0.25666667  40.83736488]]","[[0.         1.64484001]
 [0.1        0.19415831]
 [0.2        1.20864699]
 [0.25666667 0.81730442]]",1,0.351
