subj,sex,age,language,english,french,native_lang,date,practice,block,trial,stim,pitch,stretch,response,rt
8760830999,f,19,english,5,5,english,2024-01-25 10:34:45.758114,False,2,253,sounds\french\audio/french_287.wav,"[[  0.          -6.24804435]
 [  0.1        -47.42967866]
 [  0.2        -83.16585562]
 [  0.25666667  77.49694817]]","[[0.         1.11596696]
 [0.1        0.08887129]
 [0.2        1.70974676]
 [0.25666667 0.42476907]]",0,2.665
8760830999,f,19,english,5,5,english,2024-01-25 10:34:45.758114,False,2,254,sounds\french\audio/french_121.wav,"[[  0.          35.32035933]
 [  0.1        -67.07725169]
 [  0.2         83.36951387]
 [  0.25666667  37.65048559]]","[[0.         0.75756688]
 [0.1        1.37771724]
 [0.2        1.17860501]
 [0.25666667 1.25500134]]",0,0.775
8760830999,f,19,english,5,5,english,2024-01-25 10:34:45.758114,False,2,255,sounds\french\audio/french_914.wav,"[[  0.         -34.97252921]
 [  0.1        -72.63984802]
 [  0.2        -17.99574982]
 [  0.25666667  97.045673  ]]","[[0.         0.97835832]
 [0.1        0.99245682]
 [0.2        1.64333977]
 [0.25666667 1.63101446]]",0,0.217
8760830999,f,19,english,5,5,english,2024-01-25 10:34:45.758114,False,2,256,sounds\french\audio/french_694.wav,"[[  0.          17.77218449]
 [  0.1         99.46599521]
 [  0.2        -15.42512366]
 [  0.25666667 -86.21441247]]","[[0.         1.83585748]
 [0.1        0.80026037]
 [0.2        1.77531791]
 [0.25666667 1.07868716]]",0,0.442
8760830999,f,19,english,5,5,english,2024-01-25 10:34:45.758114,False,2,257,sounds\french\audio/french_448.wav,"[[  0.          31.66119151]
 [  0.1         20.17093967]
 [  0.2        -46.84568686]
 [  0.25666667  10.399138  ]]","[[0.         0.87276462]
 [0.1        1.08469616]
 [0.2        1.99629221]
 [0.25666667 0.44449425]]",0,0.416
8760830999,f,19,english,5,5,english,2024-01-25 10:34:45.758114,False,2,258,sounds\french\audio/french_920.wav,"[[  0.          98.83591172]
 [  0.1        -64.95643085]
 [  0.2          1.57326281]
 [  0.25666667 -25.63648329]]","[[0.         0.7646584 ]
 [0.1        1.02879579]
 [0.2        1.0684491 ]
 [0.25666667 0.89198175]]",0,0.374
8760830999,f,19,english,5,5,english,2024-01-25 10:34:45.758114,False,2,259,sounds\french\audio/french_500.wav,"[[  0.         -64.77507575]
 [  0.1         -6.64685947]
 [  0.2        -63.06704172]
 [  0.25666667  -2.53403127]]","[[0.         1.1238598 ]
 [0.1        1.28070421]
 [0.2        0.36817987]
 [0.25666667 0.89472864]]",0,0.577
8760830999,f,19,english,5,5,english,2024-01-25 10:34:45.758114,False,2,260,sounds\french\audio/french_57.wav,"[[  0.           5.04798132]
 [  0.1         34.86476391]
 [  0.2          8.76450083]
 [  0.25666667 -66.01533982]]","[[0.         0.30893924]
 [0.1        1.37192861]
 [0.2        1.2366194 ]
 [0.25666667 1.17459784]]",0,0.41
8760830999,f,19,english,5,5,english,2024-01-25 10:34:45.758114,False,2,261,sounds\french\audio/french_260.wav,"[[  0.          -3.22947754]
 [  0.1        -16.22535722]
 [  0.2        -91.54207183]
 [  0.25666667 -55.70642268]]","[[0.         0.22766361]
 [0.1        1.16747398]
 [0.2        1.39667181]
 [0.25666667 1.03484551]]",0,0.585
8760830999,f,19,english,5,5,english,2024-01-25 10:34:45.758114,False,2,262,sounds\french\audio/french_687.wav,"[[  0.         -41.56393701]
 [  0.1         -5.27268445]
 [  0.2         58.5588678 ]
 [  0.25666667 -41.26863304]]","[[0.         1.23976021]
 [0.1        0.49715047]
 [0.2        0.70596761]
 [0.25666667 1.34000296]]",0,0.897
8760830999,f,19,english,5,5,english,2024-01-25 10:34:45.758114,False,2,263,sounds\french\audio/french_676.wav,"[[  0.          77.51634327]
 [  0.1        -98.7950763 ]
 [  0.2        -10.44477989]
 [  0.25666667   3.71960258]]","[[0.         0.52312795]
 [0.1        0.58996043]
 [0.2        1.89966038]
 [0.25666667 0.61903343]]",0,0.408
8760830999,f,19,english,5,5,english,2024-01-25 10:34:45.758114,False,2,264,sounds\french\audio/french_854.wav,"[[  0.          -7.31529778]
 [  0.1        -99.41756076]
 [  0.2          9.72781791]
 [  0.25666667  12.92966386]]","[[0.         1.19205775]
 [0.1        1.8519083 ]
 [0.2        0.75121465]
 [0.25666667 0.73809803]]",0,0.243
8760830999,f,19,english,5,5,english,2024-01-25 10:34:45.758114,False,2,265,sounds\french\audio/french_198.wav,"[[  0.          72.51067349]
 [  0.1         26.15359829]
 [  0.2        -38.06500424]
 [  0.25666667 -63.59150526]]","[[0.         0.65547069]
 [0.1        0.30610144]
 [0.2        0.27462822]
 [0.25666667 1.37790723]]",0,0.799
8760830999,f,19,english,5,5,english,2024-01-25 10:34:45.758114,False,2,266,sounds\french\audio/french_922.wav,"[[  0.          16.31592569]
 [  0.1         -2.28258737]
 [  0.2        -89.56675227]
 [  0.25666667  35.85711901]]","[[0.         1.06783245]
 [0.1        0.48563761]
 [0.2        1.02625397]
 [0.25666667 0.82092749]]",1,0.537
8760830999,f,19,english,5,5,english,2024-01-25 10:34:45.758114,False,2,267,sounds\french\audio/french_681.wav,"[[  0.         -28.020652  ]
 [  0.1         -7.04160788]
 [  0.2         53.5795515 ]
 [  0.25666667 -33.12503676]]","[[0.         0.15084138]
 [0.1        1.22079629]
 [0.2        1.97804896]
 [0.25666667 0.44897499]]",0,0.349
8760830999,f,19,english,5,5,english,2024-01-25 10:34:45.758114,False,2,268,sounds\french\audio/french_327.wav,"[[  0.          75.01862194]
 [  0.1        -83.8502905 ]
 [  0.2         63.63621512]
 [  0.25666667 -22.5018405 ]]","[[0.         1.26930687]
 [0.1        1.47688931]
 [0.2        1.339502  ]
 [0.25666667 0.76786237]]",0,0.323
8760830999,f,19,english,5,5,english,2024-01-25 10:34:45.758114,False,2,269,sounds\french\audio/french_202.wav,"[[  0.          13.54970771]
 [  0.1         96.46591802]
 [  0.2         96.13650215]
 [  0.25666667 -35.2772524 ]]","[[0.         0.17477243]
 [0.1        0.30528336]
 [0.2        0.41819952]
 [0.25666667 1.86493567]]",1,1.165
8760830999,f,19,english,5,5,english,2024-01-25 10:34:45.758114,False,2,270,sounds\french\audio/french_941.wav,"[[  0.         -66.32571195]
 [  0.1         85.09907795]
 [  0.2         87.37862016]
 [  0.25666667 -18.39108149]]","[[0.         0.9896497 ]
 [0.1        0.67654191]
 [0.2        1.4708398 ]
 [0.25666667 0.82969394]]",0,0.863
8760830999,f,19,english,5,5,english,2024-01-25 10:34:45.758114,False,2,271,sounds\french\audio/french_682.wav,"[[  0.         -16.33102186]
 [  0.1        -49.72009429]
 [  0.2        -23.39596266]
 [  0.25666667 -34.72439006]]","[[0.         0.79850708]
 [0.1        1.31273679]
 [0.2        1.51298147]
 [0.25666667 0.92861139]]",0,0.5
8760830999,f,19,english,5,5,english,2024-01-25 10:34:45.758114,False,2,272,sounds\french\audio/french_587.wav,"[[  0.         -75.34784911]
 [  0.1         20.53880501]
 [  0.2        -66.82934855]
 [  0.25666667   0.42354047]]","[[0.         1.71069253]
 [0.1        1.37718063]
 [0.2        1.47865121]
 [0.25666667 1.29460257]]",0,0.404
8760830999,f,19,english,5,5,english,2024-01-25 10:34:45.758114,False,2,273,sounds\french\audio/french_427.wav,"[[  0.         -76.02138843]
 [  0.1        -79.3514541 ]
 [  0.2         33.13783193]
 [  0.25666667 -70.0412192 ]]","[[0.         1.52776537]
 [0.1        0.93213061]
 [0.2        1.10363763]
 [0.25666667 1.44956109]]",0,0.198
8760830999,f,19,english,5,5,english,2024-01-25 10:34:45.758114,False,2,274,sounds\french\audio/french_754.wav,"[[ 0.         11.6644261 ]
 [ 0.1         5.00985124]
 [ 0.2        23.99974903]
 [ 0.25666667 23.77807811]]","[[0.         0.15061695]
 [0.1        0.57469516]
 [0.2        0.45412791]
 [0.25666667 0.27591884]]",0,1.631
8760830999,f,19,english,5,5,english,2024-01-25 10:34:45.758114,False,2,275,sounds\french\audio/french_435.wav,"[[  0.         -69.76325337]
 [  0.1         47.38197985]
 [  0.2        -46.68992054]
 [  0.25666667  49.41050132]]","[[0.         1.8844701 ]
 [0.1        1.37326168]
 [0.2        0.23230631]
 [0.25666667 0.56533705]]",0,0.494
8760830999,f,19,english,5,5,english,2024-01-25 10:34:45.758114,False,2,276,sounds\french\audio/french_236.wav,"[[ 0.         25.84118528]
 [ 0.1        -8.91572412]
 [ 0.2        11.24728016]
 [ 0.25666667 27.02911702]]","[[0.         0.50094641]
 [0.1        0.84977658]
 [0.2        1.88634356]
 [0.25666667 1.9832527 ]]",0,0.316
8760830999,f,19,english,5,5,english,2024-01-25 10:34:45.758114,False,2,277,sounds\french\audio/french_781.wav,"[[  0.          33.25938538]
 [  0.1        -13.90292419]
 [  0.2        -71.59350782]
 [  0.25666667  57.07291034]]","[[0.         1.27105286]
 [0.1        0.93357863]
 [0.2        1.0124146 ]
 [0.25666667 0.68511696]]",0,0.355
8760830999,f,19,english,5,5,english,2024-01-25 10:34:45.758114,False,2,278,sounds\french\audio/french_162.wav,"[[  0.         -20.03052962]
 [  0.1        -35.11860261]
 [  0.2         20.80868131]
 [  0.25666667  50.74802705]]","[[0.         1.70466969]
 [0.1        0.77666831]
 [0.2        1.88915568]
 [0.25666667 1.69994842]]",0,0.493
8760830999,f,19,english,5,5,english,2024-01-25 10:34:45.758114,False,2,279,sounds\french\audio/french_108.wav,"[[  0.         -38.50953818]
 [  0.1         44.47590219]
 [  0.2         35.73303492]
 [  0.25666667 -90.35369633]]","[[0.         1.14488094]
 [0.1        1.3820118 ]
 [0.2        1.04224754]
 [0.25666667 1.51933791]]",0,0.485
8760830999,f,19,english,5,5,english,2024-01-25 10:34:45.758114,False,2,280,sounds\french\audio/french_232.wav,"[[  0.          48.62304181]
 [  0.1        -66.91586117]
 [  0.2        -71.38800945]
 [  0.25666667  32.42157584]]","[[0.         1.60041799]
 [0.1        0.5698369 ]
 [0.2        1.21368891]
 [0.25666667 1.05085576]]",0,0.268
8760830999,f,19,english,5,5,english,2024-01-25 10:34:45.758114,False,2,281,sounds\french\audio/french_389.wav,"[[  0.          69.62296415]
 [  0.1        -41.49433877]
 [  0.2        -65.025051  ]
 [  0.25666667  10.9117334 ]]","[[0.         1.67675408]
 [0.1        1.60540147]
 [0.2        0.45817867]
 [0.25666667 1.10562968]]",0,0.493
8760830999,f,19,english,5,5,english,2024-01-25 10:34:45.758114,False,2,282,sounds\french\audio/french_349.wav,"[[  0.          73.89254537]
 [  0.1        -84.33493486]
 [  0.2         -3.2709249 ]
 [  0.25666667 -21.54511299]]","[[0.         0.17403551]
 [0.1        1.66487719]
 [0.2        1.53740634]
 [0.25666667 1.56834066]]",0,0.243
8760830999,f,19,english,5,5,english,2024-01-25 10:34:45.758114,False,2,283,sounds\french\audio/french_24.wav,"[[  0.         -90.56488298]
 [  0.1        -50.97686263]
 [  0.2         15.79918005]
 [  0.25666667   3.83977191]]","[[0.         1.23408284]
 [0.1        0.21485458]
 [0.2        0.7737077 ]
 [0.25666667 0.99994749]]",0,0.572
8760830999,f,19,english,5,5,english,2024-01-25 10:34:45.758114,False,2,284,sounds\french\audio/french_319.wav,"[[  0.          63.69489547]
 [  0.1         60.76449486]
 [  0.2        -58.82123998]
 [  0.25666667  43.46614377]]","[[0.         0.79356863]
 [0.1        1.37507237]
 [0.2        1.06369674]
 [0.25666667 1.64660946]]",0,0.443
8760830999,f,19,english,5,5,english,2024-01-25 10:34:45.758114,False,2,285,sounds\french\audio/french_823.wav,"[[  0.         -89.53533563]
 [  0.1         14.01752274]
 [  0.2         33.24657022]
 [  0.25666667 -78.84260648]]","[[0.         0.87621895]
 [0.1        0.92757563]
 [0.2        1.30685671]
 [0.25666667 1.33840969]]",0,0.251
8760830999,f,19,english,5,5,english,2024-01-25 10:34:45.758114,False,2,286,sounds\french\audio/french_488.wav,"[[  0.          83.09023231]
 [  0.1         31.08155804]
 [  0.2         23.00603586]
 [  0.25666667 -14.42068905]]","[[0.         0.61404301]
 [0.1        1.79467821]
 [0.2        0.24163263]
 [0.25666667 1.80620701]]",0,0.203
8760830999,f,19,english,5,5,english,2024-01-25 10:34:45.758114,False,2,287,sounds\french\audio/french_158.wav,"[[  0.          72.88318106]
 [  0.1         51.2800476 ]
 [  0.2        -29.39007937]
 [  0.25666667  87.52810159]]","[[0.         1.5476705 ]
 [0.1        1.92933226]
 [0.2        1.77733774]
 [0.25666667 1.82253327]]",0,0.132
8760830999,f,19,english,5,5,english,2024-01-25 10:34:45.758114,False,2,288,sounds\french\audio/french_496.wav,"[[  0.          95.35910422]
 [  0.1         -6.65722592]
 [  0.2         -0.21871516]
 [  0.25666667 -55.34055424]]","[[0.         1.71732874]
 [0.1        0.79073406]
 [0.2        0.34583293]
 [0.25666667 0.39020762]]",0,0.483
8760830999,f,19,english,5,5,english,2024-01-25 10:34:45.758114,False,2,289,sounds\french\audio/french_738.wav,"[[  0.           9.63502306]
 [  0.1         23.45464863]
 [  0.2        -41.48525502]
 [  0.25666667  10.13311751]]","[[0.         1.8953007 ]
 [0.1        0.66483685]
 [0.2        0.56687756]
 [0.25666667 1.74946228]]",0,0.388
8760830999,f,19,english,5,5,english,2024-01-25 10:34:45.758114,False,2,290,sounds\french\audio/french_618.wav,"[[  0.         -48.84080529]
 [  0.1         52.1949693 ]
 [  0.2          2.68255661]
 [  0.25666667 -32.43465806]]","[[0.         0.47316377]
 [0.1        0.45430598]
 [0.2        0.75800451]
 [0.25666667 0.99622678]]",1,0.484
8760830999,f,19,english,5,5,english,2024-01-25 10:34:45.758114,False,2,291,sounds\french\audio/french_285.wav,"[[  0.         -14.06099989]
 [  0.1         -5.26283055]
 [  0.2         18.02137941]
 [  0.25666667  46.27962364]]","[[0.         0.21649577]
 [0.1        0.66520183]
 [0.2        0.4490454 ]
 [0.25666667 1.92778075]]",1,0.951
8760830999,f,19,english,5,5,english,2024-01-25 10:34:45.758114,False,2,292,sounds\french\audio/french_77.wav,"[[  0.         -38.97456477]
 [  0.1        -27.77573133]
 [  0.2         62.31685549]
 [  0.25666667  13.7751853 ]]","[[0.         1.51906971]
 [0.1        1.43123518]
 [0.2        1.04030098]
 [0.25666667 1.45792424]]",0,0.695
8760830999,f,19,english,5,5,english,2024-01-25 10:34:45.758114,False,2,293,sounds\french\audio/french_599.wav,"[[  0.          67.35107794]
 [  0.1        -80.59112066]
 [  0.2          8.51369184]
 [  0.25666667  74.29539318]]","[[0.         1.27225877]
 [0.1        1.42607556]
 [0.2        0.27008032]
 [0.25666667 0.36016313]]",0,0.486
8760830999,f,19,english,5,5,english,2024-01-25 10:34:45.758114,False,2,294,sounds\french\audio/french_194.wav,"[[  0.          82.45325258]
 [  0.1         88.9094727 ]
 [  0.2        -44.07936747]
 [  0.25666667  97.80970813]]","[[0.         0.54112087]
 [0.1        0.47601939]
 [0.2        1.71905709]
 [0.25666667 1.16289195]]",0,0.173
8760830999,f,19,english,5,5,english,2024-01-25 10:34:45.758114,False,2,295,sounds\french\audio/french_64.wav,"[[  0.          -2.85479512]
 [  0.1        -22.43053594]
 [  0.2         99.07991634]
 [  0.25666667  -6.95169827]]","[[0.         1.8205441 ]
 [0.1        0.65122302]
 [0.2        0.54405082]
 [0.25666667 0.02019369]]",0,0.566
8760830999,f,19,english,5,5,english,2024-01-25 10:34:45.758114,False,2,296,sounds\french\audio/french_635.wav,"[[  0.          33.90344979]
 [  0.1        -75.47627702]
 [  0.2         49.7914685 ]
 [  0.25666667  43.41419086]]","[[0.         1.89496442]
 [0.1        0.79794333]
 [0.2        1.70645199]
 [0.25666667 1.41022612]]",0,0.155
8760830999,f,19,english,5,5,english,2024-01-25 10:34:45.758114,False,2,297,sounds\french\audio/french_52.wav,"[[  0.          77.15950351]
 [  0.1         66.43146777]
 [  0.2         76.85444305]
 [  0.25666667 -69.48513432]]","[[0.         1.06345864]
 [0.1        1.73071791]
 [0.2        1.08790246]
 [0.25666667 0.32336701]]",0,0.204
8760830999,f,19,english,5,5,english,2024-01-25 10:34:45.758114,False,2,298,sounds\french\audio/french_743.wav,"[[  0.         -33.29442342]
 [  0.1         66.78729562]
 [  0.2         -0.09457626]
 [  0.25666667  -6.43111547]]","[[0.         0.17876133]
 [0.1        1.55990879]
 [0.2        1.00824872]
 [0.25666667 1.50563658]]",0,0.177
8760830999,f,19,english,5,5,english,2024-01-25 10:34:45.758114,False,2,299,sounds\french\audio/french_12.wav,"[[  0.         -57.76127346]
 [  0.1         13.80138245]
 [  0.2         70.02389064]
 [  0.25666667 -46.37027392]]","[[0.         1.31680682]
 [0.1        1.40135686]
 [0.2        0.63152994]
 [0.25666667 0.33836826]]",0,0.219
8760830999,f,19,english,5,5,english,2024-01-25 10:34:45.758114,False,2,300,sounds\french\audio/french_324.wav,"[[  0.          19.03085887]
 [  0.1         67.89064078]
 [  0.2        -77.83323733]
 [  0.25666667 -13.49414868]]","[[0.         0.73874118]
 [0.1        0.03678538]
 [0.2        0.54818629]
 [0.25666667 1.04853797]]",1,1.187
8760830999,f,19,english,5,5,english,2024-01-25 10:34:45.758114,False,2,301,sounds\french\audio/french_599.wav,"[[  0.          67.35107794]
 [  0.1        -80.59112066]
 [  0.2          8.51369184]
 [  0.25666667  74.29539318]]","[[0.         1.27225877]
 [0.1        1.42607556]
 [0.2        0.27008032]
 [0.25666667 0.36016313]]",0,0.372
8760830999,f,19,english,5,5,english,2024-01-25 10:34:45.758114,False,2,302,sounds\french\audio/french_844.wav,"[[  0.          29.77319266]
 [  0.1         -6.65775534]
 [  0.2         88.70188171]
 [  0.25666667 -96.32304745]]","[[0.         0.89130203]
 [0.1        0.41170989]
 [0.2        0.96705276]
 [0.25666667 0.58258054]]",1,0.638
8760830999,f,19,english,5,5,english,2024-01-25 10:34:45.758114,False,2,303,sounds\french\audio/french_658.wav,"[[  0.         -96.64822149]
 [  0.1         49.0828934 ]
 [  0.2         12.17217875]
 [  0.25666667  21.40759607]]","[[0.         1.39139244]
 [0.1        0.52881355]
 [0.2        0.81868418]
 [0.25666667 0.56425508]]",0,0.796
8760830999,f,19,english,5,5,english,2024-01-25 10:34:45.758114,False,2,304,sounds\french\audio/french_981.wav,"[[  0.          -1.54223553]
 [  0.1        -78.86121057]
 [  0.2        -33.48141771]
 [  0.25666667 -47.78773965]]","[[0.         0.66538198]
 [0.1        1.42802268]
 [0.2        0.92303184]
 [0.25666667 0.82545089]]",0,0.467
8760830999,f,19,english,5,5,english,2024-01-25 10:34:45.758114,False,2,305,sounds\french\audio/french_252.wav,"[[  0.         -68.3996329 ]
 [  0.1         79.02734002]
 [  0.2        -18.50805447]
 [  0.25666667 -85.84066145]]","[[0.         0.41781817]
 [0.1        1.03502761]
 [0.2        0.82044901]
 [0.25666667 1.09163249]]",0,0.23
8760830999,f,19,english,5,5,english,2024-01-25 10:34:45.758114,False,2,306,sounds\french\audio/french_820.wav,"[[  0.         -23.2512771 ]
 [  0.1         -3.42093224]
 [  0.2        -78.83822409]
 [  0.25666667 -24.79307177]]","[[0.         0.85914582]
 [0.1        1.44867235]
 [0.2        1.61907263]
 [0.25666667 1.11055267]]",0,0.2
8760830999,f,19,english,5,5,english,2024-01-25 10:34:45.758114,False,2,307,sounds\french\audio/french_604.wav,"[[  0.         -11.11210875]
 [  0.1        -13.90326971]
 [  0.2        -78.59226075]
 [  0.25666667  87.42620436]]","[[0.         1.64316359]
 [0.1        0.56968283]
 [0.2        1.3955722 ]
 [0.25666667 0.51982143]]",0,0.249
8760830999,f,19,english,5,5,english,2024-01-25 10:34:45.758114,False,2,308,sounds\french\audio/french_939.wav,"[[  0.          26.75853805]
 [  0.1          6.19803181]
 [  0.2        -16.72335747]
 [  0.25666667  96.23810145]]","[[0.         1.87296773]
 [0.1        1.06061528]
 [0.2        1.33482008]
 [0.25666667 0.73381464]]",1,0.837
8760830999,f,19,english,5,5,english,2024-01-25 10:34:45.758114,False,2,309,sounds\french\audio/french_501.wav,"[[  0.         -56.11865097]
 [  0.1         -7.09029516]
 [  0.2        -36.29429224]
 [  0.25666667 -11.40231031]]","[[0.         1.37224371]
 [0.1        0.68301448]
 [0.2        0.41531668]
 [0.25666667 0.4885534 ]]",0,1.428
8760830999,f,19,english,5,5,english,2024-01-25 10:34:45.758114,False,2,310,sounds\french\audio/french_987.wav,"[[ 0.         29.59235099]
 [ 0.1        34.94187385]
 [ 0.2        50.69614072]
 [ 0.25666667 30.08512425]]","[[0.         0.62183529]
 [0.1        0.21370909]
 [0.2        0.33639435]
 [0.25666667 1.23768731]]",1,0.882
8760830999,f,19,english,5,5,english,2024-01-25 10:34:45.758114,False,2,311,sounds\french\audio/french_219.wav,"[[  0.         -98.78648146]
 [  0.1        -54.51672601]
 [  0.2         75.82451993]
 [  0.25666667  42.52821499]]","[[0.         1.35832625]
 [0.1        0.9105506 ]
 [0.2        0.22027405]
 [0.25666667 1.53742188]]",0,1.505
8760830999,f,19,english,5,5,english,2024-01-25 10:34:45.758114,False,2,312,sounds\french\audio/french_435.wav,"[[  0.         -69.76325337]
 [  0.1         47.38197985]
 [  0.2        -46.68992054]
 [  0.25666667  49.41050132]]","[[0.         1.8844701 ]
 [0.1        1.37326168]
 [0.2        0.23230631]
 [0.25666667 0.56533705]]",0,0.716
8760830999,f,19,english,5,5,english,2024-01-25 10:34:45.758114,False,2,313,sounds\french\audio/french_719.wav,"[[  0.          -0.39387326]
 [  0.1          1.52424656]
 [  0.2         34.63950895]
 [  0.25666667 -19.23986751]]","[[0.         0.47887204]
 [0.1        1.22874683]
 [0.2        0.97564384]
 [0.25666667 0.79252429]]",0,0.391
8760830999,f,19,english,5,5,english,2024-01-25 10:34:45.758114,False,2,314,sounds\french\audio/french_552.wav,"[[  0.         -52.32363839]
 [  0.1         23.44364533]
 [  0.2         72.20212972]
 [  0.25666667 -25.42911122]]","[[0.         0.44295398]
 [0.1        1.4520287 ]
 [0.2        0.63620541]
 [0.25666667 1.39952151]]",0,0.333
8760830999,f,19,english,5,5,english,2024-01-25 10:34:45.758114,False,2,315,sounds\french\audio/french_859.wav,"[[  0.          52.92786792]
 [  0.1         18.54274392]
 [  0.2        -25.06242892]
 [  0.25666667   0.70946668]]","[[0.         1.14238893]
 [0.1        1.12707434]
 [0.2        1.93999144]
 [0.25666667 1.31682519]]",0,0.391
8760830999,f,19,english,5,5,english,2024-01-25 10:34:45.758114,False,2,316,sounds\french\audio/french_269.wav,"[[  0.          34.85044548]
 [  0.1         47.51511781]
 [  0.2         34.15302515]
 [  0.25666667 -55.0259295 ]]","[[0.00000000e+00 6.17924031e-04]
 [1.00000000e-01 1.05540646e+00]
 [2.00000000e-01 9.84234213e-01]
 [2.56666667e-01 8.45106618e-01]]",1,1.11
8760830999,f,19,english,5,5,english,2024-01-25 10:34:45.758114,False,2,317,sounds\french\audio/french_705.wav,"[[  0.         -31.52083019]
 [  0.1         93.24854214]
 [  0.2        -36.26217339]
 [  0.25666667  58.31905924]]","[[0.         1.71356233]
 [0.1        0.26324818]
 [0.2        0.66385994]
 [0.25666667 1.85027868]]",0,1.012
8760830999,f,19,english,5,5,english,2024-01-25 10:34:45.758114,False,2,318,sounds\french\audio/french_456.wav,"[[  0.         -27.91969988]
 [  0.1         -6.9905469 ]
 [  0.2          7.34213132]
 [  0.25666667 -16.30576404]]","[[0.         0.874098  ]
 [0.1        0.40632282]
 [0.2        0.88508218]
 [0.25666667 1.43350061]]",0,0.502
8760830999,f,19,english,5,5,english,2024-01-25 10:34:45.758114,False,2,319,sounds\french\audio/french_519.wav,"[[  0.          86.76456043]
 [  0.1          8.46145491]
 [  0.2        -48.6822419 ]
 [  0.25666667 -44.03350662]]","[[0.         1.09635868]
 [0.1        1.19136691]
 [0.2        1.7889624 ]
 [0.25666667 1.1754675 ]]",0,0.573
8760830999,f,19,english,5,5,english,2024-01-25 10:34:45.758114,False,2,320,sounds\french\audio/french_982.wav,"[[  0.         -37.50079515]
 [  0.1        -23.37923681]
 [  0.2        -55.8234839 ]
 [  0.25666667 -58.92111767]]","[[0.         0.32253899]
 [0.1        1.88868261]
 [0.2        0.59835015]
 [0.25666667 1.21615752]]",0,0.351
8760830999,f,19,english,5,5,english,2024-01-25 10:34:45.758114,False,2,321,sounds\french\audio/french_540.wav,"[[  0.          64.41538276]
 [  0.1         17.02048616]
 [  0.2        -33.22379056]
 [  0.25666667   6.66749413]]","[[0.         0.51709462]
 [0.1        1.30376576]
 [0.2        0.40148031]
 [0.25666667 1.14865781]]",0,0.546
8760830999,f,19,english,5,5,english,2024-01-25 10:34:45.758114,False,2,322,sounds\french\audio/french_513.wav,"[[  0.          84.63539274]
 [  0.1         36.6114333 ]
 [  0.2         14.49628471]
 [  0.25666667 -17.17346171]]","[[0.         1.68726635]
 [0.1        0.88690679]
 [0.2        0.37350839]
 [0.25666667 1.74122924]]",0,0.354
8760830999,f,19,english,5,5,english,2024-01-25 10:34:45.758114,False,2,323,sounds\french\audio/french_459.wav,"[[  0.           4.79398058]
 [  0.1         85.90612859]
 [  0.2        -69.41023595]
 [  0.25666667 -22.07588814]]","[[0.         1.10654006]
 [0.1        1.2996969 ]
 [0.2        0.20520219]
 [0.25666667 1.17361701]]",0,0.374
8760830999,f,19,english,5,5,english,2024-01-25 10:34:45.758114,False,2,324,sounds\french\audio/french_599.wav,"[[  0.          67.35107794]
 [  0.1        -80.59112066]
 [  0.2          8.51369184]
 [  0.25666667  74.29539318]]","[[0.         1.27225877]
 [0.1        1.42607556]
 [0.2        0.27008032]
 [0.25666667 0.36016313]]",0,0.318
8760830999,f,19,english,5,5,english,2024-01-25 10:34:45.758114,False,2,325,sounds\french\audio/french_713.wav,"[[  0.          93.33204992]
 [  0.1        -15.69856834]
 [  0.2         18.82527382]
 [  0.25666667 -49.17212055]]","[[0.         0.23689023]
 [0.1        0.32059987]
 [0.2        0.78497323]
 [0.25666667 0.28269646]]",1,0.683
8760830999,f,19,english,5,5,english,2024-01-25 10:34:45.758114,False,2,326,sounds\french\audio/french_374.wav,"[[  0.          23.12233407]
 [  0.1          4.88786521]
 [  0.2         75.40336837]
 [  0.25666667 -52.23092949]]","[[0.         0.63582229]
 [0.1        0.48218095]
 [0.2        0.81003499]
 [0.25666667 1.31471089]]",1,0.681
8760830999,f,19,english,5,5,english,2024-01-25 10:34:45.758114,False,2,327,sounds\french\audio/french_344.wav,"[[  0.          52.58849346]
 [  0.1        -22.3140036 ]
 [  0.2        -66.1637605 ]
 [  0.25666667 -23.8196401 ]]","[[0.         0.27482393]
 [0.1        0.23105003]
 [0.2        0.54206464]
 [0.25666667 1.18246439]]",1,1.164
8760830999,f,19,english,5,5,english,2024-01-25 10:34:45.758114,False,2,328,sounds\french\audio/french_695.wav,"[[ 0.00000000e+00 -5.76665866e+01]
 [ 1.00000000e-01  6.09893846e+00]
 [ 2.00000000e-01 -8.08229011e+01]
 [ 2.56666667e-01  7.37669519e-03]]","[[0.         1.09792482]
 [0.1        1.46549104]
 [0.2        1.66085764]
 [0.25666667 1.19228029]]",0,0.419
8760830999,f,19,english,5,5,english,2024-01-25 10:34:45.758114,False,2,329,sounds\french\audio/french_362.wav,"[[  0.          -5.18125688]
 [  0.1        -33.24228679]
 [  0.2         13.99395474]
 [  0.25666667 -44.70505318]]","[[0.         1.66521149]
 [0.1        1.63330091]
 [0.2        0.18995652]
 [0.25666667 0.66219279]]",0,0.725
8760830999,f,19,english,5,5,english,2024-01-25 10:34:45.758114,False,2,330,sounds\french\audio/french_706.wav,"[[  0.          53.91986852]
 [  0.1        -86.79287422]
 [  0.2        -18.13553248]
 [  0.25666667 -98.41078943]]","[[0.         0.595313  ]
 [0.1        0.19033695]
 [0.2        1.2444166 ]
 [0.25666667 0.51551453]]",0,1.255
8760830999,f,19,english,5,5,english,2024-01-25 10:34:45.758114,False,2,331,sounds\french\audio/french_972.wav,"[[  0.          10.38102426]
 [  0.1        -66.54271468]
 [  0.2         -2.89265523]
 [  0.25666667 -87.42126356]]","[[0.         0.90840989]
 [0.1        1.6485676 ]
 [0.2        0.79956718]
 [0.25666667 1.28352811]]",0,0.546
8760830999,f,19,english,5,5,english,2024-01-25 10:34:45.758114,False,2,332,sounds\french\audio/french_350.wav,"[[  0.         -94.89147327]
 [  0.1        -69.96874844]
 [  0.2        -41.05008416]
 [  0.25666667  27.21030297]]","[[0.         1.34276454]
 [0.1        1.56346818]
 [0.2        0.76037532]
 [0.25666667 1.08356683]]",0,0.338
8760830999,f,19,english,5,5,english,2024-01-25 10:34:45.758114,False,2,333,sounds\french\audio/french_473.wav,"[[  0.         -59.88543895]
 [  0.1         36.52277503]
 [  0.2        -76.47045714]
 [  0.25666667 -69.05057232]]","[[0.         0.32878746]
 [0.1        0.29204452]
 [0.2        0.65259503]
 [0.25666667 0.35645849]]",1,0.815
8760830999,f,19,english,5,5,english,2024-01-25 10:34:45.758114,False,2,334,sounds\french\audio/french_683.wav,"[[  0.          21.98154849]
 [  0.1         59.44126587]
 [  0.2        -51.05687534]
 [  0.25666667  -9.70916743]]","[[0.         0.17421097]
 [0.1        0.03094343]
 [0.2        0.79924543]
 [0.25666667 0.82068176]]",1,0.775
8760830999,f,19,english,5,5,english,2024-01-25 10:34:45.758114,False,2,335,sounds\french\audio/french_962.wav,"[[  0.         -23.88621243]
 [  0.1         -2.32674089]
 [  0.2         99.5739753 ]
 [  0.25666667 -60.89946795]]","[[0.         0.58686494]
 [0.1        1.96763724]
 [0.2        0.1339284 ]
 [0.25666667 0.14371278]]",0,0.353
8760830999,f,19,english,5,5,english,2024-01-25 10:34:45.758114,False,2,336,sounds\french\audio/french_447.wav,"[[  0.         -15.50115845]
 [  0.1         -4.86998407]
 [  0.2        -86.84595189]
 [  0.25666667 -28.81346371]]","[[0.         0.77909013]
 [0.1        1.31519509]
 [0.2        1.40793423]
 [0.25666667 0.16835643]]",0,0.63
8760830999,f,19,english,5,5,english,2024-01-25 10:34:45.758114,False,2,337,sounds\french\audio/french_759.wav,"[[  0.          43.66892012]
 [  0.1         28.75822808]
 [  0.2        -53.65094598]
 [  0.25666667 -79.66264825]]","[[0.         0.9017147 ]
 [0.1        1.01118462]
 [0.2        1.43326948]
 [0.25666667 0.32927354]]",0,0.401
8760830999,f,19,english,5,5,english,2024-01-25 10:34:45.758114,False,2,338,sounds\french\audio/french_834.wav,"[[  0.         -86.08965853]
 [  0.1         69.78931281]
 [  0.2        -42.1324214 ]
 [  0.25666667 -13.11810425]]","[[0.         1.35817583]
 [0.1        0.2902945 ]
 [0.2        0.84488429]
 [0.25666667 0.59655356]]",0,1.579
8760830999,f,19,english,5,5,english,2024-01-25 10:34:45.758114,False,2,339,sounds\french\audio/french_929.wav,"[[ 0.         -0.81023728]
 [ 0.1        49.23140571]
 [ 0.2        -9.18427249]
 [ 0.25666667  2.49300226]]","[[0.         1.80594317]
 [0.1        0.75886247]
 [0.2        0.13714517]
 [0.25666667 0.57622003]]",1,1.286
8760830999,f,19,english,5,5,english,2024-01-25 10:34:45.758114,False,2,340,sounds\french\audio/french_512.wav,"[[  0.         -78.17864001]
 [  0.1          0.33316605]
 [  0.2        -88.66010948]
 [  0.25666667 -69.42732992]]","[[0.         1.53776746]
 [0.1        0.01358873]
 [0.2        0.2850161 ]
 [0.25666667 0.92419145]]",0,2.116
8760830999,f,19,english,5,5,english,2024-01-25 10:34:45.758114,False,2,341,sounds\french\audio/french_97.wav,"[[  0.         -26.25195718]
 [  0.1         46.36733761]
 [  0.2        -70.05850246]
 [  0.25666667 -12.16166803]]","[[0.         1.78322942]
 [0.1        0.61428926]
 [0.2        0.23760427]
 [0.25666667 0.84541126]]",0,0.496
8760830999,f,19,english,5,5,english,2024-01-25 10:34:45.758114,False,2,342,sounds\french\audio/french_106.wav,"[[  0.         -80.93311261]
 [  0.1          7.33604761]
 [  0.2         53.45287064]
 [  0.25666667 -26.77526802]]","[[0.         0.79978414]
 [0.1        0.87655026]
 [0.2        1.02362607]
 [0.25666667 1.25354946]]",1,0.469
8760830999,f,19,english,5,5,english,2024-01-25 10:34:45.758114,False,2,343,sounds\french\audio/french_607.wav,"[[  0.          86.31857573]
 [  0.1        -46.02697415]
 [  0.2         45.41214831]
 [  0.25666667  58.05056059]]","[[0.         1.61060215]
 [0.1        1.76940735]
 [0.2        0.70600977]
 [0.25666667 0.79164166]]",0,0.256
8760830999,f,19,english,5,5,english,2024-01-25 10:34:45.758114,False,2,344,sounds\french\audio/french_296.wav,"[[  0.          93.71479572]
 [  0.1        -75.79046522]
 [  0.2        -87.29598303]
 [  0.25666667  31.73776098]]","[[0.         0.08926169]
 [0.1        1.27041306]
 [0.2        1.46433067]
 [0.25666667 0.42599999]]",0,1.487
8760830999,f,19,english,5,5,english,2024-01-25 10:34:45.758114,False,2,345,sounds\french\audio/french_733.wav,"[[  0.          96.30835656]
 [  0.1        -16.80147809]
 [  0.2         34.50045069]
 [  0.25666667  -6.11336577]]","[[0.         1.00234216]
 [0.1        0.65355169]
 [0.2        1.63394937]
 [0.25666667 0.15404628]]",0,0.75
8760830999,f,19,english,5,5,english,2024-01-25 10:34:45.758114,False,2,346,sounds\french\audio/french_932.wav,"[[  0.         -46.06723632]
 [  0.1         66.80974186]
 [  0.2         39.28685727]
 [  0.25666667 -66.26323275]]","[[0.         0.59994833]
 [0.1        1.29573715]
 [0.2        0.97302603]
 [0.25666667 1.65300799]]",0,0.338
8760830999,f,19,english,5,5,english,2024-01-25 10:34:45.758114,False,2,347,sounds\french\audio/french_660.wav,"[[  0.         -75.02051955]
 [  0.1        -36.41679043]
 [  0.2        -45.60366398]
 [  0.25666667  13.07838485]]","[[0.         0.75293762]
 [0.1        0.97452375]
 [0.2        1.88941483]
 [0.25666667 0.53297117]]",0,0.193
8760830999,f,19,english,5,5,english,2024-01-25 10:34:45.758114,False,2,348,sounds\french\audio/french_809.wav,"[[  0.         -35.34138518]
 [  0.1        -27.53268432]
 [  0.2         -4.59062168]
 [  0.25666667  54.17413939]]","[[0.         0.91250327]
 [0.1        1.55486221]
 [0.2        0.05513513]
 [0.25666667 0.74937359]]",0,0.314
8760830999,f,19,english,5,5,english,2024-01-25 10:34:45.758114,False,2,349,sounds\french\audio/french_346.wav,"[[  0.          -9.57888942]
 [  0.1         44.75165277]
 [  0.2        -77.92949754]
 [  0.25666667 -10.35911767]]","[[0.         1.97053356]
 [0.1        0.16189102]
 [0.2        0.34896721]
 [0.25666667 1.54776001]]",1,0.444
8760830999,f,19,english,5,5,english,2024-01-25 10:34:45.758114,False,2,350,sounds\french\audio/french_342.wav,"[[  0.         -84.22246184]
 [  0.1        -88.55202377]
 [  0.2         12.74462997]
 [  0.25666667 -73.67155113]]","[[0.         0.80111929]
 [0.1        0.92289162]
 [0.2        0.96187701]
 [0.25666667 0.57764427]]",0,0.351
8760830999,f,19,english,5,5,english,2024-01-25 10:34:45.758114,False,2,351,sounds\french\audio/french_499.wav,"[[  0.          24.28229917]
 [  0.1        -90.85236303]
 [  0.2        -60.29957953]
 [  0.25666667  91.79807534]]","[[0.         0.76159538]
 [0.1        0.50536641]
 [0.2        0.99158085]
 [0.25666667 1.05465089]]",0,0.477
8760830999,f,19,english,5,5,english,2024-01-25 10:34:45.758114,False,2,352,sounds\french\audio/french_282.wav,"[[  0.         -97.43488085]
 [  0.1         96.20897113]
 [  0.2         27.16020646]
 [  0.25666667 -13.14092169]]","[[0.         0.55303377]
 [0.1        1.41145651]
 [0.2        1.83661618]
 [0.25666667 0.36912502]]",0,0.308
8760830999,f,19,english,5,5,english,2024-01-25 10:34:45.758114,False,2,353,sounds\french\audio/french_96.wav,"[[  0.         -35.67204937]
 [  0.1        -14.5967046 ]
 [  0.2         23.77171322]
 [  0.25666667 -43.45086892]]","[[0.         1.29614461]
 [0.1        0.74963508]
 [0.2        0.96397917]
 [0.25666667 0.69619931]]",0,0.709
8760830999,f,19,english,5,5,english,2024-01-25 10:34:45.758114,False,2,354,sounds\french\audio/french_740.wav,"[[  0.         -63.22643447]
 [  0.1        -76.79793208]
 [  0.2        -90.89358737]
 [  0.25666667 -87.57687491]]","[[0.         1.41698272]
 [0.1        1.15791198]
 [0.2        1.97460827]
 [0.25666667 0.61281255]]",0,0.326
8760830999,f,19,english,5,5,english,2024-01-25 10:34:45.758114,False,2,355,sounds\french\audio/french_118.wav,"[[  0.          26.93316006]
 [  0.1        -22.92967869]
 [  0.2        -61.93287208]
 [  0.25666667 -97.08418949]]","[[0.         1.47067426]
 [0.1        1.58231537]
 [0.2        1.01494319]
 [0.25666667 0.71977579]]",0,1.277
8760830999,f,19,english,5,5,english,2024-01-25 10:34:45.758114,False,2,356,sounds\french\audio/french_807.wav,"[[  0.          41.22965042]
 [  0.1         55.45523643]
 [  0.2        -56.08981041]
 [  0.25666667  27.67304414]]","[[0.         0.26309645]
 [0.1        0.30227962]
 [0.2        0.58983644]
 [0.25666667 1.26996728]]",1,0.709
8760830999,f,19,english,5,5,english,2024-01-25 10:34:45.758114,False,2,357,sounds\french\audio/french_933.wav,"[[  0.         -24.27897726]
 [  0.1         45.4380102 ]
 [  0.2         44.52165476]
 [  0.25666667  11.96128215]]","[[0.         0.66366025]
 [0.1        1.16686233]
 [0.2        0.86083852]
 [0.25666667 1.88972919]]",0,0.183
8760830999,f,19,english,5,5,english,2024-01-25 10:34:45.758114,False,2,358,sounds\french\audio/french_376.wav,"[[  0.         -29.78300729]
 [  0.1        -14.6608331 ]
 [  0.2         93.91149251]
 [  0.25666667  61.08695399]]","[[0.         1.32478843]
 [0.1        1.46487259]
 [0.2        1.42207254]
 [0.25666667 1.23206205]]",0,0.187
8760830999,f,19,english,5,5,english,2024-01-25 10:34:45.758114,False,2,359,sounds\french\audio/french_331.wav,"[[  0.         -65.4197333 ]
 [  0.1        -42.63112693]
 [  0.2        -74.29271092]
 [  0.25666667 -22.37665177]]","[[0.         1.29365297]
 [0.1        1.19213918]
 [0.2        0.93002313]
 [0.25666667 1.59897964]]",0,0.328
8760830999,f,19,english,5,5,english,2024-01-25 10:34:45.758114,False,2,360,sounds\french\audio/french_939.wav,"[[  0.          26.75853805]
 [  0.1          6.19803181]
 [  0.2        -16.72335747]
 [  0.25666667  96.23810145]]","[[0.         1.87296773]
 [0.1        1.06061528]
 [0.2        1.33482008]
 [0.25666667 0.73381464]]",0,0.353
8760830999,f,19,english,5,5,english,2024-01-25 10:34:45.758114,False,2,361,sounds\french\audio/french_255.wav,"[[  0.         -34.51424568]
 [  0.1         78.41526515]
 [  0.2        -68.08036781]
 [  0.25666667  24.01405499]]","[[0.         1.48061101]
 [0.1        1.11576013]
 [0.2        0.98465822]
 [0.25666667 1.10721404]]",0,0.489
8760830999,f,19,english,5,5,english,2024-01-25 10:34:45.758114,False,2,362,sounds\french\audio/french_626.wav,"[[  0.         -93.35692854]
 [  0.1         98.43225428]
 [  0.2        -65.0946996 ]
 [  0.25666667  62.51553639]]","[[0.         1.28523942]
 [0.1        0.26610399]
 [0.2        0.08304138]
 [0.25666667 1.47830697]]",1,0.723
8760830999,f,19,english,5,5,english,2024-01-25 10:34:45.758114,False,2,363,sounds\french\audio/french_805.wav,"[[  0.          21.15897581]
 [  0.1        -84.51795283]
 [  0.2         72.20878309]
 [  0.25666667 -28.14016055]]","[[0.         1.3244225 ]
 [0.1        0.68750265]
 [0.2        0.56084624]
 [0.25666667 0.45412894]]",1,1.04
8760830999,f,19,english,5,5,english,2024-01-25 10:34:45.758114,False,2,364,sounds\french\audio/french_559.wav,"[[  0.          64.66028359]
 [  0.1        -43.2680873 ]
 [  0.2        -64.36892284]
 [  0.25666667  44.10109235]]","[[0.         0.94999591]
 [0.1        1.38482691]
 [0.2        1.27938883]
 [0.25666667 0.16591499]]",0,1.004
8760830999,f,19,english,5,5,english,2024-01-25 10:34:45.758114,False,2,365,sounds\french\audio/french_26.wav,"[[  0.         -38.52186107]
 [  0.1         92.94908957]
 [  0.2         38.63958599]
 [  0.25666667  81.76747676]]","[[0.         1.55913274]
 [0.1        0.73355846]
 [0.2        0.51766924]
 [0.25666667 0.7935304 ]]",1,0.775
8760830999,f,19,english,5,5,english,2024-01-25 10:34:45.758114,False,2,366,sounds\french\audio/french_657.wav,"[[  0.          99.76716584]
 [  0.1         11.51898435]
 [  0.2        -43.45408234]
 [  0.25666667  22.46427071]]","[[0.         0.85695778]
 [0.1        1.00645436]
 [0.2        0.73989588]
 [0.25666667 1.57217431]]",0,0.578
8760830999,f,19,english,5,5,english,2024-01-25 10:34:45.758114,False,2,367,sounds\french\audio/french_520.wav,"[[  0.         -93.2931023 ]
 [  0.1         13.33088057]
 [  0.2        -27.94628904]
 [  0.25666667  -1.59677094]]","[[0.         0.41573501]
 [0.1        0.24185226]
 [0.2        0.74385359]
 [0.25666667 0.80521135]]",1,0.764
8760830999,f,19,english,5,5,english,2024-01-25 10:34:45.758114,False,2,368,sounds\french\audio/french_546.wav,"[[  0.          36.39546499]
 [  0.1        -76.59722628]
 [  0.2        -20.75900546]
 [  0.25666667   8.86958668]]","[[0.         1.70532748]
 [0.1        1.24815266]
 [0.2        1.81852615]
 [0.25666667 0.22376713]]",0,0.192
8760830999,f,19,english,5,5,english,2024-01-25 10:34:45.758114,False,2,369,sounds\french\audio/french_736.wav,"[[  0.         -58.2057669 ]
 [  0.1         67.4754916 ]
 [  0.2         92.18157431]
 [  0.25666667  88.23593553]]","[[0.         1.39182764]
 [0.1        0.85405242]
 [0.2        1.06665121]
 [0.25666667 0.29553719]]",0,0.348
8760830999,f,19,english,5,5,english,2024-01-25 10:34:45.758114,False,2,370,sounds\french\audio/french_815.wav,"[[  0.         -30.97778369]
 [  0.1        -10.3506413 ]
 [  0.2         61.86726268]
 [  0.25666667 -32.12586702]]","[[0.         1.45421986]
 [0.1        0.28044698]
 [0.2        1.88309962]
 [0.25666667 1.86356454]]",0,0.192
8760830999,f,19,english,5,5,english,2024-01-25 10:34:45.758114,False,2,371,sounds\french\audio/french_162.wav,"[[  0.         -20.03052962]
 [  0.1        -35.11860261]
 [  0.2         20.80868131]
 [  0.25666667  50.74802705]]","[[0.         1.70466969]
 [0.1        0.77666831]
 [0.2        1.88915568]
 [0.25666667 1.69994842]]",0,0.273
8760830999,f,19,english,5,5,english,2024-01-25 10:34:45.758114,False,2,372,sounds\french\audio/french_529.wav,"[[  0.          54.97727121]
 [  0.1        -15.05833494]
 [  0.2          4.35581279]
 [  0.25666667 -47.03433584]]","[[0.         0.19662293]
 [0.1        1.39103506]
 [0.2        0.62492467]
 [0.25666667 1.10830727]]",0,0.525
8760830999,f,19,english,5,5,english,2024-01-25 10:34:45.758114,False,2,373,sounds\french\audio/french_6.wav,"[[  0.          67.46153681]
 [  0.1        -88.84735091]
 [  0.2        -91.91919173]
 [  0.25666667  29.60258617]]","[[0.         1.53277947]
 [0.1        1.45938327]
 [0.2        0.73643418]
 [0.25666667 1.91810532]]",0,0.272
8760830999,f,19,english,5,5,english,2024-01-25 10:34:45.758114,False,2,374,sounds\french\audio/french_502.wav,"[[  0.         -20.79410197]
 [  0.1        -29.31354171]
 [  0.2         66.76157716]
 [  0.25666667  63.6653431 ]]","[[0.         1.55473715]
 [0.1        0.75660833]
 [0.2        1.40053341]
 [0.25666667 1.0602207 ]]",0,0.395
8760830999,f,19,english,5,5,english,2024-01-25 10:34:45.758114,False,2,375,sounds\french\audio/french_64.wav,"[[  0.          -2.85479512]
 [  0.1        -22.43053594]
 [  0.2         99.07991634]
 [  0.25666667  -6.95169827]]","[[0.         1.8205441 ]
 [0.1        0.65122302]
 [0.2        0.54405082]
 [0.25666667 0.02019369]]",1,0.818
8760830999,f,19,english,5,5,english,2024-01-25 10:34:45.758114,False,2,376,sounds\french\audio/french_522.wav,"[[  0.         -33.95775035]
 [  0.1         -8.89346692]
 [  0.2        -13.71087049]
 [  0.25666667  29.03245504]]","[[0.         0.92167055]
 [0.1        1.03421615]
 [0.2        0.39118917]
 [0.25666667 1.12010972]]",0,0.925
8760830999,f,19,english,5,5,english,2024-01-25 10:34:45.758114,False,2,377,sounds\french\audio/french_895.wav,"[[  0.          52.32100115]
 [  0.1        -68.39097894]
 [  0.2         86.56169168]
 [  0.25666667 -55.69575084]]","[[0.         0.06001912]
 [0.1        0.92594104]
 [0.2        1.18275101]
 [0.25666667 0.90868208]]",1,0.776
8760830999,f,19,english,5,5,english,2024-01-25 10:34:45.758114,False,2,378,sounds\french\audio/french_882.wav,"[[  0.         -76.64131244]
 [  0.1        -39.91871486]
 [  0.2        -10.31613543]
 [  0.25666667  20.39966841]]","[[0.         0.67668261]
 [0.1        0.28498495]
 [0.2        0.59130788]
 [0.25666667 1.12904738]]",0,0.471
8760830999,f,19,english,5,5,english,2024-01-25 10:34:45.758114,False,2,379,sounds\french\audio/french_430.wav,"[[  0.         -57.26862172]
 [  0.1         63.88036448]
 [  0.2        -87.83585054]
 [  0.25666667 -58.79211397]]","[[0.         0.12656802]
 [0.1        1.52184386]
 [0.2        1.10266765]
 [0.25666667 1.86011067]]",0,0.308
8760830999,f,19,english,5,5,english,2024-01-25 10:34:45.758114,False,2,380,sounds\french\audio/french_411.wav,"[[  0.          65.70741219]
 [  0.1          9.47903784]
 [  0.2         88.46874173]
 [  0.25666667 -33.05830924]]","[[0.         1.12073031]
 [0.1        1.20345695]
 [0.2        1.7567893 ]
 [0.25666667 0.68949127]]",0,0.316
8760830999,f,19,english,5,5,english,2024-01-25 10:34:45.758114,False,2,381,sounds\french\audio/french_559.wav,"[[  0.          64.66028359]
 [  0.1        -43.2680873 ]
 [  0.2        -64.36892284]
 [  0.25666667  44.10109235]]","[[0.         0.94999591]
 [0.1        1.38482691]
 [0.2        1.27938883]
 [0.25666667 0.16591499]]",0,0.169
8760830999,f,19,english,5,5,english,2024-01-25 10:34:45.758114,False,2,382,sounds\french\audio/french_5.wav,"[[  0.          -2.8714843 ]
 [  0.1        -50.9441672 ]
 [  0.2         56.21180826]
 [  0.25666667 -57.18619957]]","[[0.         1.07181682]
 [0.1        0.56733338]
 [0.2        0.26773361]
 [0.25666667 1.97613039]]",0,1.15
8760830999,f,19,english,5,5,english,2024-01-25 10:34:45.758114,False,2,383,sounds\french\audio/french_895.wav,"[[  0.          52.32100115]
 [  0.1        -68.39097894]
 [  0.2         86.56169168]
 [  0.25666667 -55.69575084]]","[[0.         0.06001912]
 [0.1        0.92594104]
 [0.2        1.18275101]
 [0.25666667 0.90868208]]",1,0.635
8760830999,f,19,english,5,5,english,2024-01-25 10:34:45.758114,False,2,384,sounds\french\audio/french_771.wav,"[[  0.         -31.32443984]
 [  0.1          2.91896775]
 [  0.2         73.75563113]
 [  0.25666667  61.27629387]]","[[0.         0.10443369]
 [0.1        0.0162425 ]
 [0.2        0.96029425]
 [0.25666667 1.26482275]]",1,0.759
8760830999,f,19,english,5,5,english,2024-01-25 10:34:45.758114,False,2,385,sounds\french\audio/french_873.wav,"[[  0.         -12.1574241 ]
 [  0.1        -18.24590524]
 [  0.2        -68.65561389]
 [  0.25666667 -45.4488766 ]]","[[0.         0.39218062]
 [0.1        1.88422008]
 [0.2        1.05802306]
 [0.25666667 0.58030918]]",0,0.162
8760830999,f,19,english,5,5,english,2024-01-25 10:34:45.758114,False,2,386,sounds\french\audio/french_163.wav,"[[  0.          95.00435891]
 [  0.1         41.67922454]
 [  0.2        -79.43338234]
 [  0.25666667 -47.45672342]]","[[0.         1.26837246]
 [0.1        0.25754486]
 [0.2        1.96804031]
 [0.25666667 0.46721947]]",0,0.277
8760830999,f,19,english,5,5,english,2024-01-25 10:34:45.758114,False,2,387,sounds\french\audio/french_390.wav,"[[  0.          13.63716389]
 [  0.1        -61.62928039]
 [  0.2         89.99724903]
 [  0.25666667 -99.60285567]]","[[0.         0.73987932]
 [0.1        1.19791102]
 [0.2        0.30500022]
 [0.25666667 1.08417724]]",1,0.752
8760830999,f,19,english,5,5,english,2024-01-25 10:34:45.758114,False,2,388,sounds\french\audio/french_105.wav,"[[  0.         -23.09315354]
 [  0.1        -46.9361669 ]
 [  0.2         -8.58781729]
 [  0.25666667  56.68271074]]","[[0.         0.81757602]
 [0.1        0.98193048]
 [0.2        1.53786831]
 [0.25666667 0.84600103]]",0,0.43
8760830999,f,19,english,5,5,english,2024-01-25 10:34:45.758114,False,2,389,sounds\french\audio/french_627.wav,"[[  0.           2.1799823 ]
 [  0.1         30.63833179]
 [  0.2         99.93583097]
 [  0.25666667 -23.95585557]]","[[0.         1.97167661]
 [0.1        1.14790719]
 [0.2        1.70510721]
 [0.25666667 1.67415678]]",0,0.666
8760830999,f,19,english,5,5,english,2024-01-25 10:34:45.758114,False,2,390,sounds\french\audio/french_308.wav,"[[  0.          10.28514005]
 [  0.1        -39.60290217]
 [  0.2         99.30719553]
 [  0.25666667  64.43745932]]","[[0.         0.92806529]
 [0.1        0.73191769]
 [0.2        0.07740888]
 [0.25666667 0.80481059]]",1,0.753
8760830999,f,19,english,5,5,english,2024-01-25 10:34:45.758114,False,2,391,sounds\french\audio/french_396.wav,"[[  0.         -42.7744445 ]
 [  0.1          3.59774391]
 [  0.2        -86.41595133]
 [  0.25666667  76.20152203]]","[[0.         0.31798537]
 [0.1        0.67756986]
 [0.2        1.44355676]
 [0.25666667 1.44326023]]",0,1.429
8760830999,f,19,english,5,5,english,2024-01-25 10:34:45.758114,False,2,392,sounds\french\audio/french_417.wav,"[[  0.         -52.68130191]
 [  0.1         73.91368418]
 [  0.2          7.73324389]
 [  0.25666667  92.88066518]]","[[0.         1.49469738]
 [0.1        1.06358835]
 [0.2        1.12421265]
 [0.25666667 0.65436219]]",1,0.359
8760830999,f,19,english,5,5,english,2024-01-25 10:34:45.758114,False,2,393,sounds\french\audio/french_598.wav,"[[  0.          21.68363658]
 [  0.1        -21.32750779]
 [  0.2          7.72514192]
 [  0.25666667 -29.17866519]]","[[0.         1.67467049]
 [0.1        0.64095668]
 [0.2        0.23575639]
 [0.25666667 0.51628457]]",0,1.079
8760830999,f,19,english,5,5,english,2024-01-25 10:34:45.758114,False,2,394,sounds\french\audio/french_454.wav,"[[  0.          -2.34959028]
 [  0.1        -12.00596157]
 [  0.2         53.09832594]
 [  0.25666667   2.06709411]]","[[0.         0.74247593]
 [0.1        1.74271244]
 [0.2        0.67609159]
 [0.25666667 1.84499539]]",0,0.741
8760830999,f,19,english,5,5,english,2024-01-25 10:34:45.758114,False,2,395,sounds\french\audio/french_104.wav,"[[  0.         -10.23090517]
 [  0.1         92.61712743]
 [  0.2          0.22426759]
 [  0.25666667  32.30673442]]","[[0.         1.0322013 ]
 [0.1        0.84344174]
 [0.2        1.03962656]
 [0.25666667 1.9472426 ]]",0,0.707
8760830999,f,19,english,5,5,english,2024-01-25 10:34:45.758114,False,2,396,sounds\french\audio/french_872.wav,"[[  0.          85.31192626]
 [  0.1        -62.96284321]
 [  0.2         93.26127986]
 [  0.25666667  48.13314647]]","[[0.         1.27180188]
 [0.1        0.82867252]
 [0.2        1.69740624]
 [0.25666667 0.31258738]]",1,0.514
8760830999,f,19,english,5,5,english,2024-01-25 10:34:45.758114,False,2,397,sounds\french\audio/french_962.wav,"[[  0.         -23.88621243]
 [  0.1         -2.32674089]
 [  0.2         99.5739753 ]
 [  0.25666667 -60.89946795]]","[[0.         0.58686494]
 [0.1        1.96763724]
 [0.2        0.1339284 ]
 [0.25666667 0.14371278]]",0,0.35
8760830999,f,19,english,5,5,english,2024-01-25 10:34:45.758114,False,2,398,sounds\french\audio/french_41.wav,"[[  0.         -11.6612147 ]
 [  0.1         96.56624365]
 [  0.2         69.39294216]
 [  0.25666667 -30.30775932]]","[[0.         0.49328208]
 [0.1        1.84762861]
 [0.2        1.1434724 ]
 [0.25666667 1.13333186]]",1,0.369
8760830999,f,19,english,5,5,english,2024-01-25 10:34:45.758114,False,2,399,sounds\french\audio/french_963.wav,"[[ 0.         47.65214736]
 [ 0.1         6.38608236]
 [ 0.2        90.58649254]
 [ 0.25666667 -7.76898595]]","[[0.         0.44378955]
 [0.1        0.94107122]
 [0.2        1.48470349]
 [0.25666667 1.98203536]]",0,0.403
8760830999,f,19,english,5,5,english,2024-01-25 10:34:45.758114,False,2,400,sounds\french\audio/french_782.wav,"[[  0.         -22.12019493]
 [  0.1          4.49416446]
 [  0.2         95.81757258]
 [  0.25666667  37.17912971]]","[[0.         0.33541309]
 [0.1        0.60665876]
 [0.2        0.65040298]
 [0.25666667 0.93901734]]",0,0.721
8760830999,f,19,english,5,5,english,2024-01-25 10:34:45.758114,False,2,401,sounds\french\audio/french_300.wav,"[[  0.         -13.28568226]
 [  0.1         80.95964609]
 [  0.2         97.81212175]
 [  0.25666667  60.85112551]]","[[0.         1.4723541 ]
 [0.1        1.07308012]
 [0.2        1.14674573]
 [0.25666667 1.78656344]]",0,0.164
8760830999,f,19,english,5,5,english,2024-01-25 10:34:45.758114,False,2,402,sounds\french\audio/french_626.wav,"[[  0.         -93.35692854]
 [  0.1         98.43225428]
 [  0.2        -65.0946996 ]
 [  0.25666667  62.51553639]]","[[0.         1.28523942]
 [0.1        0.26610399]
 [0.2        0.08304138]
 [0.25666667 1.47830697]]",0,1.251
8760830999,f,19,english,5,5,english,2024-01-25 10:34:45.758114,False,2,403,sounds\french\audio/french_933.wav,"[[  0.         -24.27897726]
 [  0.1         45.4380102 ]
 [  0.2         44.52165476]
 [  0.25666667  11.96128215]]","[[0.         0.66366025]
 [0.1        1.16686233]
 [0.2        0.86083852]
 [0.25666667 1.88972919]]",0,0.277
8760830999,f,19,english,5,5,english,2024-01-25 10:34:45.758114,False,2,404,sounds\french\audio/french_26.wav,"[[  0.         -38.52186107]
 [  0.1         92.94908957]
 [  0.2         38.63958599]
 [  0.25666667  81.76747676]]","[[0.         1.55913274]
 [0.1        0.73355846]
 [0.2        0.51766924]
 [0.25666667 0.7935304 ]]",1,0.452
8760830999,f,19,english,5,5,english,2024-01-25 10:34:45.758114,False,2,405,sounds\french\audio/french_304.wav,"[[  0.          58.70341866]
 [  0.1         64.39481967]
 [  0.2         24.44185136]
 [  0.25666667 -92.24598877]]","[[0.         1.21350262]
 [0.1        0.74970721]
 [0.2        0.32537914]
 [0.25666667 0.12166717]]",0,0.392
8760830999,f,19,english,5,5,english,2024-01-25 10:34:45.758114,False,2,406,sounds\french\audio/french_298.wav,"[[  0.          77.93003267]
 [  0.1        -23.8442355 ]
 [  0.2        -77.62110697]
 [  0.25666667 -25.23897767]]","[[0.         0.74693873]
 [0.1        1.94963825]
 [0.2        1.02670819]
 [0.25666667 0.18670197]]",0,0.429
8760830999,f,19,english,5,5,english,2024-01-25 10:34:45.758114,False,2,407,sounds\french\audio/french_458.wav,"[[  0.          13.7688173 ]
 [  0.1         19.53863665]
 [  0.2        -90.92797006]
 [  0.25666667  55.23452131]]","[[0.         1.1950835 ]
 [0.1        0.33129566]
 [0.2        0.65773392]
 [0.25666667 1.54778139]]",1,0.446
8760830999,f,19,english,5,5,english,2024-01-25 10:34:45.758114,False,2,408,sounds\french\audio/french_856.wav,"[[  0.         -64.45291012]
 [  0.1         51.16318907]
 [  0.2         51.97117103]
 [  0.25666667  78.82524423]]","[[0.         0.77997639]
 [0.1        0.05317495]
 [0.2        0.19638347]
 [0.25666667 1.64847488]]",1,1.081
8760830999,f,19,english,5,5,english,2024-01-25 10:34:45.758114,False,2,409,sounds\french\audio/french_194.wav,"[[  0.          82.45325258]
 [  0.1         88.9094727 ]
 [  0.2        -44.07936747]
 [  0.25666667  97.80970813]]","[[0.         0.54112087]
 [0.1        0.47601939]
 [0.2        1.71905709]
 [0.25666667 1.16289195]]",1,0.88
8760830999,f,19,english,5,5,english,2024-01-25 10:34:45.758114,False,2,410,sounds\french\audio/french_816.wav,"[[  0.         -39.39804621]
 [  0.1         14.23792488]
 [  0.2        -84.08825282]
 [  0.25666667 -46.46940665]]","[[0.         1.26291691]
 [0.1        1.60181117]
 [0.2        0.57012939]
 [0.25666667 1.06315664]]",0,0.366
8760830999,f,19,english,5,5,english,2024-01-25 10:34:45.758114,False,2,411,sounds\french\audio/french_267.wav,"[[  0.         -65.51042118]
 [  0.1         15.6710232 ]
 [  0.2        -16.59501764]
 [  0.25666667  49.75287867]]","[[0.         0.47900721]
 [0.1        1.08471332]
 [0.2        0.49268798]
 [0.25666667 1.54023863]]",0,0.48
8760830999,f,19,english,5,5,english,2024-01-25 10:34:45.758114,False,2,412,sounds\french\audio/french_27.wav,"[[  0.         -24.90567196]
 [  0.1        -76.22865867]
 [  0.2        -70.77946922]
 [  0.25666667 -40.13018173]]","[[0.         0.77746957]
 [0.1        0.36572894]
 [0.2        1.07248112]
 [0.25666667 1.35477464]]",0,0.595
8760830999,f,19,english,5,5,english,2024-01-25 10:34:45.758114,False,2,413,sounds\french\audio/french_774.wav,"[[  0.         -35.29041546]
 [  0.1        -21.07774935]
 [  0.2        -42.95062976]
 [  0.25666667 -27.37747858]]","[[0.         0.24909556]
 [0.1        0.81236123]
 [0.2        0.84475887]
 [0.25666667 0.12641702]]",0,1.176
8760830999,f,19,english,5,5,english,2024-01-25 10:34:45.758114,False,2,414,sounds\french\audio/french_843.wav,"[[  0.          13.6803361 ]
 [  0.1         92.02668438]
 [  0.2        -93.52604538]
 [  0.25666667 -12.7136852 ]]","[[0.         0.65425976]
 [0.1        1.47814853]
 [0.2        0.78236369]
 [0.25666667 0.52413001]]",0,0.405
8760830999,f,19,english,5,5,english,2024-01-25 10:34:45.758114,False,2,415,sounds\french\audio/french_725.wav,"[[  0.          61.28532458]
 [  0.1         25.43953492]
 [  0.2         31.92964858]
 [  0.25666667 -96.80759498]]","[[0.         0.86285292]
 [0.1        0.5175718 ]
 [0.2        1.72668514]
 [0.25666667 1.79225728]]",0,0.06
8760830999,f,19,english,5,5,english,2024-01-25 10:34:45.758114,False,2,416,sounds\french\audio/french_984.wav,"[[  0.         -47.91850728]
 [  0.1         26.54192822]
 [  0.2         31.46018772]
 [  0.25666667  54.61358492]]","[[0.         0.65620753]
 [0.1        0.71747565]
 [0.2        1.52452255]
 [0.25666667 1.85839607]]",0,0.116
8760830999,f,19,english,5,5,english,2024-01-25 10:34:45.758114,False,2,417,sounds\french\audio/french_457.wav,"[[ 0.         42.86960152]
 [ 0.1        79.85160671]
 [ 0.2        98.12255829]
 [ 0.25666667 78.01153847]]","[[0.         1.10156515]
 [0.1        0.90608198]
 [0.2        0.87189229]
 [0.25666667 1.12024719]]",0,0.506
8760830999,f,19,english,5,5,english,2024-01-25 10:34:45.758114,False,2,418,sounds\french\audio/french_170.wav,"[[  0.          33.63406691]
 [  0.1        -66.14633185]
 [  0.2        -74.26701986]
 [  0.25666667  32.33295865]]","[[0.         1.37140183]
 [0.1        0.98919038]
 [0.2        1.38629831]
 [0.25666667 0.43392523]]",0,0.444
8760830999,f,19,english,5,5,english,2024-01-25 10:34:45.758114,False,2,419,sounds\french\audio/french_528.wav,"[[  0.          88.85530458]
 [  0.1        -87.19636625]
 [  0.2        -45.08147721]
 [  0.25666667  86.03081593]]","[[0.         1.69331748]
 [0.1        0.73621757]
 [0.2        0.82405603]
 [0.25666667 0.01123483]]",0,0.313
8760830999,f,19,english,5,5,english,2024-01-25 10:34:45.758114,False,2,420,sounds\french\audio/french_92.wav,"[[  0.          59.20081487]
 [  0.1         95.6548793 ]
 [  0.2        -36.19224385]
 [  0.25666667  68.24894855]]","[[0.         1.21926368]
 [0.1        1.56053314]
 [0.2        1.38632022]
 [0.25666667 1.29084252]]",0,0.357
8760830999,f,19,english,5,5,english,2024-01-25 10:34:45.758114,False,2,421,sounds\french\audio/french_564.wav,"[[  0.         -42.85760261]
 [  0.1         78.12316343]
 [  0.2         32.53186734]
 [  0.25666667  60.20924512]]","[[0.         0.14777183]
 [0.1        1.08229262]
 [0.2        0.52251513]
 [0.25666667 1.40255579]]",0,0.563
8760830999,f,19,english,5,5,english,2024-01-25 10:34:45.758114,False,2,422,sounds\french\audio/french_117.wav,"[[ 0.          6.74214439]
 [ 0.1         3.15736066]
 [ 0.2        10.42128043]
 [ 0.25666667 89.20041031]]","[[0.         0.42718416]
 [0.1        1.82203077]
 [0.2        0.49696174]
 [0.25666667 0.34350523]]",0,0.456
8760830999,f,19,english,5,5,english,2024-01-25 10:34:45.758114,False,2,423,sounds\french\audio/french_297.wav,"[[ 0.         66.56614261]
 [ 0.1        -3.32812159]
 [ 0.2        85.62103424]
 [ 0.25666667 92.99895728]]","[[0.         0.35086225]
 [0.1        1.7876007 ]
 [0.2        0.63077709]
 [0.25666667 0.65985351]]",0,0.233
8760830999,f,19,english,5,5,english,2024-01-25 10:34:45.758114,False,2,424,sounds\french\audio/french_215.wav,"[[  0.         -76.5324967 ]
 [  0.1        -12.7876278 ]
 [  0.2        -43.60684601]
 [  0.25666667   3.65547736]]","[[0.         0.00928887]
 [0.1        1.85204819]
 [0.2        1.20297214]
 [0.25666667 1.48182424]]",1,1.469
8760830999,f,19,english,5,5,english,2024-01-25 10:34:45.758114,False,2,425,sounds\french\audio/french_408.wav,"[[  0.         -97.26027128]
 [  0.1         85.50928544]
 [  0.2         52.29826895]
 [  0.25666667  54.6689314 ]]","[[0.         0.27661041]
 [0.1        0.07889603]
 [0.2        1.21380046]
 [0.25666667 1.65990502]]",0,0.491
8760830999,f,19,english,5,5,english,2024-01-25 10:34:45.758114,False,2,426,sounds\french\audio/french_160.wav,"[[  0.          94.580754  ]
 [  0.1        -77.59057929]
 [  0.2         49.28871101]
 [  0.25666667  54.34008904]]","[[0.         1.48632924]
 [0.1        0.83284567]
 [0.2        1.32543638]
 [0.25666667 1.18016963]]",0,0.511
8760830999,f,19,english,5,5,english,2024-01-25 10:34:45.758114,False,2,427,sounds\french\audio/french_32.wav,"[[  0.         -95.97477456]
 [  0.1        -25.31572866]
 [  0.2        -25.0492654 ]
 [  0.25666667 -74.56689772]]","[[0.         1.5242089 ]
 [0.1        0.2047991 ]
 [0.2        1.11388434]
 [0.25666667 1.18772321]]",0,0.747
8760830999,f,19,english,5,5,english,2024-01-25 10:34:45.758114,False,2,428,sounds\french\audio/french_523.wav,"[[  0.         -20.54401218]
 [  0.1        -64.61887171]
 [  0.2        -56.67652055]
 [  0.25666667 -29.90055738]]","[[0.         1.01178449]
 [0.1        1.79283511]
 [0.2        0.92711934]
 [0.25666667 1.0186138 ]]",0,0.234
8760830999,f,19,english,5,5,english,2024-01-25 10:34:45.758114,False,2,429,sounds\french\audio/french_426.wav,"[[ 0.         94.83015244]
 [ 0.1        80.74954266]
 [ 0.2        14.22402444]
 [ 0.25666667 92.85203769]]","[[0.         1.95768421]
 [0.1        0.5170286 ]
 [0.2        0.27456075]
 [0.25666667 1.53042381]]",0,1.185
8760830999,f,19,english,5,5,english,2024-01-25 10:34:45.758114,False,2,430,sounds\french\audio/french_320.wav,"[[  0.         -12.08882056]
 [  0.1        -69.15560276]
 [  0.2         33.30000548]
 [  0.25666667 -65.44816773]]","[[0.         1.76987467]
 [0.1        1.70079501]
 [0.2        0.4524157 ]
 [0.25666667 0.78128465]]",0,0.296
8760830999,f,19,english,5,5,english,2024-01-25 10:34:45.758114,False,2,431,sounds\french\audio/french_100.wav,"[[  0.         -35.75508116]
 [  0.1         57.82815341]
 [  0.2         31.92112674]
 [  0.25666667  34.87308497]]","[[0.         1.72997046]
 [0.1        1.04300978]
 [0.2        1.01595182]
 [0.25666667 1.9286069 ]]",0,0.206
8760830999,f,19,english,5,5,english,2024-01-25 10:34:45.758114,False,2,432,sounds\french\audio/french_844.wav,"[[  0.          29.77319266]
 [  0.1         -6.65775534]
 [  0.2         88.70188171]
 [  0.25666667 -96.32304745]]","[[0.         0.89130203]
 [0.1        0.41170989]
 [0.2        0.96705276]
 [0.25666667 0.58258054]]",0,0.786
8760830999,f,19,english,5,5,english,2024-01-25 10:34:45.758114,False,2,433,sounds\french\audio/french_798.wav,"[[  0.          80.80013175]
 [  0.1          8.18850232]
 [  0.2        -10.54144101]
 [  0.25666667  26.86908184]]","[[0.         1.56222047]
 [0.1        1.67765441]
 [0.2        1.93747014]
 [0.25666667 1.76378238]]",0,0.097
8760830999,f,19,english,5,5,english,2024-01-25 10:34:45.758114,False,2,434,sounds\french\audio/french_163.wav,"[[  0.          95.00435891]
 [  0.1         41.67922454]
 [  0.2        -79.43338234]
 [  0.25666667 -47.45672342]]","[[0.         1.26837246]
 [0.1        0.25754486]
 [0.2        1.96804031]
 [0.25666667 0.46721947]]",0,0.259
8760830999,f,19,english,5,5,english,2024-01-25 10:34:45.758114,False,2,435,sounds\french\audio/french_127.wav,"[[ 0.         56.99195339]
 [ 0.1        71.02339704]
 [ 0.2        72.81237495]
 [ 0.25666667 99.25740409]]","[[0.         1.23888103]
 [0.1        1.9853403 ]
 [0.2        0.22936254]
 [0.25666667 0.23690129]]",0,0.223
8760830999,f,19,english,5,5,english,2024-01-25 10:34:45.758114,False,2,436,sounds\french\audio/french_892.wav,"[[  0.          -9.89123065]
 [  0.1        -29.48301763]
 [  0.2        -20.12274852]
 [  0.25666667 -63.31716547]]","[[0.         1.43345907]
 [0.1        0.60115207]
 [0.2        0.51672516]
 [0.25666667 0.2983609 ]]",0,0.608
8760830999,f,19,english,5,5,english,2024-01-25 10:34:45.758114,False,2,437,sounds\french\audio/french_228.wav,"[[  0.         -13.78258648]
 [  0.1         27.88870681]
 [  0.2         -8.73674486]
 [  0.25666667 -13.88179653]]","[[0.         1.36655769]
 [0.1        1.56643938]
 [0.2        0.29403468]
 [0.25666667 0.32348249]]",0,0.533
8760830999,f,19,english,5,5,english,2024-01-25 10:34:45.758114,False,2,438,sounds\french\audio/french_488.wav,"[[  0.          83.09023231]
 [  0.1         31.08155804]
 [  0.2         23.00603586]
 [  0.25666667 -14.42068905]]","[[0.         0.61404301]
 [0.1        1.79467821]
 [0.2        0.24163263]
 [0.25666667 1.80620701]]",0,0.317
8760830999,f,19,english,5,5,english,2024-01-25 10:34:45.758114,False,2,439,sounds\french\audio/french_794.wav,"[[  0.         -41.85324617]
 [  0.1          1.64774739]
 [  0.2        -16.9250465 ]
 [  0.25666667 -47.53807225]]","[[0.         0.4524196 ]
 [0.1        1.94571184]
 [0.2        1.39882797]
 [0.25666667 0.19962905]]",0,0.186
8760830999,f,19,english,5,5,english,2024-01-25 10:34:45.758114,False,2,440,sounds\french\audio/french_652.wav,"[[  0.          19.60271983]
 [  0.1        -55.33376602]
 [  0.2         42.10956493]
 [  0.25666667 -47.80028189]]","[[0.         1.92708098]
 [0.1        1.28238944]
 [0.2        0.03244996]
 [0.25666667 1.59505934]]",0,0.839
8760830999,f,19,english,5,5,english,2024-01-25 10:34:45.758114,False,2,441,sounds\french\audio/french_925.wav,"[[  0.         -30.51780923]
 [  0.1         35.11933452]
 [  0.2        -97.7648117 ]
 [  0.25666667 -62.39495561]]","[[0.         1.09841649]
 [0.1        0.05099013]
 [0.2        1.83429048]
 [0.25666667 1.66107303]]",1,0.899
8760830999,f,19,english,5,5,english,2024-01-25 10:34:45.758114,False,2,442,sounds\french\audio/french_951.wav,"[[  0.         -15.86004077]
 [  0.1         60.12120799]
 [  0.2         81.27761476]
 [  0.25666667  61.27828768]]","[[0.         0.48185357]
 [0.1        0.27819881]
 [0.2        1.97659335]
 [0.25666667 1.07257799]]",1,0.87
8760830999,f,19,english,5,5,english,2024-01-25 10:34:45.758114,False,2,443,sounds\french\audio/french_644.wav,"[[  0.           8.48376577]
 [  0.1          5.7720639 ]
 [  0.2        -22.58890758]
 [  0.25666667 -77.55637272]]","[[0.         1.03282428]
 [0.1        1.52915319]
 [0.2        0.21561806]
 [0.25666667 0.23424831]]",0,0.322
8760830999,f,19,english,5,5,english,2024-01-25 10:34:45.758114,False,2,444,sounds\french\audio/french_1.wav,"[[  0.          91.87409443]
 [  0.1        -48.89112434]
 [  0.2         27.67932603]
 [  0.25666667  13.64945055]]","[[0.         0.51984737]
 [0.1        0.07214845]
 [0.2        1.75660136]
 [0.25666667 0.58315139]]",0,0.725
8760830999,f,19,english,5,5,english,2024-01-25 10:34:45.758114,False,2,445,sounds\french\audio/french_717.wav,"[[  0.         -84.32189387]
 [  0.1         40.2374262 ]
 [  0.2         80.19404777]
 [  0.25666667 -31.07147466]]","[[0.         1.00877352]
 [0.1        0.42603024]
 [0.2        0.00517131]
 [0.25666667 1.19241547]]",1,0.729
8760830999,f,19,english,5,5,english,2024-01-25 10:34:45.758114,False,2,446,sounds\french\audio/french_979.wav,"[[  0.          58.05333973]
 [  0.1        -10.78982684]
 [  0.2         -1.76147191]
 [  0.25666667  35.54131035]]","[[0.         1.60321768]
 [0.1        0.5155038 ]
 [0.2        0.80270828]
 [0.25666667 0.30870089]]",0,0.366
8760830999,f,19,english,5,5,english,2024-01-25 10:34:45.758114,False,2,447,sounds\french\audio/french_862.wav,"[[  0.          99.41401176]
 [  0.1         35.25307956]
 [  0.2        -56.34938096]
 [  0.25666667 -51.21225279]]","[[0.         0.02807195]
 [0.1        0.7885189 ]
 [0.2        0.76649358]
 [0.25666667 1.75346492]]",1,0.748
8760830999,f,19,english,5,5,english,2024-01-25 10:34:45.758114,False,2,448,sounds\french\audio/french_162.wav,"[[  0.         -20.03052962]
 [  0.1        -35.11860261]
 [  0.2         20.80868131]
 [  0.25666667  50.74802705]]","[[0.         1.70466969]
 [0.1        0.77666831]
 [0.2        1.88915568]
 [0.25666667 1.69994842]]",0,0.255
8760830999,f,19,english,5,5,english,2024-01-25 10:34:45.758114,False,2,449,sounds\french\audio/french_420.wav,"[[  0.         -21.03631645]
 [  0.1         59.70125687]
 [  0.2         54.71539052]
 [  0.25666667  38.49486436]]","[[0.         1.00707818]
 [0.1        0.92270488]
 [0.2        1.69105963]
 [0.25666667 0.9671157 ]]",0,0.427
8760830999,f,19,english,5,5,english,2024-01-25 10:34:45.758114,False,2,450,sounds\french\audio/french_310.wav,"[[  0.         -83.78338178]
 [  0.1        -13.73891655]
 [  0.2         58.07821313]
 [  0.25666667  26.26954934]]","[[0.         0.11877442]
 [0.1        1.32851017]
 [0.2        0.76082745]
 [0.25666667 1.37378881]]",0,0.23
8760830999,f,19,english,5,5,english,2024-01-25 10:34:45.758114,False,2,451,sounds\french\audio/french_432.wav,"[[  0.          41.78718943]
 [  0.1        -73.8341876 ]
 [  0.2          2.46605077]
 [  0.25666667  -5.34058627]]","[[0.         1.64767318]
 [0.1        1.66923601]
 [0.2        1.63004177]
 [0.25666667 1.91522166]]",0,0.203
8760830999,f,19,english,5,5,english,2024-01-25 10:34:45.758114,False,2,452,sounds\french\audio/french_700.wav,"[[  0.          27.78595998]
 [  0.1        -29.96160528]
 [  0.2         60.6733782 ]
 [  0.25666667  39.12324738]]","[[0.         1.84943535]
 [0.1        0.52483958]
 [0.2        0.55672926]
 [0.25666667 0.96842636]]",0,0.624
8760830999,f,19,english,5,5,english,2024-01-25 10:34:45.758114,False,2,453,sounds\french\audio/french_767.wav,"[[  0.          91.79298807]
 [  0.1        -10.9319541 ]
 [  0.2        -18.13246944]
 [  0.25666667  -6.11346908]]","[[0.         1.15796888]
 [0.1        0.37743288]
 [0.2        1.06132115]
 [0.25666667 0.41668969]]",0,0.379
8760830999,f,19,english,5,5,english,2024-01-25 10:34:45.758114,False,2,454,sounds\french\audio/french_432.wav,"[[  0.          41.78718943]
 [  0.1        -73.8341876 ]
 [  0.2          2.46605077]
 [  0.25666667  -5.34058627]]","[[0.         1.64767318]
 [0.1        1.66923601]
 [0.2        1.63004177]
 [0.25666667 1.91522166]]",0,0.164
8760830999,f,19,english,5,5,english,2024-01-25 10:34:45.758114,False,2,455,sounds\french\audio/french_629.wav,"[[  0.          81.54997922]
 [  0.1        -25.83506989]
 [  0.2        -50.62902687]
 [  0.25666667 -69.1271608 ]]","[[0.         0.65130664]
 [0.1        0.18523019]
 [0.2        1.20696076]
 [0.25666667 0.57946161]]",0,0.515
8760830999,f,19,english,5,5,english,2024-01-25 10:34:45.758114,False,2,456,sounds\french\audio/french_340.wav,"[[  0.         -77.74428769]
 [  0.1        -23.36816436]
 [  0.2        -44.47255335]
 [  0.25666667 -51.35474548]]","[[0.         1.5012345 ]
 [0.1        1.72338521]
 [0.2        0.55046319]
 [0.25666667 0.98182936]]",0,0.421
8760830999,f,19,english,5,5,english,2024-01-25 10:34:45.758114,False,2,457,sounds\french\audio/french_839.wav,"[[ 0.         11.03740457]
 [ 0.1        23.46119987]
 [ 0.2        -0.31614798]
 [ 0.25666667 62.63183259]]","[[0.         0.76467652]
 [0.1        0.76268055]
 [0.2        1.64444165]
 [0.25666667 0.69482811]]",0,0.531
8760830999,f,19,english,5,5,english,2024-01-25 10:34:45.758114,False,2,458,sounds\french\audio/french_916.wav,"[[  0.         -87.80939928]
 [  0.1         68.91902004]
 [  0.2         20.82551071]
 [  0.25666667 -10.41164891]]","[[0.         0.07100827]
 [0.1        0.08308916]
 [0.2        0.48942561]
 [0.25666667 0.67278955]]",1,0.945
8760830999,f,19,english,5,5,english,2024-01-25 10:34:45.758114,False,2,459,sounds\french\audio/french_21.wav,"[[  0.          54.83693262]
 [  0.1        -44.5884084 ]
 [  0.2        -75.20982548]
 [  0.25666667 -57.69855476]]","[[0.         0.05508037]
 [0.1        0.46211883]
 [0.2        1.96075125]
 [0.25666667 0.5365247 ]]",0,1.456
8760830999,f,19,english,5,5,english,2024-01-25 10:34:45.758114,False,2,460,sounds\french\audio/french_939.wav,"[[  0.          26.75853805]
 [  0.1          6.19803181]
 [  0.2        -16.72335747]
 [  0.25666667  96.23810145]]","[[0.         1.87296773]
 [0.1        1.06061528]
 [0.2        1.33482008]
 [0.25666667 0.73381464]]",0,0.203
8760830999,f,19,english,5,5,english,2024-01-25 10:34:45.758114,False,2,461,sounds\french\audio/french_267.wav,"[[  0.         -65.51042118]
 [  0.1         15.6710232 ]
 [  0.2        -16.59501764]
 [  0.25666667  49.75287867]]","[[0.         0.47900721]
 [0.1        1.08471332]
 [0.2        0.49268798]
 [0.25666667 1.54023863]]",0,0.44
8760830999,f,19,english,5,5,english,2024-01-25 10:34:45.758114,False,2,462,sounds\french\audio/french_848.wav,"[[  0.         -60.99605007]
 [  0.1        -27.05939135]
 [  0.2        -10.58439289]
 [  0.25666667 -17.47548333]]","[[0.         1.01059702]
 [0.1        1.98581859]
 [0.2        0.30142011]
 [0.25666667 1.16939553]]",0,0.878
8760830999,f,19,english,5,5,english,2024-01-25 10:34:45.758114,False,2,463,sounds\french\audio/french_448.wav,"[[  0.          31.66119151]
 [  0.1         20.17093967]
 [  0.2        -46.84568686]
 [  0.25666667  10.399138  ]]","[[0.         0.87276462]
 [0.1        1.08469616]
 [0.2        1.99629221]
 [0.25666667 0.44449425]]",0,0.203
8760830999,f,19,english,5,5,english,2024-01-25 10:34:45.758114,False,2,464,sounds\french\audio/french_819.wav,"[[  0.          10.23888344]
 [  0.1         14.33129562]
 [  0.2        -57.61493264]
 [  0.25666667  33.17012155]]","[[0.         1.93351894]
 [0.1        0.24790788]
 [0.2        1.58463495]
 [0.25666667 0.31192511]]",0,0.147
8760830999,f,19,english,5,5,english,2024-01-25 10:34:45.758114,False,2,465,sounds\french\audio/french_370.wav,"[[  0.         -31.30279389]
 [  0.1         96.47349065]
 [  0.2         23.18843017]
 [  0.25666667  81.62933181]]","[[0.         1.88170435]
 [0.1        0.75067332]
 [0.2        1.06279648]
 [0.25666667 0.58974769]]",1,0.246
8760830999,f,19,english,5,5,english,2024-01-25 10:34:45.758114,False,2,466,sounds\french\audio/french_285.wav,"[[  0.         -14.06099989]
 [  0.1         -5.26283055]
 [  0.2         18.02137941]
 [  0.25666667  46.27962364]]","[[0.         0.21649577]
 [0.1        0.66520183]
 [0.2        0.4490454 ]
 [0.25666667 1.92778075]]",1,0.564
8760830999,f,19,english,5,5,english,2024-01-25 10:34:45.758114,False,2,467,sounds\french\audio/french_83.wav,"[[ 0.         45.44740295]
 [ 0.1        42.82646372]
 [ 0.2        -9.21139132]
 [ 0.25666667 30.29486893]]","[[0.         0.80263788]
 [0.1        1.96742974]
 [0.2        0.40483772]
 [0.25666667 0.1024326 ]]",0,0.218
8760830999,f,19,english,5,5,english,2024-01-25 10:34:45.758114,False,2,468,sounds\french\audio/french_689.wav,"[[  0.         -76.83712438]
 [  0.1         64.54047654]
 [  0.2         42.91011154]
 [  0.25666667 -94.73892594]]","[[0.         1.91162084]
 [0.1        0.68488006]
 [0.2        0.17067082]
 [0.25666667 1.05586556]]",0,0.409
8760830999,f,19,english,5,5,english,2024-01-25 10:34:45.758114,False,2,469,sounds\french\audio/french_131.wav,"[[  0.          55.95469812]
 [  0.1        -96.48122085]
 [  0.2        -45.26115565]
 [  0.25666667  97.10583427]]","[[0.         0.7326606 ]
 [0.1        0.77747938]
 [0.2        1.02132862]
 [0.25666667 0.34109041]]",0,0.195
8760830999,f,19,english,5,5,english,2024-01-25 10:34:45.758114,False,2,470,sounds\french\audio/french_500.wav,"[[  0.         -64.77507575]
 [  0.1         -6.64685947]
 [  0.2        -63.06704172]
 [  0.25666667  -2.53403127]]","[[0.         1.1238598 ]
 [0.1        1.28070421]
 [0.2        0.36817987]
 [0.25666667 0.89472864]]",0,0.194
8760830999,f,19,english,5,5,english,2024-01-25 10:34:45.758114,False,2,471,sounds\french\audio/french_234.wav,"[[  0.          40.80444991]
 [  0.1        -12.8326651 ]
 [  0.2         35.77292413]
 [  0.25666667  70.48005605]]","[[0.         0.6735757 ]
 [0.1        0.4328315 ]
 [0.2        1.793606  ]
 [0.25666667 0.88572041]]",0,0.109
8760830999,f,19,english,5,5,english,2024-01-25 10:34:45.758114,False,2,472,sounds\french\audio/french_753.wav,"[[  0.         -59.12708259]
 [  0.1        -84.15149344]
 [  0.2        -30.31197396]
 [  0.25666667 -23.11550189]]","[[0.         1.15236918]
 [0.1        1.24278656]
 [0.2        0.56738218]
 [0.25666667 0.65045955]]",0,0.168
8760830999,f,19,english,5,5,english,2024-01-25 10:34:45.758114,False,2,473,sounds\french\audio/french_749.wav,"[[  0.          -6.52512876]
 [  0.1         66.04972296]
 [  0.2        -72.89621134]
 [  0.25666667 -46.82302434]]","[[0.         1.71102694]
 [0.1        0.07130547]
 [0.2        1.03709586]
 [0.25666667 1.99027801]]",0,0.21
8760830999,f,19,english,5,5,english,2024-01-25 10:34:45.758114,False,2,474,sounds\french\audio/french_868.wav,"[[  0.         -35.95288605]
 [  0.1        -17.44977395]
 [  0.2        -64.01864585]
 [  0.25666667  14.1526891 ]]","[[0.         1.76613711]
 [0.1        1.66440326]
 [0.2        0.72417379]
 [0.25666667 0.87347262]]",1,0.296
8760830999,f,19,english,5,5,english,2024-01-25 10:34:45.758114,False,2,475,sounds\french\audio/french_358.wav,"[[  0.         -21.88755711]
 [  0.1         -5.628981  ]
 [  0.2        -60.01307733]
 [  0.25666667  65.58947466]]","[[0.         1.21014447]
 [0.1        1.2650669 ]
 [0.2        0.97277603]
 [0.25666667 0.28969343]]",1,0.698
8760830999,f,19,english,5,5,english,2024-01-25 10:34:45.758114,False,2,476,sounds\french\audio/french_108.wav,"[[  0.         -38.50953818]
 [  0.1         44.47590219]
 [  0.2         35.73303492]
 [  0.25666667 -90.35369633]]","[[0.         1.14488094]
 [0.1        1.3820118 ]
 [0.2        1.04224754]
 [0.25666667 1.51933791]]",0,0.599
8760830999,f,19,english,5,5,english,2024-01-25 10:34:45.758114,False,2,477,sounds\french\audio/french_872.wav,"[[  0.          85.31192626]
 [  0.1        -62.96284321]
 [  0.2         93.26127986]
 [  0.25666667  48.13314647]]","[[0.         1.27180188]
 [0.1        0.82867252]
 [0.2        1.69740624]
 [0.25666667 0.31258738]]",0,0.585
8760830999,f,19,english,5,5,english,2024-01-25 10:34:45.758114,False,2,478,sounds\french\audio/french_314.wav,"[[  0.         -41.28420355]
 [  0.1         38.91630458]
 [  0.2         24.93775916]
 [  0.25666667  33.33111791]]","[[0.         0.77087466]
 [0.1        0.23409115]
 [0.2        0.53304912]
 [0.25666667 0.84036245]]",1,0.722
8760830999,f,19,english,5,5,english,2024-01-25 10:34:45.758114,False,2,479,sounds\french\audio/french_64.wav,"[[  0.          -2.85479512]
 [  0.1        -22.43053594]
 [  0.2         99.07991634]
 [  0.25666667  -6.95169827]]","[[0.         1.8205441 ]
 [0.1        0.65122302]
 [0.2        0.54405082]
 [0.25666667 0.02019369]]",0,0.467
8760830999,f,19,english,5,5,english,2024-01-25 10:34:45.758114,False,2,480,sounds\french\audio/french_347.wav,"[[  0.         -50.57249908]
 [  0.1         -0.96259157]
 [  0.2         56.28626554]
 [  0.25666667  46.89576118]]","[[0.         1.7558536 ]
 [0.1        0.42717605]
 [0.2        1.32943016]
 [0.25666667 0.4771217 ]]",1,0.368
8760830999,f,19,english,5,5,english,2024-01-25 10:34:45.758114,False,2,481,sounds\french\audio/french_467.wav,"[[  0.          26.36588123]
 [  0.1        -91.62831039]
 [  0.2         14.27679522]
 [  0.25666667 -77.75485007]]","[[0.         0.49078583]
 [0.1        1.37574102]
 [0.2        0.10009029]
 [0.25666667 1.32516535]]",0,0.367
8760830999,f,19,english,5,5,english,2024-01-25 10:34:45.758114,False,2,482,sounds\french\audio/french_950.wav,"[[ 0.          6.46729125]
 [ 0.1        89.94723115]
 [ 0.2        33.92654299]
 [ 0.25666667  4.68690548]]","[[0.         1.1492664 ]
 [0.1        1.37343317]
 [0.2        1.07181876]
 [0.25666667 0.13073982]]",0,0.998
8760830999,f,19,english,5,5,english,2024-01-25 10:34:45.758114,False,2,483,sounds\french\audio/french_987.wav,"[[ 0.         29.59235099]
 [ 0.1        34.94187385]
 [ 0.2        50.69614072]
 [ 0.25666667 30.08512425]]","[[0.         0.62183529]
 [0.1        0.21370909]
 [0.2        0.33639435]
 [0.25666667 1.23768731]]",1,0.717
8760830999,f,19,english,5,5,english,2024-01-25 10:34:45.758114,False,2,484,sounds\french\audio/french_393.wav,"[[  0.          -4.17853165]
 [  0.1        -52.7672758 ]
 [  0.2        -35.65632354]
 [  0.25666667 -38.23501308]]","[[0.         1.11841435]
 [0.1        1.14982518]
 [0.2        1.99911749]
 [0.25666667 0.07284053]]",0,0.328
8760830999,f,19,english,5,5,english,2024-01-25 10:34:45.758114,False,2,485,sounds\french\audio/french_498.wav,"[[  0.           4.68377609]
 [  0.1        -15.28708952]
 [  0.2         12.01036293]
 [  0.25666667   2.49690218]]","[[0.         1.22559932]
 [0.1        1.70630703]
 [0.2        0.54123502]
 [0.25666667 0.39602685]]",0,0.245
8760830999,f,19,english,5,5,english,2024-01-25 10:34:45.758114,False,2,486,sounds\french\audio/french_306.wav,"[[  0.          22.4772117 ]
 [  0.1        -23.30683659]
 [  0.2        -85.44667034]
 [  0.25666667 -79.47374411]]","[[0.         0.91979461]
 [0.1        1.83006101]
 [0.2        1.25602607]
 [0.25666667 0.84497865]]",1,0.299
8760830999,f,19,english,5,5,english,2024-01-25 10:34:45.758114,False,2,487,sounds\french\audio/french_393.wav,"[[  0.          -4.17853165]
 [  0.1        -52.7672758 ]
 [  0.2        -35.65632354]
 [  0.25666667 -38.23501308]]","[[0.         1.11841435]
 [0.1        1.14982518]
 [0.2        1.99911749]
 [0.25666667 0.07284053]]",0,0.347
8760830999,f,19,english,5,5,english,2024-01-25 10:34:45.758114,False,2,488,sounds\french\audio/french_851.wav,"[[  0.         -16.14738252]
 [  0.1         19.84507786]
 [  0.2        -46.64792285]
 [  0.25666667 -81.41203514]]","[[0.         1.77999263]
 [0.1        0.90385235]
 [0.2        0.51993189]
 [0.25666667 1.06673989]]",1,0.373
8760830999,f,19,english,5,5,english,2024-01-25 10:34:45.758114,False,2,489,sounds\french\audio/french_470.wav,"[[  0.          35.80891732]
 [  0.1        -69.45523052]
 [  0.2         14.95046841]
 [  0.25666667  17.64450191]]","[[0.         1.18984778]
 [0.1        0.95727089]
 [0.2        1.94704509]
 [0.25666667 1.37814226]]",1,0.343
8760830999,f,19,english,5,5,english,2024-01-25 10:34:45.758114,False,2,490,sounds\french\audio/french_736.wav,"[[  0.         -58.2057669 ]
 [  0.1         67.4754916 ]
 [  0.2         92.18157431]
 [  0.25666667  88.23593553]]","[[0.         1.39182764]
 [0.1        0.85405242]
 [0.2        1.06665121]
 [0.25666667 0.29553719]]",1,0.888
8760830999,f,19,english,5,5,english,2024-01-25 10:34:45.758114,False,2,491,sounds\french\audio/french_805.wav,"[[  0.          21.15897581]
 [  0.1        -84.51795283]
 [  0.2         72.20878309]
 [  0.25666667 -28.14016055]]","[[0.         1.3244225 ]
 [0.1        0.68750265]
 [0.2        0.56084624]
 [0.25666667 0.45412894]]",1,1.015
8760830999,f,19,english,5,5,english,2024-01-25 10:34:45.758114,False,2,492,sounds\french\audio/french_188.wav,"[[  0.          49.6210254 ]
 [  0.1        -51.2490581 ]
 [  0.2         40.00177065]
 [  0.25666667  -3.28540475]]","[[0.         1.07409835]
 [0.1        0.05018037]
 [0.2        1.57813661]
 [0.25666667 0.4516863 ]]",1,0.409
8760830999,f,19,english,5,5,english,2024-01-25 10:34:45.758114,False,2,493,sounds\french\audio/french_735.wav,"[[  0.          16.11120967]
 [  0.1        -19.98897555]
 [  0.2         68.29513728]
 [  0.25666667  31.40150104]]","[[0.         0.14330821]
 [0.1        0.00237292]
 [0.2        1.1733856 ]
 [0.25666667 0.51599842]]",1,0.995
8760830999,f,19,english,5,5,english,2024-01-25 10:34:45.758114,False,2,494,sounds\french\audio/french_344.wav,"[[  0.          52.58849346]
 [  0.1        -22.3140036 ]
 [  0.2        -66.1637605 ]
 [  0.25666667 -23.8196401 ]]","[[0.         0.27482393]
 [0.1        0.23105003]
 [0.2        0.54206464]
 [0.25666667 1.18246439]]",1,0.627
8760830999,f,19,english,5,5,english,2024-01-25 10:34:45.758114,False,2,495,sounds\french\audio/french_831.wav,"[[ 0.         63.54740934]
 [ 0.1        37.72830153]
 [ 0.2        -3.45882983]
 [ 0.25666667 83.86154552]]","[[0.         1.51153345]
 [0.1        0.09945987]
 [0.2        0.22010167]
 [0.25666667 0.71497999]]",0,0.464
8760830999,f,19,english,5,5,english,2024-01-25 10:34:45.758114,False,2,496,sounds\french\audio/french_828.wav,"[[  0.          -2.7154125 ]
 [  0.1        -36.83814983]
 [  0.2        -50.98592502]
 [  0.25666667 -48.36073317]]","[[0.         0.72553522]
 [0.1        1.24313396]
 [0.2        0.62544862]
 [0.25666667 1.19233037]]",0,0.651
8760830999,f,19,english,5,5,english,2024-01-25 10:34:45.758114,False,2,497,sounds\french\audio/french_268.wav,"[[  0.         -31.22986491]
 [  0.1         85.41130684]
 [  0.2         51.81326747]
 [  0.25666667  -9.66270327]]","[[0.         0.61965618]
 [0.1        0.43772331]
 [0.2        0.97717852]
 [0.25666667 0.83042374]]",1,1.185
8760830999,f,19,english,5,5,english,2024-01-25 10:34:45.758114,False,2,498,sounds\french\audio/french_168.wav,"[[  0.         -23.56976883]
 [  0.1         67.89102786]
 [  0.2         12.82073925]
 [  0.25666667 -47.11825728]]","[[0.         0.91307932]
 [0.1        0.95001528]
 [0.2        0.95057972]
 [0.25666667 1.60486422]]",0,0.67
8760830999,f,19,english,5,5,english,2024-01-25 10:34:45.758114,False,2,499,sounds\french\audio/french_913.wav,"[[  0.           5.31236155]
 [  0.1        -59.65057946]
 [  0.2         27.87230438]
 [  0.25666667 -58.49443874]]","[[0.         1.37558602]
 [0.1        0.3561265 ]
 [0.2        1.61604884]
 [0.25666667 0.97981321]]",0,0.412
8760830999,f,19,english,5,5,english,2024-01-25 10:34:45.758114,False,2,500,sounds\french\audio/french_764.wav,"[[  0.          -8.95969579]
 [  0.1          5.11158076]
 [  0.2          3.7358826 ]
 [  0.25666667 -14.74224302]]","[[0.         0.46272501]
 [0.1        1.84250995]
 [0.2        0.71585727]
 [0.25666667 0.58101627]]",1,0.376
8760830999,f,19,english,5,5,english,2024-01-25 10:34:45.758114,False,2,501,sounds\french\audio/french_991.wav,"[[  0.         -95.18678644]
 [  0.1        -65.70936013]
 [  0.2         44.22545462]
 [  0.25666667  31.01090832]]","[[0.         1.24715664]
 [0.1        0.64410058]
 [0.2        0.83152977]
 [0.25666667 1.93309413]]",1,0.733
8760830999,f,19,english,5,5,english,2024-01-25 10:34:45.758114,False,2,502,sounds\french\audio/french_429.wav,"[[  0.         -86.61428582]
 [  0.1        -42.15720505]
 [  0.2         57.81850322]
 [  0.25666667  56.8864302 ]]","[[0.         0.48550144]
 [0.1        1.43221201]
 [0.2        1.77393014]
 [0.25666667 0.85506946]]",0,0.26
