subj,sex,age,language,english,french,native_lang,date,practice,block,trial,stim,pitch,stretch,response,rt
8731382169,f,20,english,5,4,english,2024-02-01 10:33:02.802936,False,2,253,sounds\french\audio/french_542.wav,"[[  0.          88.21755363]
 [  0.1         59.97016865]
 [  0.2        -54.94167031]
 [  0.25666667 -74.88408835]]","[[0.         1.84211071]
 [0.1        1.57396898]
 [0.2        1.14268549]
 [0.25666667 1.52682198]]",0,1.304
8731382169,f,20,english,5,4,english,2024-02-01 10:33:02.802936,False,2,254,sounds\french\audio/french_935.wav,"[[  0.         -44.99349069]
 [  0.1        -36.99771552]
 [  0.2         73.94933819]
 [  0.25666667  99.03349287]]","[[0.         1.17032266]
 [0.1        1.41237049]
 [0.2        0.72245199]
 [0.25666667 1.64210213]]",0,0.57
8731382169,f,20,english,5,4,english,2024-02-01 10:33:02.802936,False,2,255,sounds\french\audio/french_480.wav,"[[  0.          60.74421865]
 [  0.1        -29.59792655]
 [  0.2         62.18386975]
 [  0.25666667 -29.20855136]]","[[0.         1.29752088]
 [0.1        1.96700759]
 [0.2        1.69632814]
 [0.25666667 1.65374165]]",0,0.602
8731382169,f,20,english,5,4,english,2024-02-01 10:33:02.802936,False,2,256,sounds\french\audio/french_882.wav,"[[  0.         -76.64131244]
 [  0.1        -39.91871486]
 [  0.2        -10.31613543]
 [  0.25666667  20.39966841]]","[[0.         0.67668261]
 [0.1        0.28498495]
 [0.2        0.59130788]
 [0.25666667 1.12904738]]",1,0.703
8731382169,f,20,english,5,4,english,2024-02-01 10:33:02.802936,False,2,257,sounds\french\audio/french_39.wav,"[[  0.         -37.58690814]
 [  0.1         64.36969435]
 [  0.2        -16.17747505]
 [  0.25666667 -31.52468705]]","[[0.         0.69509593]
 [0.1        0.9899387 ]
 [0.2        1.54991446]
 [0.25666667 1.42558302]]",1,0.718
8731382169,f,20,english,5,4,english,2024-02-01 10:33:02.802936,False,2,258,sounds\french\audio/french_108.wav,"[[  0.         -38.50953818]
 [  0.1         44.47590219]
 [  0.2         35.73303492]
 [  0.25666667 -90.35369633]]","[[0.         1.14488094]
 [0.1        1.3820118 ]
 [0.2        1.04224754]
 [0.25666667 1.51933791]]",1,0.823
8731382169,f,20,english,5,4,english,2024-02-01 10:33:02.802936,False,2,259,sounds\french\audio/french_409.wav,"[[  0.         -85.45925867]
 [  0.1        -75.83462931]
 [  0.2        -81.34632848]
 [  0.25666667  -4.23490283]]","[[0.         0.92391671]
 [0.1        0.55779761]
 [0.2        1.04156293]
 [0.25666667 0.8536223 ]]",1,0.955
8731382169,f,20,english,5,4,english,2024-02-01 10:33:02.802936,False,2,260,sounds\french\audio/french_783.wav,"[[  0.          -1.39366148]
 [  0.1        -51.98505422]
 [  0.2        -59.48644931]
 [  0.25666667 -72.0894269 ]]","[[0.         1.02261841]
 [0.1        1.36670641]
 [0.2        1.36831513]
 [0.25666667 1.17814646]]",1,0.761
8731382169,f,20,english,5,4,english,2024-02-01 10:33:02.802936,False,2,261,sounds\french\audio/french_45.wav,"[[  0.           6.51510613]
 [  0.1        -86.25018513]
 [  0.2        -60.46903131]
 [  0.25666667 -48.31089161]]","[[0.         0.83763225]
 [0.1        1.19709151]
 [0.2        0.87484565]
 [0.25666667 0.45414185]]",1,0.879
8731382169,f,20,english,5,4,english,2024-02-01 10:33:02.802936,False,2,262,sounds\french\audio/french_413.wav,"[[  0.         -15.90568805]
 [  0.1         76.04965913]
 [  0.2         55.08996682]
 [  0.25666667  17.39731584]]","[[0.         0.35618922]
 [0.1        1.72047272]
 [0.2        1.40872317]
 [0.25666667 1.8089724 ]]",1,1.155
8731382169,f,20,english,5,4,english,2024-02-01 10:33:02.802936,False,2,263,sounds\french\audio/french_545.wav,"[[  0.         -11.63741059]
 [  0.1         -9.34763636]
 [  0.2        -52.50880558]
 [  0.25666667 -35.41027588]]","[[0.         1.28855558]
 [0.1        0.4133233 ]
 [0.2        1.98413737]
 [0.25666667 0.10366118]]",1,0.936
8731382169,f,20,english,5,4,english,2024-02-01 10:33:02.802936,False,2,264,sounds\french\audio/french_439.wav,"[[  0.          66.25011988]
 [  0.1         46.32034445]
 [  0.2         38.26264731]
 [  0.25666667 -42.53278778]]","[[0.         1.00096297]
 [0.1        0.12322103]
 [0.2        1.5814324 ]
 [0.25666667 0.06125751]]",1,0.697
8731382169,f,20,english,5,4,english,2024-02-01 10:33:02.802936,False,2,265,sounds\french\audio/french_812.wav,"[[  0.          78.53201718]
 [  0.1         87.32508034]
 [  0.2         77.15455549]
 [  0.25666667 -51.33102937]]","[[0.         1.73310634]
 [0.1        1.73147281]
 [0.2        1.58178344]
 [0.25666667 0.27993183]]",0,0.409
8731382169,f,20,english,5,4,english,2024-02-01 10:33:02.802936,False,2,266,sounds\french\audio/french_199.wav,"[[  0.         -60.03977098]
 [  0.1          7.3213083 ]
 [  0.2        -32.97621994]
 [  0.25666667  90.87482197]]","[[0.         1.87963745]
 [0.1        1.19076365]
 [0.2        1.00205813]
 [0.25666667 1.05600478]]",0,0.765
8731382169,f,20,english,5,4,english,2024-02-01 10:33:02.802936,False,2,267,sounds\french\audio/french_278.wav,"[[  0.           0.92058819]
 [  0.1        -11.12293645]
 [  0.2         51.74113392]
 [  0.25666667  59.96495371]]","[[0.         0.58166089]
 [0.1        0.6190237 ]
 [0.2        1.02661965]
 [0.25666667 0.89915078]]",1,0.599
8731382169,f,20,english,5,4,english,2024-02-01 10:33:02.802936,False,2,268,sounds\french\audio/french_330.wav,"[[  0.         -46.98301203]
 [  0.1         55.18277966]
 [  0.2         68.01781419]
 [  0.25666667 -65.13341665]]","[[0.         1.92315583]
 [0.1        0.64158591]
 [0.2        0.71457858]
 [0.25666667 0.26661962]]",0,1.39
8731382169,f,20,english,5,4,english,2024-02-01 10:33:02.802936,False,2,269,sounds\french\audio/french_108.wav,"[[  0.         -38.50953818]
 [  0.1         44.47590219]
 [  0.2         35.73303492]
 [  0.25666667 -90.35369633]]","[[0.         1.14488094]
 [0.1        1.3820118 ]
 [0.2        1.04224754]
 [0.25666667 1.51933791]]",0,0.912
8731382169,f,20,english,5,4,english,2024-02-01 10:33:02.802936,False,2,270,sounds\french\audio/french_664.wav,"[[  0.          -2.08032019]
 [  0.1        -67.02716902]
 [  0.2         95.17650789]
 [  0.25666667 -41.34718039]]","[[0.         1.43741932]
 [0.1        1.07099048]
 [0.2        1.92774669]
 [0.25666667 0.70027683]]",1,0.506
8731382169,f,20,english,5,4,english,2024-02-01 10:33:02.802936,False,2,271,sounds\french\audio/french_365.wav,"[[  0.         -98.04571794]
 [  0.1        -73.67698607]
 [  0.2        -96.43604562]
 [  0.25666667  37.7893414 ]]","[[0.         1.18023288]
 [0.1        1.95707288]
 [0.2        0.58641449]
 [0.25666667 1.65360278]]",0,1.836
8731382169,f,20,english,5,4,english,2024-02-01 10:33:02.802936,False,2,272,sounds\french\audio/french_439.wav,"[[  0.          66.25011988]
 [  0.1         46.32034445]
 [  0.2         38.26264731]
 [  0.25666667 -42.53278778]]","[[0.         1.00096297]
 [0.1        0.12322103]
 [0.2        1.5814324 ]
 [0.25666667 0.06125751]]",0,1.071
8731382169,f,20,english,5,4,english,2024-02-01 10:33:02.802936,False,2,273,sounds\french\audio/french_22.wav,"[[ 0.         71.14052921]
 [ 0.1        32.6622244 ]
 [ 0.2        96.1292121 ]
 [ 0.25666667 65.79523532]]","[[0.         0.14678418]
 [0.1        0.81024714]
 [0.2        1.14392668]
 [0.25666667 1.62437335]]",1,0.793
8731382169,f,20,english,5,4,english,2024-02-01 10:33:02.802936,False,2,274,sounds\french\audio/french_368.wav,"[[  0.         -50.29275674]
 [  0.1        -46.19812301]
 [  0.2         11.95097834]
 [  0.25666667  56.55273669]]","[[0.         1.3762211 ]
 [0.1        0.86881993]
 [0.2        1.63580042]
 [0.25666667 0.08134077]]",1,0.843
8731382169,f,20,english,5,4,english,2024-02-01 10:33:02.802936,False,2,275,sounds\french\audio/french_555.wav,"[[  0.         -94.33978787]
 [  0.1         93.76530939]
 [  0.2         60.24178239]
 [  0.25666667  52.06264798]]","[[0.         0.59318307]
 [0.1        0.913599  ]
 [0.2        1.32127388]
 [0.25666667 1.40091244]]",1,0.677
8731382169,f,20,english,5,4,english,2024-02-01 10:33:02.802936,False,2,276,sounds\french\audio/french_15.wav,"[[  0.          75.10258226]
 [  0.1         91.64852869]
 [  0.2        -54.2483896 ]
 [  0.25666667 -67.82917504]]","[[0.         1.00702741]
 [0.1        0.72289983]
 [0.2        1.50363401]
 [0.25666667 0.97553874]]",0,1.561
8731382169,f,20,english,5,4,english,2024-02-01 10:33:02.802936,False,2,277,sounds\french\audio/french_425.wav,"[[  0.          36.0896382 ]
 [  0.1        -60.28824884]
 [  0.2        -83.12671609]
 [  0.25666667  32.66103116]]","[[0.         0.72680638]
 [0.1        0.01839492]
 [0.2        1.09901753]
 [0.25666667 1.13928828]]",1,1.073
8731382169,f,20,english,5,4,english,2024-02-01 10:33:02.802936,False,2,278,sounds\french\audio/french_840.wav,"[[  0.          13.6338747 ]
 [  0.1        -48.5646874 ]
 [  0.2        -42.92936875]
 [  0.25666667 -22.57825883]]","[[0.         1.10667495]
 [0.1        1.60365116]
 [0.2        0.82861267]
 [0.25666667 0.56371323]]",1,1.154
8731382169,f,20,english,5,4,english,2024-02-01 10:33:02.802936,False,2,279,sounds\french\audio/french_731.wav,"[[  0.          52.82888701]
 [  0.1         44.66747194]
 [  0.2         83.54065351]
 [  0.25666667 -50.41579204]]","[[0.         1.42077684]
 [0.1        0.2996776 ]
 [0.2        1.21708869]
 [0.25666667 1.31490505]]",1,0.811
8731382169,f,20,english,5,4,english,2024-02-01 10:33:02.802936,False,2,280,sounds\french\audio/french_890.wav,"[[  0.          17.48321345]
 [  0.1        -18.95749083]
 [  0.2          0.74707456]
 [  0.25666667  92.62024404]]","[[0.         1.85587598]
 [0.1        0.79262665]
 [0.2        0.19694232]
 [0.25666667 1.22282027]]",1,0.626
8731382169,f,20,english,5,4,english,2024-02-01 10:33:02.802936,False,2,281,sounds\french\audio/french_192.wav,"[[  0.          73.17690414]
 [  0.1         14.65884197]
 [  0.2         -6.29840632]
 [  0.25666667 -32.28340249]]","[[0.         1.47156363]
 [0.1        0.92412776]
 [0.2        0.27182316]
 [0.25666667 1.34820636]]",0,0.685
8731382169,f,20,english,5,4,english,2024-02-01 10:33:02.802936,False,2,282,sounds\french\audio/french_497.wav,"[[  0.         -34.77858655]
 [  0.1        -52.52188589]
 [  0.2         81.6415951 ]
 [  0.25666667  23.98828418]]","[[0.         0.98641894]
 [0.1        1.48106735]
 [0.2        1.37619597]
 [0.25666667 1.87248846]]",0,0.594
8731382169,f,20,english,5,4,english,2024-02-01 10:33:02.802936,False,2,283,sounds\french\audio/french_87.wav,"[[  0.          57.46562038]
 [  0.1         64.37451918]
 [  0.2         34.82822911]
 [  0.25666667 -44.22171713]]","[[0.         1.84924107]
 [0.1        1.35752119]
 [0.2        1.55092153]
 [0.25666667 0.2478561 ]]",0,0.851
8731382169,f,20,english,5,4,english,2024-02-01 10:33:02.802936,False,2,284,sounds\french\audio/french_836.wav,"[[ 0.         40.23641464]
 [ 0.1        53.79535187]
 [ 0.2        -4.0789246 ]
 [ 0.25666667  3.8536211 ]]","[[0.         0.42377088]
 [0.1        0.63943013]
 [0.2        1.19242466]
 [0.25666667 1.488673  ]]",1,0.649
8731382169,f,20,english,5,4,english,2024-02-01 10:33:02.802936,False,2,285,sounds\french\audio/french_738.wav,"[[  0.           9.63502306]
 [  0.1         23.45464863]
 [  0.2        -41.48525502]
 [  0.25666667  10.13311751]]","[[0.         1.8953007 ]
 [0.1        0.66483685]
 [0.2        0.56687756]
 [0.25666667 1.74946228]]",1,0.842
8731382169,f,20,english,5,4,english,2024-02-01 10:33:02.802936,False,2,286,sounds\french\audio/french_593.wav,"[[  0.          28.63563643]
 [  0.1        -92.54588956]
 [  0.2         54.29574758]
 [  0.25666667 -51.0775076 ]]","[[0.         0.95899308]
 [0.1        1.11632192]
 [0.2        0.28179711]
 [0.25666667 1.92785686]]",1,0.681
8731382169,f,20,english,5,4,english,2024-02-01 10:33:02.802936,False,2,287,sounds\french\audio/french_255.wav,"[[  0.         -34.51424568]
 [  0.1         78.41526515]
 [  0.2        -68.08036781]
 [  0.25666667  24.01405499]]","[[0.         1.48061101]
 [0.1        1.11576013]
 [0.2        0.98465822]
 [0.25666667 1.10721404]]",1,0.669
8731382169,f,20,english,5,4,english,2024-02-01 10:33:02.802936,False,2,288,sounds\french\audio/french_219.wav,"[[  0.         -98.78648146]
 [  0.1        -54.51672601]
 [  0.2         75.82451993]
 [  0.25666667  42.52821499]]","[[0.         1.35832625]
 [0.1        0.9105506 ]
 [0.2        0.22027405]
 [0.25666667 1.53742188]]",1,0.768
8731382169,f,20,english,5,4,english,2024-02-01 10:33:02.802936,False,2,289,sounds\french\audio/french_300.wav,"[[  0.         -13.28568226]
 [  0.1         80.95964609]
 [  0.2         97.81212175]
 [  0.25666667  60.85112551]]","[[0.         1.4723541 ]
 [0.1        1.07308012]
 [0.2        1.14674573]
 [0.25666667 1.78656344]]",0,0.685
8731382169,f,20,english,5,4,english,2024-02-01 10:33:02.802936,False,2,290,sounds\french\audio/french_341.wav,"[[  0.          20.04332725]
 [  0.1        -82.29685822]
 [  0.2        -35.12302466]
 [  0.25666667  58.90486556]]","[[0.         1.4438644 ]
 [0.1        0.08336385]
 [0.2        0.04329086]
 [0.25666667 0.76896482]]",1,1.007
8731382169,f,20,english,5,4,english,2024-02-01 10:33:02.802936,False,2,291,sounds\french\audio/french_123.wav,"[[ 0.         47.28842571]
 [ 0.1        40.8763752 ]
 [ 0.2        -0.29365354]
 [ 0.25666667 -9.49286286]]","[[0.         1.09614989]
 [0.1        1.93529177]
 [0.2        0.05812677]
 [0.25666667 0.68816992]]",1,0.994
8731382169,f,20,english,5,4,english,2024-02-01 10:33:02.802936,False,2,292,sounds\french\audio/french_659.wav,"[[ 0.         85.50464417]
 [ 0.1        65.46448613]
 [ 0.2        39.40171471]
 [ 0.25666667 -2.24011696]]","[[0.         1.33522586]
 [0.1        1.79413259]
 [0.2        1.57337642]
 [0.25666667 0.55895062]]",0,0.752
8731382169,f,20,english,5,4,english,2024-02-01 10:33:02.802936,False,2,293,sounds\french\audio/french_410.wav,"[[  0.         -57.70995681]
 [  0.1         48.77026686]
 [  0.2        -48.38648813]
 [  0.25666667  53.40375253]]","[[0.         0.42078672]
 [0.1        1.91428116]
 [0.2        0.69257086]
 [0.25666667 1.23009328]]",1,0.906
8731382169,f,20,english,5,4,english,2024-02-01 10:33:02.802936,False,2,294,sounds\french\audio/french_511.wav,"[[  0.         -19.9871771 ]
 [  0.1        -61.98813266]
 [  0.2        -51.99144191]
 [  0.25666667  26.5419494 ]]","[[0.         1.33271467]
 [0.1        1.54343533]
 [0.2        1.11888865]
 [0.25666667 1.56196296]]",1,0.617
8731382169,f,20,english,5,4,english,2024-02-01 10:33:02.802936,False,2,295,sounds\french\audio/french_98.wav,"[[  0.          -5.34356544]
 [  0.1        -51.77157259]
 [  0.2         16.6615471 ]
 [  0.25666667 -37.68560636]]","[[0.         0.47275823]
 [0.1        0.98771666]
 [0.2        0.01400035]
 [0.25666667 0.42827786]]",1,0.908
8731382169,f,20,english,5,4,english,2024-02-01 10:33:02.802936,False,2,296,sounds\french\audio/french_628.wav,"[[  0.          68.49177404]
 [  0.1        -37.23139728]
 [  0.2        -66.57894256]
 [  0.25666667  94.63403104]]","[[0.         1.08718887]
 [0.1        1.92014291]
 [0.2        1.74485312]
 [0.25666667 1.25946788]]",0,0.599
8731382169,f,20,english,5,4,english,2024-02-01 10:33:02.802936,False,2,297,sounds\french\audio/french_768.wav,"[[ 0.         43.80393873]
 [ 0.1        23.97019037]
 [ 0.2        96.73627246]
 [ 0.25666667 86.69297093]]","[[0.         0.16736189]
 [0.1        0.82539527]
 [0.2        1.26581733]
 [0.25666667 1.40091334]]",1,0.666
8731382169,f,20,english,5,4,english,2024-02-01 10:33:02.802936,False,2,298,sounds\french\audio/french_294.wav,"[[  0.          18.73906337]
 [  0.1          4.75064209]
 [  0.2        -81.40088776]
 [  0.25666667 -89.40929498]]","[[0.         1.13845915]
 [0.1        1.03898668]
 [0.2        1.62818909]
 [0.25666667 0.49616963]]",1,0.528
8731382169,f,20,english,5,4,english,2024-02-01 10:33:02.802936,False,2,299,sounds\french\audio/french_926.wav,"[[  0.         -38.30420493]
 [  0.1        -97.26803886]
 [  0.2         55.3544282 ]
 [  0.25666667   8.78644418]]","[[0.         1.0266732 ]
 [0.1        0.03873156]
 [0.2        0.32593073]
 [0.25666667 0.80695306]]",1,0.959
8731382169,f,20,english,5,4,english,2024-02-01 10:33:02.802936,False,2,300,sounds\french\audio/french_367.wav,"[[  0.         -74.25610099]
 [  0.1        -44.66143863]
 [  0.2        -39.26529042]
 [  0.25666667 -84.95145566]]","[[0.         1.28932343]
 [0.1        1.13980767]
 [0.2        1.487469  ]
 [0.25666667 0.37349724]]",1,0.729
8731382169,f,20,english,5,4,english,2024-02-01 10:33:02.802936,False,2,301,sounds\french\audio/french_592.wav,"[[  0.         -60.74271859]
 [  0.1         93.57737247]
 [  0.2        -53.75438764]
 [  0.25666667  -2.22241718]]","[[0.         0.07910076]
 [0.1        0.09988206]
 [0.2        0.64371435]
 [0.25666667 0.65219405]]",1,0.835
8731382169,f,20,english,5,4,english,2024-02-01 10:33:02.802936,False,2,302,sounds\french\audio/french_410.wav,"[[  0.         -57.70995681]
 [  0.1         48.77026686]
 [  0.2        -48.38648813]
 [  0.25666667  53.40375253]]","[[0.         0.42078672]
 [0.1        1.91428116]
 [0.2        0.69257086]
 [0.25666667 1.23009328]]",1,0.689
8731382169,f,20,english,5,4,english,2024-02-01 10:33:02.802936,False,2,303,sounds\french\audio/french_516.wav,"[[  0.         -18.05376101]
 [  0.1         46.96361083]
 [  0.2         63.85228851]
 [  0.25666667 -69.83202403]]","[[0.         1.88602221]
 [0.1        1.82153179]
 [0.2        1.94475993]
 [0.25666667 1.41132457]]",1,0.982
8731382169,f,20,english,5,4,english,2024-02-01 10:33:02.802936,False,2,304,sounds\french\audio/french_308.wav,"[[  0.          10.28514005]
 [  0.1        -39.60290217]
 [  0.2         99.30719553]
 [  0.25666667  64.43745932]]","[[0.         0.92806529]
 [0.1        0.73191769]
 [0.2        0.07740888]
 [0.25666667 0.80481059]]",1,0.71
8731382169,f,20,english,5,4,english,2024-02-01 10:33:02.802936,False,2,305,sounds\french\audio/french_232.wav,"[[  0.          48.62304181]
 [  0.1        -66.91586117]
 [  0.2        -71.38800945]
 [  0.25666667  32.42157584]]","[[0.         1.60041799]
 [0.1        0.5698369 ]
 [0.2        1.21368891]
 [0.25666667 1.05085576]]",0,0.814
8731382169,f,20,english,5,4,english,2024-02-01 10:33:02.802936,False,2,306,sounds\french\audio/french_477.wav,"[[  0.         -42.83355645]
 [  0.1        -62.82113547]
 [  0.2         87.24330329]
 [  0.25666667  51.53483355]]","[[0.         0.5966768 ]
 [0.1        0.86071515]
 [0.2        1.68377915]
 [0.25666667 1.05396705]]",1,0.649
8731382169,f,20,english,5,4,english,2024-02-01 10:33:02.802936,False,2,307,sounds\french\audio/french_360.wav,"[[ 0.00000000e+00 -2.35073025e-03]
 [ 1.00000000e-01  7.51310722e+01]
 [ 2.00000000e-01 -5.59073348e+01]
 [ 2.56666667e-01 -5.96885988e+01]]","[[0.         1.59141319]
 [0.1        0.32502124]
 [0.2        0.48861064]
 [0.25666667 0.13551716]]",1,0.779
8731382169,f,20,english,5,4,english,2024-02-01 10:33:02.802936,False,2,308,sounds\french\audio/french_877.wav,"[[  0.         -23.96574217]
 [  0.1         51.07186547]
 [  0.2         26.38223439]
 [  0.25666667  57.01482149]]","[[0.         0.96253444]
 [0.1        1.01009898]
 [0.2        1.26042149]
 [0.25666667 0.37917076]]",1,0.8
8731382169,f,20,english,5,4,english,2024-02-01 10:33:02.802936,False,2,309,sounds\french\audio/french_307.wav,"[[  0.           1.2534749 ]
 [  0.1         79.3326992 ]
 [  0.2         24.93038066]
 [  0.25666667 -37.26133342]]","[[0.         1.28672407]
 [0.1        0.47718292]
 [0.2        1.37451018]
 [0.25666667 1.21026525]]",1,0.767
8731382169,f,20,english,5,4,english,2024-02-01 10:33:02.802936,False,2,310,sounds\french\audio/french_48.wav,"[[  0.          39.79198264]
 [  0.1         66.47948286]
 [  0.2         57.39946228]
 [  0.25666667 -39.27972342]]","[[0.         1.78905862]
 [0.1        1.41226809]
 [0.2        1.54721415]
 [0.25666667 0.33574946]]",1,0.651
8731382169,f,20,english,5,4,english,2024-02-01 10:33:02.802936,False,2,311,sounds\french\audio/french_299.wav,"[[  0.          12.52470623]
 [  0.1        -97.26544336]
 [  0.2        -80.62903972]
 [  0.25666667  73.47257664]]","[[0.         1.64482663]
 [0.1        1.84069115]
 [0.2        0.25110426]
 [0.25666667 1.45765737]]",0,0.503
8731382169,f,20,english,5,4,english,2024-02-01 10:33:02.802936,False,2,312,sounds\french\audio/french_840.wav,"[[  0.          13.6338747 ]
 [  0.1        -48.5646874 ]
 [  0.2        -42.92936875]
 [  0.25666667 -22.57825883]]","[[0.         1.10667495]
 [0.1        1.60365116]
 [0.2        0.82861267]
 [0.25666667 0.56371323]]",0,0.48
8731382169,f,20,english,5,4,english,2024-02-01 10:33:02.802936,False,2,313,sounds\french\audio/french_704.wav,"[[  0.          47.78235411]
 [  0.1        -55.43932   ]
 [  0.2         -4.4200676 ]
 [  0.25666667  92.51428674]]","[[0.         1.53952375]
 [0.1        1.15285736]
 [0.2        1.9057017 ]
 [0.25666667 1.54517481]]",0,0.647
8731382169,f,20,english,5,4,english,2024-02-01 10:33:02.802936,False,2,314,sounds\french\audio/french_37.wav,"[[  0.          74.40318054]
 [  0.1          1.61071593]
 [  0.2        -60.86815184]
 [  0.25666667  35.44737922]]","[[0.         1.78030803]
 [0.1        1.06555703]
 [0.2        0.67417333]
 [0.25666667 1.14925698]]",0,0.62
8731382169,f,20,english,5,4,english,2024-02-01 10:33:02.802936,False,2,315,sounds\french\audio/french_393.wav,"[[  0.          -4.17853165]
 [  0.1        -52.7672758 ]
 [  0.2        -35.65632354]
 [  0.25666667 -38.23501308]]","[[0.         1.11841435]
 [0.1        1.14982518]
 [0.2        1.99911749]
 [0.25666667 0.07284053]]",1,1.048
8731382169,f,20,english,5,4,english,2024-02-01 10:33:02.802936,False,2,316,sounds\french\audio/french_636.wav,"[[ 0.         79.1724471 ]
 [ 0.1        25.25700376]
 [ 0.2        72.37529148]
 [ 0.25666667 12.21946345]]","[[0.         0.8082817 ]
 [0.1        1.50975093]
 [0.2        0.99206968]
 [0.25666667 0.17038819]]",0,0.57
8731382169,f,20,english,5,4,english,2024-02-01 10:33:02.802936,False,2,317,sounds\french\audio/french_198.wav,"[[  0.          72.51067349]
 [  0.1         26.15359829]
 [  0.2        -38.06500424]
 [  0.25666667 -63.59150526]]","[[0.         0.65547069]
 [0.1        0.30610144]
 [0.2        0.27462822]
 [0.25666667 1.37790723]]",1,1.521
8731382169,f,20,english,5,4,english,2024-02-01 10:33:02.802936,False,2,318,sounds\french\audio/french_891.wav,"[[ 0.         36.15157251]
 [ 0.1         9.92087077]
 [ 0.2        64.79051962]
 [ 0.25666667 25.43576317]]","[[0.         0.11830574]
 [0.1        0.00778599]
 [0.2        0.40739404]
 [0.25666667 0.71071781]]",1,1.362
8731382169,f,20,english,5,4,english,2024-02-01 10:33:02.802936,False,2,319,sounds\french\audio/french_609.wav,"[[  0.          11.6890167 ]
 [  0.1        -35.50971605]
 [  0.2        -98.47760025]
 [  0.25666667 -64.00925784]]","[[0.         1.75568789]
 [0.1        1.50542158]
 [0.2        0.96032408]
 [0.25666667 1.1186533 ]]",0,0.559
8731382169,f,20,english,5,4,english,2024-02-01 10:33:02.802936,False,2,320,sounds\french\audio/french_915.wav,"[[  0.         -64.10930236]
 [  0.1         -7.16601985]
 [  0.2        -76.9677693 ]
 [  0.25666667  64.27469246]]","[[0.         0.7615396 ]
 [0.1        1.77142655]
 [0.2        1.45350334]
 [0.25666667 1.62999495]]",0,0.605
8731382169,f,20,english,5,4,english,2024-02-01 10:33:02.802936,False,2,321,sounds\french\audio/french_692.wav,"[[  0.         -30.56073905]
 [  0.1         67.72997498]
 [  0.2         55.48980932]
 [  0.25666667  99.47423215]]","[[0.         0.00354931]
 [0.1        1.79271885]
 [0.2        1.35474436]
 [0.25666667 1.33636308]]",1,2.54
8731382169,f,20,english,5,4,english,2024-02-01 10:33:02.802936,False,2,322,sounds\french\audio/french_859.wav,"[[  0.          52.92786792]
 [  0.1         18.54274392]
 [  0.2        -25.06242892]
 [  0.25666667   0.70946668]]","[[0.         1.14238893]
 [0.1        1.12707434]
 [0.2        1.93999144]
 [0.25666667 1.31682519]]",0,0.566
8731382169,f,20,english,5,4,english,2024-02-01 10:33:02.802936,False,2,323,sounds\french\audio/french_43.wav,"[[  0.          -6.86336629]
 [  0.1          1.3862511 ]
 [  0.2        -46.66652787]
 [  0.25666667  99.62545591]]","[[0.         1.4879687 ]
 [0.1        1.50259819]
 [0.2        1.37505073]
 [0.25666667 0.7561706 ]]",0,0.571
8731382169,f,20,english,5,4,english,2024-02-01 10:33:02.802936,False,2,324,sounds\french\audio/french_89.wav,"[[  0.         -79.59355323]
 [  0.1        -86.9945706 ]
 [  0.2         81.38410409]
 [  0.25666667 -11.31628481]]","[[0.         1.69180454]
 [0.1        1.08047967]
 [0.2        1.92177075]
 [0.25666667 1.93759104]]",0,0.537
8731382169,f,20,english,5,4,english,2024-02-01 10:33:02.802936,False,2,325,sounds\french\audio/french_228.wav,"[[  0.         -13.78258648]
 [  0.1         27.88870681]
 [  0.2         -8.73674486]
 [  0.25666667 -13.88179653]]","[[0.         1.36655769]
 [0.1        1.56643938]
 [0.2        0.29403468]
 [0.25666667 0.32348249]]",0,0.683
8731382169,f,20,english,5,4,english,2024-02-01 10:33:02.802936,False,2,326,sounds\french\audio/french_108.wav,"[[  0.         -38.50953818]
 [  0.1         44.47590219]
 [  0.2         35.73303492]
 [  0.25666667 -90.35369633]]","[[0.         1.14488094]
 [0.1        1.3820118 ]
 [0.2        1.04224754]
 [0.25666667 1.51933791]]",1,0.697
8731382169,f,20,english,5,4,english,2024-02-01 10:33:02.802936,False,2,327,sounds\french\audio/french_322.wav,"[[  0.          11.21723197]
 [  0.1         71.99064207]
 [  0.2        -70.2949895 ]
 [  0.25666667 -90.37135255]]","[[0.         0.46669198]
 [0.1        0.00506582]
 [0.2        0.23170645]
 [0.25666667 0.39597554]]",1,0.875
8731382169,f,20,english,5,4,english,2024-02-01 10:33:02.802936,False,2,328,sounds\french\audio/french_801.wav,"[[  0.          -2.50424847]
 [  0.1        -38.14130366]
 [  0.2         29.8899248 ]
 [  0.25666667   6.94729426]]","[[0.         1.53837519]
 [0.1        1.1394832 ]
 [0.2        1.04638934]
 [0.25666667 1.11851907]]",0,0.611
8731382169,f,20,english,5,4,english,2024-02-01 10:33:02.802936,False,2,329,sounds\french\audio/french_854.wav,"[[  0.          -7.31529778]
 [  0.1        -99.41756076]
 [  0.2          9.72781791]
 [  0.25666667  12.92966386]]","[[0.         1.19205775]
 [0.1        1.8519083 ]
 [0.2        0.75121465]
 [0.25666667 0.73809803]]",0,0.652
8731382169,f,20,english,5,4,english,2024-02-01 10:33:02.802936,False,2,330,sounds\french\audio/french_946.wav,"[[  0.         -59.20376503]
 [  0.1         41.31347152]
 [  0.2        -58.18080138]
 [  0.25666667 -28.00273528]]","[[0.         1.07432488]
 [0.1        0.26624757]
 [0.2        0.53636085]
 [0.25666667 1.77786979]]",1,0.911
8731382169,f,20,english,5,4,english,2024-02-01 10:33:02.802936,False,2,331,sounds\french\audio/french_404.wav,"[[  0.         -69.94435752]
 [  0.1        -71.78209065]
 [  0.2          1.54660235]
 [  0.25666667 -64.99062427]]","[[0.         1.52233517]
 [0.1        0.64310095]
 [0.2        1.70982079]
 [0.25666667 0.43662649]]",0,1.808
8731382169,f,20,english,5,4,english,2024-02-01 10:33:02.802936,False,2,332,sounds\french\audio/french_513.wav,"[[  0.          84.63539274]
 [  0.1         36.6114333 ]
 [  0.2         14.49628471]
 [  0.25666667 -17.17346171]]","[[0.         1.68726635]
 [0.1        0.88690679]
 [0.2        0.37350839]
 [0.25666667 1.74122924]]",1,0.5
8731382169,f,20,english,5,4,english,2024-02-01 10:33:02.802936,False,2,333,sounds\french\audio/french_963.wav,"[[ 0.         47.65214736]
 [ 0.1         6.38608236]
 [ 0.2        90.58649254]
 [ 0.25666667 -7.76898595]]","[[0.         0.44378955]
 [0.1        0.94107122]
 [0.2        1.48470349]
 [0.25666667 1.98203536]]",1,0.513
8731382169,f,20,english,5,4,english,2024-02-01 10:33:02.802936,False,2,334,sounds\french\audio/french_567.wav,"[[ 0.         27.43626477]
 [ 0.1        41.78362701]
 [ 0.2        54.76706712]
 [ 0.25666667 32.83264266]]","[[0.         1.24283832]
 [0.1        1.94246111]
 [0.2        1.04642714]
 [0.25666667 0.77358904]]",0,0.641
8731382169,f,20,english,5,4,english,2024-02-01 10:33:02.802936,False,2,335,sounds\french\audio/french_154.wav,"[[  0.         -35.77368222]
 [  0.1          5.93918526]
 [  0.2         36.13172948]
 [  0.25666667 -52.77395679]]","[[0.         0.10248514]
 [0.1        0.42084566]
 [0.2        1.29147589]
 [0.25666667 0.60791213]]",1,0.926
8731382169,f,20,english,5,4,english,2024-02-01 10:33:02.802936,False,2,336,sounds\french\audio/french_833.wav,"[[  0.          -6.16556676]
 [  0.1        -32.48345992]
 [  0.2        -28.28033803]
 [  0.25666667  48.73445236]]","[[0.         1.54939137]
 [0.1        0.45028205]
 [0.2        0.55227402]
 [0.25666667 0.7790443 ]]",1,1.061
8731382169,f,20,english,5,4,english,2024-02-01 10:33:02.802936,False,2,337,sounds\french\audio/french_456.wav,"[[  0.         -27.91969988]
 [  0.1         -6.9905469 ]
 [  0.2          7.34213132]
 [  0.25666667 -16.30576404]]","[[0.         0.874098  ]
 [0.1        0.40632282]
 [0.2        0.88508218]
 [0.25666667 1.43350061]]",0,0.671
8731382169,f,20,english,5,4,english,2024-02-01 10:33:02.802936,False,2,338,sounds\french\audio/french_547.wav,"[[  0.         -72.35697933]
 [  0.1        -74.8664908 ]
 [  0.2         67.97778582]
 [  0.25666667  23.13057238]]","[[0.         0.54090293]
 [0.1        1.21231176]
 [0.2        1.67585204]
 [0.25666667 0.28113426]]",0,0.462
8731382169,f,20,english,5,4,english,2024-02-01 10:33:02.802936,False,2,339,sounds\french\audio/french_534.wav,"[[  0.          96.41776506]
 [  0.1        -53.52749338]
 [  0.2         51.10087415]
 [  0.25666667  27.39654188]]","[[0.         0.28463844]
 [0.1        1.69872517]
 [0.2        0.80798533]
 [0.25666667 1.79838566]]",1,0.397
8731382169,f,20,english,5,4,english,2024-02-01 10:33:02.802936,False,2,340,sounds\french\audio/french_793.wav,"[[  0.          24.81509803]
 [  0.1        -63.66512484]
 [  0.2        -35.07665133]
 [  0.25666667  -2.30327069]]","[[0.         0.12690374]
 [0.1        0.60816637]
 [0.2        0.42682998]
 [0.25666667 0.74050477]]",1,0.609
8731382169,f,20,english,5,4,english,2024-02-01 10:33:02.802936,False,2,341,sounds\french\audio/french_793.wav,"[[  0.          24.81509803]
 [  0.1        -63.66512484]
 [  0.2        -35.07665133]
 [  0.25666667  -2.30327069]]","[[0.         0.12690374]
 [0.1        0.60816637]
 [0.2        0.42682998]
 [0.25666667 0.74050477]]",1,1.044
8731382169,f,20,english,5,4,english,2024-02-01 10:33:02.802936,False,2,342,sounds\french\audio/french_964.wav,"[[  0.         -56.07629317]
 [  0.1        -19.45500988]
 [  0.2         97.83653085]
 [  0.25666667  70.5600413 ]]","[[0.         1.19943116]
 [0.1        0.89458005]
 [0.2        1.94180509]
 [0.25666667 0.3273771 ]]",0,0.625
8731382169,f,20,english,5,4,english,2024-02-01 10:33:02.802936,False,2,343,sounds\french\audio/french_492.wav,"[[  0.          26.23401792]
 [  0.1        -24.69700304]
 [  0.2         20.89476161]
 [  0.25666667  -5.21833306]]","[[0.         1.39276004]
 [0.1        1.17915575]
 [0.2        0.89700471]
 [0.25666667 0.44164607]]",0,0.695
8731382169,f,20,english,5,4,english,2024-02-01 10:33:02.802936,False,2,344,sounds\french\audio/french_569.wav,"[[  0.          14.0156596 ]
 [  0.1         85.00283799]
 [  0.2        -53.61423207]
 [  0.25666667 -38.88478833]]","[[0.         1.29627558]
 [0.1        1.08637511]
 [0.2        1.60007367]
 [0.25666667 0.57872623]]",0,1.008
8731382169,f,20,english,5,4,english,2024-02-01 10:33:02.802936,False,2,345,sounds\french\audio/french_628.wav,"[[  0.          68.49177404]
 [  0.1        -37.23139728]
 [  0.2        -66.57894256]
 [  0.25666667  94.63403104]]","[[0.         1.08718887]
 [0.1        1.92014291]
 [0.2        1.74485312]
 [0.25666667 1.25946788]]",1,0.512
8731382169,f,20,english,5,4,english,2024-02-01 10:33:02.802936,False,2,346,sounds\french\audio/french_437.wav,"[[  0.          59.70067771]
 [  0.1         78.61233767]
 [  0.2         76.18154157]
 [  0.25666667 -54.28538078]]","[[0.         0.22659206]
 [0.1        0.85429053]
 [0.2        1.36297282]
 [0.25666667 1.46039745]]",1,0.571
8731382169,f,20,english,5,4,english,2024-02-01 10:33:02.802936,False,2,347,sounds\french\audio/french_580.wav,"[[  0.          27.05941303]
 [  0.1        -10.3346088 ]
 [  0.2        -24.27512535]
 [  0.25666667  34.7313677 ]]","[[0.         0.35053576]
 [0.1        1.97169455]
 [0.2        0.90308202]
 [0.25666667 0.94790865]]",1,0.793
8731382169,f,20,english,5,4,english,2024-02-01 10:33:02.802936,False,2,348,sounds\french\audio/french_278.wav,"[[  0.           0.92058819]
 [  0.1        -11.12293645]
 [  0.2         51.74113392]
 [  0.25666667  59.96495371]]","[[0.         0.58166089]
 [0.1        0.6190237 ]
 [0.2        1.02661965]
 [0.25666667 0.89915078]]",1,0.621
8731382169,f,20,english,5,4,english,2024-02-01 10:33:02.802936,False,2,349,sounds\french\audio/french_823.wav,"[[  0.         -89.53533563]
 [  0.1         14.01752274]
 [  0.2         33.24657022]
 [  0.25666667 -78.84260648]]","[[0.         0.87621895]
 [0.1        0.92757563]
 [0.2        1.30685671]
 [0.25666667 1.33840969]]",1,0.661
8731382169,f,20,english,5,4,english,2024-02-01 10:33:02.802936,False,2,350,sounds\french\audio/french_964.wav,"[[  0.         -56.07629317]
 [  0.1        -19.45500988]
 [  0.2         97.83653085]
 [  0.25666667  70.5600413 ]]","[[0.         1.19943116]
 [0.1        0.89458005]
 [0.2        1.94180509]
 [0.25666667 0.3273771 ]]",0,0.553
8731382169,f,20,english,5,4,english,2024-02-01 10:33:02.802936,False,2,351,sounds\french\audio/french_24.wav,"[[  0.         -90.56488298]
 [  0.1        -50.97686263]
 [  0.2         15.79918005]
 [  0.25666667   3.83977191]]","[[0.         1.23408284]
 [0.1        0.21485458]
 [0.2        0.7737077 ]
 [0.25666667 0.99994749]]",1,0.589
8731382169,f,20,english,5,4,english,2024-02-01 10:33:02.802936,False,2,352,sounds\french\audio/french_42.wav,"[[  0.         -62.21237173]
 [  0.1        -98.4992591 ]
 [  0.2         97.73183718]
 [  0.25666667 -56.73891221]]","[[0.         0.70589884]
 [0.1        0.40467669]
 [0.2        0.72488221]
 [0.25666667 0.44273829]]",1,0.704
8731382169,f,20,english,5,4,english,2024-02-01 10:33:02.802936,False,2,353,sounds\french\audio/french_890.wav,"[[  0.          17.48321345]
 [  0.1        -18.95749083]
 [  0.2          0.74707456]
 [  0.25666667  92.62024404]]","[[0.         1.85587598]
 [0.1        0.79262665]
 [0.2        0.19694232]
 [0.25666667 1.22282027]]",0,1.434
8731382169,f,20,english,5,4,english,2024-02-01 10:33:02.802936,False,2,354,sounds\french\audio/french_570.wav,"[[  0.         -73.07970403]
 [  0.1        -29.06072458]
 [  0.2        -25.44054287]
 [  0.25666667  96.93308839]]","[[0.         1.97071113]
 [0.1        1.64236312]
 [0.2        0.27343611]
 [0.25666667 1.31029171]]",0,0.592
8731382169,f,20,english,5,4,english,2024-02-01 10:33:02.802936,False,2,355,sounds\french\audio/french_81.wav,"[[ 0.         43.03410676]
 [ 0.1        37.87573495]
 [ 0.2        -9.17332854]
 [ 0.25666667 10.13667473]]","[[0.         0.84411959]
 [0.1        1.10924478]
 [0.2        1.82652056]
 [0.25666667 1.52638082]]",0,0.486
8731382169,f,20,english,5,4,english,2024-02-01 10:33:02.802936,False,2,356,sounds\french\audio/french_611.wav,"[[  0.         -21.77805362]
 [  0.1        -45.2722057 ]
 [  0.2         67.02777506]
 [  0.25666667 -75.35716628]]","[[0.         0.549449  ]
 [0.1        0.20224538]
 [0.2        1.0051208 ]
 [0.25666667 1.31223223]]",1,0.872
8731382169,f,20,english,5,4,english,2024-02-01 10:33:02.802936,False,2,357,sounds\french\audio/french_676.wav,"[[  0.          77.51634327]
 [  0.1        -98.7950763 ]
 [  0.2        -10.44477989]
 [  0.25666667   3.71960258]]","[[0.         0.52312795]
 [0.1        0.58996043]
 [0.2        1.89966038]
 [0.25666667 0.61903343]]",0,0.75
8731382169,f,20,english,5,4,english,2024-02-01 10:33:02.802936,False,2,358,sounds\french\audio/french_224.wav,"[[  0.          29.30439333]
 [  0.1        -18.8355858 ]
 [  0.2         53.95388402]
 [  0.25666667 -99.38068318]]","[[0.         0.07263044]
 [0.1        0.50126241]
 [0.2        0.66381289]
 [0.25666667 0.98911363]]",1,1.003
8731382169,f,20,english,5,4,english,2024-02-01 10:33:02.802936,False,2,359,sounds\french\audio/french_697.wav,"[[  0.         -19.8565912 ]
 [  0.1        -16.18456076]
 [  0.2        -70.77550193]
 [  0.25666667 -81.21106402]]","[[0.         1.89587242]
 [0.1        0.49072185]
 [0.2        1.8362568 ]
 [0.25666667 0.50078837]]",1,11.871
8731382169,f,20,english,5,4,english,2024-02-01 10:33:02.802936,False,2,360,sounds\french\audio/french_584.wav,"[[  0.          69.79321503]
 [  0.1        -52.7276802 ]
 [  0.2        -55.3142281 ]
 [  0.25666667 -51.83811077]]","[[0.         1.17746001]
 [0.1        1.52318031]
 [0.2        1.91796719]
 [0.25666667 0.8668783 ]]",0,0.403
8731382169,f,20,english,5,4,english,2024-02-01 10:33:02.802936,False,2,361,sounds\french\audio/french_143.wav,"[[  0.         -46.09253598]
 [  0.1         41.21858491]
 [  0.2         10.38405582]
 [  0.25666667 -99.98168054]]","[[0.         1.27633083]
 [0.1        0.28919458]
 [0.2        0.61917155]
 [0.25666667 0.37925836]]",1,0.819
8731382169,f,20,english,5,4,english,2024-02-01 10:33:02.802936,False,2,362,sounds\french\audio/french_540.wav,"[[  0.          64.41538276]
 [  0.1         17.02048616]
 [  0.2        -33.22379056]
 [  0.25666667   6.66749413]]","[[0.         0.51709462]
 [0.1        1.30376576]
 [0.2        0.40148031]
 [0.25666667 1.14865781]]",0,0.718
8731382169,f,20,english,5,4,english,2024-02-01 10:33:02.802936,False,2,363,sounds\french\audio/french_981.wav,"[[  0.          -1.54223553]
 [  0.1        -78.86121057]
 [  0.2        -33.48141771]
 [  0.25666667 -47.78773965]]","[[0.         0.66538198]
 [0.1        1.42802268]
 [0.2        0.92303184]
 [0.25666667 0.82545089]]",0,0.859
8731382169,f,20,english,5,4,english,2024-02-01 10:33:02.802936,False,2,364,sounds\french\audio/french_25.wav,"[[  0.          46.82844357]
 [  0.1          5.52502331]
 [  0.2        -34.25373026]
 [  0.25666667 -52.44039001]]","[[0.         1.1493518 ]
 [0.1        1.41536953]
 [0.2        0.41949869]
 [0.25666667 0.5013656 ]]",0,0.825
8731382169,f,20,english,5,4,english,2024-02-01 10:33:02.802936,False,2,365,sounds\french\audio/french_744.wav,"[[  0.          20.71284991]
 [  0.1         43.41893938]
 [  0.2         65.94530402]
 [  0.25666667 -59.234779  ]]","[[0.         1.22360564]
 [0.1        1.58460028]
 [0.2        0.38406236]
 [0.25666667 0.69273959]]",1,0.485
8731382169,f,20,english,5,4,english,2024-02-01 10:33:02.802936,False,2,366,sounds\french\audio/french_729.wav,"[[  0.          53.20588085]
 [  0.1         89.42375323]
 [  0.2        -13.37040397]
 [  0.25666667 -26.89484255]]","[[0.         1.49423138]
 [0.1        0.2074599 ]
 [0.2        1.07839331]
 [0.25666667 0.61183567]]",0,0.686
8731382169,f,20,english,5,4,english,2024-02-01 10:33:02.802936,False,2,367,sounds\french\audio/french_455.wav,"[[  0.         -38.32224649]
 [  0.1         16.6107471 ]
 [  0.2        -53.73538957]
 [  0.25666667 -39.28573671]]","[[0.         1.67202697]
 [0.1        0.91904085]
 [0.2        1.09329776]
 [0.25666667 1.37901108]]",0,0.596
8731382169,f,20,english,5,4,english,2024-02-01 10:33:02.802936,False,2,368,sounds\french\audio/french_135.wav,"[[  0.         -14.44114523]
 [  0.1         22.88033262]
 [  0.2         45.87784319]
 [  0.25666667  14.60103067]]","[[0.         1.1198793 ]
 [0.1        0.12707755]
 [0.2        1.72429487]
 [0.25666667 0.79769027]]",1,0.782
8731382169,f,20,english,5,4,english,2024-02-01 10:33:02.802936,False,2,369,sounds\french\audio/french_957.wav,"[[  0.         -18.56504594]
 [  0.1         17.87447177]
 [  0.2         57.20134839]
 [  0.25666667  64.73544538]]","[[0.         1.70357669]
 [0.1        1.95920141]
 [0.2        1.7386973 ]
 [0.25666667 0.56015389]]",0,0.585
8731382169,f,20,english,5,4,english,2024-02-01 10:33:02.802936,False,2,370,sounds\french\audio/french_157.wav,"[[  0.          -6.6246598 ]
 [  0.1         49.95824353]
 [  0.2         50.90371108]
 [  0.25666667 -96.22740321]]","[[0.         1.79360699]
 [0.1        1.27582672]
 [0.2        1.55422844]
 [0.25666667 0.51380788]]",0,0.679
8731382169,f,20,english,5,4,english,2024-02-01 10:33:02.802936,False,2,371,sounds\french\audio/french_413.wav,"[[  0.         -15.90568805]
 [  0.1         76.04965913]
 [  0.2         55.08996682]
 [  0.25666667  17.39731584]]","[[0.         0.35618922]
 [0.1        1.72047272]
 [0.2        1.40872317]
 [0.25666667 1.8089724 ]]",1,0.753
8731382169,f,20,english,5,4,english,2024-02-01 10:33:02.802936,False,2,372,sounds\french\audio/french_495.wav,"[[  0.          93.48002859]
 [  0.1         99.142871  ]
 [  0.2        -33.98102163]
 [  0.25666667  38.68354094]]","[[0.         1.03648483]
 [0.1        1.23043948]
 [0.2        1.1332488 ]
 [0.25666667 0.62015381]]",0,0.716
8731382169,f,20,english,5,4,english,2024-02-01 10:33:02.802936,False,2,373,sounds\french\audio/french_351.wav,"[[  0.         -22.87012194]
 [  0.1         10.68995272]
 [  0.2         60.8101445 ]
 [  0.25666667  32.12752515]]","[[0.         0.67033139]
 [0.1        0.80045466]
 [0.2        0.88778875]
 [0.25666667 0.26390259]]",0,0.979
8731382169,f,20,english,5,4,english,2024-02-01 10:33:02.802936,False,2,374,sounds\french\audio/french_498.wav,"[[  0.           4.68377609]
 [  0.1        -15.28708952]
 [  0.2         12.01036293]
 [  0.25666667   2.49690218]]","[[0.         1.22559932]
 [0.1        1.70630703]
 [0.2        0.54123502]
 [0.25666667 0.39602685]]",0,0.766
8731382169,f,20,english,5,4,english,2024-02-01 10:33:02.802936,False,2,375,sounds\french\audio/french_135.wav,"[[  0.         -14.44114523]
 [  0.1         22.88033262]
 [  0.2         45.87784319]
 [  0.25666667  14.60103067]]","[[0.         1.1198793 ]
 [0.1        0.12707755]
 [0.2        1.72429487]
 [0.25666667 0.79769027]]",0,0.868
8731382169,f,20,english,5,4,english,2024-02-01 10:33:02.802936,False,2,376,sounds\french\audio/french_781.wav,"[[  0.          33.25938538]
 [  0.1        -13.90292419]
 [  0.2        -71.59350782]
 [  0.25666667  57.07291034]]","[[0.         1.27105286]
 [0.1        0.93357863]
 [0.2        1.0124146 ]
 [0.25666667 0.68511696]]",1,0.631
8731382169,f,20,english,5,4,english,2024-02-01 10:33:02.802936,False,2,377,sounds\french\audio/french_819.wav,"[[  0.          10.23888344]
 [  0.1         14.33129562]
 [  0.2        -57.61493264]
 [  0.25666667  33.17012155]]","[[0.         1.93351894]
 [0.1        0.24790788]
 [0.2        1.58463495]
 [0.25666667 0.31192511]]",1,0.776
8731382169,f,20,english,5,4,english,2024-02-01 10:33:02.802936,False,2,378,sounds\french\audio/french_515.wav,"[[  0.          90.1787868 ]
 [  0.1         95.19464712]
 [  0.2        -71.09612906]
 [  0.25666667  86.48037909]]","[[0.         1.05169603]
 [0.1        0.16234368]
 [0.2        1.85560054]
 [0.25666667 0.23492468]]",1,0.728
8731382169,f,20,english,5,4,english,2024-02-01 10:33:02.802936,False,2,379,sounds\french\audio/french_727.wav,"[[  0.         -15.29396541]
 [  0.1        -26.29552155]
 [  0.2         79.97121571]
 [  0.25666667  55.89998316]]","[[0.         0.40840987]
 [0.1        0.3000398 ]
 [0.2        1.00640838]
 [0.25666667 1.06507384]]",0,0.967
8731382169,f,20,english,5,4,english,2024-02-01 10:33:02.802936,False,2,380,sounds\french\audio/french_827.wav,"[[ 0.         52.76736232]
 [ 0.1        43.3684124 ]
 [ 0.2         5.13351566]
 [ 0.25666667 57.45570888]]","[[0.         0.65431252]
 [0.1        1.37281261]
 [0.2        0.35708699]
 [0.25666667 0.33493738]]",0,0.694
8731382169,f,20,english,5,4,english,2024-02-01 10:33:02.802936,False,2,381,sounds\french\audio/french_472.wav,"[[  0.          -9.46806957]
 [  0.1         45.81973918]
 [  0.2        -32.95266456]
 [  0.25666667 -10.56557549]]","[[0.         0.85855516]
 [0.1        1.60383991]
 [0.2        0.80244772]
 [0.25666667 1.48234138]]",1,0.638
8731382169,f,20,english,5,4,english,2024-02-01 10:33:02.802936,False,2,382,sounds\french\audio/french_674.wav,"[[  0.          36.8658398 ]
 [  0.1        -70.55199619]
 [  0.2         -3.70121723]
 [  0.25666667  30.12615154]]","[[0.         0.63817569]
 [0.1        1.9135219 ]
 [0.2        1.96782527]
 [0.25666667 0.86862342]]",0,0.338
8731382169,f,20,english,5,4,english,2024-02-01 10:33:02.802936,False,2,383,sounds\french\audio/french_913.wav,"[[  0.           5.31236155]
 [  0.1        -59.65057946]
 [  0.2         27.87230438]
 [  0.25666667 -58.49443874]]","[[0.         1.37558602]
 [0.1        0.3561265 ]
 [0.2        1.61604884]
 [0.25666667 0.97981321]]",1,0.562
8731382169,f,20,english,5,4,english,2024-02-01 10:33:02.802936,False,2,384,sounds\french\audio/french_724.wav,"[[  0.         -58.96674975]
 [  0.1        -95.33611412]
 [  0.2        -56.69004984]
 [  0.25666667 -50.97008283]]","[[0.         0.30578628]
 [0.1        0.57010607]
 [0.2        1.33615123]
 [0.25666667 1.59962144]]",1,0.627
8731382169,f,20,english,5,4,english,2024-02-01 10:33:02.802936,False,2,385,sounds\french\audio/french_927.wav,"[[  0.         -10.52890049]
 [  0.1        -14.60087289]
 [  0.2        -23.19620382]
 [  0.25666667  -4.91748489]]","[[0.         0.60201579]
 [0.1        1.35124195]
 [0.2        0.97713268]
 [0.25666667 0.83956459]]",0,0.726
8731382169,f,20,english,5,4,english,2024-02-01 10:33:02.802936,False,2,386,sounds\french\audio/french_82.wav,"[[  0.          82.26293442]
 [  0.1        -13.98955844]
 [  0.2         44.8739745 ]
 [  0.25666667  23.31967993]]","[[0.         0.95636636]
 [0.1        0.8765529 ]
 [0.2        0.75785774]
 [0.25666667 0.26363467]]",0,0.538
8731382169,f,20,english,5,4,english,2024-02-01 10:33:02.802936,False,2,387,sounds\french\audio/french_38.wav,"[[  0.          -0.72741882]
 [  0.1         17.06804162]
 [  0.2        -90.47269694]
 [  0.25666667 -46.03968341]]","[[0.         1.73508679]
 [0.1        1.04827054]
 [0.2        0.06966066]
 [0.25666667 1.13213122]]",1,0.798
8731382169,f,20,english,5,4,english,2024-02-01 10:33:02.802936,False,2,388,sounds\french\audio/french_711.wav,"[[  0.          35.46622773]
 [  0.1         62.41897997]
 [  0.2        -12.16405894]
 [  0.25666667  23.8007589 ]]","[[0.         1.8142291 ]
 [0.1        1.39339975]
 [0.2        1.57822467]
 [0.25666667 1.63044315]]",0,0.495
8731382169,f,20,english,5,4,english,2024-02-01 10:33:02.802936,False,2,389,sounds\french\audio/french_929.wav,"[[ 0.         -0.81023728]
 [ 0.1        49.23140571]
 [ 0.2        -9.18427249]
 [ 0.25666667  2.49300226]]","[[0.         1.80594317]
 [0.1        0.75886247]
 [0.2        0.13714517]
 [0.25666667 0.57622003]]",0,0.68
8731382169,f,20,english,5,4,english,2024-02-01 10:33:02.802936,False,2,390,sounds\french\audio/french_849.wav,"[[  0.         -28.99181256]
 [  0.1        -23.83365043]
 [  0.2        -51.88410218]
 [  0.25666667 -29.11212869]]","[[0.         1.60316931]
 [0.1        0.33831848]
 [0.2        1.05589654]
 [0.25666667 1.53017224]]",0,0.558
8731382169,f,20,english,5,4,english,2024-02-01 10:33:02.802936,False,2,391,sounds\french\audio/french_277.wav,"[[  0.          25.76771762]
 [  0.1        -70.25975294]
 [  0.2        -52.96477311]
 [  0.25666667  41.51950841]]","[[0.         1.36859257]
 [0.1        1.02052852]
 [0.2        1.14771146]
 [0.25666667 0.3441713 ]]",0,0.578
8731382169,f,20,english,5,4,english,2024-02-01 10:33:02.802936,False,2,392,sounds\french\audio/french_457.wav,"[[ 0.         42.86960152]
 [ 0.1        79.85160671]
 [ 0.2        98.12255829]
 [ 0.25666667 78.01153847]]","[[0.         1.10156515]
 [0.1        0.90608198]
 [0.2        0.87189229]
 [0.25666667 1.12024719]]",0,0.66
8731382169,f,20,english,5,4,english,2024-02-01 10:33:02.802936,False,2,393,sounds\french\audio/french_225.wav,"[[  0.          29.07754255]
 [  0.1         99.63110947]
 [  0.2        -11.85966914]
 [  0.25666667 -24.94738594]]","[[0.         1.10473325]
 [0.1        0.86614983]
 [0.2        1.10071   ]
 [0.25666667 1.32437332]]",0,0.612
8731382169,f,20,english,5,4,english,2024-02-01 10:33:02.802936,False,2,394,sounds\french\audio/french_89.wav,"[[  0.         -79.59355323]
 [  0.1        -86.9945706 ]
 [  0.2         81.38410409]
 [  0.25666667 -11.31628481]]","[[0.         1.69180454]
 [0.1        1.08047967]
 [0.2        1.92177075]
 [0.25666667 1.93759104]]",0,0.665
8731382169,f,20,english,5,4,english,2024-02-01 10:33:02.802936,False,2,395,sounds\french\audio/french_862.wav,"[[  0.          99.41401176]
 [  0.1         35.25307956]
 [  0.2        -56.34938096]
 [  0.25666667 -51.21225279]]","[[0.         0.02807195]
 [0.1        0.7885189 ]
 [0.2        0.76649358]
 [0.25666667 1.75346492]]",1,1.068
8731382169,f,20,english,5,4,english,2024-02-01 10:33:02.802936,False,2,396,sounds\french\audio/french_823.wav,"[[  0.         -89.53533563]
 [  0.1         14.01752274]
 [  0.2         33.24657022]
 [  0.25666667 -78.84260648]]","[[0.         0.87621895]
 [0.1        0.92757563]
 [0.2        1.30685671]
 [0.25666667 1.33840969]]",0,0.528
8731382169,f,20,english,5,4,english,2024-02-01 10:33:02.802936,False,2,397,sounds\french\audio/french_724.wav,"[[  0.         -58.96674975]
 [  0.1        -95.33611412]
 [  0.2        -56.69004984]
 [  0.25666667 -50.97008283]]","[[0.         0.30578628]
 [0.1        0.57010607]
 [0.2        1.33615123]
 [0.25666667 1.59962144]]",0,0.67
8731382169,f,20,english,5,4,english,2024-02-01 10:33:02.802936,False,2,398,sounds\french\audio/french_982.wav,"[[  0.         -37.50079515]
 [  0.1        -23.37923681]
 [  0.2        -55.8234839 ]
 [  0.25666667 -58.92111767]]","[[0.         0.32253899]
 [0.1        1.88868261]
 [0.2        0.59835015]
 [0.25666667 1.21615752]]",0,0.593
8731382169,f,20,english,5,4,english,2024-02-01 10:33:02.802936,False,2,399,sounds\french\audio/french_338.wav,"[[  0.         -59.42111132]
 [  0.1        -69.70478814]
 [  0.2        -12.60920347]
 [  0.25666667 -82.44797384]]","[[0.         1.60060286]
 [0.1        0.22517269]
 [0.2        1.52190999]
 [0.25666667 0.82265445]]",0,0.54
8731382169,f,20,english,5,4,english,2024-02-01 10:33:02.802936,False,2,400,sounds\french\audio/french_687.wav,"[[  0.         -41.56393701]
 [  0.1         -5.27268445]
 [  0.2         58.5588678 ]
 [  0.25666667 -41.26863304]]","[[0.         1.23976021]
 [0.1        0.49715047]
 [0.2        0.70596761]
 [0.25666667 1.34000296]]",1,0.651
8731382169,f,20,english,5,4,english,2024-02-01 10:33:02.802936,False,2,401,sounds\french\audio/french_664.wav,"[[  0.          -2.08032019]
 [  0.1        -67.02716902]
 [  0.2         95.17650789]
 [  0.25666667 -41.34718039]]","[[0.         1.43741932]
 [0.1        1.07099048]
 [0.2        1.92774669]
 [0.25666667 0.70027683]]",0,0.464
8731382169,f,20,english,5,4,english,2024-02-01 10:33:02.802936,False,2,402,sounds\french\audio/french_547.wav,"[[  0.         -72.35697933]
 [  0.1        -74.8664908 ]
 [  0.2         67.97778582]
 [  0.25666667  23.13057238]]","[[0.         0.54090293]
 [0.1        1.21231176]
 [0.2        1.67585204]
 [0.25666667 0.28113426]]",1,1.634
8731382169,f,20,english,5,4,english,2024-02-01 10:33:02.802936,False,2,403,sounds\french\audio/french_950.wav,"[[ 0.          6.46729125]
 [ 0.1        89.94723115]
 [ 0.2        33.92654299]
 [ 0.25666667  4.68690548]]","[[0.         1.1492664 ]
 [0.1        1.37343317]
 [0.2        1.07181876]
 [0.25666667 0.13073982]]",0,0.581
8731382169,f,20,english,5,4,english,2024-02-01 10:33:02.802936,False,2,404,sounds\french\audio/french_782.wav,"[[  0.         -22.12019493]
 [  0.1          4.49416446]
 [  0.2         95.81757258]
 [  0.25666667  37.17912971]]","[[0.         0.33541309]
 [0.1        0.60665876]
 [0.2        0.65040298]
 [0.25666667 0.93901734]]",1,0.68
8731382169,f,20,english,5,4,english,2024-02-01 10:33:02.802936,False,2,405,sounds\french\audio/french_552.wav,"[[  0.         -52.32363839]
 [  0.1         23.44364533]
 [  0.2         72.20212972]
 [  0.25666667 -25.42911122]]","[[0.         0.44295398]
 [0.1        1.4520287 ]
 [0.2        0.63620541]
 [0.25666667 1.39952151]]",0,1.576
8731382169,f,20,english,5,4,english,2024-02-01 10:33:02.802936,False,2,406,sounds\french\audio/french_887.wav,"[[  0.          68.65167503]
 [  0.1        -55.72044546]
 [  0.2        -97.59121662]
 [  0.25666667 -40.12897823]]","[[0.         1.16380924]
 [0.1        1.74073633]
 [0.2        1.00138394]
 [0.25666667 1.21780512]]",0,0.604
8731382169,f,20,english,5,4,english,2024-02-01 10:33:02.802936,False,2,407,sounds\french\audio/french_716.wav,"[[  0.          84.94340614]
 [  0.1        -26.42004262]
 [  0.2         43.13419589]
 [  0.25666667  70.01736472]]","[[0.         0.02480266]
 [0.1        1.84645248]
 [0.2        1.11902957]
 [0.25666667 1.71178302]]",1,0.841
8731382169,f,20,english,5,4,english,2024-02-01 10:33:02.802936,False,2,408,sounds\french\audio/french_649.wav,"[[  0.         -26.84796804]
 [  0.1         90.50092835]
 [  0.2        -42.32642697]
 [  0.25666667  -6.05454316]]","[[0.         0.38564107]
 [0.1        0.07645681]
 [0.2        0.18898029]
 [0.25666667 0.88659006]]",1,0.837
8731382169,f,20,english,5,4,english,2024-02-01 10:33:02.802936,False,2,409,sounds\french\audio/french_886.wav,"[[  0.         -29.93146366]
 [  0.1        -19.22170842]
 [  0.2        -71.55320982]
 [  0.25666667 -23.6698032 ]]","[[0.         0.4543131 ]
 [0.1        1.74784503]
 [0.2        1.04864587]
 [0.25666667 1.15835862]]",0,0.568
8731382169,f,20,english,5,4,english,2024-02-01 10:33:02.802936,False,2,410,sounds\french\audio/french_873.wav,"[[  0.         -12.1574241 ]
 [  0.1        -18.24590524]
 [  0.2        -68.65561389]
 [  0.25666667 -45.4488766 ]]","[[0.         0.39218062]
 [0.1        1.88422008]
 [0.2        1.05802306]
 [0.25666667 0.58030918]]",0,0.614
8731382169,f,20,english,5,4,english,2024-02-01 10:33:02.802936,False,2,411,sounds\french\audio/french_652.wav,"[[  0.          19.60271983]
 [  0.1        -55.33376602]
 [  0.2         42.10956493]
 [  0.25666667 -47.80028189]]","[[0.         1.92708098]
 [0.1        1.28238944]
 [0.2        0.03244996]
 [0.25666667 1.59505934]]",0,0.598
8731382169,f,20,english,5,4,english,2024-02-01 10:33:02.802936,False,2,412,sounds\french\audio/french_192.wav,"[[  0.          73.17690414]
 [  0.1         14.65884197]
 [  0.2         -6.29840632]
 [  0.25666667 -32.28340249]]","[[0.         1.47156363]
 [0.1        0.92412776]
 [0.2        0.27182316]
 [0.25666667 1.34820636]]",1,0.697
8731382169,f,20,english,5,4,english,2024-02-01 10:33:02.802936,False,2,413,sounds\french\audio/french_371.wav,"[[  0.          31.80119749]
 [  0.1        -38.52135119]
 [  0.2          9.85895876]
 [  0.25666667  79.11511398]]","[[0.         0.65227963]
 [0.1        1.80763105]
 [0.2        1.44692227]
 [0.25666667 1.12716888]]",1,0.943
8731382169,f,20,english,5,4,english,2024-02-01 10:33:02.802936,False,2,414,sounds\french\audio/french_195.wav,"[[  0.          -1.90342588]
 [  0.1         -8.12665825]
 [  0.2         -5.61431002]
 [  0.25666667 -66.29175925]]","[[0.         0.62941576]
 [0.1        1.90753939]
 [0.2        1.47732259]
 [0.25666667 0.68212586]]",1,0.603
8731382169,f,20,english,5,4,english,2024-02-01 10:33:02.802936,False,2,415,sounds\french\audio/french_590.wav,"[[  0.         -77.28287391]
 [  0.1        -59.34931175]
 [  0.2        -59.15957395]
 [  0.25666667  88.90935082]]","[[0.         1.10563408]
 [0.1        0.27897949]
 [0.2        1.42245938]
 [0.25666667 0.18524725]]",0,0.684
8731382169,f,20,english,5,4,english,2024-02-01 10:33:02.802936,False,2,416,sounds\french\audio/french_825.wav,"[[ 0.         84.83698811]
 [ 0.1        58.10246948]
 [ 0.2        95.28795352]
 [ 0.25666667 40.96055212]]","[[0.         1.37161619]
 [0.1        1.88160769]
 [0.2        0.7228962 ]
 [0.25666667 1.18109596]]",0,0.72
8731382169,f,20,english,5,4,english,2024-02-01 10:33:02.802936,False,2,417,sounds\french\audio/french_812.wav,"[[  0.          78.53201718]
 [  0.1         87.32508034]
 [  0.2         77.15455549]
 [  0.25666667 -51.33102937]]","[[0.         1.73310634]
 [0.1        1.73147281]
 [0.2        1.58178344]
 [0.25666667 0.27993183]]",0,0.486
8731382169,f,20,english,5,4,english,2024-02-01 10:33:02.802936,False,2,418,sounds\french\audio/french_391.wav,"[[  0.         -76.68975493]
 [  0.1        -61.92507962]
 [  0.2        -59.03609545]
 [  0.25666667  88.69049446]]","[[0.         1.01472424]
 [0.1        1.84772624]
 [0.2        1.36374408]
 [0.25666667 1.21538153]]",0,0.571
8731382169,f,20,english,5,4,english,2024-02-01 10:33:02.802936,False,2,419,sounds\french\audio/french_366.wav,"[[  0.         -11.67543603]
 [  0.1        -73.020852  ]
 [  0.2        -53.53259577]
 [  0.25666667  19.02620798]]","[[0.         0.93730839]
 [0.1        0.54674712]
 [0.2        0.98192793]
 [0.25666667 0.14835446]]",1,0.55
8731382169,f,20,english,5,4,english,2024-02-01 10:33:02.802936,False,2,420,sounds\french\audio/french_507.wav,"[[  0.         -39.00130205]
 [  0.1          8.15448279]
 [  0.2        -39.88004764]
 [  0.25666667  66.54300966]]","[[0.         0.88980729]
 [0.1        1.12034654]
 [0.2        1.15006522]
 [0.25666667 1.10945683]]",0,0.458
8731382169,f,20,english,5,4,english,2024-02-01 10:33:02.802936,False,2,421,sounds\french\audio/french_114.wav,"[[ 0.         36.61172137]
 [ 0.1         1.16528437]
 [ 0.2        91.5106094 ]
 [ 0.25666667 23.38458366]]","[[0.         1.1665973 ]
 [0.1        0.29978092]
 [0.2        1.30847922]
 [0.25666667 1.1533172 ]]",1,1.066
8731382169,f,20,english,5,4,english,2024-02-01 10:33:02.802936,False,2,422,sounds\french\audio/french_286.wav,"[[  0.         -12.75776796]
 [  0.1         37.83162005]
 [  0.2        -73.99987606]
 [  0.25666667 -99.59641202]]","[[0.         0.7334837 ]
 [0.1        0.13945261]
 [0.2        0.89700821]
 [0.25666667 0.06192005]]",1,0.851
8731382169,f,20,english,5,4,english,2024-02-01 10:33:02.802936,False,2,423,sounds\french\audio/french_59.wav,"[[  0.          39.36273925]
 [  0.1        -72.05438318]
 [  0.2        -58.73379721]
 [  0.25666667 -71.89754194]]","[[0.         0.85213244]
 [0.1        0.54541244]
 [0.2        0.77028914]
 [0.25666667 0.84538443]]",0,0.548
8731382169,f,20,english,5,4,english,2024-02-01 10:33:02.802936,False,2,424,sounds\french\audio/french_545.wav,"[[  0.         -11.63741059]
 [  0.1         -9.34763636]
 [  0.2        -52.50880558]
 [  0.25666667 -35.41027588]]","[[0.         1.28855558]
 [0.1        0.4133233 ]
 [0.2        1.98413737]
 [0.25666667 0.10366118]]",1,0.498
8731382169,f,20,english,5,4,english,2024-02-01 10:33:02.802936,False,2,425,sounds\french\audio/french_276.wav,"[[  0.         -30.59490391]
 [  0.1         35.14119383]
 [  0.2        -47.54137466]
 [  0.25666667 -36.46330553]]","[[0.         1.59191255]
 [0.1        1.08920427]
 [0.2        1.15204711]
 [0.25666667 0.56107217]]",0,0.479
8731382169,f,20,english,5,4,english,2024-02-01 10:33:02.802936,False,2,426,sounds\french\audio/french_519.wav,"[[  0.          86.76456043]
 [  0.1          8.46145491]
 [  0.2        -48.6822419 ]
 [  0.25666667 -44.03350662]]","[[0.         1.09635868]
 [0.1        1.19136691]
 [0.2        1.7889624 ]
 [0.25666667 1.1754675 ]]",0,0.468
8731382169,f,20,english,5,4,english,2024-02-01 10:33:02.802936,False,2,427,sounds\french\audio/french_294.wav,"[[  0.          18.73906337]
 [  0.1          4.75064209]
 [  0.2        -81.40088776]
 [  0.25666667 -89.40929498]]","[[0.         1.13845915]
 [0.1        1.03898668]
 [0.2        1.62818909]
 [0.25666667 0.49616963]]",1,0.509
8731382169,f,20,english,5,4,english,2024-02-01 10:33:02.802936,False,2,428,sounds\french\audio/french_769.wav,"[[  0.          78.39802529]
 [  0.1         98.35868913]
 [  0.2        -63.4251983 ]
 [  0.25666667 -17.35256236]]","[[0.         0.31346408]
 [0.1        0.8359084 ]
 [0.2        1.75433615]
 [0.25666667 0.30245362]]",0,0.897
8731382169,f,20,english,5,4,english,2024-02-01 10:33:02.802936,False,2,429,sounds\french\audio/french_954.wav,"[[  0.         -31.81965022]
 [  0.1         82.90828133]
 [  0.2         94.68318648]
 [  0.25666667 -42.01635115]]","[[0.         1.69468269]
 [0.1        0.7734121 ]
 [0.2        0.43346946]
 [0.25666667 0.14112827]]",1,0.571
8731382169,f,20,english,5,4,english,2024-02-01 10:33:02.802936,False,2,430,sounds\french\audio/french_564.wav,"[[  0.         -42.85760261]
 [  0.1         78.12316343]
 [  0.2         32.53186734]
 [  0.25666667  60.20924512]]","[[0.         0.14777183]
 [0.1        1.08229262]
 [0.2        0.52251513]
 [0.25666667 1.40255579]]",0,0.93
8731382169,f,20,english,5,4,english,2024-02-01 10:33:02.802936,False,2,431,sounds\french\audio/french_883.wav,"[[  0.          79.42425648]
 [  0.1        -55.57656198]
 [  0.2        -42.3009185 ]
 [  0.25666667   9.11567641]]","[[0.         0.82987007]
 [0.1        1.06788753]
 [0.2        1.49414105]
 [0.25666667 1.30049822]]",1,0.423
8731382169,f,20,english,5,4,english,2024-02-01 10:33:02.802936,False,2,432,sounds\french\audio/french_591.wav,"[[  0.           2.66615607]
 [  0.1        -24.26502045]
 [  0.2        -31.81388833]
 [  0.25666667  34.70768216]]","[[0.         1.05020949]
 [0.1        0.55521736]
 [0.2        0.20807215]
 [0.25666667 1.08119284]]",1,0.624
8731382169,f,20,english,5,4,english,2024-02-01 10:33:02.802936,False,2,433,sounds\french\audio/french_789.wav,"[[  0.          16.13130467]
 [  0.1        -53.51301261]
 [  0.2         91.10833978]
 [  0.25666667   9.61415248]]","[[0.         1.41580253]
 [0.1        1.63533644]
 [0.2        0.42839577]
 [0.25666667 0.64971622]]",1,0.512
8731382169,f,20,english,5,4,english,2024-02-01 10:33:02.802936,False,2,434,sounds\french\audio/french_37.wav,"[[  0.          74.40318054]
 [  0.1          1.61071593]
 [  0.2        -60.86815184]
 [  0.25666667  35.44737922]]","[[0.         1.78030803]
 [0.1        1.06555703]
 [0.2        0.67417333]
 [0.25666667 1.14925698]]",0,0.511
8731382169,f,20,english,5,4,english,2024-02-01 10:33:02.802936,False,2,435,sounds\french\audio/french_606.wav,"[[  0.         -20.93687271]
 [  0.1         59.55385743]
 [  0.2         61.58713619]
 [  0.25666667 -92.8987734 ]]","[[0.         1.9895698 ]
 [0.1        1.17728958]
 [0.2        1.48827242]
 [0.25666667 0.79910733]]",0,0.34
8731382169,f,20,english,5,4,english,2024-02-01 10:33:02.802936,False,2,436,sounds\french\audio/french_689.wav,"[[  0.         -76.83712438]
 [  0.1         64.54047654]
 [  0.2         42.91011154]
 [  0.25666667 -94.73892594]]","[[0.         1.91162084]
 [0.1        0.68488006]
 [0.2        0.17067082]
 [0.25666667 1.05586556]]",1,0.728
8731382169,f,20,english,5,4,english,2024-02-01 10:33:02.802936,False,2,437,sounds\french\audio/french_664.wav,"[[  0.          -2.08032019]
 [  0.1        -67.02716902]
 [  0.2         95.17650789]
 [  0.25666667 -41.34718039]]","[[0.         1.43741932]
 [0.1        1.07099048]
 [0.2        1.92774669]
 [0.25666667 0.70027683]]",0,0.372
8731382169,f,20,english,5,4,english,2024-02-01 10:33:02.802936,False,2,438,sounds\french\audio/french_269.wav,"[[  0.          34.85044548]
 [  0.1         47.51511781]
 [  0.2         34.15302515]
 [  0.25666667 -55.0259295 ]]","[[0.00000000e+00 6.17924031e-04]
 [1.00000000e-01 1.05540646e+00]
 [2.00000000e-01 9.84234213e-01]
 [2.56666667e-01 8.45106618e-01]]",1,0.758
8731382169,f,20,english,5,4,english,2024-02-01 10:33:02.802936,False,2,439,sounds\french\audio/french_449.wav,"[[  0.          49.95404734]
 [  0.1        -42.73933853]
 [  0.2         16.44287486]
 [  0.25666667 -12.34539139]]","[[0.         0.88379096]
 [0.1        1.13878319]
 [0.2        0.43325684]
 [0.25666667 0.01727343]]",0,0.517
8731382169,f,20,english,5,4,english,2024-02-01 10:33:02.802936,False,2,440,sounds\french\audio/french_212.wav,"[[  0.         -65.85125812]
 [  0.1          4.72891676]
 [  0.2         52.80654505]
 [  0.25666667  75.91927134]]","[[0.         0.99084671]
 [0.1        1.71951251]
 [0.2        1.56745001]
 [0.25666667 1.70119676]]",1,0.364
8731382169,f,20,english,5,4,english,2024-02-01 10:33:02.802936,False,2,441,sounds\french\audio/french_886.wav,"[[  0.         -29.93146366]
 [  0.1        -19.22170842]
 [  0.2        -71.55320982]
 [  0.25666667 -23.6698032 ]]","[[0.         0.4543131 ]
 [0.1        1.74784503]
 [0.2        1.04864587]
 [0.25666667 1.15835862]]",0,0.526
8731382169,f,20,english,5,4,english,2024-02-01 10:33:02.802936,False,2,442,sounds\french\audio/french_396.wav,"[[  0.         -42.7744445 ]
 [  0.1          3.59774391]
 [  0.2        -86.41595133]
 [  0.25666667  76.20152203]]","[[0.         0.31798537]
 [0.1        0.67756986]
 [0.2        1.44355676]
 [0.25666667 1.44326023]]",1,0.502
8731382169,f,20,english,5,4,english,2024-02-01 10:33:02.802936,False,2,443,sounds\french\audio/french_333.wav,"[[ 0.         10.14997655]
 [ 0.1        13.88697857]
 [ 0.2         3.86253466]
 [ 0.25666667 47.83568498]]","[[0.         0.96169616]
 [0.1        0.82290304]
 [0.2        0.18816998]
 [0.25666667 1.34102864]]",1,0.667
8731382169,f,20,english,5,4,english,2024-02-01 10:33:02.802936,False,2,444,sounds\french\audio/french_600.wav,"[[  0.          29.66563504]
 [  0.1         -8.64659381]
 [  0.2        -34.77347642]
 [  0.25666667 -62.75040759]]","[[0.         0.34173365]
 [0.1        0.28144694]
 [0.2        1.5541161 ]
 [0.25666667 1.60255421]]",1,0.646
8731382169,f,20,english,5,4,english,2024-02-01 10:33:02.802936,False,2,445,sounds\french\audio/french_39.wav,"[[  0.         -37.58690814]
 [  0.1         64.36969435]
 [  0.2        -16.17747505]
 [  0.25666667 -31.52468705]]","[[0.         0.69509593]
 [0.1        0.9899387 ]
 [0.2        1.54991446]
 [0.25666667 1.42558302]]",0,0.47
8731382169,f,20,english,5,4,english,2024-02-01 10:33:02.802936,False,2,446,sounds\french\audio/french_249.wav,"[[  0.         -14.62389142]
 [  0.1         82.35169727]
 [  0.2        -37.79288698]
 [  0.25666667 -94.5306765 ]]","[[0.         0.54824935]
 [0.1        0.81625332]
 [0.2        0.28914805]
 [0.25666667 0.43241605]]",0,0.791
8731382169,f,20,english,5,4,english,2024-02-01 10:33:02.802936,False,2,447,sounds\french\audio/french_789.wav,"[[  0.          16.13130467]
 [  0.1        -53.51301261]
 [  0.2         91.10833978]
 [  0.25666667   9.61415248]]","[[0.         1.41580253]
 [0.1        1.63533644]
 [0.2        0.42839577]
 [0.25666667 0.64971622]]",0,0.511
8731382169,f,20,english,5,4,english,2024-02-01 10:33:02.802936,False,2,448,sounds\french\audio/french_579.wav,"[[  0.          43.6749768 ]
 [  0.1         44.80331973]
 [  0.2         80.34685553]
 [  0.25666667 -77.70594339]]","[[0.         0.88309836]
 [0.1        0.15383342]
 [0.2        0.11279804]
 [0.25666667 1.88524282]]",0,1.142
8731382169,f,20,english,5,4,english,2024-02-01 10:33:02.802936,False,2,449,sounds\french\audio/french_810.wav,"[[  0.          76.35600219]
 [  0.1         33.05643104]
 [  0.2         14.69103946]
 [  0.25666667 -16.26362119]]","[[0.         0.51042634]
 [0.1        0.40354819]
 [0.2        0.8135704 ]
 [0.25666667 0.38644961]]",1,0.722
8731382169,f,20,english,5,4,english,2024-02-01 10:33:02.802936,False,2,450,sounds\french\audio/french_958.wav,"[[ 0.         70.65905064]
 [ 0.1        35.26497317]
 [ 0.2        64.29920798]
 [ 0.25666667 78.52381542]]","[[0.         0.553928  ]
 [0.1        0.45560148]
 [0.2        1.65592314]
 [0.25666667 1.53733   ]]",1,0.671
8731382169,f,20,english,5,4,english,2024-02-01 10:33:02.802936,False,2,451,sounds\french\audio/french_653.wav,"[[  0.          77.9010548 ]
 [  0.1        -51.77114594]
 [  0.2         87.84855202]
 [  0.25666667  84.03497815]]","[[0.         1.15209157]
 [0.1        0.29445829]
 [0.2        0.58679482]
 [0.25666667 1.23322571]]",0,0.704
8731382169,f,20,english,5,4,english,2024-02-01 10:33:02.802936,False,2,452,sounds\french\audio/french_896.wav,"[[  0.         -50.03367973]
 [  0.1         73.95849411]
 [  0.2         16.78858773]
 [  0.25666667 -49.02431976]]","[[0.         0.4350745 ]
 [0.1        1.7879982 ]
 [0.2        0.61207276]
 [0.25666667 0.35432813]]",0,0.765
8731382169,f,20,english,5,4,english,2024-02-01 10:33:02.802936,False,2,453,sounds\french\audio/french_734.wav,"[[  0.          24.54171911]
 [  0.1         62.00217695]
 [  0.2        -55.547606  ]
 [  0.25666667  25.07561383]]","[[0.         0.95806039]
 [0.1        1.43009574]
 [0.2        0.47319646]
 [0.25666667 0.83118698]]",0,0.573
8731382169,f,20,english,5,4,english,2024-02-01 10:33:02.802936,False,2,454,sounds\french\audio/french_523.wav,"[[  0.         -20.54401218]
 [  0.1        -64.61887171]
 [  0.2        -56.67652055]
 [  0.25666667 -29.90055738]]","[[0.         1.01178449]
 [0.1        1.79283511]
 [0.2        0.92711934]
 [0.25666667 1.0186138 ]]",0,0.84
8731382169,f,20,english,5,4,english,2024-02-01 10:33:02.802936,False,2,455,sounds\french\audio/french_27.wav,"[[  0.         -24.90567196]
 [  0.1        -76.22865867]
 [  0.2        -70.77946922]
 [  0.25666667 -40.13018173]]","[[0.         0.77746957]
 [0.1        0.36572894]
 [0.2        1.07248112]
 [0.25666667 1.35477464]]",0,0.638
8731382169,f,20,english,5,4,english,2024-02-01 10:33:02.802936,False,2,456,sounds\french\audio/french_201.wav,"[[  0.           8.42387769]
 [  0.1          8.12168757]
 [  0.2        -23.47755607]
 [  0.25666667 -30.65193461]]","[[0.         1.26451206]
 [0.1        1.63493769]
 [0.2        1.48075017]
 [0.25666667 1.0984385 ]]",0,0.589
8731382169,f,20,english,5,4,english,2024-02-01 10:33:02.802936,False,2,457,sounds\french\audio/french_15.wav,"[[  0.          75.10258226]
 [  0.1         91.64852869]
 [  0.2        -54.2483896 ]
 [  0.25666667 -67.82917504]]","[[0.         1.00702741]
 [0.1        0.72289983]
 [0.2        1.50363401]
 [0.25666667 0.97553874]]",1,1.01
8731382169,f,20,english,5,4,english,2024-02-01 10:33:02.802936,False,2,458,sounds\french\audio/french_736.wav,"[[  0.         -58.2057669 ]
 [  0.1         67.4754916 ]
 [  0.2         92.18157431]
 [  0.25666667  88.23593553]]","[[0.         1.39182764]
 [0.1        0.85405242]
 [0.2        1.06665121]
 [0.25666667 0.29553719]]",0,0.554
8731382169,f,20,english,5,4,english,2024-02-01 10:33:02.802936,False,2,459,sounds\french\audio/french_56.wav,"[[  0.         -45.81384366]
 [  0.1        -31.22745768]
 [  0.2          7.07301694]
 [  0.25666667  85.51747291]]","[[0.         0.89556329]
 [0.1        1.16444889]
 [0.2        0.03247946]
 [0.25666667 0.10908846]]",1,0.731
8731382169,f,20,english,5,4,english,2024-02-01 10:33:02.802936,False,2,460,sounds\french\audio/french_798.wav,"[[  0.          80.80013175]
 [  0.1          8.18850232]
 [  0.2        -10.54144101]
 [  0.25666667  26.86908184]]","[[0.         1.56222047]
 [0.1        1.67765441]
 [0.2        1.93747014]
 [0.25666667 1.76378238]]",0,0.404
8731382169,f,20,english,5,4,english,2024-02-01 10:33:02.802936,False,2,461,sounds\french\audio/french_969.wav,"[[  0.         -10.47620341]
 [  0.1         -9.05898311]
 [  0.2        -40.12378042]
 [  0.25666667   9.74664574]]","[[0.         0.56181474]
 [0.1        1.62172025]
 [0.2        1.31687422]
 [0.25666667 0.40962586]]",0,0.617
8731382169,f,20,english,5,4,english,2024-02-01 10:33:02.802936,False,2,462,sounds\french\audio/french_35.wav,"[[  0.         -91.9197252 ]
 [  0.1        -51.10479589]
 [  0.2        -15.74458639]
 [  0.25666667 -11.36352661]]","[[0.         1.92941129]
 [0.1        1.66263878]
 [0.2        0.60493147]
 [0.25666667 1.17557979]]",1,0.39
8731382169,f,20,english,5,4,english,2024-02-01 10:33:02.802936,False,2,463,sounds\french\audio/french_693.wav,"[[  0.         -47.08934597]
 [  0.1         72.6108529 ]
 [  0.2        -29.7137536 ]
 [  0.25666667  50.01737174]]","[[0.         0.01342517]
 [0.1        0.89682207]
 [0.2        1.48476447]
 [0.25666667 0.05087926]]",1,1.133
8731382169,f,20,english,5,4,english,2024-02-01 10:33:02.802936,False,2,464,sounds\french\audio/french_289.wav,"[[  0.         -36.76000605]
 [  0.1         10.32506406]
 [  0.2        -63.16699613]
 [  0.25666667  44.4452875 ]]","[[0.         0.0295717 ]
 [0.1        0.30354321]
 [0.2        0.64873245]
 [0.25666667 1.33679234]]",1,0.988
8731382169,f,20,english,5,4,english,2024-02-01 10:33:02.802936,False,2,465,sounds\french\audio/french_708.wav,"[[  0.          77.88438146]
 [  0.1        -89.66132416]
 [  0.2         66.08375885]
 [  0.25666667 -39.93161414]]","[[0.         0.30850898]
 [0.1        1.49064351]
 [0.2        1.28629193]
 [0.25666667 1.01533724]]",1,0.653
8731382169,f,20,english,5,4,english,2024-02-01 10:33:02.802936,False,2,466,sounds\french\audio/french_93.wav,"[[  0.          23.57211404]
 [  0.1        -16.15934767]
 [  0.2         25.54711871]
 [  0.25666667  65.09284613]]","[[0.         0.62732128]
 [0.1        0.10811818]
 [0.2        0.30787392]
 [0.25666667 1.57978374]]",1,0.971
8731382169,f,20,english,5,4,english,2024-02-01 10:33:02.802936,False,2,467,sounds\french\audio/french_76.wav,"[[ 0.         34.97070553]
 [ 0.1        46.59279974]
 [ 0.2        69.89439798]
 [ 0.25666667  4.40224836]]","[[0.         0.55167233]
 [0.1        0.47394225]
 [0.2        0.76682402]
 [0.25666667 1.69716011]]",1,0.681
8731382169,f,20,english,5,4,english,2024-02-01 10:33:02.802936,False,2,468,sounds\french\audio/french_270.wav,"[[  0.         -78.86827529]
 [  0.1        -82.37829284]
 [  0.2        -56.83639547]
 [  0.25666667  11.60888519]]","[[0.         1.67831185]
 [0.1        0.76287252]
 [0.2        1.7160191 ]
 [0.25666667 0.82403755]]",0,0.54
8731382169,f,20,english,5,4,english,2024-02-01 10:33:02.802936,False,2,469,sounds\french\audio/french_395.wav,"[[  0.          53.54317287]
 [  0.1        -58.7899365 ]
 [  0.2        -16.29959602]
 [  0.25666667 -29.17949613]]","[[0.         1.78210887]
 [0.1        0.28539332]
 [0.2        1.44255764]
 [0.25666667 0.93749012]]",1,0.815
8731382169,f,20,english,5,4,english,2024-02-01 10:33:02.802936,False,2,470,sounds\french\audio/french_342.wav,"[[  0.         -84.22246184]
 [  0.1        -88.55202377]
 [  0.2         12.74462997]
 [  0.25666667 -73.67155113]]","[[0.         0.80111929]
 [0.1        0.92289162]
 [0.2        0.96187701]
 [0.25666667 0.57764427]]",1,0.661
8731382169,f,20,english,5,4,english,2024-02-01 10:33:02.802936,False,2,471,sounds\french\audio/french_164.wav,"[[  0.         -18.17175111]
 [  0.1         76.91542059]
 [  0.2        -44.02896165]
 [  0.25666667 -52.20678857]]","[[0.         1.54231832]
 [0.1        0.85273823]
 [0.2        1.08595521]
 [0.25666667 1.30612675]]",0,0.559
8731382169,f,20,english,5,4,english,2024-02-01 10:33:02.802936,False,2,472,sounds\french\audio/french_460.wav,"[[  0.         -46.82547924]
 [  0.1        -89.06595485]
 [  0.2        -15.88362663]
 [  0.25666667 -55.00298372]]","[[0.         0.18532774]
 [0.1        0.73005791]
 [0.2        0.27848928]
 [0.25666667 1.6971829 ]]",1,0.513
8731382169,f,20,english,5,4,english,2024-02-01 10:33:02.802936,False,2,473,sounds\french\audio/french_648.wav,"[[  0.          45.21338473]
 [  0.1         35.84509453]
 [  0.2        -67.01500747]
 [  0.25666667 -57.94291625]]","[[0.         1.3610165 ]
 [0.1        0.40626065]
 [0.2        0.74636895]
 [0.25666667 1.66903202]]",0,0.446
8731382169,f,20,english,5,4,english,2024-02-01 10:33:02.802936,False,2,474,sounds\french\audio/french_700.wav,"[[  0.          27.78595998]
 [  0.1        -29.96160528]
 [  0.2         60.6733782 ]
 [  0.25666667  39.12324738]]","[[0.         1.84943535]
 [0.1        0.52483958]
 [0.2        0.55672926]
 [0.25666667 0.96842636]]",0,0.578
8731382169,f,20,english,5,4,english,2024-02-01 10:33:02.802936,False,2,475,sounds\french\audio/french_747.wav,"[[  0.          81.67289695]
 [  0.1        -95.51692527]
 [  0.2          8.63144179]
 [  0.25666667 -85.56554801]]","[[0.         0.03581997]
 [0.1        0.40356434]
 [0.2        0.58773385]
 [0.25666667 1.10376778]]",1,4.123
8731382169,f,20,english,5,4,english,2024-02-01 10:33:02.802936,False,2,476,sounds\french\audio/french_617.wav,"[[  0.         -34.18466024]
 [  0.1         35.41565559]
 [  0.2         59.04414741]
 [  0.25666667  80.0519445 ]]","[[0.         0.10021852]
 [0.1        0.72859392]
 [0.2        0.77782194]
 [0.25666667 1.13599019]]",1,0.585
8731382169,f,20,english,5,4,english,2024-02-01 10:33:02.802936,False,2,477,sounds\french\audio/french_555.wav,"[[  0.         -94.33978787]
 [  0.1         93.76530939]
 [  0.2         60.24178239]
 [  0.25666667  52.06264798]]","[[0.         0.59318307]
 [0.1        0.913599  ]
 [0.2        1.32127388]
 [0.25666667 1.40091244]]",1,0.836
8731382169,f,20,english,5,4,english,2024-02-01 10:33:02.802936,False,2,478,sounds\french\audio/french_790.wav,"[[  0.         -78.0899986 ]
 [  0.1        -13.38999599]
 [  0.2        -59.88967217]
 [  0.25666667  34.06701256]]","[[0.         0.03777082]
 [0.1        1.54425687]
 [0.2        0.07634696]
 [0.25666667 1.62279479]]",1,0.617
8731382169,f,20,english,5,4,english,2024-02-01 10:33:02.802936,False,2,479,sounds\french\audio/french_638.wav,"[[  0.         -18.90498038]
 [  0.1        -28.86355513]
 [  0.2        -97.62198235]
 [  0.25666667  26.30993693]]","[[0.         0.47409532]
 [0.1        1.76910273]
 [0.2        0.72222374]
 [0.25666667 0.09803926]]",0,0.99
8731382169,f,20,english,5,4,english,2024-02-01 10:33:02.802936,False,2,480,sounds\french\audio/french_129.wav,"[[  0.          13.25855459]
 [  0.1        -92.03942204]
 [  0.2         62.50888813]
 [  0.25666667  39.35321197]]","[[0.         0.8608045 ]
 [0.1        1.75332116]
 [0.2        0.44840231]
 [0.25666667 1.56291845]]",1,0.617
8731382169,f,20,english,5,4,english,2024-02-01 10:33:02.802936,False,2,481,sounds\french\audio/french_495.wav,"[[  0.          93.48002859]
 [  0.1         99.142871  ]
 [  0.2        -33.98102163]
 [  0.25666667  38.68354094]]","[[0.         1.03648483]
 [0.1        1.23043948]
 [0.2        1.1332488 ]
 [0.25666667 0.62015381]]",0,0.913
8731382169,f,20,english,5,4,english,2024-02-01 10:33:02.802936,False,2,482,sounds\french\audio/french_198.wav,"[[  0.          72.51067349]
 [  0.1         26.15359829]
 [  0.2        -38.06500424]
 [  0.25666667 -63.59150526]]","[[0.         0.65547069]
 [0.1        0.30610144]
 [0.2        0.27462822]
 [0.25666667 1.37790723]]",1,0.579
8731382169,f,20,english,5,4,english,2024-02-01 10:33:02.802936,False,2,483,sounds\french\audio/french_813.wav,"[[  0.         -37.07388554]
 [  0.1         74.87893645]
 [  0.2        -91.66198227]
 [  0.25666667  81.38219901]]","[[0.         0.1380457 ]
 [0.1        0.44333359]
 [0.2        0.5462976 ]
 [0.25666667 1.94163826]]",1,0.675
8731382169,f,20,english,5,4,english,2024-02-01 10:33:02.802936,False,2,484,sounds\french\audio/french_476.wav,"[[  0.         -83.79523633]
 [  0.1         62.15522278]
 [  0.2        -62.9629606 ]
 [  0.25666667  29.80880048]]","[[0.         0.72975737]
 [0.1        1.65535888]
 [0.2        1.94146275]
 [0.25666667 1.32492406]]",0,0.617
8731382169,f,20,english,5,4,english,2024-02-01 10:33:02.802936,False,2,485,sounds\french\audio/french_230.wav,"[[  0.         -41.35992563]
 [  0.1         43.67449439]
 [  0.2         25.98311508]
 [  0.25666667 -21.63443629]]","[[0.         1.74508263]
 [0.1        0.13993269]
 [0.2        0.94473259]
 [0.25666667 1.52757814]]",0,0.743
8731382169,f,20,english,5,4,english,2024-02-01 10:33:02.802936,False,2,486,sounds\french\audio/french_142.wav,"[[  0.         -47.01050856]
 [  0.1         44.85636852]
 [  0.2         82.74517116]
 [  0.25666667 -74.59675421]]","[[0.         0.88751265]
 [0.1        1.13664387]
 [0.2        0.91175928]
 [0.25666667 0.66352734]]",1,0.869
8731382169,f,20,english,5,4,english,2024-02-01 10:33:02.802936,False,2,487,sounds\french\audio/french_924.wav,"[[  0.          19.51956159]
 [  0.1        -22.93629197]
 [  0.2         72.54596199]
 [  0.25666667  13.27885696]]","[[0.         0.29322561]
 [0.1        0.34885274]
 [0.2        0.3497483 ]
 [0.25666667 0.14375838]]",1,0.68
8731382169,f,20,english,5,4,english,2024-02-01 10:33:02.802936,False,2,488,sounds\french\audio/french_768.wav,"[[ 0.         43.80393873]
 [ 0.1        23.97019037]
 [ 0.2        96.73627246]
 [ 0.25666667 86.69297093]]","[[0.         0.16736189]
 [0.1        0.82539527]
 [0.2        1.26581733]
 [0.25666667 1.40091334]]",0,0.798
8731382169,f,20,english,5,4,english,2024-02-01 10:33:02.802936,False,2,489,sounds\french\audio/french_342.wav,"[[  0.         -84.22246184]
 [  0.1        -88.55202377]
 [  0.2         12.74462997]
 [  0.25666667 -73.67155113]]","[[0.         0.80111929]
 [0.1        0.92289162]
 [0.2        0.96187701]
 [0.25666667 0.57764427]]",0,0.528
8731382169,f,20,english,5,4,english,2024-02-01 10:33:02.802936,False,2,490,sounds\french\audio/french_331.wav,"[[  0.         -65.4197333 ]
 [  0.1        -42.63112693]
 [  0.2        -74.29271092]
 [  0.25666667 -22.37665177]]","[[0.         1.29365297]
 [0.1        1.19213918]
 [0.2        0.93002313]
 [0.25666667 1.59897964]]",0,0.614
8731382169,f,20,english,5,4,english,2024-02-01 10:33:02.802936,False,2,491,sounds\french\audio/french_403.wav,"[[  0.         -74.59140771]
 [  0.1         29.14043257]
 [  0.2         37.28402081]
 [  0.25666667 -66.4238982 ]]","[[0.         1.12132674]
 [0.1        1.20077734]
 [0.2        0.75804668]
 [0.25666667 0.86443687]]",0,0.575
8731382169,f,20,english,5,4,english,2024-02-01 10:33:02.802936,False,2,492,sounds\french\audio/french_167.wav,"[[  0.          35.64973643]
 [  0.1         44.83065125]
 [  0.2         -2.88275541]
 [  0.25666667 -92.53521205]]","[[0.         1.28189169]
 [0.1        1.79221575]
 [0.2        1.75452965]
 [0.25666667 1.25057705]]",0,0.539
8731382169,f,20,english,5,4,english,2024-02-01 10:33:02.802936,False,2,493,sounds\french\audio/french_514.wav,"[[  0.         -99.76210077]
 [  0.1        -57.79872095]
 [  0.2        -51.12304885]
 [  0.25666667  51.53874679]]","[[0.         0.60226465]
 [0.1        0.08785461]
 [0.2        1.82353854]
 [0.25666667 1.77009288]]",1,0.632
8731382169,f,20,english,5,4,english,2024-02-01 10:33:02.802936,False,2,494,sounds\french\audio/french_439.wav,"[[  0.          66.25011988]
 [  0.1         46.32034445]
 [  0.2         38.26264731]
 [  0.25666667 -42.53278778]]","[[0.         1.00096297]
 [0.1        0.12322103]
 [0.2        1.5814324 ]
 [0.25666667 0.06125751]]",1,0.744
8731382169,f,20,english,5,4,english,2024-02-01 10:33:02.802936,False,2,495,sounds\french\audio/french_802.wav,"[[  0.         -73.24347689]
 [  0.1         14.85977478]
 [  0.2        -45.72901481]
 [  0.25666667 -78.69015161]]","[[0.         0.39190156]
 [0.1        1.18064228]
 [0.2        1.4654249 ]
 [0.25666667 0.6030906 ]]",0,0.729
8731382169,f,20,english,5,4,english,2024-02-01 10:33:02.802936,False,2,496,sounds\french\audio/french_574.wav,"[[  0.         -78.43657591]
 [  0.1         25.16959944]
 [  0.2         42.97785019]
 [  0.25666667  77.36764491]]","[[0.         1.27247015]
 [0.1        0.78898338]
 [0.2        1.49121094]
 [0.25666667 0.68004104]]",0,0.765
8731382169,f,20,english,5,4,english,2024-02-01 10:33:02.802936,False,2,497,sounds\french\audio/french_314.wav,"[[  0.         -41.28420355]
 [  0.1         38.91630458]
 [  0.2         24.93775916]
 [  0.25666667  33.33111791]]","[[0.         0.77087466]
 [0.1        0.23409115]
 [0.2        0.53304912]
 [0.25666667 0.84036245]]",1,0.972
8731382169,f,20,english,5,4,english,2024-02-01 10:33:02.802936,False,2,498,sounds\french\audio/french_77.wav,"[[  0.         -38.97456477]
 [  0.1        -27.77573133]
 [  0.2         62.31685549]
 [  0.25666667  13.7751853 ]]","[[0.         1.51906971]
 [0.1        1.43123518]
 [0.2        1.04030098]
 [0.25666667 1.45792424]]",0,0.519
8731382169,f,20,english,5,4,english,2024-02-01 10:33:02.802936,False,2,499,sounds\french\audio/french_714.wav,"[[  0.          77.35355583]
 [  0.1        -16.5812175 ]
 [  0.2        -79.42314022]
 [  0.25666667  64.71981705]]","[[0.         0.35690042]
 [0.1        0.7400083 ]
 [0.2        1.17849399]
 [0.25666667 1.38365213]]",1,0.683
8731382169,f,20,english,5,4,english,2024-02-01 10:33:02.802936,False,2,500,sounds\french\audio/french_644.wav,"[[  0.           8.48376577]
 [  0.1          5.7720639 ]
 [  0.2        -22.58890758]
 [  0.25666667 -77.55637272]]","[[0.         1.03282428]
 [0.1        1.52915319]
 [0.2        0.21561806]
 [0.25666667 0.23424831]]",0,1.083
8731382169,f,20,english,5,4,english,2024-02-01 10:33:02.802936,False,2,501,sounds\french\audio/french_718.wav,"[[ 0.         60.10154263]
 [ 0.1        11.66591821]
 [ 0.2        18.23831634]
 [ 0.25666667 -0.86268038]]","[[0.         0.48894908]
 [0.1        1.65193902]
 [0.2        1.63024081]
 [0.25666667 0.33166429]]",1,0.567
8731382169,f,20,english,5,4,english,2024-02-01 10:33:02.802936,False,2,502,sounds\french\audio/french_508.wav,"[[  0.          40.98112686]
 [  0.1        -56.96831063]
 [  0.2        -35.39284842]
 [  0.25666667 -19.97238517]]","[[0.         1.35724839]
 [0.1        1.54051685]
 [0.2        1.20443674]
 [0.25666667 1.82942033]]",1,0.553
