subj,sex,age,language,english,french,native_lang,date,practice,block,trial,stim,pitch,stretch,response,rt
8734529389,f,24,english,5,4,english,2024-02-01 10:33:19.008934,False,2,253,sounds\french\audio/french_438.wav,"[[  0.          38.28600595]
 [  0.1         -2.73615403]
 [  0.2        -43.32822043]
 [  0.25666667 -21.43836029]]","[[0.         0.24947118]
 [0.1        0.88566368]
 [0.2        0.23078024]
 [0.25666667 1.64360752]]",1,2.339
8734529389,f,24,english,5,4,english,2024-02-01 10:33:19.008934,False,2,254,sounds\french\audio/french_673.wav,"[[ 0.         97.1433432 ]
 [ 0.1         1.59516127]
 [ 0.2        27.02161491]
 [ 0.25666667 62.92522021]]","[[0.         1.2603    ]
 [0.1        0.42137615]
 [0.2        0.87652171]
 [0.25666667 1.1230089 ]]",1,0.702
8734529389,f,24,english,5,4,english,2024-02-01 10:33:19.008934,False,2,255,sounds\french\audio/french_812.wav,"[[  0.          78.53201718]
 [  0.1         87.32508034]
 [  0.2         77.15455549]
 [  0.25666667 -51.33102937]]","[[0.         1.73310634]
 [0.1        1.73147281]
 [0.2        1.58178344]
 [0.25666667 0.27993183]]",0,0.324
8734529389,f,24,english,5,4,english,2024-02-01 10:33:19.008934,False,2,256,sounds\french\audio/french_263.wav,"[[  0.          25.02930943]
 [  0.1         77.59070044]
 [  0.2         61.13366196]
 [  0.25666667 -46.58539851]]","[[0.         0.29249845]
 [0.1        1.82268286]
 [0.2        0.69638669]
 [0.25666667 0.57279137]]",1,1.621
8734529389,f,24,english,5,4,english,2024-02-01 10:33:19.008934,False,2,257,sounds\french\audio/french_498.wav,"[[  0.           4.68377609]
 [  0.1        -15.28708952]
 [  0.2         12.01036293]
 [  0.25666667   2.49690218]]","[[0.         1.22559932]
 [0.1        1.70630703]
 [0.2        0.54123502]
 [0.25666667 0.39602685]]",0,0.354
8734529389,f,24,english,5,4,english,2024-02-01 10:33:19.008934,False,2,258,sounds\french\audio/french_569.wav,"[[  0.          14.0156596 ]
 [  0.1         85.00283799]
 [  0.2        -53.61423207]
 [  0.25666667 -38.88478833]]","[[0.         1.29627558]
 [0.1        1.08637511]
 [0.2        1.60007367]
 [0.25666667 0.57872623]]",1,0.311
8734529389,f,24,english,5,4,english,2024-02-01 10:33:19.008934,False,2,259,sounds\french\audio/french_129.wav,"[[  0.          13.25855459]
 [  0.1        -92.03942204]
 [  0.2         62.50888813]
 [  0.25666667  39.35321197]]","[[0.         0.8608045 ]
 [0.1        1.75332116]
 [0.2        0.44840231]
 [0.25666667 1.56291845]]",0,0.454
8734529389,f,24,english,5,4,english,2024-02-01 10:33:19.008934,False,2,260,sounds\french\audio/french_580.wav,"[[  0.          27.05941303]
 [  0.1        -10.3346088 ]
 [  0.2        -24.27512535]
 [  0.25666667  34.7313677 ]]","[[0.         0.35053576]
 [0.1        1.97169455]
 [0.2        0.90308202]
 [0.25666667 0.94790865]]",1,0.332
8734529389,f,24,english,5,4,english,2024-02-01 10:33:19.008934,False,2,261,sounds\french\audio/french_796.wav,"[[  0.         -38.09805788]
 [  0.1        -51.81358868]
 [  0.2         88.47322764]
 [  0.25666667 -34.90405205]]","[[0.         1.93486201]
 [0.1        1.49994235]
 [0.2        1.42581223]
 [0.25666667 0.47367866]]",1,0.391
8734529389,f,24,english,5,4,english,2024-02-01 10:33:19.008934,False,2,262,sounds\french\audio/french_209.wav,"[[  0.          39.72931143]
 [  0.1        -11.10080972]
 [  0.2        -43.22344663]
 [  0.25666667  -3.52460634]]","[[0.         1.72926101]
 [0.1        1.89016293]
 [0.2        1.93253512]
 [0.25666667 0.82956566]]",0,0.326
8734529389,f,24,english,5,4,english,2024-02-01 10:33:19.008934,False,2,263,sounds\french\audio/french_470.wav,"[[  0.          35.80891732]
 [  0.1        -69.45523052]
 [  0.2         14.95046841]
 [  0.25666667  17.64450191]]","[[0.         1.18984778]
 [0.1        0.95727089]
 [0.2        1.94704509]
 [0.25666667 1.37814226]]",0,0.563
8734529389,f,24,english,5,4,english,2024-02-01 10:33:19.008934,False,2,264,sounds\french\audio/french_752.wav,"[[  0.         -49.05511086]
 [  0.1         68.97169656]
 [  0.2         35.56747744]
 [  0.25666667   3.91641015]]","[[0.         0.41123153]
 [0.1        0.36604045]
 [0.2        0.22184937]
 [0.25666667 1.3158831 ]]",1,0.431
8734529389,f,24,english,5,4,english,2024-02-01 10:33:19.008934,False,2,265,sounds\french\audio/french_159.wav,"[[  0.         -35.81772681]
 [  0.1        -81.24007344]
 [  0.2        -76.66667718]
 [  0.25666667 -12.73742482]]","[[0.         1.09204322]
 [0.1        1.04236488]
 [0.2        0.27370424]
 [0.25666667 0.41375192]]",1,0.884
8734529389,f,24,english,5,4,english,2024-02-01 10:33:19.008934,False,2,266,sounds\french\audio/french_388.wav,"[[  0.         -56.99851318]
 [  0.1        -28.42117093]
 [  0.2        -17.37440647]
 [  0.25666667  19.5608334 ]]","[[0.         0.76802497]
 [0.1        1.07190306]
 [0.2        0.91030877]
 [0.25666667 0.1576099 ]]",0,0.401
8734529389,f,24,english,5,4,english,2024-02-01 10:33:19.008934,False,2,267,sounds\french\audio/french_437.wav,"[[  0.          59.70067771]
 [  0.1         78.61233767]
 [  0.2         76.18154157]
 [  0.25666667 -54.28538078]]","[[0.         0.22659206]
 [0.1        0.85429053]
 [0.2        1.36297282]
 [0.25666667 1.46039745]]",1,0.271
8734529389,f,24,english,5,4,english,2024-02-01 10:33:19.008934,False,2,268,sounds\french\audio/french_282.wav,"[[  0.         -97.43488085]
 [  0.1         96.20897113]
 [  0.2         27.16020646]
 [  0.25666667 -13.14092169]]","[[0.         0.55303377]
 [0.1        1.41145651]
 [0.2        1.83661618]
 [0.25666667 0.36912502]]",0,0.297
8734529389,f,24,english,5,4,english,2024-02-01 10:33:19.008934,False,2,269,sounds\french\audio/french_982.wav,"[[  0.         -37.50079515]
 [  0.1        -23.37923681]
 [  0.2        -55.8234839 ]
 [  0.25666667 -58.92111767]]","[[0.         0.32253899]
 [0.1        1.88868261]
 [0.2        0.59835015]
 [0.25666667 1.21615752]]",1,0.403
8734529389,f,24,english,5,4,english,2024-02-01 10:33:19.008934,False,2,270,sounds\french\audio/french_936.wav,"[[  0.         -20.69739044]
 [  0.1         11.25896305]
 [  0.2        -73.43688333]
 [  0.25666667  14.6038409 ]]","[[0.         1.81100612]
 [0.1        0.34150345]
 [0.2        0.78598688]
 [0.25666667 0.34536881]]",0,2.472
8734529389,f,24,english,5,4,english,2024-02-01 10:33:19.008934,False,2,271,sounds\french\audio/french_161.wav,"[[  0.          61.58397479]
 [  0.1         44.64347815]
 [  0.2        -11.65199572]
 [  0.25666667  76.59463145]]","[[0.         1.02686065]
 [0.1        1.42523068]
 [0.2        0.36377374]
 [0.25666667 0.41836879]]",1,0.393
8734529389,f,24,english,5,4,english,2024-02-01 10:33:19.008934,False,2,272,sounds\french\audio/french_850.wav,"[[  0.         -88.87179188]
 [  0.1         15.70736636]
 [  0.2         67.7730952 ]
 [  0.25666667 -20.3872908 ]]","[[0.         0.91597825]
 [0.1        0.21425776]
 [0.2        1.52338939]
 [0.25666667 0.55241946]]",0,0.536
8734529389,f,24,english,5,4,english,2024-02-01 10:33:19.008934,False,2,273,sounds\french\audio/french_514.wav,"[[  0.         -99.76210077]
 [  0.1        -57.79872095]
 [  0.2        -51.12304885]
 [  0.25666667  51.53874679]]","[[0.         0.60226465]
 [0.1        0.08785461]
 [0.2        1.82353854]
 [0.25666667 1.77009288]]",1,0.304
8734529389,f,24,english,5,4,english,2024-02-01 10:33:19.008934,False,2,274,sounds\french\audio/french_215.wav,"[[  0.         -76.5324967 ]
 [  0.1        -12.7876278 ]
 [  0.2        -43.60684601]
 [  0.25666667   3.65547736]]","[[0.         0.00928887]
 [0.1        1.85204819]
 [0.2        1.20297214]
 [0.25666667 1.48182424]]",1,0.544
8734529389,f,24,english,5,4,english,2024-02-01 10:33:19.008934,False,2,275,sounds\french\audio/french_554.wav,"[[  0.         -31.9650703 ]
 [  0.1         78.95364823]
 [  0.2         -0.5294376 ]
 [  0.25666667 -36.78296127]]","[[0.         1.45983082]
 [0.1        0.40013818]
 [0.2        0.96374115]
 [0.25666667 1.20732856]]",0,0.683
8734529389,f,24,english,5,4,english,2024-02-01 10:33:19.008934,False,2,276,sounds\french\audio/french_834.wav,"[[  0.         -86.08965853]
 [  0.1         69.78931281]
 [  0.2        -42.1324214 ]
 [  0.25666667 -13.11810425]]","[[0.         1.35817583]
 [0.1        0.2902945 ]
 [0.2        0.84488429]
 [0.25666667 0.59655356]]",1,0.511
8734529389,f,24,english,5,4,english,2024-02-01 10:33:19.008934,False,2,277,sounds\french\audio/french_649.wav,"[[  0.         -26.84796804]
 [  0.1         90.50092835]
 [  0.2        -42.32642697]
 [  0.25666667  -6.05454316]]","[[0.         0.38564107]
 [0.1        0.07645681]
 [0.2        0.18898029]
 [0.25666667 0.88659006]]",1,0.604
8734529389,f,24,english,5,4,english,2024-02-01 10:33:19.008934,False,2,278,sounds\french\audio/french_481.wav,"[[  0.         -44.05926666]
 [  0.1         85.82418432]
 [  0.2         87.54559417]
 [  0.25666667  50.04191005]]","[[0.         1.24899263]
 [0.1        1.22078865]
 [0.2        0.10859618]
 [0.25666667 0.19634609]]",0,0.196
8734529389,f,24,english,5,4,english,2024-02-01 10:33:19.008934,False,2,279,sounds\french\audio/french_179.wav,"[[  0.         -38.66887761]
 [  0.1        -45.74367449]
 [  0.2         41.91599006]
 [  0.25666667  36.18860402]]","[[0.         0.36967864]
 [0.1        1.41588785]
 [0.2        1.38004937]
 [0.25666667 1.10239155]]",0,0.448
8734529389,f,24,english,5,4,english,2024-02-01 10:33:19.008934,False,2,280,sounds\french\audio/french_367.wav,"[[  0.         -74.25610099]
 [  0.1        -44.66143863]
 [  0.2        -39.26529042]
 [  0.25666667 -84.95145566]]","[[0.         1.28932343]
 [0.1        1.13980767]
 [0.2        1.487469  ]
 [0.25666667 0.37349724]]",0,0.864
8734529389,f,24,english,5,4,english,2024-02-01 10:33:19.008934,False,2,281,sounds\french\audio/french_879.wav,"[[  0.         -48.96816685]
 [  0.1        -79.01398257]
 [  0.2        -55.9985187 ]
 [  0.25666667 -98.06504365]]","[[0.         1.19104759]
 [0.1        0.98306132]
 [0.2        0.68767433]
 [0.25666667 1.4115175 ]]",0,0.962
8734529389,f,24,english,5,4,english,2024-02-01 10:33:19.008934,False,2,282,sounds\french\audio/french_51.wav,"[[  0.          47.2980437 ]
 [  0.1        -20.71065167]
 [  0.2        -59.15578969]
 [  0.25666667  47.97190204]]","[[0.         1.21993379]
 [0.1        0.59290242]
 [0.2        0.43795747]
 [0.25666667 1.09780803]]",1,0.387
8734529389,f,24,english,5,4,english,2024-02-01 10:33:19.008934,False,2,283,sounds\french\audio/french_375.wav,"[[  0.          25.91972282]
 [  0.1        -60.98407933]
 [  0.2        -55.02276561]
 [  0.25666667  50.70039074]]","[[0.         0.89929791]
 [0.1        0.6101435 ]
 [0.2        1.65353502]
 [0.25666667 0.66964756]]",0,0.243
8734529389,f,24,english,5,4,english,2024-02-01 10:33:19.008934,False,2,284,sounds\french\audio/french_935.wav,"[[  0.         -44.99349069]
 [  0.1        -36.99771552]
 [  0.2         73.94933819]
 [  0.25666667  99.03349287]]","[[0.         1.17032266]
 [0.1        1.41237049]
 [0.2        0.72245199]
 [0.25666667 1.64210213]]",1,0.562
8734529389,f,24,english,5,4,english,2024-02-01 10:33:19.008934,False,2,285,sounds\french\audio/french_803.wav,"[[ 0.         52.60083548]
 [ 0.1        69.87806401]
 [ 0.2        -5.78457695]
 [ 0.25666667 80.81591727]]","[[0.         1.16065927]
 [0.1        1.31848068]
 [0.2        1.09352717]
 [0.25666667 0.48205773]]",0,0.197
8734529389,f,24,english,5,4,english,2024-02-01 10:33:19.008934,False,2,286,sounds\french\audio/french_217.wav,"[[ 0.         -8.63904718]
 [ 0.1        71.12460489]
 [ 0.2        81.48384407]
 [ 0.25666667 64.01477431]]","[[0.         0.91131932]
 [0.1        1.66035555]
 [0.2        0.95248702]
 [0.25666667 0.54451157]]",0,0.763
8734529389,f,24,english,5,4,english,2024-02-01 10:33:19.008934,False,2,287,sounds\french\audio/french_172.wav,"[[ 0.         48.7065843 ]
 [ 0.1        36.17213003]
 [ 0.2        22.16215467]
 [ 0.25666667  3.80373218]]","[[0.         1.72774852]
 [0.1        0.94223675]
 [0.2        1.06724209]
 [0.25666667 1.19623342]]",0,0.83
8734529389,f,24,english,5,4,english,2024-02-01 10:33:19.008934,False,2,288,sounds\french\audio/french_895.wav,"[[  0.          52.32100115]
 [  0.1        -68.39097894]
 [  0.2         86.56169168]
 [  0.25666667 -55.69575084]]","[[0.         0.06001912]
 [0.1        0.92594104]
 [0.2        1.18275101]
 [0.25666667 0.90868208]]",0,1.666
8734529389,f,24,english,5,4,english,2024-02-01 10:33:19.008934,False,2,289,sounds\french\audio/french_818.wav,"[[  0.         -26.74770248]
 [  0.1        -33.54864391]
 [  0.2        -23.72939517]
 [  0.25666667  53.93300908]]","[[0.         1.09674102]
 [0.1        0.98606035]
 [0.2        1.86933067]
 [0.25666667 0.6204836 ]]",1,0.242
8734529389,f,24,english,5,4,english,2024-02-01 10:33:19.008934,False,2,290,sounds\french\audio/french_720.wav,"[[  0.         -84.90658582]
 [  0.1         42.34331668]
 [  0.2        -51.84568825]
 [  0.25666667  70.93496883]]","[[0.         1.45299565]
 [0.1        1.58494494]
 [0.2        1.67187292]
 [0.25666667 0.90000718]]",0,0.185
8734529389,f,24,english,5,4,english,2024-02-01 10:33:19.008934,False,2,291,sounds\french\audio/french_684.wav,"[[  0.          48.27990123]
 [  0.1          7.94375198]
 [  0.2          8.02227037]
 [  0.25666667 -51.87380122]]","[[0.         1.19178247]
 [0.1        1.19295899]
 [0.2        0.65877552]
 [0.25666667 1.73612438]]",1,0.629
8734529389,f,24,english,5,4,english,2024-02-01 10:33:19.008934,False,2,292,sounds\french\audio/french_501.wav,"[[  0.         -56.11865097]
 [  0.1         -7.09029516]
 [  0.2        -36.29429224]
 [  0.25666667 -11.40231031]]","[[0.         1.37224371]
 [0.1        0.68301448]
 [0.2        0.41531668]
 [0.25666667 0.4885534 ]]",1,0.461
8734529389,f,24,english,5,4,english,2024-02-01 10:33:19.008934,False,2,293,sounds\french\audio/french_413.wav,"[[  0.         -15.90568805]
 [  0.1         76.04965913]
 [  0.2         55.08996682]
 [  0.25666667  17.39731584]]","[[0.         0.35618922]
 [0.1        1.72047272]
 [0.2        1.40872317]
 [0.25666667 1.8089724 ]]",0,0.92
8734529389,f,24,english,5,4,english,2024-02-01 10:33:19.008934,False,2,294,sounds\french\audio/french_284.wav,"[[  0.           9.11616736]
 [  0.1          1.28278273]
 [  0.2         64.48623036]
 [  0.25666667 -18.83957989]]","[[0.         0.794635  ]
 [0.1        0.64071903]
 [0.2        0.85736223]
 [0.25666667 1.30798049]]",1,0.228
8734529389,f,24,english,5,4,english,2024-02-01 10:33:19.008934,False,2,295,sounds\french\audio/french_861.wav,"[[  0.         -47.60379447]
 [  0.1          8.05593032]
 [  0.2        -18.27545885]
 [  0.25666667  49.68481265]]","[[0.         1.17561317]
 [0.1        0.12143354]
 [0.2        0.42948795]
 [0.25666667 0.3832977 ]]",1,0.351
8734529389,f,24,english,5,4,english,2024-02-01 10:33:19.008934,False,2,296,sounds\french\audio/french_995.wav,"[[  0.         -29.39777781]
 [  0.1         22.57403903]
 [  0.2        -65.41348422]
 [  0.25666667  24.23364448]]","[[0.         0.04069973]
 [0.1        0.75529124]
 [0.2        0.72194837]
 [0.25666667 0.85657711]]",1,0.559
8734529389,f,24,english,5,4,english,2024-02-01 10:33:19.008934,False,2,297,sounds\french\audio/french_19.wav,"[[  0.         -43.32613145]
 [  0.1        -51.04998213]
 [  0.2        -30.05832199]
 [  0.25666667 -62.89931607]]","[[0.         0.86768791]
 [0.1        0.12235363]
 [0.2        0.93205141]
 [0.25666667 0.68272422]]",1,0.422
8734529389,f,24,english,5,4,english,2024-02-01 10:33:19.008934,False,2,298,sounds\french\audio/french_91.wav,"[[  0.          22.16772641]
 [  0.1          4.75787086]
 [  0.2         16.21543539]
 [  0.25666667 -31.35162056]]","[[0.         0.07376739]
 [0.1        1.79269703]
 [0.2        1.59138707]
 [0.25666667 1.67096256]]",1,0.283
8734529389,f,24,english,5,4,english,2024-02-01 10:33:19.008934,False,2,299,sounds\french\audio/french_443.wav,"[[  0.         -70.8287672 ]
 [  0.1        -57.74098156]
 [  0.2         -4.83347895]
 [  0.25666667 -81.70376308]]","[[0.         0.48827419]
 [0.1        0.38931866]
 [0.2        0.64406231]
 [0.25666667 1.21599086]]",1,0.602
8734529389,f,24,english,5,4,english,2024-02-01 10:33:19.008934,False,2,300,sounds\french\audio/french_571.wav,"[[ 0.         31.56469904]
 [ 0.1        44.5277229 ]
 [ 0.2        41.67262287]
 [ 0.25666667  9.54247743]]","[[0.         0.97268691]
 [0.1        1.62706688]
 [0.2        1.42821868]
 [0.25666667 0.83693393]]",0,0.171
8734529389,f,24,english,5,4,english,2024-02-01 10:33:19.008934,False,2,301,sounds\french\audio/french_846.wav,"[[  0.          70.67693031]
 [  0.1        -66.50397015]
 [  0.2         37.81388611]
 [  0.25666667 -25.90764661]]","[[0.         1.34255937]
 [0.1        0.4230684 ]
 [0.2        1.53749893]
 [0.25666667 0.57819313]]",0,0.287
8734529389,f,24,english,5,4,english,2024-02-01 10:33:19.008934,False,2,302,sounds\french\audio/french_283.wav,"[[  0.         -64.67390185]
 [  0.1        -52.2885083 ]
 [  0.2         -2.48451861]
 [  0.25666667  93.33276384]]","[[0.         0.75223446]
 [0.1        1.37092025]
 [0.2        0.62475046]
 [0.25666667 1.20947012]]",1,0.236
8734529389,f,24,english,5,4,english,2024-02-01 10:33:19.008934,False,2,303,sounds\french\audio/french_497.wav,"[[  0.         -34.77858655]
 [  0.1        -52.52188589]
 [  0.2         81.6415951 ]
 [  0.25666667  23.98828418]]","[[0.         0.98641894]
 [0.1        1.48106735]
 [0.2        1.37619597]
 [0.25666667 1.87248846]]",0,0.189
8734529389,f,24,english,5,4,english,2024-02-01 10:33:19.008934,False,2,304,sounds\french\audio/french_721.wav,"[[ 0.         83.32262744]
 [ 0.1        53.43911967]
 [ 0.2        45.88272958]
 [ 0.25666667 34.59804534]]","[[0.         0.77898197]
 [0.1        1.2749748 ]
 [0.2        1.13618558]
 [0.25666667 1.96642304]]",0,0.326
8734529389,f,24,english,5,4,english,2024-02-01 10:33:19.008934,False,2,305,sounds\french\audio/french_872.wav,"[[  0.          85.31192626]
 [  0.1        -62.96284321]
 [  0.2         93.26127986]
 [  0.25666667  48.13314647]]","[[0.         1.27180188]
 [0.1        0.82867252]
 [0.2        1.69740624]
 [0.25666667 0.31258738]]",0,0.251
8734529389,f,24,english,5,4,english,2024-02-01 10:33:19.008934,False,2,306,sounds\french\audio/french_488.wav,"[[  0.          83.09023231]
 [  0.1         31.08155804]
 [  0.2         23.00603586]
 [  0.25666667 -14.42068905]]","[[0.         0.61404301]
 [0.1        1.79467821]
 [0.2        0.24163263]
 [0.25666667 1.80620701]]",0,0.369
8734529389,f,24,english,5,4,english,2024-02-01 10:33:19.008934,False,2,307,sounds\french\audio/french_475.wav,"[[  0.          42.4700979 ]
 [  0.1         19.82242754]
 [  0.2         35.42792781]
 [  0.25666667 -96.45453718]]","[[0.         1.46915347]
 [0.1        0.15565226]
 [0.2        0.40628011]
 [0.25666667 1.14503128]]",1,0.299
8734529389,f,24,english,5,4,english,2024-02-01 10:33:19.008934,False,2,308,sounds\french\audio/french_535.wav,"[[  0.         -81.47221285]
 [  0.1         42.68543716]
 [  0.2        -73.81682794]
 [  0.25666667 -85.27887702]]","[[0.         1.61446576]
 [0.1        1.13976105]
 [0.2        0.22032829]
 [0.25666667 0.61620659]]",0,0.772
8734529389,f,24,english,5,4,english,2024-02-01 10:33:19.008934,False,2,309,sounds\french\audio/french_682.wav,"[[  0.         -16.33102186]
 [  0.1        -49.72009429]
 [  0.2        -23.39596266]
 [  0.25666667 -34.72439006]]","[[0.         0.79850708]
 [0.1        1.31273679]
 [0.2        1.51298147]
 [0.25666667 0.92861139]]",0,0.982
8734529389,f,24,english,5,4,english,2024-02-01 10:33:19.008934,False,2,310,sounds\french\audio/french_969.wav,"[[  0.         -10.47620341]
 [  0.1         -9.05898311]
 [  0.2        -40.12378042]
 [  0.25666667   9.74664574]]","[[0.         0.56181474]
 [0.1        1.62172025]
 [0.2        1.31687422]
 [0.25666667 0.40962586]]",1,0.252
8734529389,f,24,english,5,4,english,2024-02-01 10:33:19.008934,False,2,311,sounds\french\audio/french_637.wav,"[[ 0.         35.81604326]
 [ 0.1        -3.18432816]
 [ 0.2        50.06715701]
 [ 0.25666667 13.82838787]]","[[0.         0.01301393]
 [0.1        0.82513299]
 [0.2        0.10233849]
 [0.25666667 0.87921638]]",1,0.742
8734529389,f,24,english,5,4,english,2024-02-01 10:33:19.008934,False,2,312,sounds\french\audio/french_126.wav,"[[  0.          92.90369484]
 [  0.1         25.09820179]
 [  0.2         92.10026461]
 [  0.25666667 -27.205087  ]]","[[0.         0.56379558]
 [0.1        1.73295328]
 [0.2        0.28067586]
 [0.25666667 0.82028398]]",0,0.331
8734529389,f,24,english,5,4,english,2024-02-01 10:33:19.008934,False,2,313,sounds\french\audio/french_707.wav,"[[  0.          77.25708539]
 [  0.1        -54.8008957 ]
 [  0.2        -15.62691875]
 [  0.25666667   8.64437522]]","[[0.         0.72667473]
 [0.1        1.98017833]
 [0.2        0.70006776]
 [0.25666667 1.11828401]]",0,0.44
8734529389,f,24,english,5,4,english,2024-02-01 10:33:19.008934,False,2,314,sounds\french\audio/french_663.wav,"[[  0.           9.26283991]
 [  0.1          8.63416543]
 [  0.2        -94.49816933]
 [  0.25666667 -21.43071833]]","[[0.         1.50228176]
 [0.1        0.75616041]
 [0.2        0.98085129]
 [0.25666667 1.35574544]]",1,0.302
8734529389,f,24,english,5,4,english,2024-02-01 10:33:19.008934,False,2,315,sounds\french\audio/french_110.wav,"[[  0.          14.8960744 ]
 [  0.1        -82.02762151]
 [  0.2         66.91383722]
 [  0.25666667 -78.07836064]]","[[0.         1.68730737]
 [0.1        1.03733778]
 [0.2        1.59061665]
 [0.25666667 0.49489255]]",0,0.598
8734529389,f,24,english,5,4,english,2024-02-01 10:33:19.008934,False,2,316,sounds\french\audio/french_398.wav,"[[  0.           6.24181165]
 [  0.1        -92.25652661]
 [  0.2        -10.16879246]
 [  0.25666667  42.06293659]]","[[0.         1.03823517]
 [0.1        1.54229831]
 [0.2        1.61201148]
 [0.25666667 1.50798312]]",1,1.011
8734529389,f,24,english,5,4,english,2024-02-01 10:33:19.008934,False,2,317,sounds\french\audio/french_154.wav,"[[  0.         -35.77368222]
 [  0.1          5.93918526]
 [  0.2         36.13172948]
 [  0.25666667 -52.77395679]]","[[0.         0.10248514]
 [0.1        0.42084566]
 [0.2        1.29147589]
 [0.25666667 0.60791213]]",1,0.236
8734529389,f,24,english,5,4,english,2024-02-01 10:33:19.008934,False,2,318,sounds\french\audio/french_999.wav,"[[  0.          47.65145935]
 [  0.1         64.90222313]
 [  0.2         79.66636989]
 [  0.25666667 -10.95327426]]","[[0.         0.42993564]
 [0.1        1.41824969]
 [0.2        1.25132817]
 [0.25666667 1.10016678]]",1,0.141
8734529389,f,24,english,5,4,english,2024-02-01 10:33:19.008934,False,2,319,sounds\french\audio/french_184.wav,"[[  0.          48.36861498]
 [  0.1         -2.94347193]
 [  0.2        -52.00472355]
 [  0.25666667 -36.80137507]]","[[0.         1.86119552]
 [0.1        0.96576449]
 [0.2        1.69315982]
 [0.25666667 0.52689434]]",1,0.303
8734529389,f,24,english,5,4,english,2024-02-01 10:33:19.008934,False,2,320,sounds\french\audio/french_972.wav,"[[  0.          10.38102426]
 [  0.1        -66.54271468]
 [  0.2         -2.89265523]
 [  0.25666667 -87.42126356]]","[[0.         0.90840989]
 [0.1        1.6485676 ]
 [0.2        0.79956718]
 [0.25666667 1.28352811]]",0,0.296
8734529389,f,24,english,5,4,english,2024-02-01 10:33:19.008934,False,2,321,sounds\french\audio/french_821.wav,"[[  0.          70.15336782]
 [  0.1         -1.11865535]
 [  0.2        -91.54006312]
 [  0.25666667  24.13643902]]","[[0.         1.4099425 ]
 [0.1        1.36643738]
 [0.2        0.06599991]
 [0.25666667 1.20854405]]",1,0.969
8734529389,f,24,english,5,4,english,2024-02-01 10:33:19.008934,False,2,322,sounds\french\audio/french_703.wav,"[[  0.          84.48201003]
 [  0.1        -13.2968245 ]
 [  0.2        -49.01598543]
 [  0.25666667 -63.56156529]]","[[0.         0.82331622]
 [0.1        1.50639414]
 [0.2        0.83966854]
 [0.25666667 1.27848793]]",0,0.539
8734529389,f,24,english,5,4,english,2024-02-01 10:33:19.008934,False,2,323,sounds\french\audio/french_674.wav,"[[  0.          36.8658398 ]
 [  0.1        -70.55199619]
 [  0.2         -3.70121723]
 [  0.25666667  30.12615154]]","[[0.         0.63817569]
 [0.1        1.9135219 ]
 [0.2        1.96782527]
 [0.25666667 0.86862342]]",0,0.366
8734529389,f,24,english,5,4,english,2024-02-01 10:33:19.008934,False,2,324,sounds\french\audio/french_23.wav,"[[  0.          60.31001525]
 [  0.1        -66.5420171 ]
 [  0.2         63.07925381]
 [  0.25666667 -69.51509132]]","[[0.         1.86606536]
 [0.1        0.5728784 ]
 [0.2        0.71513043]
 [0.25666667 1.52612213]]",1,0.45
8734529389,f,24,english,5,4,english,2024-02-01 10:33:19.008934,False,2,325,sounds\french\audio/french_674.wav,"[[  0.          36.8658398 ]
 [  0.1        -70.55199619]
 [  0.2         -3.70121723]
 [  0.25666667  30.12615154]]","[[0.         0.63817569]
 [0.1        1.9135219 ]
 [0.2        1.96782527]
 [0.25666667 0.86862342]]",0,0.33
8734529389,f,24,english,5,4,english,2024-02-01 10:33:19.008934,False,2,326,sounds\french\audio/french_843.wav,"[[  0.          13.6803361 ]
 [  0.1         92.02668438]
 [  0.2        -93.52604538]
 [  0.25666667 -12.7136852 ]]","[[0.         0.65425976]
 [0.1        1.47814853]
 [0.2        0.78236369]
 [0.25666667 0.52413001]]",1,0.26
8734529389,f,24,english,5,4,english,2024-02-01 10:33:19.008934,False,2,327,sounds\french\audio/french_401.wav,"[[  0.         -70.28001137]
 [  0.1        -33.39817342]
 [  0.2         31.30905025]
 [  0.25666667  85.09993336]]","[[0.         0.55430578]
 [0.1        1.52055291]
 [0.2        1.05517946]
 [0.25666667 0.68126919]]",0,0.262
8734529389,f,24,english,5,4,english,2024-02-01 10:33:19.008934,False,2,328,sounds\french\audio/french_765.wav,"[[  0.          37.74619949]
 [  0.1         35.79177818]
 [  0.2         -4.82792988]
 [  0.25666667 -29.99687949]]","[[0.         1.94846132]
 [0.1        0.74629838]
 [0.2        1.12672767]
 [0.25666667 0.50330326]]",1,0.467
8734529389,f,24,english,5,4,english,2024-02-01 10:33:19.008934,False,2,329,sounds\french\audio/french_513.wav,"[[  0.          84.63539274]
 [  0.1         36.6114333 ]
 [  0.2         14.49628471]
 [  0.25666667 -17.17346171]]","[[0.         1.68726635]
 [0.1        0.88690679]
 [0.2        0.37350839]
 [0.25666667 1.74122924]]",1,0.62
8734529389,f,24,english,5,4,english,2024-02-01 10:33:19.008934,False,2,330,sounds\french\audio/french_467.wav,"[[  0.          26.36588123]
 [  0.1        -91.62831039]
 [  0.2         14.27679522]
 [  0.25666667 -77.75485007]]","[[0.         0.49078583]
 [0.1        1.37574102]
 [0.2        0.10009029]
 [0.25666667 1.32516535]]",0,0.409
8734529389,f,24,english,5,4,english,2024-02-01 10:33:19.008934,False,2,331,sounds\french\audio/french_785.wav,"[[  0.         -85.51822201]
 [  0.1         -3.83792251]
 [  0.2         45.88945115]
 [  0.25666667  38.51931882]]","[[0.         1.39201941]
 [0.1        0.93814534]
 [0.2        0.59493864]
 [0.25666667 0.08649149]]",1,0.386
8734529389,f,24,english,5,4,english,2024-02-01 10:33:19.008934,False,2,332,sounds\french\audio/french_79.wav,"[[  0.         -17.81057473]
 [  0.1        -79.49788956]
 [  0.2         21.64031361]
 [  0.25666667   9.8962074 ]]","[[0.         1.07647634]
 [0.1        0.19758175]
 [0.2        1.4893643 ]
 [0.25666667 1.60982877]]",0,0.579
8734529389,f,24,english,5,4,english,2024-02-01 10:33:19.008934,False,2,333,sounds\french\audio/french_460.wav,"[[  0.         -46.82547924]
 [  0.1        -89.06595485]
 [  0.2        -15.88362663]
 [  0.25666667 -55.00298372]]","[[0.         0.18532774]
 [0.1        0.73005791]
 [0.2        0.27848928]
 [0.25666667 1.6971829 ]]",1,0.35
8734529389,f,24,english,5,4,english,2024-02-01 10:33:19.008934,False,2,334,sounds\french\audio/french_44.wav,"[[  0.          89.66608323]
 [  0.1        -59.25624901]
 [  0.2        -68.11161816]
 [  0.25666667  57.66656697]]","[[0.         1.27808882]
 [0.1        0.57075293]
 [0.2        0.14730706]
 [0.25666667 1.61481461]]",1,0.799
8734529389,f,24,english,5,4,english,2024-02-01 10:33:19.008934,False,2,335,sounds\french\audio/french_353.wav,"[[  0.         -27.01804801]
 [  0.1         16.22716876]
 [  0.2        -38.75476954]
 [  0.25666667  38.92446625]]","[[0.         0.51521002]
 [0.1        1.40915564]
 [0.2        1.13160084]
 [0.25666667 0.21009684]]",0,0.531
8734529389,f,24,english,5,4,english,2024-02-01 10:33:19.008934,False,2,336,sounds\french\audio/french_187.wav,"[[  0.         -18.61743148]
 [  0.1         27.93687652]
 [  0.2          6.26647606]
 [  0.25666667  58.88972832]]","[[0.         0.79177474]
 [0.1        0.90472294]
 [0.2        1.3885115 ]
 [0.25666667 1.88547829]]",0,0.51
8734529389,f,24,english,5,4,english,2024-02-01 10:33:19.008934,False,2,337,sounds\french\audio/french_560.wav,"[[  0.         -42.00998938]
 [  0.1        -57.33016448]
 [  0.2         94.61210268]
 [  0.25666667 -53.14621565]]","[[0.         1.48749501]
 [0.1        0.25124208]
 [0.2        1.70870291]
 [0.25666667 0.91259566]]",1,0.462
8734529389,f,24,english,5,4,english,2024-02-01 10:33:19.008934,False,2,338,sounds\french\audio/french_34.wav,"[[  0.         -97.24360174]
 [  0.1         62.38297295]
 [  0.2        -49.09622703]
 [  0.25666667 -40.35720841]]","[[0.         1.95744133]
 [0.1        1.24423752]
 [0.2        1.91649641]
 [0.25666667 1.03651442]]",0,0.238
8734529389,f,24,english,5,4,english,2024-02-01 10:33:19.008934,False,2,339,sounds\french\audio/french_269.wav,"[[  0.          34.85044548]
 [  0.1         47.51511781]
 [  0.2         34.15302515]
 [  0.25666667 -55.0259295 ]]","[[0.00000000e+00 6.17924031e-04]
 [1.00000000e-01 1.05540646e+00]
 [2.00000000e-01 9.84234213e-01]
 [2.56666667e-01 8.45106618e-01]]",1,0.536
8734529389,f,24,english,5,4,english,2024-02-01 10:33:19.008934,False,2,340,sounds\french\audio/french_574.wav,"[[  0.         -78.43657591]
 [  0.1         25.16959944]
 [  0.2         42.97785019]
 [  0.25666667  77.36764491]]","[[0.         1.27247015]
 [0.1        0.78898338]
 [0.2        1.49121094]
 [0.25666667 0.68004104]]",0,0.372
8734529389,f,24,english,5,4,english,2024-02-01 10:33:19.008934,False,2,341,sounds\french\audio/french_803.wav,"[[ 0.         52.60083548]
 [ 0.1        69.87806401]
 [ 0.2        -5.78457695]
 [ 0.25666667 80.81591727]]","[[0.         1.16065927]
 [0.1        1.31848068]
 [0.2        1.09352717]
 [0.25666667 0.48205773]]",0,1.067
8734529389,f,24,english,5,4,english,2024-02-01 10:33:19.008934,False,2,342,sounds\french\audio/french_685.wav,"[[  0.         -62.74714371]
 [  0.1         48.52467862]
 [  0.2          4.749694  ]
 [  0.25666667  88.03032973]]","[[0.         1.57330944]
 [0.1        1.34151114]
 [0.2        0.18097188]
 [0.25666667 0.30113467]]",1,0.33
8734529389,f,24,english,5,4,english,2024-02-01 10:33:19.008934,False,2,343,sounds\french\audio/french_230.wav,"[[  0.         -41.35992563]
 [  0.1         43.67449439]
 [  0.2         25.98311508]
 [  0.25666667 -21.63443629]]","[[0.         1.74508263]
 [0.1        0.13993269]
 [0.2        0.94473259]
 [0.25666667 1.52757814]]",0,0.296
8734529389,f,24,english,5,4,english,2024-02-01 10:33:19.008934,False,2,344,sounds\french\audio/french_402.wav,"[[  0.         -15.06976312]
 [  0.1        -35.17937665]
 [  0.2        -39.80354227]
 [  0.25666667 -27.78014644]]","[[0.         1.40090564]
 [0.1        1.12974732]
 [0.2        1.04756912]
 [0.25666667 0.16748103]]",1,0.452
8734529389,f,24,english,5,4,english,2024-02-01 10:33:19.008934,False,2,345,sounds\french\audio/french_54.wav,"[[ 0.         77.13223303]
 [ 0.1        -5.6152706 ]
 [ 0.2        22.05383838]
 [ 0.25666667 -9.52451309]]","[[0.         0.44302914]
 [0.1        0.26201868]
 [0.2        0.27892   ]
 [0.25666667 0.30908576]]",1,0.605
8734529389,f,24,english,5,4,english,2024-02-01 10:33:19.008934,False,2,346,sounds\french\audio/french_292.wav,"[[  0.          -5.98307963]
 [  0.1        -89.4143915 ]
 [  0.2         50.82370108]
 [  0.25666667 -75.87081721]]","[[0.         1.30181039]
 [0.1        0.71580693]
 [0.2        0.58623796]
 [0.25666667 1.49080339]]",0,0.247
8734529389,f,24,english,5,4,english,2024-02-01 10:33:19.008934,False,2,347,sounds\french\audio/french_826.wav,"[[  0.         -33.86739367]
 [  0.1        -31.27966971]
 [  0.2         51.84533444]
 [  0.25666667 -81.13386792]]","[[0.         0.07066528]
 [0.1        0.90490109]
 [0.2        0.66906535]
 [0.25666667 0.4882988 ]]",0,1.393
8734529389,f,24,english,5,4,english,2024-02-01 10:33:19.008934,False,2,348,sounds\french\audio/french_397.wav,"[[  0.         -13.81470081]
 [  0.1         50.38281738]
 [  0.2         50.22980228]
 [  0.25666667 -83.86271009]]","[[0.         1.26162917]
 [0.1        1.19612478]
 [0.2        1.02842354]
 [0.25666667 0.53389444]]",1,0.404
8734529389,f,24,english,5,4,english,2024-02-01 10:33:19.008934,False,2,349,sounds\french\audio/french_891.wav,"[[ 0.         36.15157251]
 [ 0.1         9.92087077]
 [ 0.2        64.79051962]
 [ 0.25666667 25.43576317]]","[[0.         0.11830574]
 [0.1        0.00778599]
 [0.2        0.40739404]
 [0.25666667 0.71071781]]",1,0.462
8734529389,f,24,english,5,4,english,2024-02-01 10:33:19.008934,False,2,350,sounds\french\audio/french_632.wav,"[[  0.         -75.14768165]
 [  0.1         -2.61560916]
 [  0.2        -59.30318173]
 [  0.25666667 -18.46762736]]","[[0.         1.61991752]
 [0.1        1.85762338]
 [0.2        1.4379908 ]
 [0.25666667 1.77571767]]",0,0.16
8734529389,f,24,english,5,4,english,2024-02-01 10:33:19.008934,False,2,351,sounds\french\audio/french_84.wav,"[[  0.         -54.85806939]
 [  0.1         52.61671493]
 [  0.2         -3.50081054]
 [  0.25666667 -40.76156086]]","[[0.         1.84853156]
 [0.1        1.627657  ]
 [0.2        1.36210905]
 [0.25666667 0.69575672]]",0,0.473
8734529389,f,24,english,5,4,english,2024-02-01 10:33:19.008934,False,2,352,sounds\french\audio/french_507.wav,"[[  0.         -39.00130205]
 [  0.1          8.15448279]
 [  0.2        -39.88004764]
 [  0.25666667  66.54300966]]","[[0.         0.88980729]
 [0.1        1.12034654]
 [0.2        1.15006522]
 [0.25666667 1.10945683]]",1,0.498
8734529389,f,24,english,5,4,english,2024-02-01 10:33:19.008934,False,2,353,sounds\french\audio/french_980.wav,"[[  0.         -38.7537279 ]
 [  0.1         12.31277697]
 [  0.2          6.50697833]
 [  0.25666667 -34.92912415]]","[[0.         0.7061587 ]
 [0.1        1.27161124]
 [0.2        0.8921187 ]
 [0.25666667 1.97802528]]",0,0.284
8734529389,f,24,english,5,4,english,2024-02-01 10:33:19.008934,False,2,354,sounds\french\audio/french_883.wav,"[[  0.          79.42425648]
 [  0.1        -55.57656198]
 [  0.2        -42.3009185 ]
 [  0.25666667   9.11567641]]","[[0.         0.82987007]
 [0.1        1.06788753]
 [0.2        1.49414105]
 [0.25666667 1.30049822]]",1,0.303
8734529389,f,24,english,5,4,english,2024-02-01 10:33:19.008934,False,2,355,sounds\french\audio/french_25.wav,"[[  0.          46.82844357]
 [  0.1          5.52502331]
 [  0.2        -34.25373026]
 [  0.25666667 -52.44039001]]","[[0.         1.1493518 ]
 [0.1        1.41536953]
 [0.2        0.41949869]
 [0.25666667 0.5013656 ]]",0,0.327
8734529389,f,24,english,5,4,english,2024-02-01 10:33:19.008934,False,2,356,sounds\french\audio/french_786.wav,"[[ 0.         46.81596915]
 [ 0.1        35.10066142]
 [ 0.2        15.54537814]
 [ 0.25666667 97.25347056]]","[[0.         0.36321177]
 [0.1        1.24415108]
 [0.2        1.19760647]
 [0.25666667 0.79076548]]",1,0.215
8734529389,f,24,english,5,4,english,2024-02-01 10:33:19.008934,False,2,357,sounds\french\audio/french_585.wav,"[[  0.          55.40756654]
 [  0.1        -99.68924549]
 [  0.2        -52.13930441]
 [  0.25666667 -49.42840454]]","[[0.         1.79357949]
 [0.1        1.94389706]
 [0.2        0.70685753]
 [0.25666667 0.08344351]]",0,0.448
8734529389,f,24,english,5,4,english,2024-02-01 10:33:19.008934,False,2,358,sounds\french\audio/french_36.wav,"[[  0.          97.14143801]
 [  0.1         96.24936774]
 [  0.2         69.49703902]
 [  0.25666667 -77.37121036]]","[[0.         0.84704198]
 [0.1        1.47086473]
 [0.2        1.29858496]
 [0.25666667 1.24445776]]",1,0.312
8734529389,f,24,english,5,4,english,2024-02-01 10:33:19.008934,False,2,359,sounds\french\audio/french_375.wav,"[[  0.          25.91972282]
 [  0.1        -60.98407933]
 [  0.2        -55.02276561]
 [  0.25666667  50.70039074]]","[[0.         0.89929791]
 [0.1        0.6101435 ]
 [0.2        1.65353502]
 [0.25666667 0.66964756]]",0,0.313
8734529389,f,24,english,5,4,english,2024-02-01 10:33:19.008934,False,2,360,sounds\french\audio/french_990.wav,"[[  0.          31.68812365]
 [  0.1        -82.48323459]
 [  0.2         39.0525666 ]
 [  0.25666667 -59.77120272]]","[[0.         0.81704568]
 [0.1        1.80008391]
 [0.2        1.73012532]
 [0.25666667 0.71793452]]",0,1.089
8734529389,f,24,english,5,4,english,2024-02-01 10:33:19.008934,False,2,361,sounds\french\audio/french_556.wav,"[[  0.          57.69742807]
 [  0.1         74.69192241]
 [  0.2        -92.88512431]
 [  0.25666667  27.11476112]]","[[0.         1.23910924]
 [0.1        0.49477788]
 [0.2        1.56323012]
 [0.25666667 1.7455964 ]]",1,0.707
8734529389,f,24,english,5,4,english,2024-02-01 10:33:19.008934,False,2,362,sounds\french\audio/french_365.wav,"[[  0.         -98.04571794]
 [  0.1        -73.67698607]
 [  0.2        -96.43604562]
 [  0.25666667  37.7893414 ]]","[[0.         1.18023288]
 [0.1        1.95707288]
 [0.2        0.58641449]
 [0.25666667 1.65360278]]",0,0.168
8734529389,f,24,english,5,4,english,2024-02-01 10:33:19.008934,False,2,363,sounds\french\audio/french_923.wav,"[[  0.         -57.84523262]
 [  0.1        -15.65652506]
 [  0.2         37.84243464]
 [  0.25666667  15.41728704]]","[[0.         1.35677253]
 [0.1        1.1280373 ]
 [0.2        1.38752537]
 [0.25666667 1.42596606]]",1,0.602
8734529389,f,24,english,5,4,english,2024-02-01 10:33:19.008934,False,2,364,sounds\french\audio/french_386.wav,"[[  0.          50.68041389]
 [  0.1         19.37586599]
 [  0.2          0.19752764]
 [  0.25666667 -78.73875249]]","[[0.         0.75883449]
 [0.1        1.33167931]
 [0.2        0.89836148]
 [0.25666667 0.64515466]]",0,0.596
8734529389,f,24,english,5,4,english,2024-02-01 10:33:19.008934,False,2,365,sounds\french\audio/french_648.wav,"[[  0.          45.21338473]
 [  0.1         35.84509453]
 [  0.2        -67.01500747]
 [  0.25666667 -57.94291625]]","[[0.         1.3610165 ]
 [0.1        0.40626065]
 [0.2        0.74636895]
 [0.25666667 1.66903202]]",1,0.269
8734529389,f,24,english,5,4,english,2024-02-01 10:33:19.008934,False,2,366,sounds\french\audio/french_109.wav,"[[  0.         -57.66612313]
 [  0.1        -72.54090479]
 [  0.2         -5.66573875]
 [  0.25666667 -86.22212262]]","[[0.         0.91141338]
 [0.1        1.63809523]
 [0.2        1.08686957]
 [0.25666667 0.85420458]]",1,0.366
8734529389,f,24,english,5,4,english,2024-02-01 10:33:19.008934,False,2,367,sounds\french\audio/french_721.wav,"[[ 0.         83.32262744]
 [ 0.1        53.43911967]
 [ 0.2        45.88272958]
 [ 0.25666667 34.59804534]]","[[0.         0.77898197]
 [0.1        1.2749748 ]
 [0.2        1.13618558]
 [0.25666667 1.96642304]]",1,0.363
8734529389,f,24,english,5,4,english,2024-02-01 10:33:19.008934,False,2,368,sounds\french\audio/french_997.wav,"[[ 0.         70.02211451]
 [ 0.1        69.24362731]
 [ 0.2        73.007848  ]
 [ 0.25666667 83.15376715]]","[[0.         0.23520638]
 [0.1        0.40856699]
 [0.2        1.59962624]
 [0.25666667 0.8906701 ]]",0,1.586
8734529389,f,24,english,5,4,english,2024-02-01 10:33:19.008934,False,2,369,sounds\french\audio/french_595.wav,"[[  0.         -73.15061419]
 [  0.1         67.23643261]
 [  0.2         29.33444659]
 [  0.25666667 -65.67909684]]","[[0.         1.40746522]
 [0.1        0.48150889]
 [0.2        0.65461581]
 [0.25666667 0.62395538]]",1,0.286
8734529389,f,24,english,5,4,english,2024-02-01 10:33:19.008934,False,2,370,sounds\french\audio/french_293.wav,"[[  0.         -11.30043192]
 [  0.1        -69.36716709]
 [  0.2         65.20751159]
 [  0.25666667  27.71872742]]","[[0.         0.58860684]
 [0.1        0.23928943]
 [0.2        1.00971501]
 [0.25666667 0.31746318]]",1,0.4
8734529389,f,24,english,5,4,english,2024-02-01 10:33:19.008934,False,2,371,sounds\french\audio/french_936.wav,"[[  0.         -20.69739044]
 [  0.1         11.25896305]
 [  0.2        -73.43688333]
 [  0.25666667  14.6038409 ]]","[[0.         1.81100612]
 [0.1        0.34150345]
 [0.2        0.78598688]
 [0.25666667 0.34536881]]",1,0.49
8734529389,f,24,english,5,4,english,2024-02-01 10:33:19.008934,False,2,372,sounds\french\audio/french_999.wav,"[[  0.          47.65145935]
 [  0.1         64.90222313]
 [  0.2         79.66636989]
 [  0.25666667 -10.95327426]]","[[0.         0.42993564]
 [0.1        1.41824969]
 [0.2        1.25132817]
 [0.25666667 1.10016678]]",0,0.296
8734529389,f,24,english,5,4,english,2024-02-01 10:33:19.008934,False,2,373,sounds\french\audio/french_75.wav,"[[  0.          -2.54190785]
 [  0.1        -18.79561653]
 [  0.2        -63.16754008]
 [  0.25666667 -38.64547488]]","[[0.         0.75594209]
 [0.1        0.77713134]
 [0.2        0.0667883 ]
 [0.25666667 0.54855801]]",1,0.549
8734529389,f,24,english,5,4,english,2024-02-01 10:33:19.008934,False,2,374,sounds\french\audio/french_83.wav,"[[ 0.         45.44740295]
 [ 0.1        42.82646372]
 [ 0.2        -9.21139132]
 [ 0.25666667 30.29486893]]","[[0.         0.80263788]
 [0.1        1.96742974]
 [0.2        0.40483772]
 [0.25666667 0.1024326 ]]",0,0.435
8734529389,f,24,english,5,4,english,2024-02-01 10:33:19.008934,False,2,375,sounds\french\audio/french_416.wav,"[[  0.          27.68943274]
 [  0.1        -10.10461599]
 [  0.2         24.64183683]
 [  0.25666667  96.08137129]]","[[0.         1.77963231]
 [0.1        1.68240888]
 [0.2        1.38997073]
 [0.25666667 0.64151937]]",1,0.27
8734529389,f,24,english,5,4,english,2024-02-01 10:33:19.008934,False,2,376,sounds\french\audio/french_663.wav,"[[  0.           9.26283991]
 [  0.1          8.63416543]
 [  0.2        -94.49816933]
 [  0.25666667 -21.43071833]]","[[0.         1.50228176]
 [0.1        0.75616041]
 [0.2        0.98085129]
 [0.25666667 1.35574544]]",0,0.328
8734529389,f,24,english,5,4,english,2024-02-01 10:33:19.008934,False,2,377,sounds\french\audio/french_887.wav,"[[  0.          68.65167503]
 [  0.1        -55.72044546]
 [  0.2        -97.59121662]
 [  0.25666667 -40.12897823]]","[[0.         1.16380924]
 [0.1        1.74073633]
 [0.2        1.00138394]
 [0.25666667 1.21780512]]",1,0.216
8734529389,f,24,english,5,4,english,2024-02-01 10:33:19.008934,False,2,378,sounds\french\audio/french_742.wav,"[[  0.          70.50155873]
 [  0.1        -40.99625843]
 [  0.2          6.68379951]
 [  0.25666667 -76.31698705]]","[[0.         0.93659897]
 [0.1        1.14125333]
 [0.2        1.25957194]
 [0.25666667 0.86761951]]",1,0.638
8734529389,f,24,english,5,4,english,2024-02-01 10:33:19.008934,False,2,379,sounds\french\audio/french_701.wav,"[[  0.         -44.50216008]
 [  0.1         39.62093866]
 [  0.2         59.49522687]
 [  0.25666667 -55.32580216]]","[[0.         0.81644439]
 [0.1        1.46668212]
 [0.2        1.68659205]
 [0.25666667 1.60664037]]",0,0.156
8734529389,f,24,english,5,4,english,2024-02-01 10:33:19.008934,False,2,380,sounds\french\audio/french_480.wav,"[[  0.          60.74421865]
 [  0.1        -29.59792655]
 [  0.2         62.18386975]
 [  0.25666667 -29.20855136]]","[[0.         1.29752088]
 [0.1        1.96700759]
 [0.2        1.69632814]
 [0.25666667 1.65374165]]",1,0.117
8734529389,f,24,english,5,4,english,2024-02-01 10:33:19.008934,False,2,381,sounds\french\audio/french_984.wav,"[[  0.         -47.91850728]
 [  0.1         26.54192822]
 [  0.2         31.46018772]
 [  0.25666667  54.61358492]]","[[0.         0.65620753]
 [0.1        0.71747565]
 [0.2        1.52452255]
 [0.25666667 1.85839607]]",0,0.26
8734529389,f,24,english,5,4,english,2024-02-01 10:33:19.008934,False,2,382,sounds\french\audio/french_31.wav,"[[  0.         -16.52506352]
 [  0.1        -80.19736258]
 [  0.2        -47.04996605]
 [  0.25666667  35.27279848]]","[[0.         1.57904125]
 [0.1        0.88688051]
 [0.2        0.44579633]
 [0.25666667 1.71139476]]",1,0.671
8734529389,f,24,english,5,4,english,2024-02-01 10:33:19.008934,False,2,383,sounds\french\audio/french_933.wav,"[[  0.         -24.27897726]
 [  0.1         45.4380102 ]
 [  0.2         44.52165476]
 [  0.25666667  11.96128215]]","[[0.         0.66366025]
 [0.1        1.16686233]
 [0.2        0.86083852]
 [0.25666667 1.88972919]]",1,0.393
8734529389,f,24,english,5,4,english,2024-02-01 10:33:19.008934,False,2,384,sounds\french\audio/french_427.wav,"[[  0.         -76.02138843]
 [  0.1        -79.3514541 ]
 [  0.2         33.13783193]
 [  0.25666667 -70.0412192 ]]","[[0.         1.52776537]
 [0.1        0.93213061]
 [0.2        1.10363763]
 [0.25666667 1.44956109]]",1,0.551
8734529389,f,24,english,5,4,english,2024-02-01 10:33:19.008934,False,2,385,sounds\french\audio/french_936.wav,"[[  0.         -20.69739044]
 [  0.1         11.25896305]
 [  0.2        -73.43688333]
 [  0.25666667  14.6038409 ]]","[[0.         1.81100612]
 [0.1        0.34150345]
 [0.2        0.78598688]
 [0.25666667 0.34536881]]",0,0.483
8734529389,f,24,english,5,4,english,2024-02-01 10:33:19.008934,False,2,386,sounds\french\audio/french_832.wav,"[[  0.          72.4957568 ]
 [  0.1        -42.52759542]
 [  0.2        -19.34515336]
 [  0.25666667  29.69631954]]","[[0.         1.55241154]
 [0.1        0.51342339]
 [0.2        1.23436829]
 [0.25666667 0.63501701]]",0,0.438
8734529389,f,24,english,5,4,english,2024-02-01 10:33:19.008934,False,2,387,sounds\french\audio/french_879.wav,"[[  0.         -48.96816685]
 [  0.1        -79.01398257]
 [  0.2        -55.9985187 ]
 [  0.25666667 -98.06504365]]","[[0.         1.19104759]
 [0.1        0.98306132]
 [0.2        0.68767433]
 [0.25666667 1.4115175 ]]",1,0.335
8734529389,f,24,english,5,4,english,2024-02-01 10:33:19.008934,False,2,388,sounds\french\audio/french_917.wav,"[[  0.          50.57286357]
 [  0.1        -63.34867724]
 [  0.2          6.48628749]
 [  0.25666667  42.71671415]]","[[0.         1.65201844]
 [0.1        1.47811083]
 [0.2        1.28993383]
 [0.25666667 0.78276191]]",0,0.335
8734529389,f,24,english,5,4,english,2024-02-01 10:33:19.008934,False,2,389,sounds\french\audio/french_54.wav,"[[ 0.         77.13223303]
 [ 0.1        -5.6152706 ]
 [ 0.2        22.05383838]
 [ 0.25666667 -9.52451309]]","[[0.         0.44302914]
 [0.1        0.26201868]
 [0.2        0.27892   ]
 [0.25666667 0.30908576]]",1,0.47
8734529389,f,24,english,5,4,english,2024-02-01 10:33:19.008934,False,2,390,sounds\french\audio/french_660.wav,"[[  0.         -75.02051955]
 [  0.1        -36.41679043]
 [  0.2        -45.60366398]
 [  0.25666667  13.07838485]]","[[0.         0.75293762]
 [0.1        0.97452375]
 [0.2        1.88941483]
 [0.25666667 0.53297117]]",1,0.479
8734529389,f,24,english,5,4,english,2024-02-01 10:33:19.008934,False,2,391,sounds\french\audio/french_931.wav,"[[  0.          64.75046939]
 [  0.1        -55.9473081 ]
 [  0.2         32.85596214]
 [  0.25666667 -89.33798771]]","[[0.         1.51932084]
 [0.1        1.08335674]
 [0.2        0.78781639]
 [0.25666667 0.66435238]]",1,0.594
8734529389,f,24,english,5,4,english,2024-02-01 10:33:19.008934,False,2,392,sounds\french\audio/french_35.wav,"[[  0.         -91.9197252 ]
 [  0.1        -51.10479589]
 [  0.2        -15.74458639]
 [  0.25666667 -11.36352661]]","[[0.         1.92941129]
 [0.1        1.66263878]
 [0.2        0.60493147]
 [0.25666667 1.17557979]]",0,0.534
8734529389,f,24,english,5,4,english,2024-02-01 10:33:19.008934,False,2,393,sounds\french\audio/french_151.wav,"[[  0.          71.76568175]
 [  0.1        -74.84502799]
 [  0.2        -35.2682716 ]
 [  0.25666667 -20.9501034 ]]","[[0.         1.0902049 ]
 [0.1        0.763019  ]
 [0.2        0.78938414]
 [0.25666667 0.23047004]]",0,0.591
8734529389,f,24,english,5,4,english,2024-02-01 10:33:19.008934,False,2,394,sounds\french\audio/french_105.wav,"[[  0.         -23.09315354]
 [  0.1        -46.9361669 ]
 [  0.2         -8.58781729]
 [  0.25666667  56.68271074]]","[[0.         0.81757602]
 [0.1        0.98193048]
 [0.2        1.53786831]
 [0.25666667 0.84600103]]",1,0.531
8734529389,f,24,english,5,4,english,2024-02-01 10:33:19.008934,False,2,395,sounds\french\audio/french_366.wav,"[[  0.         -11.67543603]
 [  0.1        -73.020852  ]
 [  0.2        -53.53259577]
 [  0.25666667  19.02620798]]","[[0.         0.93730839]
 [0.1        0.54674712]
 [0.2        0.98192793]
 [0.25666667 0.14835446]]",1,0.924
8734529389,f,24,english,5,4,english,2024-02-01 10:33:19.008934,False,2,396,sounds\french\audio/french_989.wav,"[[  0.           9.12508282]
 [  0.1        -26.45358769]
 [  0.2        -51.08796106]
 [  0.25666667 -22.70445117]]","[[0.         1.4573698 ]
 [0.1        0.87656303]
 [0.2        0.58961018]
 [0.25666667 1.46090447]]",0,0.351
8734529389,f,24,english,5,4,english,2024-02-01 10:33:19.008934,False,2,397,sounds\french\audio/french_493.wav,"[[  0.         -68.32294441]
 [  0.1        -10.78892258]
 [  0.2         91.72278204]
 [  0.25666667 -45.09260027]]","[[0.         0.52835731]
 [0.1        0.49612748]
 [0.2        1.46473376]
 [0.25666667 1.2872874 ]]",1,0.376
8734529389,f,24,english,5,4,english,2024-02-01 10:33:19.008934,False,2,398,sounds\french\audio/french_526.wav,"[[ 0.         88.08406442]
 [ 0.1        34.72799638]
 [ 0.2         4.2178472 ]
 [ 0.25666667 90.74946068]]","[[0.         1.10890049]
 [0.1        1.05741796]
 [0.2        1.4706377 ]
 [0.25666667 0.12061003]]",0,0.391
8734529389,f,24,english,5,4,english,2024-02-01 10:33:19.008934,False,2,399,sounds\french\audio/french_764.wav,"[[  0.          -8.95969579]
 [  0.1          5.11158076]
 [  0.2          3.7358826 ]
 [  0.25666667 -14.74224302]]","[[0.         0.46272501]
 [0.1        1.84250995]
 [0.2        0.71585727]
 [0.25666667 0.58101627]]",1,0.332
8734529389,f,24,english,5,4,english,2024-02-01 10:33:19.008934,False,2,400,sounds\french\audio/french_246.wav,"[[  0.         -61.30298939]
 [  0.1         15.83987086]
 [  0.2         80.17394669]
 [  0.25666667 -81.65507189]]","[[0.         1.31566238]
 [0.1        1.23869052]
 [0.2        1.57286335]
 [0.25666667 0.07583844]]",1,0.392
8734529389,f,24,english,5,4,english,2024-02-01 10:33:19.008934,False,2,401,sounds\french\audio/french_851.wav,"[[  0.         -16.14738252]
 [  0.1         19.84507786]
 [  0.2        -46.64792285]
 [  0.25666667 -81.41203514]]","[[0.         1.77999263]
 [0.1        0.90385235]
 [0.2        0.51993189]
 [0.25666667 1.06673989]]",1,0.294
8734529389,f,24,english,5,4,english,2024-02-01 10:33:19.008934,False,2,402,sounds\french\audio/french_988.wav,"[[  0.          -4.11470775]
 [  0.1        -66.00013865]
 [  0.2         59.59027652]
 [  0.25666667   0.47429662]]","[[0.         0.28957615]
 [0.1        0.7977557 ]
 [0.2        1.24206297]
 [0.25666667 1.11640868]]",0,0.325
8734529389,f,24,english,5,4,english,2024-02-01 10:33:19.008934,False,2,403,sounds\french\audio/french_542.wav,"[[  0.          88.21755363]
 [  0.1         59.97016865]
 [  0.2        -54.94167031]
 [  0.25666667 -74.88408835]]","[[0.         1.84211071]
 [0.1        1.57396898]
 [0.2        1.14268549]
 [0.25666667 1.52682198]]",1,0.919
8734529389,f,24,english,5,4,english,2024-02-01 10:33:19.008934,False,2,404,sounds\french\audio/french_57.wav,"[[  0.           5.04798132]
 [  0.1         34.86476391]
 [  0.2          8.76450083]
 [  0.25666667 -66.01533982]]","[[0.         0.30893924]
 [0.1        1.37192861]
 [0.2        1.2366194 ]
 [0.25666667 1.17459784]]",0,0.274
8734529389,f,24,english,5,4,english,2024-02-01 10:33:19.008934,False,2,405,sounds\french\audio/french_774.wav,"[[  0.         -35.29041546]
 [  0.1        -21.07774935]
 [  0.2        -42.95062976]
 [  0.25666667 -27.37747858]]","[[0.         0.24909556]
 [0.1        0.81236123]
 [0.2        0.84475887]
 [0.25666667 0.12641702]]",1,0.409
8734529389,f,24,english,5,4,english,2024-02-01 10:33:19.008934,False,2,406,sounds\french\audio/french_122.wav,"[[  0.          -9.1094999 ]
 [  0.1        -91.51691393]
 [  0.2        -80.73944639]
 [  0.25666667  -5.35945859]]","[[0.         0.88070358]
 [0.1        1.99267891]
 [0.2        0.69956237]
 [0.25666667 0.8489229 ]]",0,0.235
8734529389,f,24,english,5,4,english,2024-02-01 10:33:19.008934,False,2,407,sounds\french\audio/french_513.wav,"[[  0.          84.63539274]
 [  0.1         36.6114333 ]
 [  0.2         14.49628471]
 [  0.25666667 -17.17346171]]","[[0.         1.68726635]
 [0.1        0.88690679]
 [0.2        0.37350839]
 [0.25666667 1.74122924]]",1,0.604
8734529389,f,24,english,5,4,english,2024-02-01 10:33:19.008934,False,2,408,sounds\french\audio/french_367.wav,"[[  0.         -74.25610099]
 [  0.1        -44.66143863]
 [  0.2        -39.26529042]
 [  0.25666667 -84.95145566]]","[[0.         1.28932343]
 [0.1        1.13980767]
 [0.2        1.487469  ]
 [0.25666667 0.37349724]]",0,0.413
8734529389,f,24,english,5,4,english,2024-02-01 10:33:19.008934,False,2,409,sounds\french\audio/french_22.wav,"[[ 0.         71.14052921]
 [ 0.1        32.6622244 ]
 [ 0.2        96.1292121 ]
 [ 0.25666667 65.79523532]]","[[0.         0.14678418]
 [0.1        0.81024714]
 [0.2        1.14392668]
 [0.25666667 1.62437335]]",1,0.342
8734529389,f,24,english,5,4,english,2024-02-01 10:33:19.008934,False,2,410,sounds\french\audio/french_689.wav,"[[  0.         -76.83712438]
 [  0.1         64.54047654]
 [  0.2         42.91011154]
 [  0.25666667 -94.73892594]]","[[0.         1.91162084]
 [0.1        0.68488006]
 [0.2        0.17067082]
 [0.25666667 1.05586556]]",0,0.367
8734529389,f,24,english,5,4,english,2024-02-01 10:33:19.008934,False,2,411,sounds\french\audio/french_412.wav,"[[  0.         -59.33534007]
 [  0.1        -79.1774496 ]
 [  0.2        -38.59435565]
 [  0.25666667  65.74010912]]","[[0.         1.02487397]
 [0.1        0.54283138]
 [0.2        0.86213444]
 [0.25666667 0.54314794]]",0,0.472
8734529389,f,24,english,5,4,english,2024-02-01 10:33:19.008934,False,2,412,sounds\french\audio/french_320.wav,"[[  0.         -12.08882056]
 [  0.1        -69.15560276]
 [  0.2         33.30000548]
 [  0.25666667 -65.44816773]]","[[0.         1.76987467]
 [0.1        1.70079501]
 [0.2        0.4524157 ]
 [0.25666667 0.78128465]]",0,0.412
8734529389,f,24,english,5,4,english,2024-02-01 10:33:19.008934,False,2,413,sounds\french\audio/french_458.wav,"[[  0.          13.7688173 ]
 [  0.1         19.53863665]
 [  0.2        -90.92797006]
 [  0.25666667  55.23452131]]","[[0.         1.1950835 ]
 [0.1        0.33129566]
 [0.2        0.65773392]
 [0.25666667 1.54778139]]",0,0.362
8734529389,f,24,english,5,4,english,2024-02-01 10:33:19.008934,False,2,414,sounds\french\audio/french_940.wav,"[[  0.          60.64207397]
 [  0.1        -16.07257124]
 [  0.2        -38.93693506]
 [  0.25666667 -22.19838027]]","[[0.         1.38818271]
 [0.1        1.64047706]
 [0.2        1.31963125]
 [0.25666667 1.73227719]]",1,0.716
8734529389,f,24,english,5,4,english,2024-02-01 10:33:19.008934,False,2,415,sounds\french\audio/french_982.wav,"[[  0.         -37.50079515]
 [  0.1        -23.37923681]
 [  0.2        -55.8234839 ]
 [  0.25666667 -58.92111767]]","[[0.         0.32253899]
 [0.1        1.88868261]
 [0.2        0.59835015]
 [0.25666667 1.21615752]]",0,0.501
8734529389,f,24,english,5,4,english,2024-02-01 10:33:19.008934,False,2,416,sounds\french\audio/french_827.wav,"[[ 0.         52.76736232]
 [ 0.1        43.3684124 ]
 [ 0.2         5.13351566]
 [ 0.25666667 57.45570888]]","[[0.         0.65431252]
 [0.1        1.37281261]
 [0.2        0.35708699]
 [0.25666667 0.33493738]]",1,0.708
8734529389,f,24,english,5,4,english,2024-02-01 10:33:19.008934,False,2,417,sounds\french\audio/french_453.wav,"[[  0.          17.16336321]
 [  0.1        -89.93005254]
 [  0.2         91.22824445]
 [  0.25666667 -84.37948707]]","[[0.         0.53243678]
 [0.1        1.83492113]
 [0.2        1.32944014]
 [0.25666667 0.35681228]]",0,0.19
8734529389,f,24,english,5,4,english,2024-02-01 10:33:19.008934,False,2,418,sounds\french\audio/french_64.wav,"[[  0.          -2.85479512]
 [  0.1        -22.43053594]
 [  0.2         99.07991634]
 [  0.25666667  -6.95169827]]","[[0.         1.8205441 ]
 [0.1        0.65122302]
 [0.2        0.54405082]
 [0.25666667 0.02019369]]",1,0.355
8734529389,f,24,english,5,4,english,2024-02-01 10:33:19.008934,False,2,419,sounds\french\audio/french_934.wav,"[[  0.          -9.72159443]
 [  0.1        -11.38125641]
 [  0.2        -15.93762726]
 [  0.25666667 -19.962769  ]]","[[0.         1.08583672]
 [0.1        0.99463139]
 [0.2        1.46206623]
 [0.25666667 1.59629023]]",0,0.471
8734529389,f,24,english,5,4,english,2024-02-01 10:33:19.008934,False,2,420,sounds\french\audio/french_597.wav,"[[  0.          78.21673508]
 [  0.1         48.44931265]
 [  0.2         -9.21876948]
 [  0.25666667 -95.47680095]]","[[0.         0.32061172]
 [0.1        1.01687051]
 [0.2        0.22158162]
 [0.25666667 0.62073139]]",1,0.626
8734529389,f,24,english,5,4,english,2024-02-01 10:33:19.008934,False,2,421,sounds\french\audio/french_211.wav,"[[  0.          26.09911827]
 [  0.1         37.88219535]
 [  0.2         25.3370042 ]
 [  0.25666667 -31.50750366]]","[[0.         0.38797522]
 [0.1        0.97106999]
 [0.2        0.82384696]
 [0.25666667 0.88987221]]",0,0.705
8734529389,f,24,english,5,4,english,2024-02-01 10:33:19.008934,False,2,422,sounds\french\audio/french_125.wav,"[[  0.          -5.4163583 ]
 [  0.1        -78.82020266]
 [  0.2          7.21605105]
 [  0.25666667 -41.55982592]]","[[0.         1.55997732]
 [0.1        1.46538696]
 [0.2        1.19887704]
 [0.25666667 1.01520467]]",1,0.317
8734529389,f,24,english,5,4,english,2024-02-01 10:33:19.008934,False,2,423,sounds\french\audio/french_505.wav,"[[  0.         -38.72168331]
 [  0.1        -12.49542568]
 [  0.2         71.90880982]
 [  0.25666667 -94.40337553]]","[[0.         1.89725183]
 [0.1        0.88243769]
 [0.2        1.24748728]
 [0.25666667 0.62032879]]",0,0.285
8734529389,f,24,english,5,4,english,2024-02-01 10:33:19.008934,False,2,424,sounds\french\audio/french_45.wav,"[[  0.           6.51510613]
 [  0.1        -86.25018513]
 [  0.2        -60.46903131]
 [  0.25666667 -48.31089161]]","[[0.         0.83763225]
 [0.1        1.19709151]
 [0.2        0.87484565]
 [0.25666667 0.45414185]]",1,0.333
8734529389,f,24,english,5,4,english,2024-02-01 10:33:19.008934,False,2,425,sounds\french\audio/french_10.wav,"[[  0.          34.48773494]
 [  0.1         82.41652137]
 [  0.2        -51.47900312]
 [  0.25666667  70.4490668 ]]","[[0.         0.90390655]
 [0.1        1.13926368]
 [0.2        1.63497012]
 [0.25666667 0.74730693]]",0,0.279
8734529389,f,24,english,5,4,english,2024-02-01 10:33:19.008934,False,2,426,sounds\french\audio/french_46.wav,"[[  0.         -59.72524318]
 [  0.1        -28.22082853]
 [  0.2          2.0739194 ]
 [  0.25666667 -12.25343829]]","[[0.         1.59606806]
 [0.1        1.01173367]
 [0.2        0.40164164]
 [0.25666667 1.6352238 ]]",1,0.277
8734529389,f,24,english,5,4,english,2024-02-01 10:33:19.008934,False,2,427,sounds\french\audio/french_479.wav,"[[  0.         -77.56228832]
 [  0.1        -51.14246902]
 [  0.2         54.51803315]
 [  0.25666667  -8.31356421]]","[[0.         0.23971003]
 [0.1        1.41057828]
 [0.2        0.5803481 ]
 [0.25666667 0.39274068]]",0,0.327
8734529389,f,24,english,5,4,english,2024-02-01 10:33:19.008934,False,2,428,sounds\french\audio/french_281.wav,"[[ 0.          4.01359856]
 [ 0.1         1.45942388]
 [ 0.2        95.6401263 ]
 [ 0.25666667 25.46106052]]","[[0.         1.28629226]
 [0.1        0.42556587]
 [0.2        0.86080411]
 [0.25666667 1.04114743]]",1,0.26
8734529389,f,24,english,5,4,english,2024-02-01 10:33:19.008934,False,2,429,sounds\french\audio/french_137.wav,"[[  0.          20.21202866]
 [  0.1        -42.96009099]
 [  0.2         15.21981059]
 [  0.25666667 -16.40384708]]","[[0.         1.22191513]
 [0.1        0.44902196]
 [0.2        0.94630282]
 [0.25666667 1.1991754 ]]",1,0.366
8734529389,f,24,english,5,4,english,2024-02-01 10:33:19.008934,False,2,430,sounds\french\audio/french_815.wav,"[[  0.         -30.97778369]
 [  0.1        -10.3506413 ]
 [  0.2         61.86726268]
 [  0.25666667 -32.12586702]]","[[0.         1.45421986]
 [0.1        0.28044698]
 [0.2        1.88309962]
 [0.25666667 1.86356454]]",0,0.825
8734529389,f,24,english,5,4,english,2024-02-01 10:33:19.008934,False,2,431,sounds\french\audio/french_303.wav,"[[  0.         -37.35678584]
 [  0.1        -60.74389767]
 [  0.2         74.2341812 ]
 [  0.25666667  74.10759125]]","[[0.         1.71041427]
 [0.1        0.8709471 ]
 [0.2        1.02400634]
 [0.25666667 0.07072526]]",1,0.508
8734529389,f,24,english,5,4,english,2024-02-01 10:33:19.008934,False,2,432,sounds\french\audio/french_902.wav,"[[  0.          27.03523978]
 [  0.1        -67.54213764]
 [  0.2         21.7683879 ]
 [  0.25666667 -96.90742585]]","[[0.         0.1459181 ]
 [0.1        1.3453624 ]
 [0.2        1.83277685]
 [0.25666667 0.52631336]]",0,0.272
8734529389,f,24,english,5,4,english,2024-02-01 10:33:19.008934,False,2,433,sounds\french\audio/french_752.wav,"[[  0.         -49.05511086]
 [  0.1         68.97169656]
 [  0.2         35.56747744]
 [  0.25666667   3.91641015]]","[[0.         0.41123153]
 [0.1        0.36604045]
 [0.2        0.22184937]
 [0.25666667 1.3158831 ]]",1,0.405
8734529389,f,24,english,5,4,english,2024-02-01 10:33:19.008934,False,2,434,sounds\french\audio/french_877.wav,"[[  0.         -23.96574217]
 [  0.1         51.07186547]
 [  0.2         26.38223439]
 [  0.25666667  57.01482149]]","[[0.         0.96253444]
 [0.1        1.01009898]
 [0.2        1.26042149]
 [0.25666667 0.37917076]]",0,0.285
8734529389,f,24,english,5,4,english,2024-02-01 10:33:19.008934,False,2,435,sounds\french\audio/french_988.wav,"[[  0.          -4.11470775]
 [  0.1        -66.00013865]
 [  0.2         59.59027652]
 [  0.25666667   0.47429662]]","[[0.         0.28957615]
 [0.1        0.7977557 ]
 [0.2        1.24206297]
 [0.25666667 1.11640868]]",1,0.275
8734529389,f,24,english,5,4,english,2024-02-01 10:33:19.008934,False,2,436,sounds\french\audio/french_699.wav,"[[ 0.         38.02578945]
 [ 0.1        21.65060188]
 [ 0.2        73.60148166]
 [ 0.25666667 94.39755493]]","[[0.         0.2020154 ]
 [0.1        0.44231897]
 [0.2        1.2945402 ]
 [0.25666667 1.2548045 ]]",0,4.333
8734529389,f,24,english,5,4,english,2024-02-01 10:33:19.008934,False,2,437,sounds\french\audio/french_842.wav,"[[  0.          74.80920959]
 [  0.1        -40.95587484]
 [  0.2         40.36105872]
 [  0.25666667 -80.22764814]]","[[0.         0.40194032]
 [0.1        0.66729024]
 [0.2        0.3355789 ]
 [0.25666667 0.97335266]]",1,0.328
8734529389,f,24,english,5,4,english,2024-02-01 10:33:19.008934,False,2,438,sounds\french\audio/french_653.wav,"[[  0.          77.9010548 ]
 [  0.1        -51.77114594]
 [  0.2         87.84855202]
 [  0.25666667  84.03497815]]","[[0.         1.15209157]
 [0.1        0.29445829]
 [0.2        0.58679482]
 [0.25666667 1.23322571]]",1,0.303
8734529389,f,24,english,5,4,english,2024-02-01 10:33:19.008934,False,2,439,sounds\french\audio/french_14.wav,"[[  0.          29.04259121]
 [  0.1        -13.93862831]
 [  0.2         -3.57455278]
 [  0.25666667  14.81088412]]","[[0.         1.27596418]
 [0.1        1.81664743]
 [0.2        1.61822265]
 [0.25666667 1.58848758]]",0,0.706
8734529389,f,24,english,5,4,english,2024-02-01 10:33:19.008934,False,2,440,sounds\french\audio/french_707.wav,"[[  0.          77.25708539]
 [  0.1        -54.8008957 ]
 [  0.2        -15.62691875]
 [  0.25666667   8.64437522]]","[[0.         0.72667473]
 [0.1        1.98017833]
 [0.2        0.70006776]
 [0.25666667 1.11828401]]",0,0.706
8734529389,f,24,english,5,4,english,2024-02-01 10:33:19.008934,False,2,441,sounds\french\audio/french_57.wav,"[[  0.           5.04798132]
 [  0.1         34.86476391]
 [  0.2          8.76450083]
 [  0.25666667 -66.01533982]]","[[0.         0.30893924]
 [0.1        1.37192861]
 [0.2        1.2366194 ]
 [0.25666667 1.17459784]]",1,0.274
8734529389,f,24,english,5,4,english,2024-02-01 10:33:19.008934,False,2,442,sounds\french\audio/french_154.wav,"[[  0.         -35.77368222]
 [  0.1          5.93918526]
 [  0.2         36.13172948]
 [  0.25666667 -52.77395679]]","[[0.         0.10248514]
 [0.1        0.42084566]
 [0.2        1.29147589]
 [0.25666667 0.60791213]]",0,1.049
8734529389,f,24,english,5,4,english,2024-02-01 10:33:19.008934,False,2,443,sounds\french\audio/french_66.wav,"[[ 0.          3.84925572]
 [ 0.1        75.48045935]
 [ 0.2        22.76512124]
 [ 0.25666667 45.08821781]]","[[0.         1.88939432]
 [0.1        0.3012797 ]
 [0.2        0.5045755 ]
 [0.25666667 1.63034278]]",0,0.335
8734529389,f,24,english,5,4,english,2024-02-01 10:33:19.008934,False,2,444,sounds\french\audio/french_143.wav,"[[  0.         -46.09253598]
 [  0.1         41.21858491]
 [  0.2         10.38405582]
 [  0.25666667 -99.98168054]]","[[0.         1.27633083]
 [0.1        0.28919458]
 [0.2        0.61917155]
 [0.25666667 0.37925836]]",1,0.402
8734529389,f,24,english,5,4,english,2024-02-01 10:33:19.008934,False,2,445,sounds\french\audio/french_259.wav,"[[  0.          34.42813613]
 [  0.1         10.6054277 ]
 [  0.2        -13.69189805]
 [  0.25666667 -89.62004192]]","[[0.         0.3045902 ]
 [0.1        0.51228763]
 [0.2        1.00650156]
 [0.25666667 1.73437165]]",0,0.488
8734529389,f,24,english,5,4,english,2024-02-01 10:33:19.008934,False,2,446,sounds\french\audio/french_224.wav,"[[  0.          29.30439333]
 [  0.1        -18.8355858 ]
 [  0.2         53.95388402]
 [  0.25666667 -99.38068318]]","[[0.         0.07263044]
 [0.1        0.50126241]
 [0.2        0.66381289]
 [0.25666667 0.98911363]]",0,0.486
8734529389,f,24,english,5,4,english,2024-02-01 10:33:19.008934,False,2,447,sounds\french\audio/french_731.wav,"[[  0.          52.82888701]
 [  0.1         44.66747194]
 [  0.2         83.54065351]
 [  0.25666667 -50.41579204]]","[[0.         1.42077684]
 [0.1        0.2996776 ]
 [0.2        1.21708869]
 [0.25666667 1.31490505]]",1,0.438
8734529389,f,24,english,5,4,english,2024-02-01 10:33:19.008934,False,2,448,sounds\french\audio/french_243.wav,"[[  0.          94.15218044]
 [  0.1         77.54642038]
 [  0.2        -54.61145872]
 [  0.25666667 -22.57869657]]","[[0.         0.53955239]
 [0.1        1.33237065]
 [0.2        1.76705621]
 [0.25666667 1.15577178]]",0,0.374
8734529389,f,24,english,5,4,english,2024-02-01 10:33:19.008934,False,2,449,sounds\french\audio/french_89.wav,"[[  0.         -79.59355323]
 [  0.1        -86.9945706 ]
 [  0.2         81.38410409]
 [  0.25666667 -11.31628481]]","[[0.         1.69180454]
 [0.1        1.08047967]
 [0.2        1.92177075]
 [0.25666667 1.93759104]]",1,0.173
8734529389,f,24,english,5,4,english,2024-02-01 10:33:19.008934,False,2,450,sounds\french\audio/french_350.wav,"[[  0.         -94.89147327]
 [  0.1        -69.96874844]
 [  0.2        -41.05008416]
 [  0.25666667  27.21030297]]","[[0.         1.34276454]
 [0.1        1.56346818]
 [0.2        0.76037532]
 [0.25666667 1.08356683]]",0,0.229
8734529389,f,24,english,5,4,english,2024-02-01 10:33:19.008934,False,2,451,sounds\french\audio/french_149.wav,"[[  0.          28.00275788]
 [  0.1        -46.87803807]
 [  0.2         32.76049197]
 [  0.25666667 -11.80275259]]","[[0.         1.27183806]
 [0.1        1.3685485 ]
 [0.2        0.82981236]
 [0.25666667 1.21825334]]",0,0.395
8734529389,f,24,english,5,4,english,2024-02-01 10:33:19.008934,False,2,452,sounds\french\audio/french_298.wav,"[[  0.          77.93003267]
 [  0.1        -23.8442355 ]
 [  0.2        -77.62110697]
 [  0.25666667 -25.23897767]]","[[0.         0.74693873]
 [0.1        1.94963825]
 [0.2        1.02670819]
 [0.25666667 0.18670197]]",0,0.271
8734529389,f,24,english,5,4,english,2024-02-01 10:33:19.008934,False,2,453,sounds\french\audio/french_169.wav,"[[  0.          14.47590961]
 [  0.1         38.07545665]
 [  0.2        -50.40298695]
 [  0.25666667  25.61467991]]","[[0.         1.38784349]
 [0.1        1.28983767]
 [0.2        0.58936297]
 [0.25666667 0.49151359]]",1,0.244
8734529389,f,24,english,5,4,english,2024-02-01 10:33:19.008934,False,2,454,sounds\french\audio/french_702.wav,"[[  0.         -53.8337347 ]
 [  0.1         13.17722269]
 [  0.2        -63.63948694]
 [  0.25666667  -7.77006894]]","[[0.         0.65995653]
 [0.1        1.48591365]
 [0.2        1.16262137]
 [0.25666667 1.49403865]]",0,0.248
8734529389,f,24,english,5,4,english,2024-02-01 10:33:19.008934,False,2,455,sounds\french\audio/french_486.wav,"[[  0.         -65.13732965]
 [  0.1        -93.57114331]
 [  0.2        -51.69797787]
 [  0.25666667  -3.30938414]]","[[0.         0.7755652 ]
 [0.1        0.9577819 ]
 [0.2        0.68553835]
 [0.25666667 0.55056833]]",1,0.248
8734529389,f,24,english,5,4,english,2024-02-01 10:33:19.008934,False,2,456,sounds\french\audio/french_361.wav,"[[  0.         -18.04801315]
 [  0.1         93.73679052]
 [  0.2         42.88870655]
 [  0.25666667  45.1087167 ]]","[[0.         1.02641127]
 [0.1        0.21625505]
 [0.2        1.63254817]
 [0.25666667 0.1659632 ]]",0,0.33
8734529389,f,24,english,5,4,english,2024-02-01 10:33:19.008934,False,2,457,sounds\french\audio/french_491.wav,"[[ 0.00000000e+00  4.86868680e+01]
 [ 1.00000000e-01 -4.81683993e+01]
 [ 2.00000000e-01 -4.23609681e+01]
 [ 2.56666667e-01  2.49582160e-02]]","[[0.         0.42969684]
 [0.1        1.38937301]
 [0.2        1.25630672]
 [0.25666667 0.04562268]]",1,0.78
8734529389,f,24,english,5,4,english,2024-02-01 10:33:19.008934,False,2,458,sounds\french\audio/french_390.wav,"[[  0.          13.63716389]
 [  0.1        -61.62928039]
 [  0.2         89.99724903]
 [  0.25666667 -99.60285567]]","[[0.         0.73987932]
 [0.1        1.19791102]
 [0.2        0.30500022]
 [0.25666667 1.08417724]]",0,0.291
8734529389,f,24,english,5,4,english,2024-02-01 10:33:19.008934,False,2,459,sounds\french\audio/french_913.wav,"[[  0.           5.31236155]
 [  0.1        -59.65057946]
 [  0.2         27.87230438]
 [  0.25666667 -58.49443874]]","[[0.         1.37558602]
 [0.1        0.3561265 ]
 [0.2        1.61604884]
 [0.25666667 0.97981321]]",1,0.395
8734529389,f,24,english,5,4,english,2024-02-01 10:33:19.008934,False,2,460,sounds\french\audio/french_387.wav,"[[  0.         -24.2271051 ]
 [  0.1        -69.58889879]
 [  0.2         21.02997226]
 [  0.25666667  58.82746302]]","[[0.         0.1957751 ]
 [0.1        0.86781049]
 [0.2        1.73501265]
 [0.25666667 1.75042849]]",0,0.832
8734529389,f,24,english,5,4,english,2024-02-01 10:33:19.008934,False,2,461,sounds\french\audio/french_337.wav,"[[  0.         -97.64468947]
 [  0.1        -70.83087303]
 [  0.2        -48.67995381]
 [  0.25666667 -82.84031791]]","[[0.         0.15620351]
 [0.1        1.65716961]
 [0.2        0.82507575]
 [0.25666667 0.89595203]]",1,0.207
8734529389,f,24,english,5,4,english,2024-02-01 10:33:19.008934,False,2,462,sounds\french\audio/french_94.wav,"[[  0.         -38.18468722]
 [  0.1         61.36042124]
 [  0.2        -21.02312881]
 [  0.25666667 -24.03892562]]","[[0.         1.72805858]
 [0.1        0.90054349]
 [0.2        0.35857958]
 [0.25666667 0.71397413]]",1,0.768
8734529389,f,24,english,5,4,english,2024-02-01 10:33:19.008934,False,2,463,sounds\french\audio/french_845.wav,"[[  0.          -4.24220541]
 [  0.1        -33.05758094]
 [  0.2        -22.8575131 ]
 [  0.25666667 -28.52835037]]","[[0.         1.81527349]
 [0.1        0.43145559]
 [0.2        1.45726833]
 [0.25666667 1.38023089]]",0,0.283
8734529389,f,24,english,5,4,english,2024-02-01 10:33:19.008934,False,2,464,sounds\french\audio/french_200.wav,"[[  0.         -10.65818699]
 [  0.1         -8.96413357]
 [  0.2        -78.89627616]
 [  0.25666667   8.01745362]]","[[0.         0.95052916]
 [0.1        0.11424824]
 [0.2        1.718039  ]
 [0.25666667 1.42690066]]",0,0.799
8734529389,f,24,english,5,4,english,2024-02-01 10:33:19.008934,False,2,465,sounds\french\audio/french_733.wav,"[[  0.          96.30835656]
 [  0.1        -16.80147809]
 [  0.2         34.50045069]
 [  0.25666667  -6.11336577]]","[[0.         1.00234216]
 [0.1        0.65355169]
 [0.2        1.63394937]
 [0.25666667 0.15404628]]",0,0.461
8734529389,f,24,english,5,4,english,2024-02-01 10:33:19.008934,False,2,466,sounds\french\audio/french_763.wav,"[[  0.         -96.72958763]
 [  0.1         95.66434095]
 [  0.2        -84.28875962]
 [  0.25666667 -41.37848175]]","[[0.         0.69845728]
 [0.1        1.4089076 ]
 [0.2        1.74428554]
 [0.25666667 0.12054272]]",1,0.772
8734529389,f,24,english,5,4,english,2024-02-01 10:33:19.008934,False,2,467,sounds\french\audio/french_972.wav,"[[  0.          10.38102426]
 [  0.1        -66.54271468]
 [  0.2         -2.89265523]
 [  0.25666667 -87.42126356]]","[[0.         0.90840989]
 [0.1        1.6485676 ]
 [0.2        0.79956718]
 [0.25666667 1.28352811]]",0,0.219
8734529389,f,24,english,5,4,english,2024-02-01 10:33:19.008934,False,2,468,sounds\french\audio/french_243.wav,"[[  0.          94.15218044]
 [  0.1         77.54642038]
 [  0.2        -54.61145872]
 [  0.25666667 -22.57869657]]","[[0.         0.53955239]
 [0.1        1.33237065]
 [0.2        1.76705621]
 [0.25666667 1.15577178]]",1,0.162
8734529389,f,24,english,5,4,english,2024-02-01 10:33:19.008934,False,2,469,sounds\french\audio/french_40.wav,"[[  0.         -78.27349013]
 [  0.1        -11.45872421]
 [  0.2         54.77710365]
 [  0.25666667  77.61698443]]","[[0.         1.3593064 ]
 [0.1        0.13307668]
 [0.2        1.8527892 ]
 [0.25666667 1.82448351]]",0,1.83
8734529389,f,24,english,5,4,english,2024-02-01 10:33:19.008934,False,2,470,sounds\french\audio/french_294.wav,"[[  0.          18.73906337]
 [  0.1          4.75064209]
 [  0.2        -81.40088776]
 [  0.25666667 -89.40929498]]","[[0.         1.13845915]
 [0.1        1.03898668]
 [0.2        1.62818909]
 [0.25666667 0.49616963]]",0,0.535
8734529389,f,24,english,5,4,english,2024-02-01 10:33:19.008934,False,2,471,sounds\french\audio/french_698.wav,"[[  0.          77.87531809]
 [  0.1        -26.89699032]
 [  0.2        -54.93316964]
 [  0.25666667 -94.94644501]]","[[0.         1.86418809]
 [0.1        0.30357323]
 [0.2        1.97458381]
 [0.25666667 1.01877906]]",0,0.169
8734529389,f,24,english,5,4,english,2024-02-01 10:33:19.008934,False,2,472,sounds\french\audio/french_979.wav,"[[  0.          58.05333973]
 [  0.1        -10.78982684]
 [  0.2         -1.76147191]
 [  0.25666667  35.54131035]]","[[0.         1.60321768]
 [0.1        0.5155038 ]
 [0.2        0.80270828]
 [0.25666667 0.30870089]]",1,0.723
8734529389,f,24,english,5,4,english,2024-02-01 10:33:19.008934,False,2,473,sounds\french\audio/french_820.wav,"[[  0.         -23.2512771 ]
 [  0.1         -3.42093224]
 [  0.2        -78.83822409]
 [  0.25666667 -24.79307177]]","[[0.         0.85914582]
 [0.1        1.44867235]
 [0.2        1.61907263]
 [0.25666667 1.11055267]]",0,0.305
8734529389,f,24,english,5,4,english,2024-02-01 10:33:19.008934,False,2,474,sounds\french\audio/french_462.wav,"[[  0.         -21.95394664]
 [  0.1         40.83343907]
 [  0.2        -14.27053038]
 [  0.25666667  85.20745493]]","[[0.         1.87011175]
 [0.1        1.54087482]
 [0.2        0.9591328 ]
 [0.25666667 0.45105527]]",0,0.295
8734529389,f,24,english,5,4,english,2024-02-01 10:33:19.008934,False,2,475,sounds\french\audio/french_470.wav,"[[  0.          35.80891732]
 [  0.1        -69.45523052]
 [  0.2         14.95046841]
 [  0.25666667  17.64450191]]","[[0.         1.18984778]
 [0.1        0.95727089]
 [0.2        1.94704509]
 [0.25666667 1.37814226]]",0,0.2
8734529389,f,24,english,5,4,english,2024-02-01 10:33:19.008934,False,2,476,sounds\french\audio/french_445.wav,"[[  0.           8.73559539]
 [  0.1        -22.15313252]
 [  0.2         26.0955013 ]
 [  0.25666667  22.70157082]]","[[0.         0.8054478 ]
 [0.1        1.73211315]
 [0.2        0.21896619]
 [0.25666667 0.54256666]]",0,0.416
8734529389,f,24,english,5,4,english,2024-02-01 10:33:19.008934,False,2,477,sounds\french\audio/french_903.wav,"[[  0.         -17.08871031]
 [  0.1         52.87150714]
 [  0.2        -46.35078868]
 [  0.25666667  67.27089244]]","[[0.         0.50691937]
 [0.1        1.06902364]
 [0.2        1.77440634]
 [0.25666667 0.5573406 ]]",0,0.204
8734529389,f,24,english,5,4,english,2024-02-01 10:33:19.008934,False,2,478,sounds\french\audio/french_26.wav,"[[  0.         -38.52186107]
 [  0.1         92.94908957]
 [  0.2         38.63958599]
 [  0.25666667  81.76747676]]","[[0.         1.55913274]
 [0.1        0.73355846]
 [0.2        0.51766924]
 [0.25666667 0.7935304 ]]",1,0.232
8734529389,f,24,english,5,4,english,2024-02-01 10:33:19.008934,False,2,479,sounds\french\audio/french_610.wav,"[[  0.          41.67803598]
 [  0.1         50.6586837 ]
 [  0.2        -85.20353251]
 [  0.25666667 -12.88596769]]","[[0.         0.10564039]
 [0.1        1.22556883]
 [0.2        1.48633574]
 [0.25666667 1.12124299]]",0,0.17
8734529389,f,24,english,5,4,english,2024-02-01 10:33:19.008934,False,2,480,sounds\french\audio/french_502.wav,"[[  0.         -20.79410197]
 [  0.1        -29.31354171]
 [  0.2         66.76157716]
 [  0.25666667  63.6653431 ]]","[[0.         1.55473715]
 [0.1        0.75660833]
 [0.2        1.40053341]
 [0.25666667 1.0602207 ]]",1,0.135
8734529389,f,24,english,5,4,english,2024-02-01 10:33:19.008934,False,2,481,sounds\french\audio/french_891.wav,"[[ 0.         36.15157251]
 [ 0.1         9.92087077]
 [ 0.2        64.79051962]
 [ 0.25666667 25.43576317]]","[[0.         0.11830574]
 [0.1        0.00778599]
 [0.2        0.40739404]
 [0.25666667 0.71071781]]",1,0.569
8734529389,f,24,english,5,4,english,2024-02-01 10:33:19.008934,False,2,482,sounds\french\audio/french_786.wav,"[[ 0.         46.81596915]
 [ 0.1        35.10066142]
 [ 0.2        15.54537814]
 [ 0.25666667 97.25347056]]","[[0.         0.36321177]
 [0.1        1.24415108]
 [0.2        1.19760647]
 [0.25666667 0.79076548]]",1,0.324
8734529389,f,24,english,5,4,english,2024-02-01 10:33:19.008934,False,2,483,sounds\french\audio/french_178.wav,"[[ 0.         26.38045069]
 [ 0.1        54.67313893]
 [ 0.2        58.86585948]
 [ 0.25666667  8.14592544]]","[[0.         1.33493468]
 [0.1        1.2022917 ]
 [0.2        1.32810738]
 [0.25666667 0.94030025]]",0,0.139
8734529389,f,24,english,5,4,english,2024-02-01 10:33:19.008934,False,2,484,sounds\french\audio/french_363.wav,"[[  0.          53.04818478]
 [  0.1         68.67010762]
 [  0.2        -91.11205335]
 [  0.25666667 -38.9131055 ]]","[[0.         0.48026107]
 [0.1        1.94302888]
 [0.2        0.36511891]
 [0.25666667 1.6181542 ]]",0,0.295
8734529389,f,24,english,5,4,english,2024-02-01 10:33:19.008934,False,2,485,sounds\french\audio/french_781.wav,"[[  0.          33.25938538]
 [  0.1        -13.90292419]
 [  0.2        -71.59350782]
 [  0.25666667  57.07291034]]","[[0.         1.27105286]
 [0.1        0.93357863]
 [0.2        1.0124146 ]
 [0.25666667 0.68511696]]",1,0.15
8734529389,f,24,english,5,4,english,2024-02-01 10:33:19.008934,False,2,486,sounds\french\audio/french_768.wav,"[[ 0.         43.80393873]
 [ 0.1        23.97019037]
 [ 0.2        96.73627246]
 [ 0.25666667 86.69297093]]","[[0.         0.16736189]
 [0.1        0.82539527]
 [0.2        1.26581733]
 [0.25666667 1.40091334]]",1,0.154
8734529389,f,24,english,5,4,english,2024-02-01 10:33:19.008934,False,2,487,sounds\french\audio/french_857.wav,"[[  0.          40.93487779]
 [  0.1        -17.75235864]
 [  0.2         39.31370365]
 [  0.25666667 -10.04228362]]","[[0.         1.95936394]
 [0.1        1.43648621]
 [0.2        1.12127335]
 [0.25666667 0.40363044]]",0,1.332
8734529389,f,24,english,5,4,english,2024-02-01 10:33:19.008934,False,2,488,sounds\french\audio/french_722.wav,"[[  0.          60.56599831]
 [  0.1        -62.73703536]
 [  0.2        -66.13157344]
 [  0.25666667  59.05774632]]","[[0.         1.86075077]
 [0.1        0.80738175]
 [0.2        0.80798992]
 [0.25666667 0.27445487]]",0,0.234
8734529389,f,24,english,5,4,english,2024-02-01 10:33:19.008934,False,2,489,sounds\french\audio/french_766.wav,"[[ 0.         91.85829661]
 [ 0.1        29.32583948]
 [ 0.2        71.77245069]
 [ 0.25666667 28.53871253]]","[[0.         0.12079341]
 [0.1        0.61287095]
 [0.2        1.071897  ]
 [0.25666667 0.29005596]]",1,0.187
8734529389,f,24,english,5,4,english,2024-02-01 10:33:19.008934,False,2,490,sounds\french\audio/french_379.wav,"[[  0.          22.44752401]
 [  0.1         26.97339804]
 [  0.2         53.43729248]
 [  0.25666667 -63.2778902 ]]","[[0.         1.77059304]
 [0.1        0.69418911]
 [0.2        0.76703539]
 [0.25666667 0.57510346]]",1,0.156
8734529389,f,24,english,5,4,english,2024-02-01 10:33:19.008934,False,2,491,sounds\french\audio/french_978.wav,"[[  0.         -36.32035497]
 [  0.1        -92.00024605]
 [  0.2        -85.64640387]
 [  0.25666667  30.4024855 ]]","[[0.         0.76958877]
 [0.1        0.1229223 ]
 [0.2        1.83920091]
 [0.25666667 1.45747353]]",0,1.177
8734529389,f,24,english,5,4,english,2024-02-01 10:33:19.008934,False,2,492,sounds\french\audio/french_146.wav,"[[  0.           2.88911392]
 [  0.1         20.34035446]
 [  0.2        -17.47138226]
 [  0.25666667 -15.1567399 ]]","[[0.         0.44051244]
 [0.1        0.76269488]
 [0.2        0.12643706]
 [0.25666667 0.55905625]]",1,0.367
8734529389,f,24,english,5,4,english,2024-02-01 10:33:19.008934,False,2,493,sounds\french\audio/french_67.wav,"[[  0.         -85.58948589]
 [  0.1         13.09838054]
 [  0.2        -56.56906679]
 [  0.25666667  57.4599261 ]]","[[0.         0.63200809]
 [0.1        1.95867716]
 [0.2        0.48937635]
 [0.25666667 1.24156625]]",0,0.467
8734529389,f,24,english,5,4,english,2024-02-01 10:33:19.008934,False,2,494,sounds\french\audio/french_177.wav,"[[  0.         -69.89314337]
 [  0.1          8.10824913]
 [  0.2         41.02901981]
 [  0.25666667  -9.46888932]]","[[0.         1.41470617]
 [0.1        0.24806543]
 [0.2        1.01013957]
 [0.25666667 0.18165289]]",1,0.397
8734529389,f,24,english,5,4,english,2024-02-01 10:33:19.008934,False,2,495,sounds\french\audio/french_559.wav,"[[  0.          64.66028359]
 [  0.1        -43.2680873 ]
 [  0.2        -64.36892284]
 [  0.25666667  44.10109235]]","[[0.         0.94999591]
 [0.1        1.38482691]
 [0.2        1.27938883]
 [0.25666667 0.16591499]]",0,0.15
8734529389,f,24,english,5,4,english,2024-02-01 10:33:19.008934,False,2,496,sounds\french\audio/french_945.wav,"[[  0.         -68.75533602]
 [  0.1        -70.31736245]
 [  0.2         30.11750803]
 [  0.25666667 -35.89247017]]","[[0.         0.74886616]
 [0.1        1.09629777]
 [0.2        0.8052417 ]
 [0.25666667 0.22664311]]",0,0.428
8734529389,f,24,english,5,4,english,2024-02-01 10:33:19.008934,False,2,497,sounds\french\audio/french_357.wav,"[[  0.         -39.34197693]
 [  0.1         71.15894406]
 [  0.2        -59.30154436]
 [  0.25666667  60.48174113]]","[[0.         1.60610182]
 [0.1        0.3952593 ]
 [0.2        0.60654741]
 [0.25666667 0.43480054]]",1,0.225
8734529389,f,24,english,5,4,english,2024-02-01 10:33:19.008934,False,2,498,sounds\french\audio/french_907.wav,"[[  0.           9.20754992]
 [  0.1        -39.82714958]
 [  0.2         91.774681  ]
 [  0.25666667 -60.10887287]]","[[0.         1.79705326]
 [0.1        0.37644661]
 [0.2        1.35697235]
 [0.25666667 0.87178456]]",0,0.305
8734529389,f,24,english,5,4,english,2024-02-01 10:33:19.008934,False,2,499,sounds\french\audio/french_536.wav,"[[  0.          68.67423581]
 [  0.1        -41.0053329 ]
 [  0.2         83.63020031]
 [  0.25666667  91.23175369]]","[[0.         1.72386473]
 [0.1        0.5365144 ]
 [0.2        1.03248729]
 [0.25666667 0.91736707]]",1,0.209
8734529389,f,24,english,5,4,english,2024-02-01 10:33:19.008934,False,2,500,sounds\french\audio/french_489.wav,"[[  0.           0.49645075]
 [  0.1        -49.42249353]
 [  0.2          3.0196593 ]
 [  0.25666667  11.9492669 ]]","[[0.         0.76062229]
 [0.1        1.72041063]
 [0.2        0.72496435]
 [0.25666667 0.84736567]]",0,0.235
8734529389,f,24,english,5,4,english,2024-02-01 10:33:19.008934,False,2,501,sounds\french\audio/french_750.wav,"[[  0.          36.16157767]
 [  0.1        -94.09249833]
 [  0.2         97.07405484]
 [  0.25666667  -8.28043626]]","[[0.         1.69010054]
 [0.1        0.7877665 ]
 [0.2        0.99353813]
 [0.25666667 0.64245914]]",1,0.652
8734529389,f,24,english,5,4,english,2024-02-01 10:33:19.008934,False,2,502,sounds\french\audio/french_154.wav,"[[  0.         -35.77368222]
 [  0.1          5.93918526]
 [  0.2         36.13172948]
 [  0.25666667 -52.77395679]]","[[0.         0.10248514]
 [0.1        0.42084566]
 [0.2        1.29147589]
 [0.25666667 0.60791213]]",0,0.498
