subj,sex,age,language,english,french,native_lang,date,practice,block,trial,stim,pitch,stretch,response,rt
4,f,40,english,5,4,english,2024-02-09 19:58:32.528132,False,2,303,sounds\french\audio/french_581.wav,"[[  0.         -12.19849528]
 [  0.1         96.23210286]
 [  0.2        -75.71717575]
 [  0.25666667  36.78246633]]","[[0.         0.7315947 ]
 [0.1        0.75639682]
 [0.2        0.47033606]
 [0.25666667 0.84951166]]",0,1.761
4,f,40,english,5,4,english,2024-02-09 19:58:32.528132,False,2,304,sounds\french\audio/french_459.wav,"[[  0.           4.79398058]
 [  0.1         85.90612859]
 [  0.2        -69.41023595]
 [  0.25666667 -22.07588814]]","[[0.         1.10654006]
 [0.1        1.2996969 ]
 [0.2        0.20520219]
 [0.25666667 1.17361701]]",0,0.298
4,f,40,english,5,4,english,2024-02-09 19:58:32.528132,False,2,305,sounds\french\audio/french_335.wav,"[[  0.         -60.92786521]
 [  0.1         31.54292158]
 [  0.2         82.84770607]
 [  0.25666667  75.81016287]]","[[0.         0.89558721]
 [0.1        1.14451351]
 [0.2        0.29770625]
 [0.25666667 0.45932577]]",0,0.252
4,f,40,english,5,4,english,2024-02-09 19:58:32.528132,False,2,306,sounds\french\audio/french_23.wav,"[[  0.          60.31001525]
 [  0.1        -66.5420171 ]
 [  0.2         63.07925381]
 [  0.25666667 -69.51509132]]","[[0.         1.86606536]
 [0.1        0.5728784 ]
 [0.2        0.71513043]
 [0.25666667 1.52612213]]",0,0.239
4,f,40,english,5,4,english,2024-02-09 19:58:32.528132,False,2,307,sounds\french\audio/french_763.wav,"[[  0.         -96.72958763]
 [  0.1         95.66434095]
 [  0.2        -84.28875962]
 [  0.25666667 -41.37848175]]","[[0.         0.69845728]
 [0.1        1.4089076 ]
 [0.2        1.74428554]
 [0.25666667 0.12054272]]",0,0.447
4,f,40,english,5,4,english,2024-02-09 19:58:32.528132,False,2,308,sounds\french\audio/french_805.wav,"[[  0.          21.15897581]
 [  0.1        -84.51795283]
 [  0.2         72.20878309]
 [  0.25666667 -28.14016055]]","[[0.         1.3244225 ]
 [0.1        0.68750265]
 [0.2        0.56084624]
 [0.25666667 0.45412894]]",0,0.407
4,f,40,english,5,4,english,2024-02-09 19:58:32.528132,False,2,309,sounds\french\audio/french_941.wav,"[[  0.         -66.32571195]
 [  0.1         85.09907795]
 [  0.2         87.37862016]
 [  0.25666667 -18.39108149]]","[[0.         0.9896497 ]
 [0.1        0.67654191]
 [0.2        1.4708398 ]
 [0.25666667 0.82969394]]",0,0.172
4,f,40,english,5,4,english,2024-02-09 19:58:32.528132,False,2,310,sounds\french\audio/french_1000.wav,"[[  0.         -14.94486739]
 [  0.1         -3.70752284]
 [  0.2        -14.04083749]
 [  0.25666667 -29.27941665]]","[[0.         0.60674079]
 [0.1        0.18450848]
 [0.2        1.64475948]
 [0.25666667 0.26397745]]",0,0.439
4,f,40,english,5,4,english,2024-02-09 19:58:32.528132,False,2,311,sounds\french\audio/french_607.wav,"[[  0.          86.31857573]
 [  0.1        -46.02697415]
 [  0.2         45.41214831]
 [  0.25666667  58.05056059]]","[[0.         1.61060215]
 [0.1        1.76940735]
 [0.2        0.70600977]
 [0.25666667 0.79164166]]",0,0.546
4,f,40,english,5,4,english,2024-02-09 19:58:32.528132,False,2,312,sounds\french\audio/french_370.wav,"[[  0.         -31.30279389]
 [  0.1         96.47349065]
 [  0.2         23.18843017]
 [  0.25666667  81.62933181]]","[[0.         1.88170435]
 [0.1        0.75067332]
 [0.2        1.06279648]
 [0.25666667 0.58974769]]",0,0.346
4,f,40,english,5,4,english,2024-02-09 19:58:32.528132,False,2,313,sounds\french\audio/french_701.wav,"[[  0.         -44.50216008]
 [  0.1         39.62093866]
 [  0.2         59.49522687]
 [  0.25666667 -55.32580216]]","[[0.         0.81644439]
 [0.1        1.46668212]
 [0.2        1.68659205]
 [0.25666667 1.60664037]]",0,0.249
4,f,40,english,5,4,english,2024-02-09 19:58:32.528132,False,2,314,sounds\french\audio/french_383.wav,"[[  0.         -42.4544387 ]
 [  0.1        -90.68336638]
 [  0.2        -23.68224062]
 [  0.25666667 -19.21071009]]","[[0.         1.97405967]
 [0.1        0.7318817 ]
 [0.2        1.2439139 ]
 [0.25666667 0.24057374]]",0,1.973
4,f,40,english,5,4,english,2024-02-09 19:58:32.528132,False,2,315,sounds\french\audio/french_640.wav,"[[  0.         -15.56807975]
 [  0.1         54.79262645]
 [  0.2        -80.20485071]
 [  0.25666667 -47.69326323]]","[[0.         1.93294171]
 [0.1        1.3982646 ]
 [0.2        1.35271381]
 [0.25666667 0.1240569 ]]",0,0.456
4,f,40,english,5,4,english,2024-02-09 19:58:32.528132,False,2,316,sounds\french\audio/french_953.wav,"[[  0.         -27.22394829]
 [  0.1         -3.36109764]
 [  0.2         79.96390299]
 [  0.25666667 -20.83871742]]","[[0.         1.27693125]
 [0.1        0.12331262]
 [0.2        1.48485403]
 [0.25666667 0.51230705]]",1,0.693
4,f,40,english,5,4,english,2024-02-09 19:58:32.528132,False,2,317,sounds\french\audio/french_845.wav,"[[  0.          -4.24220541]
 [  0.1        -33.05758094]
 [  0.2        -22.8575131 ]
 [  0.25666667 -28.52835037]]","[[0.         1.81527349]
 [0.1        0.43145559]
 [0.2        1.45726833]
 [0.25666667 1.38023089]]",1,0.425
4,f,40,english,5,4,english,2024-02-09 19:58:32.528132,False,2,318,sounds\french\audio/french_249.wav,"[[  0.         -14.62389142]
 [  0.1         82.35169727]
 [  0.2        -37.79288698]
 [  0.25666667 -94.5306765 ]]","[[0.         0.54824935]
 [0.1        0.81625332]
 [0.2        0.28914805]
 [0.25666667 0.43241605]]",0,0.31
4,f,40,english,5,4,english,2024-02-09 19:58:32.528132,False,2,319,sounds\french\audio/french_263.wav,"[[  0.          25.02930943]
 [  0.1         77.59070044]
 [  0.2         61.13366196]
 [  0.25666667 -46.58539851]]","[[0.         0.29249845]
 [0.1        1.82268286]
 [0.2        0.69638669]
 [0.25666667 0.57279137]]",0,1.819
4,f,40,english,5,4,english,2024-02-09 19:58:32.528132,False,2,320,sounds\french\audio/french_744.wav,"[[  0.          20.71284991]
 [  0.1         43.41893938]
 [  0.2         65.94530402]
 [  0.25666667 -59.234779  ]]","[[0.         1.22360564]
 [0.1        1.58460028]
 [0.2        0.38406236]
 [0.25666667 0.69273959]]",0,0.323
4,f,40,english,5,4,english,2024-02-09 19:58:32.528132,False,2,321,sounds\french\audio/french_824.wav,"[[  0.          95.58094713]
 [  0.1        -47.05258515]
 [  0.2         43.18521816]
 [  0.25666667  -5.69582576]]","[[0.         1.84230129]
 [0.1        1.74244762]
 [0.2        1.04703492]
 [0.25666667 0.75358401]]",0,0.456
4,f,40,english,5,4,english,2024-02-09 19:58:32.528132,False,2,322,sounds\french\audio/french_105.wav,"[[  0.         -23.09315354]
 [  0.1        -46.9361669 ]
 [  0.2         -8.58781729]
 [  0.25666667  56.68271074]]","[[0.         0.81757602]
 [0.1        0.98193048]
 [0.2        1.53786831]
 [0.25666667 0.84600103]]",0,1.191
4,f,40,english,5,4,english,2024-02-09 19:58:32.528132,False,2,323,sounds\french\audio/french_410.wav,"[[  0.         -57.70995681]
 [  0.1         48.77026686]
 [  0.2        -48.38648813]
 [  0.25666667  53.40375253]]","[[0.         0.42078672]
 [0.1        1.91428116]
 [0.2        0.69257086]
 [0.25666667 1.23009328]]",0,0.358
4,f,40,english,5,4,english,2024-02-09 19:58:32.528132,False,2,324,sounds\french\audio/french_640.wav,"[[  0.         -15.56807975]
 [  0.1         54.79262645]
 [  0.2        -80.20485071]
 [  0.25666667 -47.69326323]]","[[0.         1.93294171]
 [0.1        1.3982646 ]
 [0.2        1.35271381]
 [0.25666667 0.1240569 ]]",0,0.291
4,f,40,english,5,4,english,2024-02-09 19:58:32.528132,False,2,325,sounds\french\audio/french_890.wav,"[[  0.          17.48321345]
 [  0.1        -18.95749083]
 [  0.2          0.74707456]
 [  0.25666667  92.62024404]]","[[0.         1.85587598]
 [0.1        0.79262665]
 [0.2        0.19694232]
 [0.25666667 1.22282027]]",1,1.02
4,f,40,english,5,4,english,2024-02-09 19:58:32.528132,False,2,326,sounds\french\audio/french_45.wav,"[[  0.           6.51510613]
 [  0.1        -86.25018513]
 [  0.2        -60.46903131]
 [  0.25666667 -48.31089161]]","[[0.         0.83763225]
 [0.1        1.19709151]
 [0.2        0.87484565]
 [0.25666667 0.45414185]]",0,0.528
4,f,40,english,5,4,english,2024-02-09 19:58:32.528132,False,2,327,sounds\french\audio/french_129.wav,"[[  0.          13.25855459]
 [  0.1        -92.03942204]
 [  0.2         62.50888813]
 [  0.25666667  39.35321197]]","[[0.         0.8608045 ]
 [0.1        1.75332116]
 [0.2        0.44840231]
 [0.25666667 1.56291845]]",0,0.336
4,f,40,english,5,4,english,2024-02-09 19:58:32.528132,False,2,328,sounds\french\audio/french_764.wav,"[[  0.          -8.95969579]
 [  0.1          5.11158076]
 [  0.2          3.7358826 ]
 [  0.25666667 -14.74224302]]","[[0.         0.46272501]
 [0.1        1.84250995]
 [0.2        0.71585727]
 [0.25666667 0.58101627]]",0,0.277
4,f,40,english,5,4,english,2024-02-09 19:58:32.528132,False,2,329,sounds\french\audio/french_461.wav,"[[  0.          76.34817382]
 [  0.1          2.37579461]
 [  0.2        -59.90047781]
 [  0.25666667  20.08623444]]","[[0.         0.72953599]
 [0.1        1.5415695 ]
 [0.2        1.01078515]
 [0.25666667 1.02737445]]",0,0.917
4,f,40,english,5,4,english,2024-02-09 19:58:32.528132,False,2,330,sounds\french\audio/french_131.wav,"[[  0.          55.95469812]
 [  0.1        -96.48122085]
 [  0.2        -45.26115565]
 [  0.25666667  97.10583427]]","[[0.         0.7326606 ]
 [0.1        0.77747938]
 [0.2        1.02132862]
 [0.25666667 0.34109041]]",0,1.972
4,f,40,english,5,4,english,2024-02-09 19:58:32.528132,False,2,331,sounds\french\audio/french_715.wav,"[[  0.          89.89167485]
 [  0.1         47.15597215]
 [  0.2         44.59513653]
 [  0.25666667 -32.08567965]]","[[0.         1.90551341]
 [0.1        0.2376049 ]
 [0.2        0.03260857]
 [0.25666667 1.14470607]]",1,0.7
4,f,40,english,5,4,english,2024-02-09 19:58:32.528132,False,2,332,sounds\french\audio/french_903.wav,"[[  0.         -17.08871031]
 [  0.1         52.87150714]
 [  0.2        -46.35078868]
 [  0.25666667  67.27089244]]","[[0.         0.50691937]
 [0.1        1.06902364]
 [0.2        1.77440634]
 [0.25666667 0.5573406 ]]",0,0.584
4,f,40,english,5,4,english,2024-02-09 19:58:32.528132,False,2,333,sounds\french\audio/french_990.wav,"[[  0.          31.68812365]
 [  0.1        -82.48323459]
 [  0.2         39.0525666 ]
 [  0.25666667 -59.77120272]]","[[0.         0.81704568]
 [0.1        1.80008391]
 [0.2        1.73012532]
 [0.25666667 0.71793452]]",0,0.316
4,f,40,english,5,4,english,2024-02-09 19:58:32.528132,False,2,334,sounds\french\audio/french_283.wav,"[[  0.         -64.67390185]
 [  0.1        -52.2885083 ]
 [  0.2         -2.48451861]
 [  0.25666667  93.33276384]]","[[0.         0.75223446]
 [0.1        1.37092025]
 [0.2        0.62475046]
 [0.25666667 1.20947012]]",0,0.298
4,f,40,english,5,4,english,2024-02-09 19:58:32.528132,False,2,335,sounds\french\audio/french_645.wav,"[[  0.          39.28095882]
 [  0.1         36.97709506]
 [  0.2        -20.56368862]
 [  0.25666667  45.13755494]]","[[0.         1.44479402]
 [0.1        1.97267477]
 [0.2        0.33303832]
 [0.25666667 0.87530899]]",0,0.54
4,f,40,english,5,4,english,2024-02-09 19:58:32.528132,False,2,336,sounds\french\audio/french_280.wav,"[[  0.         -67.41100242]
 [  0.1         -0.65291527]
 [  0.2        -45.07946214]
 [  0.25666667 -37.24252155]]","[[0.         0.87165921]
 [0.1        0.40210454]
 [0.2        0.8560963 ]
 [0.25666667 1.09108247]]",0,0.271
4,f,40,english,5,4,english,2024-02-09 19:58:32.528132,False,2,337,sounds\french\audio/french_234.wav,"[[  0.          40.80444991]
 [  0.1        -12.8326651 ]
 [  0.2         35.77292413]
 [  0.25666667  70.48005605]]","[[0.         0.6735757 ]
 [0.1        0.4328315 ]
 [0.2        1.793606  ]
 [0.25666667 0.88572041]]",0,0.358
4,f,40,english,5,4,english,2024-02-09 19:58:32.528132,False,2,338,sounds\french\audio/french_934.wav,"[[  0.          -9.72159443]
 [  0.1        -11.38125641]
 [  0.2        -15.93762726]
 [  0.25666667 -19.962769  ]]","[[0.         1.08583672]
 [0.1        0.99463139]
 [0.2        1.46206623]
 [0.25666667 1.59629023]]",0,0.105
4,f,40,english,5,4,english,2024-02-09 19:58:32.528132,False,2,339,sounds\french\audio/french_162.wav,"[[  0.         -20.03052962]
 [  0.1        -35.11860261]
 [  0.2         20.80868131]
 [  0.25666667  50.74802705]]","[[0.         1.70466969]
 [0.1        0.77666831]
 [0.2        1.88915568]
 [0.25666667 1.69994842]]",0,0.419
4,f,40,english,5,4,english,2024-02-09 19:58:32.528132,False,2,340,sounds\french\audio/french_230.wav,"[[  0.         -41.35992563]
 [  0.1         43.67449439]
 [  0.2         25.98311508]
 [  0.25666667 -21.63443629]]","[[0.         1.74508263]
 [0.1        0.13993269]
 [0.2        0.94473259]
 [0.25666667 1.52757814]]",0,0.206
4,f,40,english,5,4,english,2024-02-09 19:58:32.528132,False,2,341,sounds\french\audio/french_523.wav,"[[  0.         -20.54401218]
 [  0.1        -64.61887171]
 [  0.2        -56.67652055]
 [  0.25666667 -29.90055738]]","[[0.         1.01178449]
 [0.1        1.79283511]
 [0.2        0.92711934]
 [0.25666667 1.0186138 ]]",0,0.547
4,f,40,english,5,4,english,2024-02-09 19:58:32.528132,False,2,342,sounds\french\audio/french_563.wav,"[[  0.           1.48089244]
 [  0.1         19.03426996]
 [  0.2        -28.07832236]
 [  0.25666667  33.25369521]]","[[0.         0.83142925]
 [0.1        1.65727988]
 [0.2        1.36487064]
 [0.25666667 0.18463038]]",0,0.256
4,f,40,english,5,4,english,2024-02-09 19:58:32.528132,False,2,343,sounds\french\audio/french_468.wav,"[[  0.          62.98081683]
 [  0.1        -56.79667237]
 [  0.2         16.07172023]
 [  0.25666667  67.64788087]]","[[0.         0.39126421]
 [0.1        1.86845908]
 [0.2        0.61680923]
 [0.25666667 0.75086704]]",0,0.239
4,f,40,english,5,4,english,2024-02-09 19:58:32.528132,False,2,344,sounds\french\audio/french_116.wav,"[[  0.          79.79090537]
 [  0.1        -16.04583445]
 [  0.2         31.94743211]
 [  0.25666667  81.27397215]]","[[0.         0.91211254]
 [0.1        0.43560368]
 [0.2        0.92781712]
 [0.25666667 0.62795331]]",0,0.209
4,f,40,english,5,4,english,2024-02-09 19:58:32.528132,False,2,345,sounds\french\audio/french_813.wav,"[[  0.         -37.07388554]
 [  0.1         74.87893645]
 [  0.2        -91.66198227]
 [  0.25666667  81.38219901]]","[[0.         0.1380457 ]
 [0.1        0.44333359]
 [0.2        0.5462976 ]
 [0.25666667 1.94163826]]",0,0.217
4,f,40,english,5,4,english,2024-02-09 19:58:32.528132,False,2,346,sounds\french\audio/french_761.wav,"[[  0.         -26.32638144]
 [  0.1         78.13411122]
 [  0.2         -6.36477673]
 [  0.25666667 -77.19672863]]","[[0.         1.05429599]
 [0.1        0.90631559]
 [0.2        1.36732306]
 [0.25666667 0.83755281]]",0,0.346
4,f,40,english,5,4,english,2024-02-09 19:58:32.528132,False,2,347,sounds\french\audio/french_121.wav,"[[  0.          35.32035933]
 [  0.1        -67.07725169]
 [  0.2         83.36951387]
 [  0.25666667  37.65048559]]","[[0.         0.75756688]
 [0.1        1.37771724]
 [0.2        1.17860501]
 [0.25666667 1.25500134]]",0,0.082
4,f,40,english,5,4,english,2024-02-09 19:58:32.528132,False,2,348,sounds\french\audio/french_113.wav,"[[  0.           0.51528889]
 [  0.1         31.38938416]
 [  0.2        -56.71204584]
 [  0.25666667  95.05763822]]","[[0.         0.39555504]
 [0.1        1.50115078]
 [0.2        1.00732686]
 [0.25666667 0.59062761]]",0,0.354
4,f,40,english,5,4,english,2024-02-09 19:58:32.528132,False,2,349,sounds\french\audio/french_194.wav,"[[  0.          82.45325258]
 [  0.1         88.9094727 ]
 [  0.2        -44.07936747]
 [  0.25666667  97.80970813]]","[[0.         0.54112087]
 [0.1        0.47601939]
 [0.2        1.71905709]
 [0.25666667 1.16289195]]",0,0.337
4,f,40,english,5,4,english,2024-02-09 19:58:32.528132,False,2,350,sounds\french\audio/french_616.wav,"[[  0.         -51.21021188]
 [  0.1         59.33159463]
 [  0.2         -4.53011914]
 [  0.25666667   5.92531861]]","[[0.         1.78160172]
 [0.1        1.44809064]
 [0.2        1.29942812]
 [0.25666667 0.36849944]]",0,0.7
4,f,40,english,5,4,english,2024-02-09 19:58:32.528132,False,2,351,sounds\french\audio/french_940.wav,"[[  0.          60.64207397]
 [  0.1        -16.07257124]
 [  0.2        -38.93693506]
 [  0.25666667 -22.19838027]]","[[0.         1.38818271]
 [0.1        1.64047706]
 [0.2        1.31963125]
 [0.25666667 1.73227719]]",0,0.431
4,f,40,english,5,4,english,2024-02-09 19:58:32.528132,False,2,352,sounds\french\audio/french_597.wav,"[[  0.          78.21673508]
 [  0.1         48.44931265]
 [  0.2         -9.21876948]
 [  0.25666667 -95.47680095]]","[[0.         0.32061172]
 [0.1        1.01687051]
 [0.2        0.22158162]
 [0.25666667 0.62073139]]",0,0.216
4,f,40,english,5,4,english,2024-02-09 19:58:32.528132,False,2,353,sounds\french\audio/french_326.wav,"[[  0.         -63.35446608]
 [  0.1         12.54179258]
 [  0.2          2.59324468]
 [  0.25666667  34.92537359]]","[[0.         1.54071776]
 [0.1        0.67448432]
 [0.2        0.56210636]
 [0.25666667 1.5196438 ]]",0,0.241
4,f,40,english,5,4,english,2024-02-09 19:58:32.528132,False,2,354,sounds\french\audio/french_110.wav,"[[  0.          14.8960744 ]
 [  0.1        -82.02762151]
 [  0.2         66.91383722]
 [  0.25666667 -78.07836064]]","[[0.         1.68730737]
 [0.1        1.03733778]
 [0.2        1.59061665]
 [0.25666667 0.49489255]]",0,0.278
4,f,40,english,5,4,english,2024-02-09 19:58:32.528132,False,2,355,sounds\french\audio/french_811.wav,"[[  0.          35.12158591]
 [  0.1          4.09145181]
 [  0.2        -79.3353891 ]
 [  0.25666667 -59.5865152 ]]","[[0.         1.63803033]
 [0.1        0.91441893]
 [0.2        1.53056324]
 [0.25666667 1.20408751]]",0,0.615
4,f,40,english,5,4,english,2024-02-09 19:58:32.528132,False,2,356,sounds\french\audio/french_990.wav,"[[  0.          31.68812365]
 [  0.1        -82.48323459]
 [  0.2         39.0525666 ]
 [  0.25666667 -59.77120272]]","[[0.         0.81704568]
 [0.1        1.80008391]
 [0.2        1.73012532]
 [0.25666667 0.71793452]]",0,0.344
4,f,40,english,5,4,english,2024-02-09 19:58:32.528132,False,2,357,sounds\french\audio/french_404.wav,"[[  0.         -69.94435752]
 [  0.1        -71.78209065]
 [  0.2          1.54660235]
 [  0.25666667 -64.99062427]]","[[0.         1.52233517]
 [0.1        0.64310095]
 [0.2        1.70982079]
 [0.25666667 0.43662649]]",0,0.146
4,f,40,english,5,4,english,2024-02-09 19:58:32.528132,False,2,358,sounds\french\audio/french_539.wav,"[[  0.         -25.67038427]
 [  0.1         48.64308398]
 [  0.2        -77.82337419]
 [  0.25666667 -42.20378119]]","[[0.         1.25415191]
 [0.1        1.80742897]
 [0.2        1.66801057]
 [0.25666667 0.618258  ]]",0,3.237
4,f,40,english,5,4,english,2024-02-09 19:58:32.528132,False,2,359,sounds\french\audio/french_35.wav,"[[  0.         -91.9197252 ]
 [  0.1        -51.10479589]
 [  0.2        -15.74458639]
 [  0.25666667 -11.36352661]]","[[0.         1.92941129]
 [0.1        1.66263878]
 [0.2        0.60493147]
 [0.25666667 1.17557979]]",0,0.486
4,f,40,english,5,4,english,2024-02-09 19:58:32.528132,False,2,360,sounds\french\audio/french_194.wav,"[[  0.          82.45325258]
 [  0.1         88.9094727 ]
 [  0.2        -44.07936747]
 [  0.25666667  97.80970813]]","[[0.         0.54112087]
 [0.1        0.47601939]
 [0.2        1.71905709]
 [0.25666667 1.16289195]]",0,0.411
4,f,40,english,5,4,english,2024-02-09 19:58:32.528132,False,2,361,sounds\french\audio/french_572.wav,"[[  0.          39.88309013]
 [  0.1        -96.79862589]
 [  0.2        -22.12237888]
 [  0.25666667 -29.01009828]]","[[0.         1.43577141]
 [0.1        0.70754044]
 [0.2        0.13254452]
 [0.25666667 0.2743676 ]]",0,0.348
4,f,40,english,5,4,english,2024-02-09 19:58:32.528132,False,2,362,sounds\french\audio/french_685.wav,"[[  0.         -62.74714371]
 [  0.1         48.52467862]
 [  0.2          4.749694  ]
 [  0.25666667  88.03032973]]","[[0.         1.57330944]
 [0.1        1.34151114]
 [0.2        0.18097188]
 [0.25666667 0.30113467]]",0,0.453
4,f,40,english,5,4,english,2024-02-09 19:58:32.528132,False,2,363,sounds\french\audio/french_7.wav,"[[  0.         -71.02833311]
 [  0.1        -12.38691322]
 [  0.2        -62.8930846 ]
 [  0.25666667  27.53159518]]","[[0.         1.79953402]
 [0.1        1.89065694]
 [0.2        0.59849277]
 [0.25666667 0.94237915]]",0,0.32
4,f,40,english,5,4,english,2024-02-09 19:58:32.528132,False,2,364,sounds\french\audio/french_457.wav,"[[ 0.         42.86960152]
 [ 0.1        79.85160671]
 [ 0.2        98.12255829]
 [ 0.25666667 78.01153847]]","[[0.         1.10156515]
 [0.1        0.90608198]
 [0.2        0.87189229]
 [0.25666667 1.12024719]]",0,0.299
4,f,40,english,5,4,english,2024-02-09 19:58:32.528132,False,2,365,sounds\french\audio/french_321.wav,"[[  0.         -11.01764706]
 [  0.1          9.90480799]
 [  0.2         44.10153768]
 [  0.25666667  10.91862898]]","[[0.         1.39443046]
 [0.1        1.51913173]
 [0.2        0.74961169]
 [0.25666667 1.74221707]]",0,0.337
4,f,40,english,5,4,english,2024-02-09 19:58:32.528132,False,2,366,sounds\french\audio/french_194.wav,"[[  0.          82.45325258]
 [  0.1         88.9094727 ]
 [  0.2        -44.07936747]
 [  0.25666667  97.80970813]]","[[0.         0.54112087]
 [0.1        0.47601939]
 [0.2        1.71905709]
 [0.25666667 1.16289195]]",0,0.209
4,f,40,english,5,4,english,2024-02-09 19:58:32.528132,False,2,367,sounds\french\audio/french_553.wav,"[[  0.          -1.38146628]
 [  0.1        -34.28745567]
 [  0.2          6.87532462]
 [  0.25666667  90.98690029]]","[[0.         0.44011383]
 [0.1        1.14829302]
 [0.2        1.07508961]
 [0.25666667 0.10252166]]",0,0.33
4,f,40,english,5,4,english,2024-02-09 19:58:32.528132,False,2,368,sounds\french\audio/french_52.wav,"[[  0.          77.15950351]
 [  0.1         66.43146777]
 [  0.2         76.85444305]
 [  0.25666667 -69.48513432]]","[[0.         1.06345864]
 [0.1        1.73071791]
 [0.2        1.08790246]
 [0.25666667 0.32336701]]",0,0.224
4,f,40,english,5,4,english,2024-02-09 19:58:32.528132,False,2,369,sounds\french\audio/french_551.wav,"[[  0.         -87.08357851]
 [  0.1         71.56090061]
 [  0.2        -46.55712742]
 [  0.25666667 -57.93002391]]","[[0.         1.2328931 ]
 [0.1        1.28136219]
 [0.2        0.3781059 ]
 [0.25666667 1.42095582]]",0,0.353
4,f,40,english,5,4,english,2024-02-09 19:58:32.528132,False,2,370,sounds\french\audio/french_849.wav,"[[  0.         -28.99181256]
 [  0.1        -23.83365043]
 [  0.2        -51.88410218]
 [  0.25666667 -29.11212869]]","[[0.         1.60316931]
 [0.1        0.33831848]
 [0.2        1.05589654]
 [0.25666667 1.53017224]]",0,0.228
4,f,40,english,5,4,english,2024-02-09 19:58:32.528132,False,2,371,sounds\french\audio/french_64.wav,"[[  0.          -2.85479512]
 [  0.1        -22.43053594]
 [  0.2         99.07991634]
 [  0.25666667  -6.95169827]]","[[0.         1.8205441 ]
 [0.1        0.65122302]
 [0.2        0.54405082]
 [0.25666667 0.02019369]]",0,0.291
4,f,40,english,5,4,english,2024-02-09 19:58:32.528132,False,2,372,sounds\french\audio/french_811.wav,"[[  0.          35.12158591]
 [  0.1          4.09145181]
 [  0.2        -79.3353891 ]
 [  0.25666667 -59.5865152 ]]","[[0.         1.63803033]
 [0.1        0.91441893]
 [0.2        1.53056324]
 [0.25666667 1.20408751]]",0,0.308
4,f,40,english,5,4,english,2024-02-09 19:58:32.528132,False,2,373,sounds\french\audio/french_357.wav,"[[  0.         -39.34197693]
 [  0.1         71.15894406]
 [  0.2        -59.30154436]
 [  0.25666667  60.48174113]]","[[0.         1.60610182]
 [0.1        0.3952593 ]
 [0.2        0.60654741]
 [0.25666667 0.43480054]]",0,0.199
4,f,40,english,5,4,english,2024-02-09 19:58:32.528132,False,2,374,sounds\french\audio/french_793.wav,"[[  0.          24.81509803]
 [  0.1        -63.66512484]
 [  0.2        -35.07665133]
 [  0.25666667  -2.30327069]]","[[0.         0.12690374]
 [0.1        0.60816637]
 [0.2        0.42682998]
 [0.25666667 0.74050477]]",0,0.246
4,f,40,english,5,4,english,2024-02-09 19:58:32.528132,False,2,375,sounds\french\audio/french_37.wav,"[[  0.          74.40318054]
 [  0.1          1.61071593]
 [  0.2        -60.86815184]
 [  0.25666667  35.44737922]]","[[0.         1.78030803]
 [0.1        1.06555703]
 [0.2        0.67417333]
 [0.25666667 1.14925698]]",0,0.544
4,f,40,english,5,4,english,2024-02-09 19:58:32.528132,False,2,376,sounds\french\audio/french_535.wav,"[[  0.         -81.47221285]
 [  0.1         42.68543716]
 [  0.2        -73.81682794]
 [  0.25666667 -85.27887702]]","[[0.         1.61446576]
 [0.1        1.13976105]
 [0.2        0.22032829]
 [0.25666667 0.61620659]]",0,0.457
4,f,40,english,5,4,english,2024-02-09 19:58:32.528132,False,2,377,sounds\french\audio/french_732.wav,"[[  0.         -82.9393053 ]
 [  0.1        -79.22735873]
 [  0.2        -67.09796721]
 [  0.25666667  35.15971491]]","[[0.         0.90840431]
 [0.1        0.47468339]
 [0.2        1.61768905]
 [0.25666667 1.44596926]]",0,0.241
4,f,40,english,5,4,english,2024-02-09 19:58:32.528132,False,2,378,sounds\french\audio/french_485.wav,"[[  0.          49.72116837]
 [  0.1         30.83147643]
 [  0.2         37.98454641]
 [  0.25666667 -93.0468476 ]]","[[0.         1.80184077]
 [0.1        1.80095915]
 [0.2        1.42682554]
 [0.25666667 0.86529676]]",0,1.387
4,f,40,english,5,4,english,2024-02-09 19:58:32.528132,False,2,379,sounds\french\audio/french_594.wav,"[[  0.         -77.17245549]
 [  0.1         -9.42910309]
 [  0.2         28.840902  ]
 [  0.25666667 -27.68960177]]","[[0.         1.803544  ]
 [0.1        1.0387293 ]
 [0.2        1.64762654]
 [0.25666667 0.23150428]]",0,0.3
4,f,40,english,5,4,english,2024-02-09 19:58:32.528132,False,2,380,sounds\french\audio/french_181.wav,"[[  0.          52.63626805]
 [  0.1         57.50479679]
 [  0.2        -83.63706112]
 [  0.25666667  -1.92902825]]","[[0.         0.9763228 ]
 [0.1        1.59974154]
 [0.2        1.01502959]
 [0.25666667 0.93700507]]",0,0.48
4,f,40,english,5,4,english,2024-02-09 19:58:32.528132,False,2,381,sounds\french\audio/french_259.wav,"[[  0.          34.42813613]
 [  0.1         10.6054277 ]
 [  0.2        -13.69189805]
 [  0.25666667 -89.62004192]]","[[0.         0.3045902 ]
 [0.1        0.51228763]
 [0.2        1.00650156]
 [0.25666667 1.73437165]]",0,0.235
4,f,40,english,5,4,english,2024-02-09 19:58:32.528132,False,2,382,sounds\french\audio/french_142.wav,"[[  0.         -47.01050856]
 [  0.1         44.85636852]
 [  0.2         82.74517116]
 [  0.25666667 -74.59675421]]","[[0.         0.88751265]
 [0.1        1.13664387]
 [0.2        0.91175928]
 [0.25666667 0.66352734]]",0,0.788
4,f,40,english,5,4,english,2024-02-09 19:58:32.528132,False,2,383,sounds\french\audio/french_249.wav,"[[  0.         -14.62389142]
 [  0.1         82.35169727]
 [  0.2        -37.79288698]
 [  0.25666667 -94.5306765 ]]","[[0.         0.54824935]
 [0.1        0.81625332]
 [0.2        0.28914805]
 [0.25666667 0.43241605]]",0,1.439
4,f,40,english,5,4,english,2024-02-09 19:58:32.528132,False,2,384,sounds\french\audio/french_461.wav,"[[  0.          76.34817382]
 [  0.1          2.37579461]
 [  0.2        -59.90047781]
 [  0.25666667  20.08623444]]","[[0.         0.72953599]
 [0.1        1.5415695 ]
 [0.2        1.01078515]
 [0.25666667 1.02737445]]",0,0.345
4,f,40,english,5,4,english,2024-02-09 19:58:32.528132,False,2,385,sounds\french\audio/french_229.wav,"[[  0.          17.32899675]
 [  0.1        -73.09434366]
 [  0.2        -24.47190501]
 [  0.25666667  11.45282545]]","[[0.         0.73401758]
 [0.1        0.90990932]
 [0.2        0.8791544 ]
 [0.25666667 1.1872524 ]]",0,0.36
4,f,40,english,5,4,english,2024-02-09 19:58:32.528132,False,2,386,sounds\french\audio/french_522.wav,"[[  0.         -33.95775035]
 [  0.1         -8.89346692]
 [  0.2        -13.71087049]
 [  0.25666667  29.03245504]]","[[0.         0.92167055]
 [0.1        1.03421615]
 [0.2        0.39118917]
 [0.25666667 1.12010972]]",0,0.526
4,f,40,english,5,4,english,2024-02-09 19:58:32.528132,False,2,387,sounds\french\audio/french_230.wav,"[[  0.         -41.35992563]
 [  0.1         43.67449439]
 [  0.2         25.98311508]
 [  0.25666667 -21.63443629]]","[[0.         1.74508263]
 [0.1        0.13993269]
 [0.2        0.94473259]
 [0.25666667 1.52757814]]",0,0.445
4,f,40,english,5,4,english,2024-02-09 19:58:32.528132,False,2,388,sounds\french\audio/french_718.wav,"[[ 0.         60.10154263]
 [ 0.1        11.66591821]
 [ 0.2        18.23831634]
 [ 0.25666667 -0.86268038]]","[[0.         0.48894908]
 [0.1        1.65193902]
 [0.2        1.63024081]
 [0.25666667 0.33166429]]",0,0.693
4,f,40,english,5,4,english,2024-02-09 19:58:32.528132,False,2,389,sounds\french\audio/french_663.wav,"[[  0.           9.26283991]
 [  0.1          8.63416543]
 [  0.2        -94.49816933]
 [  0.25666667 -21.43071833]]","[[0.         1.50228176]
 [0.1        0.75616041]
 [0.2        0.98085129]
 [0.25666667 1.35574544]]",0,0.673
4,f,40,english,5,4,english,2024-02-09 19:58:32.528132,False,2,390,sounds\french\audio/french_841.wav,"[[  0.         -39.25619305]
 [  0.1         99.64346723]
 [  0.2         76.90020667]
 [  0.25666667  40.01429738]]","[[0.         0.53587318]
 [0.1        0.26500163]
 [0.2        1.77796469]
 [0.25666667 0.75111943]]",0,1.688
4,f,40,english,5,4,english,2024-02-09 19:58:32.528132,False,2,391,sounds\french\audio/french_38.wav,"[[  0.          -0.72741882]
 [  0.1         17.06804162]
 [  0.2        -90.47269694]
 [  0.25666667 -46.03968341]]","[[0.         1.73508679]
 [0.1        1.04827054]
 [0.2        0.06966066]
 [0.25666667 1.13213122]]",0,2.264
4,f,40,english,5,4,english,2024-02-09 19:58:32.528132,False,2,392,sounds\french\audio/french_683.wav,"[[  0.          21.98154849]
 [  0.1         59.44126587]
 [  0.2        -51.05687534]
 [  0.25666667  -9.70916743]]","[[0.         0.17421097]
 [0.1        0.03094343]
 [0.2        0.79924543]
 [0.25666667 0.82068176]]",0,0.56
4,f,40,english,5,4,english,2024-02-09 19:58:32.528132,False,2,393,sounds\french\audio/french_637.wav,"[[ 0.         35.81604326]
 [ 0.1        -3.18432816]
 [ 0.2        50.06715701]
 [ 0.25666667 13.82838787]]","[[0.         0.01301393]
 [0.1        0.82513299]
 [0.2        0.10233849]
 [0.25666667 0.87921638]]",0,3.338
4,f,40,english,5,4,english,2024-02-09 19:58:32.528132,False,2,394,sounds\french\audio/french_976.wav,"[[  0.         -70.02335232]
 [  0.1        -61.25816472]
 [  0.2         38.21349803]
 [  0.25666667  27.10323863]]","[[0.         0.30263581]
 [0.1        1.77513966]
 [0.2        0.48920434]
 [0.25666667 1.97348905]]",0,0.529
4,f,40,english,5,4,english,2024-02-09 19:58:32.528132,False,2,395,sounds\french\audio/french_976.wav,"[[  0.         -70.02335232]
 [  0.1        -61.25816472]
 [  0.2         38.21349803]
 [  0.25666667  27.10323863]]","[[0.         0.30263581]
 [0.1        1.77513966]
 [0.2        0.48920434]
 [0.25666667 1.97348905]]",0,0.619
4,f,40,english,5,4,english,2024-02-09 19:58:32.528132,False,2,396,sounds\french\audio/french_94.wav,"[[  0.         -38.18468722]
 [  0.1         61.36042124]
 [  0.2        -21.02312881]
 [  0.25666667 -24.03892562]]","[[0.         1.72805858]
 [0.1        0.90054349]
 [0.2        0.35857958]
 [0.25666667 0.71397413]]",0,0.249
4,f,40,english,5,4,english,2024-02-09 19:58:32.528132,False,2,397,sounds\french\audio/french_110.wav,"[[  0.          14.8960744 ]
 [  0.1        -82.02762151]
 [  0.2         66.91383722]
 [  0.25666667 -78.07836064]]","[[0.         1.68730737]
 [0.1        1.03733778]
 [0.2        1.59061665]
 [0.25666667 0.49489255]]",0,0.342
4,f,40,english,5,4,english,2024-02-09 19:58:32.528132,False,2,398,sounds\french\audio/french_200.wav,"[[  0.         -10.65818699]
 [  0.1         -8.96413357]
 [  0.2        -78.89627616]
 [  0.25666667   8.01745362]]","[[0.         0.95052916]
 [0.1        0.11424824]
 [0.2        1.718039  ]
 [0.25666667 1.42690066]]",0,0.35
4,f,40,english,5,4,english,2024-02-09 19:58:32.528132,False,2,399,sounds\french\audio/french_169.wav,"[[  0.          14.47590961]
 [  0.1         38.07545665]
 [  0.2        -50.40298695]
 [  0.25666667  25.61467991]]","[[0.         1.38784349]
 [0.1        1.28983767]
 [0.2        0.58936297]
 [0.25666667 0.49151359]]",0,0.724
4,f,40,english,5,4,english,2024-02-09 19:58:32.528132,False,2,400,sounds\french\audio/french_386.wav,"[[  0.          50.68041389]
 [  0.1         19.37586599]
 [  0.2          0.19752764]
 [  0.25666667 -78.73875249]]","[[0.         0.75883449]
 [0.1        1.33167931]
 [0.2        0.89836148]
 [0.25666667 0.64515466]]",0,0.463
4,f,40,english,5,4,english,2024-02-09 19:58:32.528132,False,2,401,sounds\french\audio/french_674.wav,"[[  0.          36.8658398 ]
 [  0.1        -70.55199619]
 [  0.2         -3.70121723]
 [  0.25666667  30.12615154]]","[[0.         0.63817569]
 [0.1        1.9135219 ]
 [0.2        1.96782527]
 [0.25666667 0.86862342]]",0,0.529
4,f,40,english,5,4,english,2024-02-09 19:58:32.528132,False,2,402,sounds\french\audio/french_86.wav,"[[  0.         -13.34839912]
 [  0.1         -0.15074382]
 [  0.2         25.45831569]
 [  0.25666667  48.27326553]]","[[0.         1.5394535 ]
 [0.1        0.88064418]
 [0.2        1.66652907]
 [0.25666667 0.20293469]]",0,0.721
4,f,40,english,5,4,english,2024-02-09 19:58:32.528132,False,2,403,sounds\french\audio/french_767.wav,"[[  0.          91.79298807]
 [  0.1        -10.9319541 ]
 [  0.2        -18.13246944]
 [  0.25666667  -6.11346908]]","[[0.         1.15796888]
 [0.1        0.37743288]
 [0.2        1.06132115]
 [0.25666667 0.41668969]]",0,0.504
4,f,40,english,5,4,english,2024-02-09 19:58:32.528132,False,2,404,sounds\french\audio/french_583.wav,"[[  0.          54.77106994]
 [  0.1        -91.79725644]
 [  0.2         19.12152033]
 [  0.25666667  80.05255959]]","[[0.         0.72700192]
 [0.1        1.43459804]
 [0.2        0.59283069]
 [0.25666667 1.58166394]]",1,1.747
4,f,40,english,5,4,english,2024-02-09 19:58:32.528132,False,2,405,sounds\french\audio/french_993.wav,"[[  0.           3.12847982]
 [  0.1        -78.95304083]
 [  0.2        -13.84245357]
 [  0.25666667  66.66979397]]","[[0.         1.75015027]
 [0.1        0.83743251]
 [0.2        0.53594991]
 [0.25666667 1.46895698]]",0,0.64
4,f,40,english,5,4,english,2024-02-09 19:58:32.528132,False,2,406,sounds\french\audio/french_882.wav,"[[  0.         -76.64131244]
 [  0.1        -39.91871486]
 [  0.2        -10.31613543]
 [  0.25666667  20.39966841]]","[[0.         0.67668261]
 [0.1        0.28498495]
 [0.2        0.59130788]
 [0.25666667 1.12904738]]",0,1.168
4,f,40,english,5,4,english,2024-02-09 19:58:32.528132,False,2,407,sounds\french\audio/french_771.wav,"[[  0.         -31.32443984]
 [  0.1          2.91896775]
 [  0.2         73.75563113]
 [  0.25666667  61.27629387]]","[[0.         0.10443369]
 [0.1        0.0162425 ]
 [0.2        0.96029425]
 [0.25666667 1.26482275]]",0,1.013
4,f,40,english,5,4,english,2024-02-09 19:58:32.528132,False,2,408,sounds\french\audio/french_859.wav,"[[  0.          52.92786792]
 [  0.1         18.54274392]
 [  0.2        -25.06242892]
 [  0.25666667   0.70946668]]","[[0.         1.14238893]
 [0.1        1.12707434]
 [0.2        1.93999144]
 [0.25666667 1.31682519]]",0,0.516
4,f,40,english,5,4,english,2024-02-09 19:58:32.528132,False,2,409,sounds\french\audio/french_987.wav,"[[ 0.         29.59235099]
 [ 0.1        34.94187385]
 [ 0.2        50.69614072]
 [ 0.25666667 30.08512425]]","[[0.         0.62183529]
 [0.1        0.21370909]
 [0.2        0.33639435]
 [0.25666667 1.23768731]]",0,0.84
4,f,40,english,5,4,english,2024-02-09 19:58:32.528132,False,2,410,sounds\french\audio/french_218.wav,"[[  0.          50.58163299]
 [  0.1        -62.47432707]
 [  0.2        -11.24403131]
 [  0.25666667 -76.23808147]]","[[0.         1.39700525]
 [0.1        0.24728847]
 [0.2        1.10420939]
 [0.25666667 0.34157158]]",0,0.666
4,f,40,english,5,4,english,2024-02-09 19:58:32.528132,False,2,411,sounds\french\audio/french_308.wav,"[[  0.          10.28514005]
 [  0.1        -39.60290217]
 [  0.2         99.30719553]
 [  0.25666667  64.43745932]]","[[0.         0.92806529]
 [0.1        0.73191769]
 [0.2        0.07740888]
 [0.25666667 0.80481059]]",0,0.331
4,f,40,english,5,4,english,2024-02-09 19:58:32.528132,False,2,412,sounds\french\audio/french_673.wav,"[[ 0.         97.1433432 ]
 [ 0.1         1.59516127]
 [ 0.2        27.02161491]
 [ 0.25666667 62.92522021]]","[[0.         1.2603    ]
 [0.1        0.42137615]
 [0.2        0.87652171]
 [0.25666667 1.1230089 ]]",0,0.267
4,f,40,english,5,4,english,2024-02-09 19:58:32.528132,False,2,413,sounds\french\audio/french_449.wav,"[[  0.          49.95404734]
 [  0.1        -42.73933853]
 [  0.2         16.44287486]
 [  0.25666667 -12.34539139]]","[[0.         0.88379096]
 [0.1        1.13878319]
 [0.2        0.43325684]
 [0.25666667 0.01727343]]",0,0.609
4,f,40,english,5,4,english,2024-02-09 19:58:32.528132,False,2,414,sounds\french\audio/french_407.wav,"[[  0.         -57.6292462 ]
 [  0.1        -25.10683904]
 [  0.2         13.09742102]
 [  0.25666667  -8.98604593]]","[[0.         1.8651924 ]
 [0.1        1.55880725]
 [0.2        1.30220718]
 [0.25666667 1.55663467]]",0,0.405
4,f,40,english,5,4,english,2024-02-09 19:58:32.528132,False,2,415,sounds\french\audio/french_269.wav,"[[  0.          34.85044548]
 [  0.1         47.51511781]
 [  0.2         34.15302515]
 [  0.25666667 -55.0259295 ]]","[[0.00000000e+00 6.17924031e-04]
 [1.00000000e-01 1.05540646e+00]
 [2.00000000e-01 9.84234213e-01]
 [2.56666667e-01 8.45106618e-01]]",0,0.461
4,f,40,english,5,4,english,2024-02-09 19:58:32.528132,False,2,416,sounds\french\audio/french_62.wav,"[[  0.         -14.31975686]
 [  0.1         44.56193131]
 [  0.2        -86.7672378 ]
 [  0.25666667  88.73328565]]","[[0.         0.1654928 ]
 [0.1        0.95189119]
 [0.2        0.13775192]
 [0.25666667 1.69441392]]",0,1.069
4,f,40,english,5,4,english,2024-02-09 19:58:32.528132,False,2,417,sounds\french\audio/french_718.wav,"[[ 0.         60.10154263]
 [ 0.1        11.66591821]
 [ 0.2        18.23831634]
 [ 0.25666667 -0.86268038]]","[[0.         0.48894908]
 [0.1        1.65193902]
 [0.2        1.63024081]
 [0.25666667 0.33166429]]",0,1.063
4,f,40,english,5,4,english,2024-02-09 19:58:32.528132,False,2,418,sounds\french\audio/french_574.wav,"[[  0.         -78.43657591]
 [  0.1         25.16959944]
 [  0.2         42.97785019]
 [  0.25666667  77.36764491]]","[[0.         1.27247015]
 [0.1        0.78898338]
 [0.2        1.49121094]
 [0.25666667 0.68004104]]",0,0.234
4,f,40,english,5,4,english,2024-02-09 19:58:32.528132,False,2,419,sounds\french\audio/french_472.wav,"[[  0.          -9.46806957]
 [  0.1         45.81973918]
 [  0.2        -32.95266456]
 [  0.25666667 -10.56557549]]","[[0.         0.85855516]
 [0.1        1.60383991]
 [0.2        0.80244772]
 [0.25666667 1.48234138]]",0,0.326
4,f,40,english,5,4,english,2024-02-09 19:58:32.528132,False,2,420,sounds\french\audio/french_32.wav,"[[  0.         -95.97477456]
 [  0.1        -25.31572866]
 [  0.2        -25.0492654 ]
 [  0.25666667 -74.56689772]]","[[0.         1.5242089 ]
 [0.1        0.2047991 ]
 [0.2        1.11388434]
 [0.25666667 1.18772321]]",0,0.257
4,f,40,english,5,4,english,2024-02-09 19:58:32.528132,False,2,421,sounds\french\audio/french_869.wav,"[[  0.         -95.34423084]
 [  0.1         11.03315758]
 [  0.2          2.57990287]
 [  0.25666667  46.09103516]]","[[0.         1.39498671]
 [0.1        1.3153684 ]
 [0.2        1.42717997]
 [0.25666667 1.20642508]]",0,0.312
4,f,40,english,5,4,english,2024-02-09 19:58:32.528132,False,2,422,sounds\french\audio/french_590.wav,"[[  0.         -77.28287391]
 [  0.1        -59.34931175]
 [  0.2        -59.15957395]
 [  0.25666667  88.90935082]]","[[0.         1.10563408]
 [0.1        0.27897949]
 [0.2        1.42245938]
 [0.25666667 0.18524725]]",0,1.304
4,f,40,english,5,4,english,2024-02-09 19:58:32.528132,False,2,423,sounds\french\audio/french_610.wav,"[[  0.          41.67803598]
 [  0.1         50.6586837 ]
 [  0.2        -85.20353251]
 [  0.25666667 -12.88596769]]","[[0.         0.10564039]
 [0.1        1.22556883]
 [0.2        1.48633574]
 [0.25666667 1.12124299]]",0,0.271
4,f,40,english,5,4,english,2024-02-09 19:58:32.528132,False,2,424,sounds\french\audio/french_591.wav,"[[  0.           2.66615607]
 [  0.1        -24.26502045]
 [  0.2        -31.81388833]
 [  0.25666667  34.70768216]]","[[0.         1.05020949]
 [0.1        0.55521736]
 [0.2        0.20807215]
 [0.25666667 1.08119284]]",0,0.517
4,f,40,english,5,4,english,2024-02-09 19:58:32.528132,False,2,425,sounds\french\audio/french_212.wav,"[[  0.         -65.85125812]
 [  0.1          4.72891676]
 [  0.2         52.80654505]
 [  0.25666667  75.91927134]]","[[0.         0.99084671]
 [0.1        1.71951251]
 [0.2        1.56745001]
 [0.25666667 1.70119676]]",0,0.311
4,f,40,english,5,4,english,2024-02-09 19:58:32.528132,False,2,426,sounds\french\audio/french_576.wav,"[[  0.         -77.18723008]
 [  0.1         32.49939157]
 [  0.2        -11.29964886]
 [  0.25666667  24.65334735]]","[[0.         1.93193878]
 [0.1        0.06461953]
 [0.2        0.24702868]
 [0.25666667 1.68209329]]",0,0.439
4,f,40,english,5,4,english,2024-02-09 19:58:32.528132,False,2,427,sounds\french\audio/french_171.wav,"[[ 0.         13.3023016 ]
 [ 0.1        25.29505215]
 [ 0.2        -4.58061697]
 [ 0.25666667 34.76288366]]","[[0.         1.00497926]
 [0.1        0.58011724]
 [0.2        1.99843941]
 [0.25666667 1.29013512]]",0,0.303
4,f,40,english,5,4,english,2024-02-09 19:58:32.528132,False,2,428,sounds\french\audio/french_612.wav,"[[  0.          43.10783066]
 [  0.1         -4.14995098]
 [  0.2         22.17563662]
 [  0.25666667 -48.75850842]]","[[0.         0.49686358]
 [0.1        1.10500502]
 [0.2        0.22222502]
 [0.25666667 1.14111641]]",0,0.273
4,f,40,english,5,4,english,2024-02-09 19:58:32.528132,False,2,429,sounds\french\audio/french_905.wav,"[[  0.          87.86620346]
 [  0.1         17.88859649]
 [  0.2         51.58456374]
 [  0.25666667 -98.76806622]]","[[0.         1.28585996]
 [0.1        0.57714405]
 [0.2        0.3219524 ]
 [0.25666667 1.69480445]]",0,0.257
4,f,40,english,5,4,english,2024-02-09 19:58:32.528132,False,2,430,sounds\french\audio/french_904.wav,"[[  0.          -3.33486868]
 [  0.1        -72.00110742]
 [  0.2         32.54458222]
 [  0.25666667  13.13318907]]","[[0.         1.84649441]
 [0.1        1.91186975]
 [0.2        0.71589927]
 [0.25666667 0.21658524]]",0,1.124
4,f,40,english,5,4,english,2024-02-09 19:58:32.528132,False,2,431,sounds\french\audio/french_661.wav,"[[  0.          34.1047988 ]
 [  0.1        -45.42737183]
 [  0.2        -32.96226792]
 [  0.25666667  51.87575508]]","[[0.         1.29957539]
 [0.1        0.81809843]
 [0.2        1.39938296]
 [0.25666667 1.33634107]]",0,0.475
4,f,40,english,5,4,english,2024-02-09 19:58:32.528132,False,2,432,sounds\french\audio/french_540.wav,"[[  0.          64.41538276]
 [  0.1         17.02048616]
 [  0.2        -33.22379056]
 [  0.25666667   6.66749413]]","[[0.         0.51709462]
 [0.1        1.30376576]
 [0.2        0.40148031]
 [0.25666667 1.14865781]]",0,0.509
4,f,40,english,5,4,english,2024-02-09 19:58:32.528132,False,2,433,sounds\french\audio/french_329.wav,"[[  0.          14.6954169 ]
 [  0.1        -60.61079034]
 [  0.2        -27.52715396]
 [  0.25666667 -71.65343532]]","[[0.         0.80369944]
 [0.1        1.40829285]
 [0.2        0.22971006]
 [0.25666667 0.37653007]]",0,1.83
4,f,40,english,5,4,english,2024-02-09 19:58:32.528132,False,2,434,sounds\french\audio/french_942.wav,"[[  0.         -53.20970077]
 [  0.1        -81.68739914]
 [  0.2         39.47129185]
 [  0.25666667 -77.13084916]]","[[0.         1.55725844]
 [0.1        1.2093944 ]
 [0.2        0.05517711]
 [0.25666667 1.56672295]]",0,4.258
4,f,40,english,5,4,english,2024-02-09 19:58:32.528132,False,2,435,sounds\french\audio/french_649.wav,"[[  0.         -26.84796804]
 [  0.1         90.50092835]
 [  0.2        -42.32642697]
 [  0.25666667  -6.05454316]]","[[0.         0.38564107]
 [0.1        0.07645681]
 [0.2        0.18898029]
 [0.25666667 0.88659006]]",1,1.855
4,f,40,english,5,4,english,2024-02-09 19:58:32.528132,False,2,436,sounds\french\audio/french_289.wav,"[[  0.         -36.76000605]
 [  0.1         10.32506406]
 [  0.2        -63.16699613]
 [  0.25666667  44.4452875 ]]","[[0.         0.0295717 ]
 [0.1        0.30354321]
 [0.2        0.64873245]
 [0.25666667 1.33679234]]",1,1.199
4,f,40,english,5,4,english,2024-02-09 19:58:32.528132,False,2,437,sounds\french\audio/french_609.wav,"[[  0.          11.6890167 ]
 [  0.1        -35.50971605]
 [  0.2        -98.47760025]
 [  0.25666667 -64.00925784]]","[[0.         1.75568789]
 [0.1        1.50542158]
 [0.2        0.96032408]
 [0.25666667 1.1186533 ]]",0,0.343
4,f,40,english,5,4,english,2024-02-09 19:58:32.528132,False,2,438,sounds\french\audio/french_386.wav,"[[  0.          50.68041389]
 [  0.1         19.37586599]
 [  0.2          0.19752764]
 [  0.25666667 -78.73875249]]","[[0.         0.75883449]
 [0.1        1.33167931]
 [0.2        0.89836148]
 [0.25666667 0.64515466]]",0,0.337
4,f,40,english,5,4,english,2024-02-09 19:58:32.528132,False,2,439,sounds\french\audio/french_472.wav,"[[  0.          -9.46806957]
 [  0.1         45.81973918]
 [  0.2        -32.95266456]
 [  0.25666667 -10.56557549]]","[[0.         0.85855516]
 [0.1        1.60383991]
 [0.2        0.80244772]
 [0.25666667 1.48234138]]",0,0.209
4,f,40,english,5,4,english,2024-02-09 19:58:32.528132,False,2,440,sounds\french\audio/french_702.wav,"[[  0.         -53.8337347 ]
 [  0.1         13.17722269]
 [  0.2        -63.63948694]
 [  0.25666667  -7.77006894]]","[[0.         0.65995653]
 [0.1        1.48591365]
 [0.2        1.16262137]
 [0.25666667 1.49403865]]",0,0.269
4,f,40,english,5,4,english,2024-02-09 19:58:32.528132,False,2,441,sounds\french\audio/french_677.wav,"[[  0.         -14.76179085]
 [  0.1        -96.15101895]
 [  0.2         48.20621423]
 [  0.25666667  23.33985038]]","[[0.         0.10277679]
 [0.1        0.35083798]
 [0.2        0.65953763]
 [0.25666667 0.76581679]]",0,0.506
4,f,40,english,5,4,english,2024-02-09 19:58:32.528132,False,2,442,sounds\french\audio/french_855.wav,"[[ 0.          2.71159552]
 [ 0.1        66.05842931]
 [ 0.2        41.00995311]
 [ 0.25666667 98.2962498 ]]","[[0.         1.64624975]
 [0.1        0.54809415]
 [0.2        1.64541289]
 [0.25666667 1.22205238]]",0,1.048
4,f,40,english,5,4,english,2024-02-09 19:58:32.528132,False,2,443,sounds\french\audio/french_343.wav,"[[  0.         -21.71261116]
 [  0.1         63.21036052]
 [  0.2        -29.86802649]
 [  0.25666667  57.96835755]]","[[0.         1.74552957]
 [0.1        1.86769095]
 [0.2        0.55355845]
 [0.25666667 1.24725328]]",0,1.032
4,f,40,english,5,4,english,2024-02-09 19:58:32.528132,False,2,444,sounds\french\audio/french_696.wav,"[[  0.          39.34258856]
 [  0.1         16.85699936]
 [  0.2        -58.01570434]
 [  0.25666667 -91.70212518]]","[[0.         1.15492287]
 [0.1        0.81118798]
 [0.2        0.43841119]
 [0.25666667 1.32812972]]",0,0.302
4,f,40,english,5,4,english,2024-02-09 19:58:32.528132,False,2,445,sounds\french\audio/french_288.wav,"[[  0.          -9.24929425]
 [  0.1         97.18434129]
 [  0.2         -8.99940005]
 [  0.25666667 -80.67587563]]","[[0.         1.2144441 ]
 [0.1        0.01267679]
 [0.2        1.13720482]
 [0.25666667 1.56801852]]",0,0.689
4,f,40,english,5,4,english,2024-02-09 19:58:32.528132,False,2,446,sounds\french\audio/french_736.wav,"[[  0.         -58.2057669 ]
 [  0.1         67.4754916 ]
 [  0.2         92.18157431]
 [  0.25666667  88.23593553]]","[[0.         1.39182764]
 [0.1        0.85405242]
 [0.2        1.06665121]
 [0.25666667 0.29553719]]",0,0.37
4,f,40,english,5,4,english,2024-02-09 19:58:32.528132,False,2,447,sounds\french\audio/french_507.wav,"[[  0.         -39.00130205]
 [  0.1          8.15448279]
 [  0.2        -39.88004764]
 [  0.25666667  66.54300966]]","[[0.         0.88980729]
 [0.1        1.12034654]
 [0.2        1.15006522]
 [0.25666667 1.10945683]]",0,1.121
4,f,40,english,5,4,english,2024-02-09 19:58:32.528132,False,2,448,sounds\french\audio/french_963.wav,"[[ 0.         47.65214736]
 [ 0.1         6.38608236]
 [ 0.2        90.58649254]
 [ 0.25666667 -7.76898595]]","[[0.         0.44378955]
 [0.1        0.94107122]
 [0.2        1.48470349]
 [0.25666667 1.98203536]]",0,0.617
4,f,40,english,5,4,english,2024-02-09 19:58:32.528132,False,2,449,sounds\french\audio/french_833.wav,"[[  0.          -6.16556676]
 [  0.1        -32.48345992]
 [  0.2        -28.28033803]
 [  0.25666667  48.73445236]]","[[0.         1.54939137]
 [0.1        0.45028205]
 [0.2        0.55227402]
 [0.25666667 0.7790443 ]]",0,0.645
4,f,40,english,5,4,english,2024-02-09 19:58:32.528132,False,2,450,sounds\french\audio/french_554.wav,"[[  0.         -31.9650703 ]
 [  0.1         78.95364823]
 [  0.2         -0.5294376 ]
 [  0.25666667 -36.78296127]]","[[0.         1.45983082]
 [0.1        0.40013818]
 [0.2        0.96374115]
 [0.25666667 1.20732856]]",0,0.239
4,f,40,english,5,4,english,2024-02-09 19:58:32.528132,False,2,451,sounds\french\audio/french_132.wav,"[[  0.          55.7159221 ]
 [  0.1         96.01047895]
 [  0.2        -30.71931346]
 [  0.25666667  34.53763016]]","[[0.         0.1336911 ]
 [0.1        1.63690434]
 [0.2        0.7825174 ]
 [0.25666667 1.49477333]]",0,0.795
4,f,40,english,5,4,english,2024-02-09 19:58:32.528132,False,2,452,sounds\french\audio/french_910.wav,"[[  0.         -48.65293901]
 [  0.1         -4.89021115]
 [  0.2        -57.2651588 ]
 [  0.25666667 -57.53771148]]","[[0.         0.34246772]
 [0.1        1.03510625]
 [0.2        1.59317518]
 [0.25666667 0.91667414]]",0,0.362
4,f,40,english,5,4,english,2024-02-09 19:58:32.528132,False,2,453,sounds\french\audio/french_118.wav,"[[  0.          26.93316006]
 [  0.1        -22.92967869]
 [  0.2        -61.93287208]
 [  0.25666667 -97.08418949]]","[[0.         1.47067426]
 [0.1        1.58231537]
 [0.2        1.01494319]
 [0.25666667 0.71977579]]",0,0.205
4,f,40,english,5,4,english,2024-02-09 19:58:32.528132,False,2,454,sounds\french\audio/french_427.wav,"[[  0.         -76.02138843]
 [  0.1        -79.3514541 ]
 [  0.2         33.13783193]
 [  0.25666667 -70.0412192 ]]","[[0.         1.52776537]
 [0.1        0.93213061]
 [0.2        1.10363763]
 [0.25666667 1.44956109]]",0,0.683
4,f,40,english,5,4,english,2024-02-09 19:58:32.528132,False,2,455,sounds\french\audio/french_635.wav,"[[  0.          33.90344979]
 [  0.1        -75.47627702]
 [  0.2         49.7914685 ]
 [  0.25666667  43.41419086]]","[[0.         1.89496442]
 [0.1        0.79794333]
 [0.2        1.70645199]
 [0.25666667 1.41022612]]",0,0.264
4,f,40,english,5,4,english,2024-02-09 19:58:32.528132,False,2,456,sounds\french\audio/french_888.wav,"[[  0.          -7.09076065]
 [  0.1         62.1549683 ]
 [  0.2        -14.42714579]
 [  0.25666667 -85.6987995 ]]","[[0.         0.01679895]
 [0.1        1.75942782]
 [0.2        0.28698877]
 [0.25666667 1.72009857]]",0,0.386
4,f,40,english,5,4,english,2024-02-09 19:58:32.528132,False,2,457,sounds\french\audio/french_279.wav,"[[  0.         -82.72654322]
 [  0.1         51.19533055]
 [  0.2         81.3850192 ]
 [  0.25666667  12.9967417 ]]","[[0.         1.91034617]
 [0.1        0.35578453]
 [0.2        1.45645662]
 [0.25666667 1.34605049]]",0,0.273
4,f,40,english,5,4,english,2024-02-09 19:58:32.528132,False,2,458,sounds\french\audio/french_674.wav,"[[  0.          36.8658398 ]
 [  0.1        -70.55199619]
 [  0.2         -3.70121723]
 [  0.25666667  30.12615154]]","[[0.         0.63817569]
 [0.1        1.9135219 ]
 [0.2        1.96782527]
 [0.25666667 0.86862342]]",0,1.531
4,f,40,english,5,4,english,2024-02-09 19:58:32.528132,False,2,459,sounds\french\audio/french_788.wav,"[[  0.         -49.59093674]
 [  0.1        -37.12859592]
 [  0.2         78.06548219]
 [  0.25666667  52.38730842]]","[[0.         1.03975343]
 [0.1        0.12530513]
 [0.2        0.40268526]
 [0.25666667 1.72021211]]",0,0.622
4,f,40,english,5,4,english,2024-02-09 19:58:32.528132,False,2,460,sounds\french\audio/french_778.wav,"[[ 0.         -2.76577218]
 [ 0.1         4.49344871]
 [ 0.2        68.81762054]
 [ 0.25666667 89.13075651]]","[[0.         0.74255963]
 [0.1        1.48176587]
 [0.2        1.59399306]
 [0.25666667 1.18058537]]",0,0.219
4,f,40,english,5,4,english,2024-02-09 19:58:32.528132,False,2,461,sounds\french\audio/french_531.wav,"[[  0.          76.38960861]
 [  0.1        -14.4624089 ]
 [  0.2         97.56303867]
 [  0.25666667  -4.62103118]]","[[0.         1.48422918]
 [0.1        0.31285067]
 [0.2        0.71358588]
 [0.25666667 0.65318394]]",0,0.318
4,f,40,english,5,4,english,2024-02-09 19:58:32.528132,False,2,462,sounds\french\audio/french_478.wav,"[[  0.          83.43470999]
 [  0.1         -2.90020724]
 [  0.2          3.04122674]
 [  0.25666667 -16.94968741]]","[[0.         1.59134243]
 [0.1        1.87737404]
 [0.2        1.09323353]
 [0.25666667 0.48225636]]",0,0.409
4,f,40,english,5,4,english,2024-02-09 19:58:32.528132,False,2,463,sounds\french\audio/french_954.wav,"[[  0.         -31.81965022]
 [  0.1         82.90828133]
 [  0.2         94.68318648]
 [  0.25666667 -42.01635115]]","[[0.         1.69468269]
 [0.1        0.7734121 ]
 [0.2        0.43346946]
 [0.25666667 0.14112827]]",1,1.087
4,f,40,english,5,4,english,2024-02-09 19:58:32.528132,False,2,464,sounds\french\audio/french_423.wav,"[[  0.          80.03290271]
 [  0.1        -33.72349736]
 [  0.2        -38.14858153]
 [  0.25666667 -48.66398852]]","[[0.         0.31618382]
 [0.1        0.81153422]
 [0.2        0.21197718]
 [0.25666667 0.41633142]]",0,0.325
4,f,40,english,5,4,english,2024-02-09 19:58:32.528132,False,2,465,sounds\french\audio/french_907.wav,"[[  0.           9.20754992]
 [  0.1        -39.82714958]
 [  0.2         91.774681  ]
 [  0.25666667 -60.10887287]]","[[0.         1.79705326]
 [0.1        0.37644661]
 [0.2        1.35697235]
 [0.25666667 0.87178456]]",0,1.058
4,f,40,english,5,4,english,2024-02-09 19:58:32.528132,False,2,466,sounds\french\audio/french_150.wav,"[[  0.           8.70975457]
 [  0.1        -27.10460474]
 [  0.2        -81.59186784]
 [  0.25666667 -72.54184128]]","[[0.         0.6151883 ]
 [0.1        1.35739255]
 [0.2        1.42530839]
 [0.25666667 0.64697028]]",0,0.376
4,f,40,english,5,4,english,2024-02-09 19:58:32.528132,False,2,467,sounds\french\audio/french_145.wav,"[[  0.          45.95226671]
 [  0.1        -66.66601381]
 [  0.2        -89.77596615]
 [  0.25666667   8.03115864]]","[[0.         0.38136586]
 [0.1        1.38589502]
 [0.2        0.43712509]
 [0.25666667 1.92826262]]",0,0.39
4,f,40,english,5,4,english,2024-02-09 19:58:32.528132,False,2,468,sounds\french\audio/french_820.wav,"[[  0.         -23.2512771 ]
 [  0.1         -3.42093224]
 [  0.2        -78.83822409]
 [  0.25666667 -24.79307177]]","[[0.         0.85914582]
 [0.1        1.44867235]
 [0.2        1.61907263]
 [0.25666667 1.11055267]]",1,0.841
4,f,40,english,5,4,english,2024-02-09 19:58:32.528132,False,2,469,sounds\french\audio/french_585.wav,"[[  0.          55.40756654]
 [  0.1        -99.68924549]
 [  0.2        -52.13930441]
 [  0.25666667 -49.42840454]]","[[0.         1.79357949]
 [0.1        1.94389706]
 [0.2        0.70685753]
 [0.25666667 0.08344351]]",0,0.756
4,f,40,english,5,4,english,2024-02-09 19:58:32.528132,False,2,470,sounds\french\audio/french_216.wav,"[[  0.          94.47877999]
 [  0.1        -35.64680956]
 [  0.2         -6.49582042]
 [  0.25666667  88.58272088]]","[[0.         1.14166801]
 [0.1        0.96477388]
 [0.2        1.30348701]
 [0.25666667 1.4092971 ]]",0,2.179
4,f,40,english,5,4,english,2024-02-09 19:58:32.528132,False,2,471,sounds\french\audio/french_365.wav,"[[  0.         -98.04571794]
 [  0.1        -73.67698607]
 [  0.2        -96.43604562]
 [  0.25666667  37.7893414 ]]","[[0.         1.18023288]
 [0.1        1.95707288]
 [0.2        0.58641449]
 [0.25666667 1.65360278]]",0,0.651
4,f,40,english,5,4,english,2024-02-09 19:58:32.528132,False,2,472,sounds\french\audio/french_88.wav,"[[  0.          27.32194303]
 [  0.1        -96.72294389]
 [  0.2         60.26388925]
 [  0.25666667  24.13475024]]","[[0.         1.51306501]
 [0.1        1.24985366]
 [0.2        0.69332812]
 [0.25666667 1.39714954]]",0,0.32
4,f,40,english,5,4,english,2024-02-09 19:58:32.528132,False,2,473,sounds\french\audio/french_1.wav,"[[  0.          91.87409443]
 [  0.1        -48.89112434]
 [  0.2         27.67932603]
 [  0.25666667  13.64945055]]","[[0.         0.51984737]
 [0.1        0.07214845]
 [0.2        1.75660136]
 [0.25666667 0.58315139]]",0,0.348
4,f,40,english,5,4,english,2024-02-09 19:58:32.528132,False,2,474,sounds\french\audio/french_655.wav,"[[  0.           4.60078694]
 [  0.1         90.51966262]
 [  0.2        -72.80105835]
 [  0.25666667  32.46228297]]","[[0.         1.00375004]
 [0.1        1.23726083]
 [0.2        1.08672065]
 [0.25666667 0.32613357]]",0,4.319
4,f,40,english,5,4,english,2024-02-09 19:58:32.528132,False,2,475,sounds\french\audio/french_409.wav,"[[  0.         -85.45925867]
 [  0.1        -75.83462931]
 [  0.2        -81.34632848]
 [  0.25666667  -4.23490283]]","[[0.         0.92391671]
 [0.1        0.55779761]
 [0.2        1.04156293]
 [0.25666667 0.8536223 ]]",0,0.451
4,f,40,english,5,4,english,2024-02-09 19:58:32.528132,False,2,476,sounds\french\audio/french_973.wav,"[[  0.         -99.0384004 ]
 [  0.1         40.13117567]
 [  0.2         49.54188212]
 [  0.25666667  89.60941169]]","[[0.         1.64247416]
 [0.1        0.98090528]
 [0.2        1.75566355]
 [0.25666667 0.64442147]]",0,0.288
4,f,40,english,5,4,english,2024-02-09 19:58:32.528132,False,2,477,sounds\french\audio/french_735.wav,"[[  0.          16.11120967]
 [  0.1        -19.98897555]
 [  0.2         68.29513728]
 [  0.25666667  31.40150104]]","[[0.         0.14330821]
 [0.1        0.00237292]
 [0.2        1.1733856 ]
 [0.25666667 0.51599842]]",0,0.648
4,f,40,english,5,4,english,2024-02-09 19:58:32.528132,False,2,478,sounds\french\audio/french_597.wav,"[[  0.          78.21673508]
 [  0.1         48.44931265]
 [  0.2         -9.21876948]
 [  0.25666667 -95.47680095]]","[[0.         0.32061172]
 [0.1        1.01687051]
 [0.2        0.22158162]
 [0.25666667 0.62073139]]",0,0.644
4,f,40,english,5,4,english,2024-02-09 19:58:32.528132,False,2,479,sounds\french\audio/french_493.wav,"[[  0.         -68.32294441]
 [  0.1        -10.78892258]
 [  0.2         91.72278204]
 [  0.25666667 -45.09260027]]","[[0.         0.52835731]
 [0.1        0.49612748]
 [0.2        1.46473376]
 [0.25666667 1.2872874 ]]",0,0.306
4,f,40,english,5,4,english,2024-02-09 19:58:32.528132,False,2,480,sounds\french\audio/french_410.wav,"[[  0.         -57.70995681]
 [  0.1         48.77026686]
 [  0.2        -48.38648813]
 [  0.25666667  53.40375253]]","[[0.         0.42078672]
 [0.1        1.91428116]
 [0.2        0.69257086]
 [0.25666667 1.23009328]]",0,0.757
4,f,40,english,5,4,english,2024-02-09 19:58:32.528132,False,2,481,sounds\french\audio/french_273.wav,"[[  0.         -64.70279697]
 [  0.1         51.79292953]
 [  0.2        -96.4801009 ]
 [  0.25666667  93.42641001]]","[[0.         0.53531099]
 [0.1        0.11586536]
 [0.2        0.21168864]
 [0.25666667 1.2771199 ]]",0,0.651
4,f,40,english,5,4,english,2024-02-09 19:58:32.528132,False,2,482,sounds\french\audio/french_719.wav,"[[  0.          -0.39387326]
 [  0.1          1.52424656]
 [  0.2         34.63950895]
 [  0.25666667 -19.23986751]]","[[0.         0.47887204]
 [0.1        1.22874683]
 [0.2        0.97564384]
 [0.25666667 0.79252429]]",0,0.437
4,f,40,english,5,4,english,2024-02-09 19:58:32.528132,False,2,483,sounds\french\audio/french_243.wav,"[[  0.          94.15218044]
 [  0.1         77.54642038]
 [  0.2        -54.61145872]
 [  0.25666667 -22.57869657]]","[[0.         0.53955239]
 [0.1        1.33237065]
 [0.2        1.76705621]
 [0.25666667 1.15577178]]",0,0.475
4,f,40,english,5,4,english,2024-02-09 19:58:32.528132,False,2,484,sounds\french\audio/french_941.wav,"[[  0.         -66.32571195]
 [  0.1         85.09907795]
 [  0.2         87.37862016]
 [  0.25666667 -18.39108149]]","[[0.         0.9896497 ]
 [0.1        0.67654191]
 [0.2        1.4708398 ]
 [0.25666667 0.82969394]]",0,0.567
4,f,40,english,5,4,english,2024-02-09 19:58:32.528132,False,2,485,sounds\french\audio/french_637.wav,"[[ 0.         35.81604326]
 [ 0.1        -3.18432816]
 [ 0.2        50.06715701]
 [ 0.25666667 13.82838787]]","[[0.         0.01301393]
 [0.1        0.82513299]
 [0.2        0.10233849]
 [0.25666667 0.87921638]]",0,0.74
4,f,40,english,5,4,english,2024-02-09 19:58:32.528132,False,2,486,sounds\french\audio/french_759.wav,"[[  0.          43.66892012]
 [  0.1         28.75822808]
 [  0.2        -53.65094598]
 [  0.25666667 -79.66264825]]","[[0.         0.9017147 ]
 [0.1        1.01118462]
 [0.2        1.43326948]
 [0.25666667 0.32927354]]",1,3.047
4,f,40,english,5,4,english,2024-02-09 19:58:32.528132,False,2,487,sounds\french\audio/french_79.wav,"[[  0.         -17.81057473]
 [  0.1        -79.49788956]
 [  0.2         21.64031361]
 [  0.25666667   9.8962074 ]]","[[0.         1.07647634]
 [0.1        0.19758175]
 [0.2        1.4893643 ]
 [0.25666667 1.60982877]]",0,0.129
4,f,40,english,5,4,english,2024-02-09 19:58:32.528132,False,2,488,sounds\french\audio/french_617.wav,"[[  0.         -34.18466024]
 [  0.1         35.41565559]
 [  0.2         59.04414741]
 [  0.25666667  80.0519445 ]]","[[0.         0.10021852]
 [0.1        0.72859392]
 [0.2        0.77782194]
 [0.25666667 1.13599019]]",0,0.188
4,f,40,english,5,4,english,2024-02-09 19:58:32.528132,False,2,489,sounds\french\audio/french_221.wav,"[[  0.         -51.4093514 ]
 [  0.1        -69.26159538]
 [  0.2        -72.79183118]
 [  0.25666667  34.31828887]]","[[0.         1.39236456]
 [0.1        1.1318895 ]
 [0.2        0.94601275]
 [0.25666667 1.80964418]]",0,0.247
4,f,40,english,5,4,english,2024-02-09 19:58:32.528132,False,2,490,sounds\french\audio/french_539.wav,"[[  0.         -25.67038427]
 [  0.1         48.64308398]
 [  0.2        -77.82337419]
 [  0.25666667 -42.20378119]]","[[0.         1.25415191]
 [0.1        1.80742897]
 [0.2        1.66801057]
 [0.25666667 0.618258  ]]",1,0.855
4,f,40,english,5,4,english,2024-02-09 19:58:32.528132,False,2,491,sounds\french\audio/french_798.wav,"[[  0.          80.80013175]
 [  0.1          8.18850232]
 [  0.2        -10.54144101]
 [  0.25666667  26.86908184]]","[[0.         1.56222047]
 [0.1        1.67765441]
 [0.2        1.93747014]
 [0.25666667 1.76378238]]",1,1.316
4,f,40,english,5,4,english,2024-02-09 19:58:32.528132,False,2,492,sounds\french\audio/french_752.wav,"[[  0.         -49.05511086]
 [  0.1         68.97169656]
 [  0.2         35.56747744]
 [  0.25666667   3.91641015]]","[[0.         0.41123153]
 [0.1        0.36604045]
 [0.2        0.22184937]
 [0.25666667 1.3158831 ]]",0,3.455
4,f,40,english,5,4,english,2024-02-09 19:58:32.528132,False,2,493,sounds\french\audio/french_267.wav,"[[  0.         -65.51042118]
 [  0.1         15.6710232 ]
 [  0.2        -16.59501764]
 [  0.25666667  49.75287867]]","[[0.         0.47900721]
 [0.1        1.08471332]
 [0.2        0.49268798]
 [0.25666667 1.54023863]]",1,20.033
4,f,40,english,5,4,english,2024-02-09 19:58:32.528132,False,2,494,sounds\french\audio/french_923.wav,"[[  0.         -57.84523262]
 [  0.1        -15.65652506]
 [  0.2         37.84243464]
 [  0.25666667  15.41728704]]","[[0.         1.35677253]
 [0.1        1.1280373 ]
 [0.2        1.38752537]
 [0.25666667 1.42596606]]",0,1.789
4,f,40,english,5,4,english,2024-02-09 19:58:32.528132,False,2,495,sounds\french\audio/french_619.wav,"[[  0.         -58.15289928]
 [  0.1         30.86987971]
 [  0.2         96.84221096]
 [  0.25666667  69.41225319]]","[[0.         0.63115023]
 [0.1        0.12868397]
 [0.2        0.73139592]
 [0.25666667 1.17738103]]",0,1.03
4,f,40,english,5,4,english,2024-02-09 19:58:32.528132,False,2,496,sounds\french\audio/french_606.wav,"[[  0.         -20.93687271]
 [  0.1         59.55385743]
 [  0.2         61.58713619]
 [  0.25666667 -92.8987734 ]]","[[0.         1.9895698 ]
 [0.1        1.17728958]
 [0.2        1.48827242]
 [0.25666667 0.79910733]]",0,0.374
4,f,40,english,5,4,english,2024-02-09 19:58:32.528132,False,2,497,sounds\french\audio/french_356.wav,"[[  0.         -28.24477507]
 [  0.1        -36.63699676]
 [  0.2         67.9524461 ]
 [  0.25666667   8.53170414]]","[[0.         0.35227097]
 [0.1        1.16218152]
 [0.2        1.82395355]
 [0.25666667 1.63669257]]",0,0.174
4,f,40,english,5,4,english,2024-02-09 19:58:32.528132,False,2,498,sounds\french\audio/french_450.wav,"[[  0.          32.27162082]
 [  0.1        -17.74326064]
 [  0.2         22.97944113]
 [  0.25666667 -64.06857585]]","[[0.         0.11495553]
 [0.1        0.2876958 ]
 [0.2        0.75841823]
 [0.25666667 0.46502657]]",0,0.441
4,f,40,english,5,4,english,2024-02-09 19:58:32.528132,False,2,499,sounds\french\audio/french_447.wav,"[[  0.         -15.50115845]
 [  0.1         -4.86998407]
 [  0.2        -86.84595189]
 [  0.25666667 -28.81346371]]","[[0.         0.77909013]
 [0.1        1.31519509]
 [0.2        1.40793423]
 [0.25666667 0.16835643]]",0,0.42
4,f,40,english,5,4,english,2024-02-09 19:58:32.528132,False,2,500,sounds\french\audio/french_879.wav,"[[  0.         -48.96816685]
 [  0.1        -79.01398257]
 [  0.2        -55.9985187 ]
 [  0.25666667 -98.06504365]]","[[0.         1.19104759]
 [0.1        0.98306132]
 [0.2        0.68767433]
 [0.25666667 1.4115175 ]]",0,0.376
4,f,40,english,5,4,english,2024-02-09 19:58:32.528132,False,2,501,sounds\french\audio/french_932.wav,"[[  0.         -46.06723632]
 [  0.1         66.80974186]
 [  0.2         39.28685727]
 [  0.25666667 -66.26323275]]","[[0.         0.59994833]
 [0.1        1.29573715]
 [0.2        0.97302603]
 [0.25666667 1.65300799]]",0,0.459
4,f,40,english,5,4,english,2024-02-09 19:58:32.528132,False,2,502,sounds\french\audio/french_477.wav,"[[  0.         -42.83355645]
 [  0.1        -62.82113547]
 [  0.2         87.24330329]
 [  0.25666667  51.53483355]]","[[0.         0.5966768 ]
 [0.1        0.86071515]
 [0.2        1.68377915]
 [0.25666667 1.05396705]]",0,0.693
4,f,40,english,5,4,english,2024-02-09 19:58:32.528132,False,2,503,sounds\french\audio/french_864.wav,"[[ 0.         27.21382842]
 [ 0.1        -8.96687562]
 [ 0.2        47.01768167]
 [ 0.25666667 98.93956807]]","[[0.         1.35032716]
 [0.1        1.41041806]
 [0.2        0.47669103]
 [0.25666667 1.26265942]]",0,0.389
4,f,40,english,5,4,english,2024-02-09 19:58:32.528132,False,2,504,sounds\french\audio/french_656.wav,"[[  0.         -58.27241095]
 [  0.1          5.28471923]
 [  0.2         -0.12743408]
 [  0.25666667  84.54596147]]","[[0.         0.65184251]
 [0.1        0.59376501]
 [0.2        1.90668759]
 [0.25666667 1.25760212]]",1,2.751
4,f,40,english,5,4,english,2024-02-09 19:58:32.528132,False,2,505,sounds\french\audio/french_14.wav,"[[  0.          29.04259121]
 [  0.1        -13.93862831]
 [  0.2         -3.57455278]
 [  0.25666667  14.81088412]]","[[0.         1.27596418]
 [0.1        1.81664743]
 [0.2        1.61822265]
 [0.25666667 1.58848758]]",0,0.313
4,f,40,english,5,4,english,2024-02-09 19:58:32.528132,False,2,506,sounds\french\audio/french_978.wav,"[[  0.         -36.32035497]
 [  0.1        -92.00024605]
 [  0.2        -85.64640387]
 [  0.25666667  30.4024855 ]]","[[0.         0.76958877]
 [0.1        0.1229223 ]
 [0.2        1.83920091]
 [0.25666667 1.45747353]]",0,3.085
4,f,40,english,5,4,english,2024-02-09 19:58:32.528132,False,2,507,sounds\french\audio/french_889.wav,"[[  0.         -11.44618348]
 [  0.1         14.52697714]
 [  0.2        -51.60315894]
 [  0.25666667  40.16126686]]","[[0.         1.60032155]
 [0.1        0.84860504]
 [0.2        1.67734449]
 [0.25666667 0.04411269]]",0,3.296
4,f,40,english,5,4,english,2024-02-09 19:58:32.528132,False,2,508,sounds\french\audio/french_410.wav,"[[  0.         -57.70995681]
 [  0.1         48.77026686]
 [  0.2        -48.38648813]
 [  0.25666667  53.40375253]]","[[0.         0.42078672]
 [0.1        1.91428116]
 [0.2        0.69257086]
 [0.25666667 1.23009328]]",1,1.085
4,f,40,english,5,4,english,2024-02-09 19:58:32.528132,False,2,509,sounds\french\audio/french_955.wav,"[[ 0.         49.41572239]
 [ 0.1        75.37923123]
 [ 0.2         0.1370905 ]
 [ 0.25666667 22.03577701]]","[[0.         1.13440167]
 [0.1        1.49278765]
 [0.2        0.20624254]
 [0.25666667 0.01599226]]",0,5.762
4,f,40,english,5,4,english,2024-02-09 19:58:32.528132,False,2,510,sounds\french\audio/french_704.wav,"[[  0.          47.78235411]
 [  0.1        -55.43932   ]
 [  0.2         -4.4200676 ]
 [  0.25666667  92.51428674]]","[[0.         1.53952375]
 [0.1        1.15285736]
 [0.2        1.9057017 ]
 [0.25666667 1.54517481]]",0,0.266
4,f,40,english,5,4,english,2024-02-09 19:58:32.528132,False,2,511,sounds\french\audio/french_719.wav,"[[  0.          -0.39387326]
 [  0.1          1.52424656]
 [  0.2         34.63950895]
 [  0.25666667 -19.23986751]]","[[0.         0.47887204]
 [0.1        1.22874683]
 [0.2        0.97564384]
 [0.25666667 0.79252429]]",0,0.259
4,f,40,english,5,4,english,2024-02-09 19:58:32.528132,False,2,512,sounds\french\audio/french_150.wav,"[[  0.           8.70975457]
 [  0.1        -27.10460474]
 [  0.2        -81.59186784]
 [  0.25666667 -72.54184128]]","[[0.         0.6151883 ]
 [0.1        1.35739255]
 [0.2        1.42530839]
 [0.25666667 0.64697028]]",0,0.084
4,f,40,english,5,4,english,2024-02-09 19:58:32.528132,False,2,513,sounds\french\audio/french_921.wav,"[[  0.          24.11125356]
 [  0.1         37.62729467]
 [  0.2        -94.55025244]
 [  0.25666667  10.27679313]]","[[0.         1.60122976]
 [0.1        0.45720022]
 [0.2        1.67775241]
 [0.25666667 0.96598245]]",0,0.218
4,f,40,english,5,4,english,2024-02-09 19:58:32.528132,False,2,514,sounds\french\audio/french_648.wav,"[[  0.          45.21338473]
 [  0.1         35.84509453]
 [  0.2        -67.01500747]
 [  0.25666667 -57.94291625]]","[[0.         1.3610165 ]
 [0.1        0.40626065]
 [0.2        0.74636895]
 [0.25666667 1.66903202]]",0,0.163
4,f,40,english,5,4,english,2024-02-09 19:58:32.528132,False,2,515,sounds\french\audio/french_550.wav,"[[  0.         -75.40042164]
 [  0.1          3.66999977]
 [  0.2        -80.45508953]
 [  0.25666667 -81.93938104]]","[[0.         1.22660115]
 [0.1        1.1302768 ]
 [0.2        0.71194131]
 [0.25666667 1.14992067]]",0,0.558
4,f,40,english,5,4,english,2024-02-09 19:58:32.528132,False,2,516,sounds\french\audio/french_667.wav,"[[  0.         -87.23426609]
 [  0.1         53.54997778]
 [  0.2         57.34155937]
 [  0.25666667 -19.62963402]]","[[0.         0.52575342]
 [0.1        0.6882241 ]
 [0.2        0.15612922]
 [0.25666667 0.34657669]]",0,0.579
4,f,40,english,5,4,english,2024-02-09 19:58:32.528132,False,2,517,sounds\french\audio/french_83.wav,"[[ 0.         45.44740295]
 [ 0.1        42.82646372]
 [ 0.2        -9.21139132]
 [ 0.25666667 30.29486893]]","[[0.         0.80263788]
 [0.1        1.96742974]
 [0.2        0.40483772]
 [0.25666667 0.1024326 ]]",0,0.406
4,f,40,english,5,4,english,2024-02-09 19:58:32.528132,False,2,518,sounds\french\audio/french_219.wav,"[[  0.         -98.78648146]
 [  0.1        -54.51672601]
 [  0.2         75.82451993]
 [  0.25666667  42.52821499]]","[[0.         1.35832625]
 [0.1        0.9105506 ]
 [0.2        0.22027405]
 [0.25666667 1.53742188]]",0,0.433
4,f,40,english,5,4,english,2024-02-09 19:58:32.528132,False,2,519,sounds\french\audio/french_926.wav,"[[  0.         -38.30420493]
 [  0.1        -97.26803886]
 [  0.2         55.3544282 ]
 [  0.25666667   8.78644418]]","[[0.         1.0266732 ]
 [0.1        0.03873156]
 [0.2        0.32593073]
 [0.25666667 0.80695306]]",0,0.926
4,f,40,english,5,4,english,2024-02-09 19:58:32.528132,False,2,520,sounds\french\audio/french_301.wav,"[[ 0.         69.85248337]
 [ 0.1        -5.79297453]
 [ 0.2        45.5401504 ]
 [ 0.25666667 54.55962649]]","[[0.         0.52307933]
 [0.1        1.24080119]
 [0.2        0.43993349]
 [0.25666667 1.3035803 ]]",0,0.357
4,f,40,english,5,4,english,2024-02-09 19:58:32.528132,False,2,521,sounds\french\audio/french_678.wav,"[[  0.           8.99494286]
 [  0.1         56.3447022 ]
 [  0.2        -85.36803825]
 [  0.25666667 -65.39277698]]","[[0.         0.31277465]
 [0.1        0.04822955]
 [0.2        0.03738606]
 [0.25666667 1.60364947]]",0,1.119
4,f,40,english,5,4,english,2024-02-09 19:58:32.528132,False,2,522,sounds\french\audio/french_210.wav,"[[ 0.         68.99377403]
 [ 0.1        17.92188754]
 [ 0.2        87.00714336]
 [ 0.25666667 69.75485878]]","[[0.         1.59687847]
 [0.1        0.67113491]
 [0.2        1.30631186]
 [0.25666667 0.1897549 ]]",0,0.528
4,f,40,english,5,4,english,2024-02-09 19:58:32.528132,False,2,523,sounds\french\audio/french_509.wav,"[[  0.          98.86127545]
 [  0.1        -58.47415861]
 [  0.2         23.95425933]
 [  0.25666667  74.34097669]]","[[0.         0.38470371]
 [0.1        0.77077576]
 [0.2        1.30836253]
 [0.25666667 1.2187589 ]]",0,0.254
4,f,40,english,5,4,english,2024-02-09 19:58:32.528132,False,2,524,sounds\french\audio/french_132.wav,"[[  0.          55.7159221 ]
 [  0.1         96.01047895]
 [  0.2        -30.71931346]
 [  0.25666667  34.53763016]]","[[0.         0.1336911 ]
 [0.1        1.63690434]
 [0.2        0.7825174 ]
 [0.25666667 1.49477333]]",0,0.262
4,f,40,english,5,4,english,2024-02-09 19:58:32.528132,False,2,525,sounds\french\audio/french_618.wav,"[[  0.         -48.84080529]
 [  0.1         52.1949693 ]
 [  0.2          2.68255661]
 [  0.25666667 -32.43465806]]","[[0.         0.47316377]
 [0.1        0.45430598]
 [0.2        0.75800451]
 [0.25666667 0.99622678]]",0,0.208
4,f,40,english,5,4,english,2024-02-09 19:58:32.528132,False,2,526,sounds\french\audio/french_561.wav,"[[  0.          43.72245453]
 [  0.1        -99.96065046]
 [  0.2        -79.74506532]
 [  0.25666667   3.19515671]]","[[0.         1.14403907]
 [0.1        0.22103922]
 [0.2        0.12690813]
 [0.25666667 1.47601923]]",0,2.557
4,f,40,english,5,4,english,2024-02-09 19:58:32.528132,False,2,527,sounds\french\audio/french_837.wav,"[[  0.          12.86528577]
 [  0.1         80.83337189]
 [  0.2        -88.94110826]
 [  0.25666667  32.10555955]]","[[0.         1.70928146]
 [0.1        0.14925978]
 [0.2        0.83215091]
 [0.25666667 1.23671449]]",0,0.374
4,f,40,english,5,4,english,2024-02-09 19:58:32.528132,False,2,528,sounds\french\audio/french_174.wav,"[[  0.           1.45674265]
 [  0.1         47.27057229]
 [  0.2        -41.5239841 ]
 [  0.25666667  32.3517821 ]]","[[0.         0.26044346]
 [0.1        1.87217745]
 [0.2        1.40485436]
 [0.25666667 1.2389409 ]]",0,1.023
4,f,40,english,5,4,english,2024-02-09 19:58:32.528132,False,2,529,sounds\french\audio/french_621.wav,"[[  0.         -65.12133357]
 [  0.1        -34.98790471]
 [  0.2        -12.78608876]
 [  0.25666667  53.53170361]]","[[0.         1.7602607 ]
 [0.1        0.92649718]
 [0.2        1.46782633]
 [0.25666667 0.68266442]]",0,0.322
4,f,40,english,5,4,english,2024-02-09 19:58:32.528132,False,2,530,sounds\french\audio/french_650.wav,"[[  0.         -98.04674504]
 [  0.1        -80.1546697 ]
 [  0.2        -60.9727692 ]
 [  0.25666667  39.39299736]]","[[0.         0.50091073]
 [0.1        0.94744897]
 [0.2        0.76656919]
 [0.25666667 1.29747512]]",0,1.079
4,f,40,english,5,4,english,2024-02-09 19:58:32.528132,False,2,531,sounds\french\audio/french_31.wav,"[[  0.         -16.52506352]
 [  0.1        -80.19736258]
 [  0.2        -47.04996605]
 [  0.25666667  35.27279848]]","[[0.         1.57904125]
 [0.1        0.88688051]
 [0.2        0.44579633]
 [0.25666667 1.71139476]]",0,0.379
4,f,40,english,5,4,english,2024-02-09 19:58:32.528132,False,2,532,sounds\french\audio/french_335.wav,"[[  0.         -60.92786521]
 [  0.1         31.54292158]
 [  0.2         82.84770607]
 [  0.25666667  75.81016287]]","[[0.         0.89558721]
 [0.1        1.14451351]
 [0.2        0.29770625]
 [0.25666667 0.45932577]]",1,0.731
4,f,40,english,5,4,english,2024-02-09 19:58:32.528132,False,2,533,sounds\french\audio/french_49.wav,"[[  0.         -34.40531311]
 [  0.1        -47.89713654]
 [  0.2          1.74747298]
 [  0.25666667  24.1153847 ]]","[[0.         0.38592943]
 [0.1        0.82636765]
 [0.2        1.60738751]
 [0.25666667 0.61367061]]",0,0.708
4,f,40,english,5,4,english,2024-02-09 19:58:32.528132,False,2,534,sounds\french\audio/french_303.wav,"[[  0.         -37.35678584]
 [  0.1        -60.74389767]
 [  0.2         74.2341812 ]
 [  0.25666667  74.10759125]]","[[0.         1.71041427]
 [0.1        0.8709471 ]
 [0.2        1.02400634]
 [0.25666667 0.07072526]]",0,3.461
4,f,40,english,5,4,english,2024-02-09 19:58:32.528132,False,2,535,sounds\french\audio/french_528.wav,"[[  0.          88.85530458]
 [  0.1        -87.19636625]
 [  0.2        -45.08147721]
 [  0.25666667  86.03081593]]","[[0.         1.69331748]
 [0.1        0.73621757]
 [0.2        0.82405603]
 [0.25666667 0.01123483]]",0,0.42
4,f,40,english,5,4,english,2024-02-09 19:58:32.528132,False,2,536,sounds\french\audio/french_10.wav,"[[  0.          34.48773494]
 [  0.1         82.41652137]
 [  0.2        -51.47900312]
 [  0.25666667  70.4490668 ]]","[[0.         0.90390655]
 [0.1        1.13926368]
 [0.2        1.63497012]
 [0.25666667 0.74730693]]",0,0.253
4,f,40,english,5,4,english,2024-02-09 19:58:32.528132,False,2,537,sounds\french\audio/french_198.wav,"[[  0.          72.51067349]
 [  0.1         26.15359829]
 [  0.2        -38.06500424]
 [  0.25666667 -63.59150526]]","[[0.         0.65547069]
 [0.1        0.30610144]
 [0.2        0.27462822]
 [0.25666667 1.37790723]]",0,0.633
4,f,40,english,5,4,english,2024-02-09 19:58:32.528132,False,2,538,sounds\french\audio/french_57.wav,"[[  0.           5.04798132]
 [  0.1         34.86476391]
 [  0.2          8.76450083]
 [  0.25666667 -66.01533982]]","[[0.         0.30893924]
 [0.1        1.37192861]
 [0.2        1.2366194 ]
 [0.25666667 1.17459784]]",0,0.211
4,f,40,english,5,4,english,2024-02-09 19:58:32.528132,False,2,539,sounds\french\audio/french_671.wav,"[[  0.         -43.02390558]
 [  0.1         13.89093856]
 [  0.2          3.48608914]
 [  0.25666667 -98.36263583]]","[[0.         0.93196934]
 [0.1        1.15314194]
 [0.2        0.54353121]
 [0.25666667 1.08598707]]",0,0.253
4,f,40,english,5,4,english,2024-02-09 19:58:32.528132,False,2,540,sounds\french\audio/french_436.wav,"[[  0.          21.52139078]
 [  0.1         91.02122448]
 [  0.2         28.53627776]
 [  0.25666667 -78.88687792]]","[[0.         0.27861971]
 [0.1        0.31750307]
 [0.2        0.35857003]
 [0.25666667 1.70163595]]",0,0.261
4,f,40,english,5,4,english,2024-02-09 19:58:32.528132,False,2,541,sounds\french\audio/french_107.wav,"[[  0.          67.03881883]
 [  0.1         45.78296109]
 [  0.2        -43.22729876]
 [  0.25666667 -74.69599774]]","[[0.         1.87266913]
 [0.1        0.27229476]
 [0.2        1.08803063]
 [0.25666667 1.63601275]]",0,0.172
4,f,40,english,5,4,english,2024-02-09 19:58:32.528132,False,2,542,sounds\french\audio/french_771.wav,"[[  0.         -31.32443984]
 [  0.1          2.91896775]
 [  0.2         73.75563113]
 [  0.25666667  61.27629387]]","[[0.         0.10443369]
 [0.1        0.0162425 ]
 [0.2        0.96029425]
 [0.25666667 1.26482275]]",0,0.311
4,f,40,english,5,4,english,2024-02-09 19:58:32.528132,False,2,543,sounds\french\audio/french_902.wav,"[[  0.          27.03523978]
 [  0.1        -67.54213764]
 [  0.2         21.7683879 ]
 [  0.25666667 -96.90742585]]","[[0.         0.1459181 ]
 [0.1        1.3453624 ]
 [0.2        1.83277685]
 [0.25666667 0.52631336]]",0,0.848
4,f,40,english,5,4,english,2024-02-09 19:58:32.528132,False,2,544,sounds\french\audio/french_616.wav,"[[  0.         -51.21021188]
 [  0.1         59.33159463]
 [  0.2         -4.53011914]
 [  0.25666667   5.92531861]]","[[0.         1.78160172]
 [0.1        1.44809064]
 [0.2        1.29942812]
 [0.25666667 0.36849944]]",0,0.907
4,f,40,english,5,4,english,2024-02-09 19:58:32.528132,False,2,545,sounds\french\audio/french_788.wav,"[[  0.         -49.59093674]
 [  0.1        -37.12859592]
 [  0.2         78.06548219]
 [  0.25666667  52.38730842]]","[[0.         1.03975343]
 [0.1        0.12530513]
 [0.2        0.40268526]
 [0.25666667 1.72021211]]",1,0.628
4,f,40,english,5,4,english,2024-02-09 19:58:32.528132,False,2,546,sounds\french\audio/french_659.wav,"[[ 0.         85.50464417]
 [ 0.1        65.46448613]
 [ 0.2        39.40171471]
 [ 0.25666667 -2.24011696]]","[[0.         1.33522586]
 [0.1        1.79413259]
 [0.2        1.57337642]
 [0.25666667 0.55895062]]",1,0.855
4,f,40,english,5,4,english,2024-02-09 19:58:32.528132,False,2,547,sounds\french\audio/french_977.wav,"[[  0.         -23.34946859]
 [  0.1        -74.17160997]
 [  0.2         31.43852713]
 [  0.25666667 -10.29160018]]","[[0.         1.58788712]
 [0.1        0.25032328]
 [0.2        0.90752219]
 [0.25666667 1.52460946]]",0,0.679
4,f,40,english,5,4,english,2024-02-09 19:58:32.528132,False,2,548,sounds\french\audio/french_643.wav,"[[  0.          63.91458592]
 [  0.1        -87.79617997]
 [  0.2        -35.4412084 ]
 [  0.25666667  41.82610472]]","[[0.         0.06817761]
 [0.1        1.72915736]
 [0.2        1.06879305]
 [0.25666667 1.26220402]]",1,0.389
4,f,40,english,5,4,english,2024-02-09 19:58:32.528132,False,2,549,sounds\french\audio/french_401.wav,"[[  0.         -70.28001137]
 [  0.1        -33.39817342]
 [  0.2         31.30905025]
 [  0.25666667  85.09993336]]","[[0.         0.55430578]
 [0.1        1.52055291]
 [0.2        1.05517946]
 [0.25666667 0.68126919]]",0,0.706
4,f,40,english,5,4,english,2024-02-09 19:58:32.528132,False,2,550,sounds\french\audio/french_866.wav,"[[  0.         -60.69074585]
 [  0.1        -41.67968152]
 [  0.2         -8.99838874]
 [  0.25666667  40.83736488]]","[[0.         1.64484001]
 [0.1        0.19415831]
 [0.2        1.20864699]
 [0.25666667 0.81730442]]",0,0.506
4,f,40,english,5,4,english,2024-02-09 19:58:32.528132,False,2,551,sounds\french\audio/french_625.wav,"[[ 0.         79.19979266]
 [ 0.1        14.54258285]
 [ 0.2        86.07148008]
 [ 0.25666667 45.85831434]]","[[0.         0.47634137]
 [0.1        0.73497705]
 [0.2        0.05854955]
 [0.25666667 0.79046633]]",0,1.8
4,f,40,english,5,4,english,2024-02-09 19:58:32.528132,False,2,552,sounds\french\audio/french_893.wav,"[[  0.         -94.12021506]
 [  0.1         53.79826098]
 [  0.2        -24.3553788 ]
 [  0.25666667 -81.90861644]]","[[0.         0.88252126]
 [0.1        0.31460198]
 [0.2        1.36492904]
 [0.25666667 1.93292807]]",0,0.484
4,f,40,english,5,4,english,2024-02-09 19:58:32.528132,False,2,553,sounds\french\audio/french_179.wav,"[[  0.         -38.66887761]
 [  0.1        -45.74367449]
 [  0.2         41.91599006]
 [  0.25666667  36.18860402]]","[[0.         0.36967864]
 [0.1        1.41588785]
 [0.2        1.38004937]
 [0.25666667 1.10239155]]",0,0.397
4,f,40,english,5,4,english,2024-02-09 19:58:32.528132,False,2,554,sounds\french\audio/french_188.wav,"[[  0.          49.6210254 ]
 [  0.1        -51.2490581 ]
 [  0.2         40.00177065]
 [  0.25666667  -3.28540475]]","[[0.         1.07409835]
 [0.1        0.05018037]
 [0.2        1.57813661]
 [0.25666667 0.4516863 ]]",0,0.427
4,f,40,english,5,4,english,2024-02-09 19:58:32.528132,False,2,555,sounds\french\audio/french_335.wav,"[[  0.         -60.92786521]
 [  0.1         31.54292158]
 [  0.2         82.84770607]
 [  0.25666667  75.81016287]]","[[0.         0.89558721]
 [0.1        1.14451351]
 [0.2        0.29770625]
 [0.25666667 0.45932577]]",1,0.671
4,f,40,english,5,4,english,2024-02-09 19:58:32.528132,False,2,556,sounds\french\audio/french_557.wav,"[[  0.          -4.17762648]
 [  0.1         91.9464138 ]
 [  0.2        -21.05895405]
 [  0.25666667  45.17146044]]","[[0.         0.38732741]
 [0.1        1.58225164]
 [0.2        1.02633772]
 [0.25666667 0.5187484 ]]",0,0.694
4,f,40,english,5,4,english,2024-02-09 19:58:32.528132,False,2,557,sounds\french\audio/french_655.wav,"[[  0.           4.60078694]
 [  0.1         90.51966262]
 [  0.2        -72.80105835]
 [  0.25666667  32.46228297]]","[[0.         1.00375004]
 [0.1        1.23726083]
 [0.2        1.08672065]
 [0.25666667 0.32613357]]",1,0.706
4,f,40,english,5,4,english,2024-02-09 19:58:32.528132,False,2,558,sounds\french\audio/french_14.wav,"[[  0.          29.04259121]
 [  0.1        -13.93862831]
 [  0.2         -3.57455278]
 [  0.25666667  14.81088412]]","[[0.         1.27596418]
 [0.1        1.81664743]
 [0.2        1.61822265]
 [0.25666667 1.58848758]]",0,0.345
4,f,40,english,5,4,english,2024-02-09 19:58:32.528132,False,2,559,sounds\french\audio/french_692.wav,"[[  0.         -30.56073905]
 [  0.1         67.72997498]
 [  0.2         55.48980932]
 [  0.25666667  99.47423215]]","[[0.         0.00354931]
 [0.1        1.79271885]
 [0.2        1.35474436]
 [0.25666667 1.33636308]]",1,1.112
4,f,40,english,5,4,english,2024-02-09 19:58:32.528132,False,2,560,sounds\french\audio/french_327.wav,"[[  0.          75.01862194]
 [  0.1        -83.8502905 ]
 [  0.2         63.63621512]
 [  0.25666667 -22.5018405 ]]","[[0.         1.26930687]
 [0.1        1.47688931]
 [0.2        1.339502  ]
 [0.25666667 0.76786237]]",0,0.925
4,f,40,english,5,4,english,2024-02-09 19:58:32.528132,False,2,561,sounds\french\audio/french_936.wav,"[[  0.         -20.69739044]
 [  0.1         11.25896305]
 [  0.2        -73.43688333]
 [  0.25666667  14.6038409 ]]","[[0.         1.81100612]
 [0.1        0.34150345]
 [0.2        0.78598688]
 [0.25666667 0.34536881]]",0,1.49
4,f,40,english,5,4,english,2024-02-09 19:58:32.528132,False,2,562,sounds\french\audio/french_269.wav,"[[  0.          34.85044548]
 [  0.1         47.51511781]
 [  0.2         34.15302515]
 [  0.25666667 -55.0259295 ]]","[[0.00000000e+00 6.17924031e-04]
 [1.00000000e-01 1.05540646e+00]
 [2.00000000e-01 9.84234213e-01]
 [2.56666667e-01 8.45106618e-01]]",0,1.553
4,f,40,english,5,4,english,2024-02-09 19:58:32.528132,False,2,563,sounds\french\audio/french_474.wav,"[[  0.          94.09836303]
 [  0.1         43.08248712]
 [  0.2        -98.14389097]
 [  0.25666667 -80.28643924]]","[[0.         0.01406103]
 [0.1        1.41739343]
 [0.2        1.7994516 ]
 [0.25666667 0.15166218]]",0,0.881
4,f,40,english,5,4,english,2024-02-09 19:58:32.528132,False,2,564,sounds\french\audio/french_46.wav,"[[  0.         -59.72524318]
 [  0.1        -28.22082853]
 [  0.2          2.0739194 ]
 [  0.25666667 -12.25343829]]","[[0.         1.59606806]
 [0.1        1.01173367]
 [0.2        0.40164164]
 [0.25666667 1.6352238 ]]",1,0.601
4,f,40,english,5,4,english,2024-02-09 19:58:32.528132,False,2,565,sounds\french\audio/french_426.wav,"[[ 0.         94.83015244]
 [ 0.1        80.74954266]
 [ 0.2        14.22402444]
 [ 0.25666667 92.85203769]]","[[0.         1.95768421]
 [0.1        0.5170286 ]
 [0.2        0.27456075]
 [0.25666667 1.53042381]]",1,1.098
4,f,40,english,5,4,english,2024-02-09 19:58:32.528132,False,2,566,sounds\french\audio/french_636.wav,"[[ 0.         79.1724471 ]
 [ 0.1        25.25700376]
 [ 0.2        72.37529148]
 [ 0.25666667 12.21946345]]","[[0.         0.8082817 ]
 [0.1        1.50975093]
 [0.2        0.99206968]
 [0.25666667 0.17038819]]",0,0.278
4,f,40,english,5,4,english,2024-02-09 19:58:32.528132,False,2,567,sounds\french\audio/french_428.wav,"[[  0.          32.54087273]
 [  0.1        -45.07567034]
 [  0.2         23.18683175]
 [  0.25666667 -58.08389968]]","[[0.         1.95600578]
 [0.1        1.3753822 ]
 [0.2        0.5862849 ]
 [0.25666667 0.11110367]]",1,0.616
4,f,40,english,5,4,english,2024-02-09 19:58:32.528132,False,2,568,sounds\french\audio/french_74.wav,"[[  0.          50.9707996 ]
 [  0.1        -38.59052132]
 [  0.2        -99.50726314]
 [  0.25666667  55.85777384]]","[[0.         1.5114138 ]
 [0.1        1.75968469]
 [0.2        0.36574043]
 [0.25666667 0.66231561]]",0,0.381
4,f,40,english,5,4,english,2024-02-09 19:58:32.528132,False,2,569,sounds\french\audio/french_773.wav,"[[ 0.         44.49367894]
 [ 0.1        -3.70834598]
 [ 0.2        10.6701804 ]
 [ 0.25666667 36.58697532]]","[[0.         1.02864329]
 [0.1        1.31333622]
 [0.2        0.86217131]
 [0.25666667 0.61318027]]",0,0.598
4,f,40,english,5,4,english,2024-02-09 19:58:32.528132,False,2,570,sounds\french\audio/french_171.wav,"[[ 0.         13.3023016 ]
 [ 0.1        25.29505215]
 [ 0.2        -4.58061697]
 [ 0.25666667 34.76288366]]","[[0.         1.00497926]
 [0.1        0.58011724]
 [0.2        1.99843941]
 [0.25666667 1.29013512]]",0,0.693
4,f,40,english,5,4,english,2024-02-09 19:58:32.528132,False,2,571,sounds\french\audio/french_345.wav,"[[  0.         -15.34440167]
 [  0.1         10.78758757]
 [  0.2        -99.05600522]
 [  0.25666667  -6.99010662]]","[[0.         0.71900559]
 [0.1        1.22956467]
 [0.2        1.71608101]
 [0.25666667 1.92257683]]",0,0.442
4,f,40,english,5,4,english,2024-02-09 19:58:32.528132,False,2,572,sounds\french\audio/french_306.wav,"[[  0.          22.4772117 ]
 [  0.1        -23.30683659]
 [  0.2        -85.44667034]
 [  0.25666667 -79.47374411]]","[[0.         0.91979461]
 [0.1        1.83006101]
 [0.2        1.25602607]
 [0.25666667 0.84497865]]",0,0.503
4,f,40,english,5,4,english,2024-02-09 19:58:32.528132,False,2,573,sounds\french\audio/french_306.wav,"[[  0.          22.4772117 ]
 [  0.1        -23.30683659]
 [  0.2        -85.44667034]
 [  0.25666667 -79.47374411]]","[[0.         0.91979461]
 [0.1        1.83006101]
 [0.2        1.25602607]
 [0.25666667 0.84497865]]",0,0.464
4,f,40,english,5,4,english,2024-02-09 19:58:32.528132,False,2,574,sounds\french\audio/french_681.wav,"[[  0.         -28.020652  ]
 [  0.1         -7.04160788]
 [  0.2         53.5795515 ]
 [  0.25666667 -33.12503676]]","[[0.         0.15084138]
 [0.1        1.22079629]
 [0.2        1.97804896]
 [0.25666667 0.44897499]]",0,0.552
4,f,40,english,5,4,english,2024-02-09 19:58:32.528132,False,2,575,sounds\french\audio/french_263.wav,"[[  0.          25.02930943]
 [  0.1         77.59070044]
 [  0.2         61.13366196]
 [  0.25666667 -46.58539851]]","[[0.         0.29249845]
 [0.1        1.82268286]
 [0.2        0.69638669]
 [0.25666667 0.57279137]]",0,1.139
4,f,40,english,5,4,english,2024-02-09 19:58:32.528132,False,2,576,sounds\french\audio/french_269.wav,"[[  0.          34.85044548]
 [  0.1         47.51511781]
 [  0.2         34.15302515]
 [  0.25666667 -55.0259295 ]]","[[0.00000000e+00 6.17924031e-04]
 [1.00000000e-01 1.05540646e+00]
 [2.00000000e-01 9.84234213e-01]
 [2.56666667e-01 8.45106618e-01]]",0,1.229
4,f,40,english,5,4,english,2024-02-09 19:58:32.528132,False,2,577,sounds\french\audio/french_528.wav,"[[  0.          88.85530458]
 [  0.1        -87.19636625]
 [  0.2        -45.08147721]
 [  0.25666667  86.03081593]]","[[0.         1.69331748]
 [0.1        0.73621757]
 [0.2        0.82405603]
 [0.25666667 0.01123483]]",0,0.282
4,f,40,english,5,4,english,2024-02-09 19:58:32.528132,False,2,578,sounds\french\audio/french_772.wav,"[[  0.          13.96800705]
 [  0.1          5.87945336]
 [  0.2         15.35769187]
 [  0.25666667 -12.22278281]]","[[0.         0.2991113 ]
 [0.1        0.00189684]
 [0.2        0.99190584]
 [0.25666667 1.49955539]]",0,1.11
4,f,40,english,5,4,english,2024-02-09 19:58:32.528132,False,2,579,sounds\french\audio/french_689.wav,"[[  0.         -76.83712438]
 [  0.1         64.54047654]
 [  0.2         42.91011154]
 [  0.25666667 -94.73892594]]","[[0.         1.91162084]
 [0.1        0.68488006]
 [0.2        0.17067082]
 [0.25666667 1.05586556]]",0,0.782
4,f,40,english,5,4,english,2024-02-09 19:58:32.528132,False,2,580,sounds\french\audio/french_352.wav,"[[ 0.         74.68489003]
 [ 0.1        96.39949195]
 [ 0.2        90.64764472]
 [ 0.25666667 65.55341103]]","[[0.         0.29948735]
 [0.1        0.51724136]
 [0.2        1.48158799]
 [0.25666667 0.97952247]]",0,0.259
4,f,40,english,5,4,english,2024-02-09 19:58:32.528132,False,2,581,sounds\french\audio/french_746.wav,"[[  0.         -21.92593336]
 [  0.1        -33.34916741]
 [  0.2         -5.0291103 ]
 [  0.25666667 -67.6368859 ]]","[[0.         0.5521476 ]
 [0.1        1.58954792]
 [0.2        0.89586439]
 [0.25666667 0.35939035]]",0,1.194
4,f,40,english,5,4,english,2024-02-09 19:58:32.528132,False,2,582,sounds\french\audio/french_127.wav,"[[ 0.         56.99195339]
 [ 0.1        71.02339704]
 [ 0.2        72.81237495]
 [ 0.25666667 99.25740409]]","[[0.         1.23888103]
 [0.1        1.9853403 ]
 [0.2        0.22936254]
 [0.25666667 0.23690129]]",1,0.672
4,f,40,english,5,4,english,2024-02-09 19:58:32.528132,False,2,583,sounds\french\audio/french_661.wav,"[[  0.          34.1047988 ]
 [  0.1        -45.42737183]
 [  0.2        -32.96226792]
 [  0.25666667  51.87575508]]","[[0.         1.29957539]
 [0.1        0.81809843]
 [0.2        1.39938296]
 [0.25666667 1.33634107]]",0,0.361
4,f,40,english,5,4,english,2024-02-09 19:58:32.528132,False,2,584,sounds\french\audio/french_105.wav,"[[  0.         -23.09315354]
 [  0.1        -46.9361669 ]
 [  0.2         -8.58781729]
 [  0.25666667  56.68271074]]","[[0.         0.81757602]
 [0.1        0.98193048]
 [0.2        1.53786831]
 [0.25666667 0.84600103]]",0,1.077
4,f,40,english,5,4,english,2024-02-09 19:58:32.528132,False,2,585,sounds\french\audio/french_508.wav,"[[  0.          40.98112686]
 [  0.1        -56.96831063]
 [  0.2        -35.39284842]
 [  0.25666667 -19.97238517]]","[[0.         1.35724839]
 [0.1        1.54051685]
 [0.2        1.20443674]
 [0.25666667 1.82942033]]",0,1.52
4,f,40,english,5,4,english,2024-02-09 19:58:32.528132,False,2,586,sounds\french\audio/french_16.wav,"[[  0.          -0.6461067 ]
 [  0.1         90.1568776 ]
 [  0.2         64.8388413 ]
 [  0.25666667 -49.08803112]]","[[0.         1.33944457]
 [0.1        0.35137866]
 [0.2        1.61271584]
 [0.25666667 0.05305125]]",0,0.443
4,f,40,english,5,4,english,2024-02-09 19:58:32.528132,False,2,587,sounds\french\audio/french_520.wav,"[[  0.         -93.2931023 ]
 [  0.1         13.33088057]
 [  0.2        -27.94628904]
 [  0.25666667  -1.59677094]]","[[0.         0.41573501]
 [0.1        0.24185226]
 [0.2        0.74385359]
 [0.25666667 0.80521135]]",0,1.015
4,f,40,english,5,4,english,2024-02-09 19:58:32.528132,False,2,588,sounds\french\audio/french_835.wav,"[[  0.          -1.43190356]
 [  0.1        -99.33286499]
 [  0.2         34.34373885]
 [  0.25666667  39.86329231]]","[[0.         0.4805844 ]
 [0.1        1.12822193]
 [0.2        1.41477947]
 [0.25666667 0.63497531]]",0,0.409
4,f,40,english,5,4,english,2024-02-09 19:58:32.528132,False,2,589,sounds\french\audio/french_342.wav,"[[  0.         -84.22246184]
 [  0.1        -88.55202377]
 [  0.2         12.74462997]
 [  0.25666667 -73.67155113]]","[[0.         0.80111929]
 [0.1        0.92289162]
 [0.2        0.96187701]
 [0.25666667 0.57764427]]",0,0.497
4,f,40,english,5,4,english,2024-02-09 19:58:32.528132,False,2,590,sounds\french\audio/french_833.wav,"[[  0.          -6.16556676]
 [  0.1        -32.48345992]
 [  0.2        -28.28033803]
 [  0.25666667  48.73445236]]","[[0.         1.54939137]
 [0.1        0.45028205]
 [0.2        0.55227402]
 [0.25666667 0.7790443 ]]",0,0.734
4,f,40,english,5,4,english,2024-02-09 19:58:32.528132,False,2,591,sounds\french\audio/french_651.wav,"[[  0.         -39.76270633]
 [  0.1         98.43983978]
 [  0.2        -35.93188367]
 [  0.25666667 -13.56550518]]","[[0.         0.57054307]
 [0.1        0.47887101]
 [0.2        1.36476361]
 [0.25666667 1.70592369]]",0,0.598
4,f,40,english,5,4,english,2024-02-09 19:58:32.528132,False,2,592,sounds\french\audio/french_661.wav,"[[  0.          34.1047988 ]
 [  0.1        -45.42737183]
 [  0.2        -32.96226792]
 [  0.25666667  51.87575508]]","[[0.         1.29957539]
 [0.1        0.81809843]
 [0.2        1.39938296]
 [0.25666667 1.33634107]]",0,0.421
4,f,40,english,5,4,english,2024-02-09 19:58:32.528132,False,2,593,sounds\french\audio/french_82.wav,"[[  0.          82.26293442]
 [  0.1        -13.98955844]
 [  0.2         44.8739745 ]
 [  0.25666667  23.31967993]]","[[0.         0.95636636]
 [0.1        0.8765529 ]
 [0.2        0.75785774]
 [0.25666667 0.26363467]]",0,0.329
4,f,40,english,5,4,english,2024-02-09 19:58:32.528132,False,2,594,sounds\french\audio/french_453.wav,"[[  0.          17.16336321]
 [  0.1        -89.93005254]
 [  0.2         91.22824445]
 [  0.25666667 -84.37948707]]","[[0.         0.53243678]
 [0.1        1.83492113]
 [0.2        1.32944014]
 [0.25666667 0.35681228]]",1,0.827
4,f,40,english,5,4,english,2024-02-09 19:58:32.528132,False,2,595,sounds\french\audio/french_278.wav,"[[  0.           0.92058819]
 [  0.1        -11.12293645]
 [  0.2         51.74113392]
 [  0.25666667  59.96495371]]","[[0.         0.58166089]
 [0.1        0.6190237 ]
 [0.2        1.02661965]
 [0.25666667 0.89915078]]",0,0.493
4,f,40,english,5,4,english,2024-02-09 19:58:32.528132,False,2,596,sounds\french\audio/french_824.wav,"[[  0.          95.58094713]
 [  0.1        -47.05258515]
 [  0.2         43.18521816]
 [  0.25666667  -5.69582576]]","[[0.         1.84230129]
 [0.1        1.74244762]
 [0.2        1.04703492]
 [0.25666667 0.75358401]]",0,0.328
4,f,40,english,5,4,english,2024-02-09 19:58:32.528132,False,2,597,sounds\french\audio/french_918.wav,"[[  0.          73.93932449]
 [  0.1        -96.38016005]
 [  0.2         52.71903464]
 [  0.25666667  71.89996729]]","[[0.         1.12285198]
 [0.1        0.52569443]
 [0.2        1.01384132]
 [0.25666667 0.74683012]]",0,0.284
4,f,40,english,5,4,english,2024-02-09 19:58:32.528132,False,2,598,sounds\french\audio/french_747.wav,"[[  0.          81.67289695]
 [  0.1        -95.51692527]
 [  0.2          8.63144179]
 [  0.25666667 -85.56554801]]","[[0.         0.03581997]
 [0.1        0.40356434]
 [0.2        0.58773385]
 [0.25666667 1.10376778]]",0,0.549
4,f,40,english,5,4,english,2024-02-09 19:58:32.528132,False,2,599,sounds\french\audio/french_792.wav,"[[  0.         -30.95032355]
 [  0.1         73.05460755]
 [  0.2         -0.6809714 ]
 [  0.25666667  25.15150688]]","[[0.         0.5884638 ]
 [0.1        1.61732216]
 [0.2        1.33614238]
 [0.25666667 0.65397567]]",1,0.566
4,f,40,english,5,4,english,2024-02-09 19:58:32.528132,False,2,600,sounds\french\audio/french_996.wav,"[[  0.         -93.3315932 ]
 [  0.1        -68.78176083]
 [  0.2          3.00266898]
 [  0.25666667  26.12825604]]","[[0.         0.70155752]
 [0.1        0.82176857]
 [0.2        1.58504857]
 [0.25666667 1.65873812]]",0,0.356
4,f,40,english,5,4,english,2024-02-09 19:58:32.528132,False,2,601,sounds\french\audio/french_935.wav,"[[  0.         -44.99349069]
 [  0.1        -36.99771552]
 [  0.2         73.94933819]
 [  0.25666667  99.03349287]]","[[0.         1.17032266]
 [0.1        1.41237049]
 [0.2        0.72245199]
 [0.25666667 1.64210213]]",0,0.617
4,f,40,english,5,4,english,2024-02-09 19:58:32.528132,False,2,602,sounds\french\audio/french_364.wav,"[[  0.         -32.92421433]
 [  0.1        -56.96078069]
 [  0.2         44.72635853]
 [  0.25666667  23.55157996]]","[[0.         1.35253812]
 [0.1        1.83722727]
 [0.2        1.43933089]
 [0.25666667 1.1354083 ]]",0,0.458
