subj,sex,age,language,english,french,native_lang,date,practice,block,trial,stim,pitch,stretch,response,rt
8730571689,f,19,english,5,3,english,2024-02-01 10:33:22.879057,True,0,0,sounds\french\audio/french_5.wav,"[[  0.          -2.8714843 ]
 [  0.1        -50.9441672 ]
 [  0.2         56.21180826]
 [  0.25666667 -57.18619957]]","[[0.         1.07181682]
 [0.1        0.56733338]
 [0.2        0.26773361]
 [0.25666667 1.97613039]]",0,9.346
8730571689,f,19,english,5,3,english,2024-02-01 10:33:22.879057,True,0,1,sounds\french\audio/french_422.wav,"[[ 0.         84.96144948]
 [ 0.1        -4.96569357]
 [ 0.2         9.38898655]
 [ 0.25666667 -4.34292742]]","[[0.         0.57918651]
 [0.1        1.20973004]
 [0.2        0.40935242]
 [0.25666667 0.41859168]]",1,1.504
8730571689,f,19,english,5,3,english,2024-02-01 10:33:22.879057,True,0,2,sounds\french\audio/french_922.wav,"[[  0.          16.31592569]
 [  0.1         -2.28258737]
 [  0.2        -89.56675227]
 [  0.25666667  35.85711901]]","[[0.         1.06783245]
 [0.1        0.48563761]
 [0.2        1.02625397]
 [0.25666667 0.82092749]]",0,6.487
8730571689,f,19,english,5,3,english,2024-02-01 10:33:22.879057,False,1,3,sounds\french\audio/french_155.wav,"[[  0.         -70.22582879]
 [  0.1         -4.40112263]
 [  0.2         31.24717972]
 [  0.25666667 -33.70292804]]","[[0.         1.51870869]
 [0.1        0.92589592]
 [0.2        1.81286995]
 [0.25666667 0.86118474]]",1,1.234
8730571689,f,19,english,5,3,english,2024-02-01 10:33:22.879057,False,1,4,sounds\french\audio/french_693.wav,"[[  0.         -47.08934597]
 [  0.1         72.6108529 ]
 [  0.2        -29.7137536 ]
 [  0.25666667  50.01737174]]","[[0.         0.01342517]
 [0.1        0.89682207]
 [0.2        1.48476447]
 [0.25666667 0.05087926]]",0,1.392
8730571689,f,19,english,5,3,english,2024-02-01 10:33:22.879057,False,1,5,sounds\french\audio/french_762.wav,"[[  0.         -45.61990315]
 [  0.1        -38.16727298]
 [  0.2        -15.44626984]
 [  0.25666667 -31.31206952]]","[[0.         0.95776955]
 [0.1        0.16992331]
 [0.2        1.21301125]
 [0.25666667 0.49399223]]",0,0.814
8730571689,f,19,english,5,3,english,2024-02-01 10:33:22.879057,False,1,6,sounds\french\audio/french_858.wav,"[[  0.         -70.8749608 ]
 [  0.1        -68.92821451]
 [  0.2         48.1063746 ]
 [  0.25666667   0.98463207]]","[[0.         0.88986318]
 [0.1        0.34092676]
 [0.2        0.38776381]
 [0.25666667 1.26771376]]",1,1.181
8730571689,f,19,english,5,3,english,2024-02-01 10:33:22.879057,False,1,7,sounds\french\audio/french_251.wav,"[[ 0.         24.13853868]
 [ 0.1        69.59392202]
 [ 0.2         5.2598313 ]
 [ 0.25666667 49.58604743]]","[[0.         0.84222584]
 [0.1        0.35569373]
 [0.2        1.18426262]
 [0.25666667 1.47594706]]",1,3.17
8730571689,f,19,english,5,3,english,2024-02-01 10:33:22.879057,False,1,8,sounds\french\audio/french_525.wav,"[[  0.         -55.71805546]
 [  0.1         69.57832018]
 [  0.2        -61.51619627]
 [  0.25666667 -40.26288332]]","[[0.         1.48564319]
 [0.1        0.7646222 ]
 [0.2        1.98360061]
 [0.25666667 1.91122687]]",1,2.439
8730571689,f,19,english,5,3,english,2024-02-01 10:33:22.879057,False,1,9,sounds\french\audio/french_696.wav,"[[  0.          39.34258856]
 [  0.1         16.85699936]
 [  0.2        -58.01570434]
 [  0.25666667 -91.70212518]]","[[0.         1.15492287]
 [0.1        0.81118798]
 [0.2        0.43841119]
 [0.25666667 1.32812972]]",1,4.664
8730571689,f,19,english,5,3,english,2024-02-01 10:33:22.879057,False,1,10,sounds\french\audio/french_694.wav,"[[  0.          17.77218449]
 [  0.1         99.46599521]
 [  0.2        -15.42512366]
 [  0.25666667 -86.21441247]]","[[0.         1.83585748]
 [0.1        0.80026037]
 [0.2        1.77531791]
 [0.25666667 1.07868716]]",1,4.219
8730571689,f,19,english,5,3,english,2024-02-01 10:33:22.879057,False,1,11,sounds\french\audio/french_622.wav,"[[ 0.         47.12624694]
 [ 0.1        27.16283734]
 [ 0.2        55.37707654]
 [ 0.25666667 -3.25728377]]","[[0.         0.11708635]
 [0.1        1.67756831]
 [0.2        0.50575055]
 [0.25666667 0.46543416]]",0,0.404
8730571689,f,19,english,5,3,english,2024-02-01 10:33:22.879057,False,1,12,sounds\french\audio/french_177.wav,"[[  0.         -69.89314337]
 [  0.1          8.10824913]
 [  0.2         41.02901981]
 [  0.25666667  -9.46888932]]","[[0.         1.41470617]
 [0.1        0.24806543]
 [0.2        1.01013957]
 [0.25666667 0.18165289]]",0,0.441
8730571689,f,19,english,5,3,english,2024-02-01 10:33:22.879057,False,1,13,sounds\french\audio/french_935.wav,"[[  0.         -44.99349069]
 [  0.1        -36.99771552]
 [  0.2         73.94933819]
 [  0.25666667  99.03349287]]","[[0.         1.17032266]
 [0.1        1.41237049]
 [0.2        0.72245199]
 [0.25666667 1.64210213]]",1,0.396
8730571689,f,19,english,5,3,english,2024-02-01 10:33:22.879057,False,1,14,sounds\french\audio/french_94.wav,"[[  0.         -38.18468722]
 [  0.1         61.36042124]
 [  0.2        -21.02312881]
 [  0.25666667 -24.03892562]]","[[0.         1.72805858]
 [0.1        0.90054349]
 [0.2        0.35857958]
 [0.25666667 0.71397413]]",0,0.421
8730571689,f,19,english,5,3,english,2024-02-01 10:33:22.879057,False,1,15,sounds\french\audio/french_789.wav,"[[  0.          16.13130467]
 [  0.1        -53.51301261]
 [  0.2         91.10833978]
 [  0.25666667   9.61415248]]","[[0.         1.41580253]
 [0.1        1.63533644]
 [0.2        0.42839577]
 [0.25666667 0.64971622]]",1,0.494
8730571689,f,19,english,5,3,english,2024-02-01 10:33:22.879057,False,1,16,sounds\french\audio/french_269.wav,"[[  0.          34.85044548]
 [  0.1         47.51511781]
 [  0.2         34.15302515]
 [  0.25666667 -55.0259295 ]]","[[0.00000000e+00 6.17924031e-04]
 [1.00000000e-01 1.05540646e+00]
 [2.00000000e-01 9.84234213e-01]
 [2.56666667e-01 8.45106618e-01]]",0,0.775
8730571689,f,19,english,5,3,english,2024-02-01 10:33:22.879057,False,1,17,sounds\french\audio/french_727.wav,"[[  0.         -15.29396541]
 [  0.1        -26.29552155]
 [  0.2         79.97121571]
 [  0.25666667  55.89998316]]","[[0.         0.40840987]
 [0.1        0.3000398 ]
 [0.2        1.00640838]
 [0.25666667 1.06507384]]",1,0.663
8730571689,f,19,english,5,3,english,2024-02-01 10:33:22.879057,False,1,18,sounds\french\audio/french_383.wav,"[[  0.         -42.4544387 ]
 [  0.1        -90.68336638]
 [  0.2        -23.68224062]
 [  0.25666667 -19.21071009]]","[[0.         1.97405967]
 [0.1        0.7318817 ]
 [0.2        1.2439139 ]
 [0.25666667 0.24057374]]",1,1.72
8730571689,f,19,english,5,3,english,2024-02-01 10:33:22.879057,False,1,19,sounds\french\audio/french_440.wav,"[[  0.         -59.81098651]
 [  0.1         55.41661021]
 [  0.2         43.77043266]
 [  0.25666667  -5.41632891]]","[[0.         0.93400427]
 [0.1        0.25641934]
 [0.2        0.61594081]
 [0.25666667 1.32329824]]",0,0.478
8730571689,f,19,english,5,3,english,2024-02-01 10:33:22.879057,False,1,20,sounds\french\audio/french_733.wav,"[[  0.          96.30835656]
 [  0.1        -16.80147809]
 [  0.2         34.50045069]
 [  0.25666667  -6.11336577]]","[[0.         1.00234216]
 [0.1        0.65355169]
 [0.2        1.63394937]
 [0.25666667 0.15404628]]",1,0.415
8730571689,f,19,english,5,3,english,2024-02-01 10:33:22.879057,False,1,21,sounds\french\audio/french_194.wav,"[[  0.          82.45325258]
 [  0.1         88.9094727 ]
 [  0.2        -44.07936747]
 [  0.25666667  97.80970813]]","[[0.         0.54112087]
 [0.1        0.47601939]
 [0.2        1.71905709]
 [0.25666667 1.16289195]]",1,0.5
8730571689,f,19,english,5,3,english,2024-02-01 10:33:22.879057,False,1,22,sounds\french\audio/french_822.wav,"[[  0.          70.1141555 ]
 [  0.1        -32.80370271]
 [  0.2          9.36864383]
 [  0.25666667 -70.41865943]]","[[0.         0.03091404]
 [0.1        1.54599653]
 [0.2        0.45983016]
 [0.25666667 0.57036726]]",1,1.218
8730571689,f,19,english,5,3,english,2024-02-01 10:33:22.879057,False,1,23,sounds\french\audio/french_416.wav,"[[  0.          27.68943274]
 [  0.1        -10.10461599]
 [  0.2         24.64183683]
 [  0.25666667  96.08137129]]","[[0.         1.77963231]
 [0.1        1.68240888]
 [0.2        1.38997073]
 [0.25666667 0.64151937]]",1,1.148
8730571689,f,19,english,5,3,english,2024-02-01 10:33:22.879057,False,1,24,sounds\french\audio/french_821.wav,"[[  0.          70.15336782]
 [  0.1         -1.11865535]
 [  0.2        -91.54006312]
 [  0.25666667  24.13643902]]","[[0.         1.4099425 ]
 [0.1        1.36643738]
 [0.2        0.06599991]
 [0.25666667 1.20854405]]",0,0.237
8730571689,f,19,english,5,3,english,2024-02-01 10:33:22.879057,False,1,25,sounds\french\audio/french_764.wav,"[[  0.          -8.95969579]
 [  0.1          5.11158076]
 [  0.2          3.7358826 ]
 [  0.25666667 -14.74224302]]","[[0.         0.46272501]
 [0.1        1.84250995]
 [0.2        0.71585727]
 [0.25666667 0.58101627]]",1,0.37
8730571689,f,19,english,5,3,english,2024-02-01 10:33:22.879057,False,1,26,sounds\french\audio/french_908.wav,"[[  0.         -17.448813  ]
 [  0.1         35.46481843]
 [  0.2        -20.0899606 ]
 [  0.25666667 -29.56589343]]","[[0.         1.41004623]
 [0.1        0.76159164]
 [0.2        1.03892063]
 [0.25666667 1.03966959]]",1,0.348
8730571689,f,19,english,5,3,english,2024-02-01 10:33:22.879057,False,1,27,sounds\french\audio/french_532.wav,"[[  0.          51.6664435 ]
 [  0.1         12.38327687]
 [  0.2        -89.35582175]
 [  0.25666667  25.37493155]]","[[0.         1.30171402]
 [0.1        0.03929558]
 [0.2        1.38931331]
 [0.25666667 0.74157834]]",0,0.265
8730571689,f,19,english,5,3,english,2024-02-01 10:33:22.879057,False,1,28,sounds\french\audio/french_259.wav,"[[  0.          34.42813613]
 [  0.1         10.6054277 ]
 [  0.2        -13.69189805]
 [  0.25666667 -89.62004192]]","[[0.         0.3045902 ]
 [0.1        0.51228763]
 [0.2        1.00650156]
 [0.25666667 1.73437165]]",0,0.404
8730571689,f,19,english,5,3,english,2024-02-01 10:33:22.879057,False,1,29,sounds\french\audio/french_72.wav,"[[  0.          87.98067932]
 [  0.1        -81.71579554]
 [  0.2         90.50171836]
 [  0.25666667 -62.13003885]]","[[0.         1.39679477]
 [0.1        1.50716855]
 [0.2        0.40298903]
 [0.25666667 0.67217346]]",1,0.223
8730571689,f,19,english,5,3,english,2024-02-01 10:33:22.879057,False,1,30,sounds\french\audio/french_175.wav,"[[  0.         -66.64800697]
 [  0.1         55.8136762 ]
 [  0.2         13.86880033]
 [  0.25666667  79.77573594]]","[[0.         0.89831181]
 [0.1        1.16054297]
 [0.2        0.04267506]
 [0.25666667 1.48091244]]",1,0.213
8730571689,f,19,english,5,3,english,2024-02-01 10:33:22.879057,False,1,31,sounds\french\audio/french_746.wav,"[[  0.         -21.92593336]
 [  0.1        -33.34916741]
 [  0.2         -5.0291103 ]
 [  0.25666667 -67.6368859 ]]","[[0.         0.5521476 ]
 [0.1        1.58954792]
 [0.2        0.89586439]
 [0.25666667 0.35939035]]",1,2.141
8730571689,f,19,english,5,3,english,2024-02-01 10:33:22.879057,False,1,32,sounds\french\audio/french_100.wav,"[[  0.         -35.75508116]
 [  0.1         57.82815341]
 [  0.2         31.92112674]
 [  0.25666667  34.87308497]]","[[0.         1.72997046]
 [0.1        1.04300978]
 [0.2        1.01595182]
 [0.25666667 1.9286069 ]]",0,1.7
8730571689,f,19,english,5,3,english,2024-02-01 10:33:22.879057,False,1,33,sounds\french\audio/french_537.wav,"[[ 0.         24.94182708]
 [ 0.1        44.89034985]
 [ 0.2        79.4977598 ]
 [ 0.25666667 43.46988515]]","[[0.         0.83905816]
 [0.1        0.4078644 ]
 [0.2        1.66123527]
 [0.25666667 0.90238518]]",0,0.372
8730571689,f,19,english,5,3,english,2024-02-01 10:33:22.879057,False,1,34,sounds\french\audio/french_847.wav,"[[  0.          -8.33122073]
 [  0.1         28.51239659]
 [  0.2        -26.33136573]
 [  0.25666667  21.45038454]]","[[0.         1.64160395]
 [0.1        0.11991739]
 [0.2        1.12824789]
 [0.25666667 0.68287375]]",1,0.416
8730571689,f,19,english,5,3,english,2024-02-01 10:33:22.879057,False,1,35,sounds\french\audio/french_3.wav,"[[  0.         -14.61439924]
 [  0.1         31.18450832]
 [  0.2         25.79538703]
 [  0.25666667  -0.91933426]]","[[0.         1.57160784]
 [0.1        1.95729533]
 [0.2        1.5259075 ]
 [0.25666667 1.3870147 ]]",0,0.319
8730571689,f,19,english,5,3,english,2024-02-01 10:33:22.879057,False,1,36,sounds\french\audio/french_226.wav,"[[  0.          85.32452385]
 [  0.1        -25.06918931]
 [  0.2        -17.89357971]
 [  0.25666667  45.31971501]]","[[0.         1.68909252]
 [0.1        0.17046025]
 [0.2        0.61029189]
 [0.25666667 0.53544367]]",1,0.427
8730571689,f,19,english,5,3,english,2024-02-01 10:33:22.879057,False,1,37,sounds\french\audio/french_246.wav,"[[  0.         -61.30298939]
 [  0.1         15.83987086]
 [  0.2         80.17394669]
 [  0.25666667 -81.65507189]]","[[0.         1.31566238]
 [0.1        1.23869052]
 [0.2        1.57286335]
 [0.25666667 0.07583844]]",1,0.893
8730571689,f,19,english,5,3,english,2024-02-01 10:33:22.879057,False,1,38,sounds\french\audio/french_557.wav,"[[  0.          -4.17762648]
 [  0.1         91.9464138 ]
 [  0.2        -21.05895405]
 [  0.25666667  45.17146044]]","[[0.         0.38732741]
 [0.1        1.58225164]
 [0.2        1.02633772]
 [0.25666667 0.5187484 ]]",0,2.992
8730571689,f,19,english,5,3,english,2024-02-01 10:33:22.879057,False,1,39,sounds\french\audio/french_656.wav,"[[  0.         -58.27241095]
 [  0.1          5.28471923]
 [  0.2         -0.12743408]
 [  0.25666667  84.54596147]]","[[0.         0.65184251]
 [0.1        0.59376501]
 [0.2        1.90668759]
 [0.25666667 1.25760212]]",1,0.879
8730571689,f,19,english,5,3,english,2024-02-01 10:33:22.879057,False,1,40,sounds\french\audio/french_885.wav,"[[  0.          33.82264354]
 [  0.1        -17.07734064]
 [  0.2        -15.93967404]
 [  0.25666667  58.67746901]]","[[0.         0.94046277]
 [0.1        0.79714646]
 [0.2        1.26873891]
 [0.25666667 1.69592015]]",1,1.97
8730571689,f,19,english,5,3,english,2024-02-01 10:33:22.879057,False,1,41,sounds\french\audio/french_684.wav,"[[  0.          48.27990123]
 [  0.1          7.94375198]
 [  0.2          8.02227037]
 [  0.25666667 -51.87380122]]","[[0.         1.19178247]
 [0.1        1.19295899]
 [0.2        0.65877552]
 [0.25666667 1.73612438]]",0,1.016
8730571689,f,19,english,5,3,english,2024-02-01 10:33:22.879057,False,1,42,sounds\french\audio/french_809.wav,"[[  0.         -35.34138518]
 [  0.1        -27.53268432]
 [  0.2         -4.59062168]
 [  0.25666667  54.17413939]]","[[0.         0.91250327]
 [0.1        1.55486221]
 [0.2        0.05513513]
 [0.25666667 0.74937359]]",0,0.658
8730571689,f,19,english,5,3,english,2024-02-01 10:33:22.879057,False,1,43,sounds\french\audio/french_312.wav,"[[  0.         -19.98952993]
 [  0.1         50.70617954]
 [  0.2         80.27383631]
 [  0.25666667  31.55502425]]","[[0.         1.92157149]
 [0.1        0.53263035]
 [0.2        1.8452111 ]
 [0.25666667 1.73122835]]",1,0.282
8730571689,f,19,english,5,3,english,2024-02-01 10:33:22.879057,False,1,44,sounds\french\audio/french_810.wav,"[[  0.          76.35600219]
 [  0.1         33.05643104]
 [  0.2         14.69103946]
 [  0.25666667 -16.26362119]]","[[0.         0.51042634]
 [0.1        0.40354819]
 [0.2        0.8135704 ]
 [0.25666667 0.38644961]]",1,2.063
8730571689,f,19,english,5,3,english,2024-02-01 10:33:22.879057,False,1,45,sounds\french\audio/french_128.wav,"[[ 0.         -0.75176629]
 [ 0.1        -3.23197706]
 [ 0.2        64.47029617]
 [ 0.25666667 94.12909321]]","[[0.         0.45078366]
 [0.1        0.83766587]
 [0.2        1.36622775]
 [0.25666667 1.47043343]]",0,3.846
8730571689,f,19,english,5,3,english,2024-02-01 10:33:22.879057,False,1,46,sounds\french\audio/french_383.wav,"[[  0.         -42.4544387 ]
 [  0.1        -90.68336638]
 [  0.2        -23.68224062]
 [  0.25666667 -19.21071009]]","[[0.         1.97405967]
 [0.1        0.7318817 ]
 [0.2        1.2439139 ]
 [0.25666667 0.24057374]]",1,0.327
8730571689,f,19,english,5,3,english,2024-02-01 10:33:22.879057,False,1,47,sounds\french\audio/french_3.wav,"[[  0.         -14.61439924]
 [  0.1         31.18450832]
 [  0.2         25.79538703]
 [  0.25666667  -0.91933426]]","[[0.         1.57160784]
 [0.1        1.95729533]
 [0.2        1.5259075 ]
 [0.25666667 1.3870147 ]]",1,0.189
8730571689,f,19,english,5,3,english,2024-02-01 10:33:22.879057,False,1,48,sounds\french\audio/french_408.wav,"[[  0.         -97.26027128]
 [  0.1         85.50928544]
 [  0.2         52.29826895]
 [  0.25666667  54.6689314 ]]","[[0.         0.27661041]
 [0.1        0.07889603]
 [0.2        1.21380046]
 [0.25666667 1.65990502]]",1,1.256
8730571689,f,19,english,5,3,english,2024-02-01 10:33:22.879057,False,1,49,sounds\french\audio/french_610.wav,"[[  0.          41.67803598]
 [  0.1         50.6586837 ]
 [  0.2        -85.20353251]
 [  0.25666667 -12.88596769]]","[[0.         0.10564039]
 [0.1        1.22556883]
 [0.2        1.48633574]
 [0.25666667 1.12124299]]",0,0.356
8730571689,f,19,english,5,3,english,2024-02-01 10:33:22.879057,False,1,50,sounds\french\audio/french_884.wav,"[[  0.          44.18626496]
 [  0.1        -64.95611773]
 [  0.2        -49.1644617 ]
 [  0.25666667 -37.6294576 ]]","[[0.         0.26295785]
 [0.1        1.5401655 ]
 [0.2        1.25089254]
 [0.25666667 1.82171191]]",0,1.651
8730571689,f,19,english,5,3,english,2024-02-01 10:33:22.879057,False,1,51,sounds\french\audio/french_655.wav,"[[  0.           4.60078694]
 [  0.1         90.51966262]
 [  0.2        -72.80105835]
 [  0.25666667  32.46228297]]","[[0.         1.00375004]
 [0.1        1.23726083]
 [0.2        1.08672065]
 [0.25666667 0.32613357]]",1,4.824
8730571689,f,19,english,5,3,english,2024-02-01 10:33:22.879057,False,1,52,sounds\french\audio/french_850.wav,"[[  0.         -88.87179188]
 [  0.1         15.70736636]
 [  0.2         67.7730952 ]
 [  0.25666667 -20.3872908 ]]","[[0.         0.91597825]
 [0.1        0.21425776]
 [0.2        1.52338939]
 [0.25666667 0.55241946]]",0,0.543
8730571689,f,19,english,5,3,english,2024-02-01 10:33:22.879057,False,1,53,sounds\french\audio/french_375.wav,"[[  0.          25.91972282]
 [  0.1        -60.98407933]
 [  0.2        -55.02276561]
 [  0.25666667  50.70039074]]","[[0.         0.89929791]
 [0.1        0.6101435 ]
 [0.2        1.65353502]
 [0.25666667 0.66964756]]",1,1.147
8730571689,f,19,english,5,3,english,2024-02-01 10:33:22.879057,False,1,54,sounds\french\audio/french_487.wav,"[[  0.          26.50580686]
 [  0.1        -34.14449754]
 [  0.2         66.18137857]
 [  0.25666667  -7.03677771]]","[[0.         1.63350644]
 [0.1        1.29368608]
 [0.2        0.20656395]
 [0.25666667 1.93991824]]",0,4.859
8730571689,f,19,english,5,3,english,2024-02-01 10:33:22.879057,False,1,55,sounds\french\audio/french_297.wav,"[[ 0.         66.56614261]
 [ 0.1        -3.32812159]
 [ 0.2        85.62103424]
 [ 0.25666667 92.99895728]]","[[0.         0.35086225]
 [0.1        1.7876007 ]
 [0.2        0.63077709]
 [0.25666667 0.65985351]]",0,0.453
8730571689,f,19,english,5,3,english,2024-02-01 10:33:22.879057,False,1,56,sounds\french\audio/french_45.wav,"[[  0.           6.51510613]
 [  0.1        -86.25018513]
 [  0.2        -60.46903131]
 [  0.25666667 -48.31089161]]","[[0.         0.83763225]
 [0.1        1.19709151]
 [0.2        0.87484565]
 [0.25666667 0.45414185]]",1,0.251
8730571689,f,19,english,5,3,english,2024-02-01 10:33:22.879057,False,1,57,sounds\french\audio/french_537.wav,"[[ 0.         24.94182708]
 [ 0.1        44.89034985]
 [ 0.2        79.4977598 ]
 [ 0.25666667 43.46988515]]","[[0.         0.83905816]
 [0.1        0.4078644 ]
 [0.2        1.66123527]
 [0.25666667 0.90238518]]",0,0.46
8730571689,f,19,english,5,3,english,2024-02-01 10:33:22.879057,False,1,58,sounds\french\audio/french_17.wav,"[[ 0.         61.86852427]
 [ 0.1        14.81642836]
 [ 0.2        -8.48865215]
 [ 0.25666667 71.68336874]]","[[0.         1.05769551]
 [0.1        0.81667418]
 [0.2        0.51249479]
 [0.25666667 0.29939213]]",0,0.64
8730571689,f,19,english,5,3,english,2024-02-01 10:33:22.879057,False,1,59,sounds\french\audio/french_591.wav,"[[  0.           2.66615607]
 [  0.1        -24.26502045]
 [  0.2        -31.81388833]
 [  0.25666667  34.70768216]]","[[0.         1.05020949]
 [0.1        0.55521736]
 [0.2        0.20807215]
 [0.25666667 1.08119284]]",1,0.25
8730571689,f,19,english,5,3,english,2024-02-01 10:33:22.879057,False,1,60,sounds\french\audio/french_489.wav,"[[  0.           0.49645075]
 [  0.1        -49.42249353]
 [  0.2          3.0196593 ]
 [  0.25666667  11.9492669 ]]","[[0.         0.76062229]
 [0.1        1.72041063]
 [0.2        0.72496435]
 [0.25666667 0.84736567]]",1,0.165
8730571689,f,19,english,5,3,english,2024-02-01 10:33:22.879057,False,1,61,sounds\french\audio/french_367.wav,"[[  0.         -74.25610099]
 [  0.1        -44.66143863]
 [  0.2        -39.26529042]
 [  0.25666667 -84.95145566]]","[[0.         1.28932343]
 [0.1        1.13980767]
 [0.2        1.487469  ]
 [0.25666667 0.37349724]]",1,0.613
8730571689,f,19,english,5,3,english,2024-02-01 10:33:22.879057,False,1,62,sounds\french\audio/french_774.wav,"[[  0.         -35.29041546]
 [  0.1        -21.07774935]
 [  0.2        -42.95062976]
 [  0.25666667 -27.37747858]]","[[0.         0.24909556]
 [0.1        0.81236123]
 [0.2        0.84475887]
 [0.25666667 0.12641702]]",0,0.302
8730571689,f,19,english,5,3,english,2024-02-01 10:33:22.879057,False,1,63,sounds\french\audio/french_664.wav,"[[  0.          -2.08032019]
 [  0.1        -67.02716902]
 [  0.2         95.17650789]
 [  0.25666667 -41.34718039]]","[[0.         1.43741932]
 [0.1        1.07099048]
 [0.2        1.92774669]
 [0.25666667 0.70027683]]",1,0.216
8730571689,f,19,english,5,3,english,2024-02-01 10:33:22.879057,False,1,64,sounds\french\audio/french_530.wav,"[[  0.         -48.266975  ]
 [  0.1         10.53522492]
 [  0.2        -70.81391458]
 [  0.25666667 -13.69241617]]","[[0.         0.22885815]
 [0.1        0.99708564]
 [0.2        0.43471164]
 [0.25666667 0.61022423]]",0,0.569
8730571689,f,19,english,5,3,english,2024-02-01 10:33:22.879057,False,1,65,sounds\french\audio/french_257.wav,"[[  0.           1.27289853]
 [  0.1         62.04423448]
 [  0.2         19.88889926]
 [  0.25666667 -46.96649461]]","[[0.         1.18383926]
 [0.1        0.46495515]
 [0.2        0.91766752]
 [0.25666667 1.75135473]]",1,1.647
8730571689,f,19,english,5,3,english,2024-02-01 10:33:22.879057,False,1,66,sounds\french\audio/french_821.wav,"[[  0.          70.15336782]
 [  0.1         -1.11865535]
 [  0.2        -91.54006312]
 [  0.25666667  24.13643902]]","[[0.         1.4099425 ]
 [0.1        1.36643738]
 [0.2        0.06599991]
 [0.25666667 1.20854405]]",1,0.415
8730571689,f,19,english,5,3,english,2024-02-01 10:33:22.879057,False,1,67,sounds\french\audio/french_759.wav,"[[  0.          43.66892012]
 [  0.1         28.75822808]
 [  0.2        -53.65094598]
 [  0.25666667 -79.66264825]]","[[0.         0.9017147 ]
 [0.1        1.01118462]
 [0.2        1.43326948]
 [0.25666667 0.32927354]]",1,0.408
8730571689,f,19,english,5,3,english,2024-02-01 10:33:22.879057,False,1,68,sounds\french\audio/french_936.wav,"[[  0.         -20.69739044]
 [  0.1         11.25896305]
 [  0.2        -73.43688333]
 [  0.25666667  14.6038409 ]]","[[0.         1.81100612]
 [0.1        0.34150345]
 [0.2        0.78598688]
 [0.25666667 0.34536881]]",0,0.393
8730571689,f,19,english,5,3,english,2024-02-01 10:33:22.879057,False,1,69,sounds\french\audio/french_515.wav,"[[  0.          90.1787868 ]
 [  0.1         95.19464712]
 [  0.2        -71.09612906]
 [  0.25666667  86.48037909]]","[[0.         1.05169603]
 [0.1        0.16234368]
 [0.2        1.85560054]
 [0.25666667 0.23492468]]",0,0.461
8730571689,f,19,english,5,3,english,2024-02-01 10:33:22.879057,False,1,70,sounds\french\audio/french_703.wav,"[[  0.          84.48201003]
 [  0.1        -13.2968245 ]
 [  0.2        -49.01598543]
 [  0.25666667 -63.56156529]]","[[0.         0.82331622]
 [0.1        1.50639414]
 [0.2        0.83966854]
 [0.25666667 1.27848793]]",1,1.253
8730571689,f,19,english,5,3,english,2024-02-01 10:33:22.879057,False,1,71,sounds\french\audio/french_43.wav,"[[  0.          -6.86336629]
 [  0.1          1.3862511 ]
 [  0.2        -46.66652787]
 [  0.25666667  99.62545591]]","[[0.         1.4879687 ]
 [0.1        1.50259819]
 [0.2        1.37505073]
 [0.25666667 0.7561706 ]]",1,1.199
8730571689,f,19,english,5,3,english,2024-02-01 10:33:22.879057,False,1,72,sounds\french\audio/french_326.wav,"[[  0.         -63.35446608]
 [  0.1         12.54179258]
 [  0.2          2.59324468]
 [  0.25666667  34.92537359]]","[[0.         1.54071776]
 [0.1        0.67448432]
 [0.2        0.56210636]
 [0.25666667 1.5196438 ]]",1,0.934
8730571689,f,19,english,5,3,english,2024-02-01 10:33:22.879057,False,1,73,sounds\french\audio/french_426.wav,"[[ 0.         94.83015244]
 [ 0.1        80.74954266]
 [ 0.2        14.22402444]
 [ 0.25666667 92.85203769]]","[[0.         1.95768421]
 [0.1        0.5170286 ]
 [0.2        0.27456075]
 [0.25666667 1.53042381]]",1,1.046
8730571689,f,19,english,5,3,english,2024-02-01 10:33:22.879057,False,1,74,sounds\french\audio/french_803.wav,"[[ 0.         52.60083548]
 [ 0.1        69.87806401]
 [ 0.2        -5.78457695]
 [ 0.25666667 80.81591727]]","[[0.         1.16065927]
 [0.1        1.31848068]
 [0.2        1.09352717]
 [0.25666667 0.48205773]]",1,1.681
8730571689,f,19,english,5,3,english,2024-02-01 10:33:22.879057,False,1,75,sounds\french\audio/french_482.wav,"[[  0.          30.59556471]
 [  0.1        -28.15674373]
 [  0.2        -30.08163346]
 [  0.25666667  89.23902938]]","[[0.         1.3609553 ]
 [0.1        1.03507415]
 [0.2        1.60461159]
 [0.25666667 0.68082645]]",1,1.676
8730571689,f,19,english,5,3,english,2024-02-01 10:33:22.879057,False,1,76,sounds\french\audio/french_364.wav,"[[  0.         -32.92421433]
 [  0.1        -56.96078069]
 [  0.2         44.72635853]
 [  0.25666667  23.55157996]]","[[0.         1.35253812]
 [0.1        1.83722727]
 [0.2        1.43933089]
 [0.25666667 1.1354083 ]]",0,0.143
8730571689,f,19,english,5,3,english,2024-02-01 10:33:22.879057,False,1,77,sounds\french\audio/french_632.wav,"[[  0.         -75.14768165]
 [  0.1         -2.61560916]
 [  0.2        -59.30318173]
 [  0.25666667 -18.46762736]]","[[0.         1.61991752]
 [0.1        1.85762338]
 [0.2        1.4379908 ]
 [0.25666667 1.77571767]]",0,0.545
8730571689,f,19,english,5,3,english,2024-02-01 10:33:22.879057,False,1,78,sounds\french\audio/french_481.wav,"[[  0.         -44.05926666]
 [  0.1         85.82418432]
 [  0.2         87.54559417]
 [  0.25666667  50.04191005]]","[[0.         1.24899263]
 [0.1        1.22078865]
 [0.2        0.10859618]
 [0.25666667 0.19634609]]",1,0.457
8730571689,f,19,english,5,3,english,2024-02-01 10:33:22.879057,False,1,79,sounds\french\audio/french_293.wav,"[[  0.         -11.30043192]
 [  0.1        -69.36716709]
 [  0.2         65.20751159]
 [  0.25666667  27.71872742]]","[[0.         0.58860684]
 [0.1        0.23928943]
 [0.2        1.00971501]
 [0.25666667 0.31746318]]",0,0.837
8730571689,f,19,english,5,3,english,2024-02-01 10:33:22.879057,False,1,80,sounds\french\audio/french_24.wav,"[[  0.         -90.56488298]
 [  0.1        -50.97686263]
 [  0.2         15.79918005]
 [  0.25666667   3.83977191]]","[[0.         1.23408284]
 [0.1        0.21485458]
 [0.2        0.7737077 ]
 [0.25666667 0.99994749]]",0,1.868
8730571689,f,19,english,5,3,english,2024-02-01 10:33:22.879057,False,1,81,sounds\french\audio/french_407.wav,"[[  0.         -57.6292462 ]
 [  0.1        -25.10683904]
 [  0.2         13.09742102]
 [  0.25666667  -8.98604593]]","[[0.         1.8651924 ]
 [0.1        1.55880725]
 [0.2        1.30220718]
 [0.25666667 1.55663467]]",1,0.248
8730571689,f,19,english,5,3,english,2024-02-01 10:33:22.879057,False,1,82,sounds\french\audio/french_322.wav,"[[  0.          11.21723197]
 [  0.1         71.99064207]
 [  0.2        -70.2949895 ]
 [  0.25666667 -90.37135255]]","[[0.         0.46669198]
 [0.1        0.00506582]
 [0.2        0.23170645]
 [0.25666667 0.39597554]]",0,0.423
8730571689,f,19,english,5,3,english,2024-02-01 10:33:22.879057,False,1,83,sounds\french\audio/french_220.wav,"[[  0.          99.39862809]
 [  0.1        -16.44954754]
 [  0.2        -73.93109837]
 [  0.25666667 -37.75571533]]","[[0.         1.95391084]
 [0.1        1.60430152]
 [0.2        1.1953066 ]
 [0.25666667 0.34699919]]",1,0.241
8730571689,f,19,english,5,3,english,2024-02-01 10:33:22.879057,False,1,84,sounds\french\audio/french_408.wav,"[[  0.         -97.26027128]
 [  0.1         85.50928544]
 [  0.2         52.29826895]
 [  0.25666667  54.6689314 ]]","[[0.         0.27661041]
 [0.1        0.07889603]
 [0.2        1.21380046]
 [0.25666667 1.65990502]]",0,0.367
8730571689,f,19,english,5,3,english,2024-02-01 10:33:22.879057,False,1,85,sounds\french\audio/french_75.wav,"[[  0.          -2.54190785]
 [  0.1        -18.79561653]
 [  0.2        -63.16754008]
 [  0.25666667 -38.64547488]]","[[0.         0.75594209]
 [0.1        0.77713134]
 [0.2        0.0667883 ]
 [0.25666667 0.54855801]]",1,0.623
8730571689,f,19,english,5,3,english,2024-02-01 10:33:22.879057,False,1,86,sounds\french\audio/french_898.wav,"[[  0.         -10.33405821]
 [  0.1         56.62547765]
 [  0.2         26.06756425]
 [  0.25666667  61.22858123]]","[[0.         1.53220968]
 [0.1        1.11219982]
 [0.2        1.10520568]
 [0.25666667 0.66903516]]",1,0.682
8730571689,f,19,english,5,3,english,2024-02-01 10:33:22.879057,False,1,87,sounds\french\audio/french_287.wav,"[[  0.          -6.24804435]
 [  0.1        -47.42967866]
 [  0.2        -83.16585562]
 [  0.25666667  77.49694817]]","[[0.         1.11596696]
 [0.1        0.08887129]
 [0.2        1.70974676]
 [0.25666667 0.42476907]]",1,0.56
8730571689,f,19,english,5,3,english,2024-02-01 10:33:22.879057,False,1,88,sounds\french\audio/french_205.wav,"[[  0.          31.24463061]
 [  0.1        -22.87848896]
 [  0.2        -36.82881223]
 [  0.25666667 -47.84026219]]","[[0.         0.69283155]
 [0.1        1.55894518]
 [0.2        1.67941014]
 [0.25666667 0.92091984]]",1,0.342
8730571689,f,19,english,5,3,english,2024-02-01 10:33:22.879057,False,1,89,sounds\french\audio/french_499.wav,"[[  0.          24.28229917]
 [  0.1        -90.85236303]
 [  0.2        -60.29957953]
 [  0.25666667  91.79807534]]","[[0.         0.76159538]
 [0.1        0.50536641]
 [0.2        0.99158085]
 [0.25666667 1.05465089]]",1,0.428
8730571689,f,19,english,5,3,english,2024-02-01 10:33:22.879057,False,1,90,sounds\french\audio/french_700.wav,"[[  0.          27.78595998]
 [  0.1        -29.96160528]
 [  0.2         60.6733782 ]
 [  0.25666667  39.12324738]]","[[0.         1.84943535]
 [0.1        0.52483958]
 [0.2        0.55672926]
 [0.25666667 0.96842636]]",0,0.469
8730571689,f,19,english,5,3,english,2024-02-01 10:33:22.879057,False,1,91,sounds\french\audio/french_443.wav,"[[  0.         -70.8287672 ]
 [  0.1        -57.74098156]
 [  0.2         -4.83347895]
 [  0.25666667 -81.70376308]]","[[0.         0.48827419]
 [0.1        0.38931866]
 [0.2        0.64406231]
 [0.25666667 1.21599086]]",0,0.563
8730571689,f,19,english,5,3,english,2024-02-01 10:33:22.879057,False,1,92,sounds\french\audio/french_245.wav,"[[  0.         -61.74573417]
 [  0.1         71.88692077]
 [  0.2        -28.60272728]
 [  0.25666667  -6.96353839]]","[[0.         0.99313774]
 [0.1        1.19752892]
 [0.2        1.585112  ]
 [0.25666667 1.16753586]]",1,0.227
8730571689,f,19,english,5,3,english,2024-02-01 10:33:22.879057,False,1,93,sounds\french\audio/french_190.wav,"[[ 0.         69.06529403]
 [ 0.1        69.42395119]
 [ 0.2        67.79801708]
 [ 0.25666667 63.92857008]]","[[0.         1.3481685 ]
 [0.1        0.73404764]
 [0.2        1.27794388]
 [0.25666667 1.43465572]]",1,0.307
8730571689,f,19,english,5,3,english,2024-02-01 10:33:22.879057,False,1,94,sounds\french\audio/french_672.wav,"[[ 0.         -6.36877595]
 [ 0.1        45.21137281]
 [ 0.2        80.52737907]
 [ 0.25666667 83.07440583]]","[[0.         1.19503778]
 [0.1        0.09977323]
 [0.2        0.72738581]
 [0.25666667 0.28099012]]",1,1.218
8730571689,f,19,english,5,3,english,2024-02-01 10:33:22.879057,False,1,95,sounds\french\audio/french_704.wav,"[[  0.          47.78235411]
 [  0.1        -55.43932   ]
 [  0.2         -4.4200676 ]
 [  0.25666667  92.51428674]]","[[0.         1.53952375]
 [0.1        1.15285736]
 [0.2        1.9057017 ]
 [0.25666667 1.54517481]]",1,0.32
8730571689,f,19,english,5,3,english,2024-02-01 10:33:22.879057,False,1,96,sounds\french\audio/french_948.wav,"[[  0.          54.2755123 ]
 [  0.1        -26.53776759]
 [  0.2        -51.24045856]
 [  0.25666667  84.11086463]]","[[0.         0.60698289]
 [0.1        1.07019337]
 [0.2        1.47276383]
 [0.25666667 1.01044713]]",1,2.53
8730571689,f,19,english,5,3,english,2024-02-01 10:33:22.879057,False,1,97,sounds\french\audio/french_735.wav,"[[  0.          16.11120967]
 [  0.1        -19.98897555]
 [  0.2         68.29513728]
 [  0.25666667  31.40150104]]","[[0.         0.14330821]
 [0.1        0.00237292]
 [0.2        1.1733856 ]
 [0.25666667 0.51599842]]",0,0.829
8730571689,f,19,english,5,3,english,2024-02-01 10:33:22.879057,False,1,98,sounds\french\audio/french_611.wav,"[[  0.         -21.77805362]
 [  0.1        -45.2722057 ]
 [  0.2         67.02777506]
 [  0.25666667 -75.35716628]]","[[0.         0.549449  ]
 [0.1        0.20224538]
 [0.2        1.0051208 ]
 [0.25666667 1.31223223]]",0,0.874
8730571689,f,19,english,5,3,english,2024-02-01 10:33:22.879057,False,1,99,sounds\french\audio/french_387.wav,"[[  0.         -24.2271051 ]
 [  0.1        -69.58889879]
 [  0.2         21.02997226]
 [  0.25666667  58.82746302]]","[[0.         0.1957751 ]
 [0.1        0.86781049]
 [0.2        1.73501265]
 [0.25666667 1.75042849]]",1,0.437
8730571689,f,19,english,5,3,english,2024-02-01 10:33:22.879057,False,1,100,sounds\french\audio/french_713.wav,"[[  0.          93.33204992]
 [  0.1        -15.69856834]
 [  0.2         18.82527382]
 [  0.25666667 -49.17212055]]","[[0.         0.23689023]
 [0.1        0.32059987]
 [0.2        0.78497323]
 [0.25666667 0.28269646]]",0,0.678
8730571689,f,19,english,5,3,english,2024-02-01 10:33:22.879057,False,1,101,sounds\french\audio/french_940.wav,"[[  0.          60.64207397]
 [  0.1        -16.07257124]
 [  0.2        -38.93693506]
 [  0.25666667 -22.19838027]]","[[0.         1.38818271]
 [0.1        1.64047706]
 [0.2        1.31963125]
 [0.25666667 1.73227719]]",1,0.287
8730571689,f,19,english,5,3,english,2024-02-01 10:33:22.879057,False,1,102,sounds\french\audio/french_858.wav,"[[  0.         -70.8749608 ]
 [  0.1        -68.92821451]
 [  0.2         48.1063746 ]
 [  0.25666667   0.98463207]]","[[0.         0.88986318]
 [0.1        0.34092676]
 [0.2        0.38776381]
 [0.25666667 1.26771376]]",0,0.67
8730571689,f,19,english,5,3,english,2024-02-01 10:33:22.879057,False,1,103,sounds\french\audio/french_641.wav,"[[  0.         -92.89939655]
 [  0.1         80.14352585]
 [  0.2         74.03041043]
 [  0.25666667  18.97683281]]","[[0.         0.72916007]
 [0.1        1.01323436]
 [0.2        0.998205  ]
 [0.25666667 0.30086371]]",1,0.393
8730571689,f,19,english,5,3,english,2024-02-01 10:33:22.879057,False,1,104,sounds\french\audio/french_637.wav,"[[ 0.         35.81604326]
 [ 0.1        -3.18432816]
 [ 0.2        50.06715701]
 [ 0.25666667 13.82838787]]","[[0.         0.01301393]
 [0.1        0.82513299]
 [0.2        0.10233849]
 [0.25666667 0.87921638]]",0,0.531
8730571689,f,19,english,5,3,english,2024-02-01 10:33:22.879057,False,1,105,sounds\french\audio/french_118.wav,"[[  0.          26.93316006]
 [  0.1        -22.92967869]
 [  0.2        -61.93287208]
 [  0.25666667 -97.08418949]]","[[0.         1.47067426]
 [0.1        1.58231537]
 [0.2        1.01494319]
 [0.25666667 0.71977579]]",0,0.41
8730571689,f,19,english,5,3,english,2024-02-01 10:33:22.879057,False,1,106,sounds\french\audio/french_53.wav,"[[  0.          -2.35814843]
 [  0.1        -48.73544303]
 [  0.2         38.27016364]
 [  0.25666667 -31.96265424]]","[[0.         1.83928924]
 [0.1        0.78912936]
 [0.2        0.60668558]
 [0.25666667 0.83130548]]",1,0.273
8730571689,f,19,english,5,3,english,2024-02-01 10:33:22.879057,False,1,107,sounds\french\audio/french_533.wav,"[[  0.          16.04004141]
 [  0.1         56.74964814]
 [  0.2         94.00728235]
 [  0.25666667 -15.92685786]]","[[0.         1.94214745]
 [0.1        0.96958639]
 [0.2        1.49563925]
 [0.25666667 1.75047909]]",1,0.517
8730571689,f,19,english,5,3,english,2024-02-01 10:33:22.879057,False,1,108,sounds\french\audio/french_575.wav,"[[  0.          32.80241223]
 [  0.1         11.70984026]
 [  0.2        -24.23897751]
 [  0.25666667   5.92669397]]","[[0.         0.38229386]
 [0.1        0.34252019]
 [0.2        1.12781483]
 [0.25666667 1.51292739]]",0,7.114
8730571689,f,19,english,5,3,english,2024-02-01 10:33:22.879057,False,1,109,sounds\french\audio/french_808.wav,"[[  0.         -62.09526538]
 [  0.1         21.23234707]
 [  0.2        -93.15759374]
 [  0.25666667 -35.4638748 ]]","[[0.         1.28254738]
 [0.1        0.50843795]
 [0.2        0.88416038]
 [0.25666667 1.60061847]]",1,0.446
8730571689,f,19,english,5,3,english,2024-02-01 10:33:22.879057,False,1,110,sounds\french\audio/french_756.wav,"[[  0.          35.62001521]
 [  0.1         29.8199127 ]
 [  0.2         -2.36977437]
 [  0.25666667 -73.14220453]]","[[0.         0.86430693]
 [0.1        1.17673467]
 [0.2        1.63370718]
 [0.25666667 1.98740672]]",1,0.683
8730571689,f,19,english,5,3,english,2024-02-01 10:33:22.879057,False,1,111,sounds\french\audio/french_412.wav,"[[  0.         -59.33534007]
 [  0.1        -79.1774496 ]
 [  0.2        -38.59435565]
 [  0.25666667  65.74010912]]","[[0.         1.02487397]
 [0.1        0.54283138]
 [0.2        0.86213444]
 [0.25666667 0.54314794]]",0,2.001
8730571689,f,19,english,5,3,english,2024-02-01 10:33:22.879057,False,1,112,sounds\french\audio/french_602.wav,"[[ 0.         88.5156033 ]
 [ 0.1        50.37840389]
 [ 0.2        41.99983627]
 [ 0.25666667 11.33520808]]","[[0.         1.15034926]
 [0.1        0.70361943]
 [0.2        1.85629911]
 [0.25666667 0.32194213]]",0,1.055
8730571689,f,19,english,5,3,english,2024-02-01 10:33:22.879057,False,1,113,sounds\french\audio/french_945.wav,"[[  0.         -68.75533602]
 [  0.1        -70.31736245]
 [  0.2         30.11750803]
 [  0.25666667 -35.89247017]]","[[0.         0.74886616]
 [0.1        1.09629777]
 [0.2        0.8052417 ]
 [0.25666667 0.22664311]]",1,0.312
8730571689,f,19,english,5,3,english,2024-02-01 10:33:22.879057,False,1,114,sounds\french\audio/french_534.wav,"[[  0.          96.41776506]
 [  0.1        -53.52749338]
 [  0.2         51.10087415]
 [  0.25666667  27.39654188]]","[[0.         0.28463844]
 [0.1        1.69872517]
 [0.2        0.80798533]
 [0.25666667 1.79838566]]",1,0.464
8730571689,f,19,english,5,3,english,2024-02-01 10:33:22.879057,False,1,115,sounds\french\audio/french_953.wav,"[[  0.         -27.22394829]
 [  0.1         -3.36109764]
 [  0.2         79.96390299]
 [  0.25666667 -20.83871742]]","[[0.         1.27693125]
 [0.1        0.12331262]
 [0.2        1.48485403]
 [0.25666667 0.51230705]]",0,0.577
8730571689,f,19,english,5,3,english,2024-02-01 10:33:22.879057,False,1,116,sounds\french\audio/french_878.wav,"[[  0.         -11.41587957]
 [  0.1        -52.86145621]
 [  0.2         10.56905128]
 [  0.25666667  87.23323491]]","[[0.         1.5495917 ]
 [0.1        0.92573348]
 [0.2        0.71371417]
 [0.25666667 0.72785239]]",1,0.298
8730571689,f,19,english,5,3,english,2024-02-01 10:33:22.879057,False,1,117,sounds\french\audio/french_128.wav,"[[ 0.         -0.75176629]
 [ 0.1        -3.23197706]
 [ 0.2        64.47029617]
 [ 0.25666667 94.12909321]]","[[0.         0.45078366]
 [0.1        0.83766587]
 [0.2        1.36622775]
 [0.25666667 1.47043343]]",0,1.977
8730571689,f,19,english,5,3,english,2024-02-01 10:33:22.879057,False,1,118,sounds\french\audio/french_644.wav,"[[  0.           8.48376577]
 [  0.1          5.7720639 ]
 [  0.2        -22.58890758]
 [  0.25666667 -77.55637272]]","[[0.         1.03282428]
 [0.1        1.52915319]
 [0.2        0.21561806]
 [0.25666667 0.23424831]]",1,0.386
8730571689,f,19,english,5,3,english,2024-02-01 10:33:22.879057,False,1,119,sounds\french\audio/french_641.wav,"[[  0.         -92.89939655]
 [  0.1         80.14352585]
 [  0.2         74.03041043]
 [  0.25666667  18.97683281]]","[[0.         0.72916007]
 [0.1        1.01323436]
 [0.2        0.998205  ]
 [0.25666667 0.30086371]]",0,0.291
8730571689,f,19,english,5,3,english,2024-02-01 10:33:22.879057,False,1,120,sounds\french\audio/french_487.wav,"[[  0.          26.50580686]
 [  0.1        -34.14449754]
 [  0.2         66.18137857]
 [  0.25666667  -7.03677771]]","[[0.         1.63350644]
 [0.1        1.29368608]
 [0.2        0.20656395]
 [0.25666667 1.93991824]]",1,0.227
8730571689,f,19,english,5,3,english,2024-02-01 10:33:22.879057,False,1,121,sounds\french\audio/french_806.wav,"[[  0.          97.26957313]
 [  0.1         79.44562669]
 [  0.2         79.77586719]
 [  0.25666667 -46.2684083 ]]","[[0.         1.48673004]
 [0.1        1.9967546 ]
 [0.2        0.9238106 ]
 [0.25666667 1.39755131]]",0,0.146
8730571689,f,19,english,5,3,english,2024-02-01 10:33:22.879057,False,1,122,sounds\french\audio/french_116.wav,"[[  0.          79.79090537]
 [  0.1        -16.04583445]
 [  0.2         31.94743211]
 [  0.25666667  81.27397215]]","[[0.         0.91211254]
 [0.1        0.43560368]
 [0.2        0.92781712]
 [0.25666667 0.62795331]]",0,0.798
8730571689,f,19,english,5,3,english,2024-02-01 10:33:22.879057,False,1,123,sounds\french\audio/french_836.wav,"[[ 0.         40.23641464]
 [ 0.1        53.79535187]
 [ 0.2        -4.0789246 ]
 [ 0.25666667  3.8536211 ]]","[[0.         0.42377088]
 [0.1        0.63943013]
 [0.2        1.19242466]
 [0.25666667 1.488673  ]]",1,0.302
8730571689,f,19,english,5,3,english,2024-02-01 10:33:22.879057,False,1,124,sounds\french\audio/french_768.wav,"[[ 0.         43.80393873]
 [ 0.1        23.97019037]
 [ 0.2        96.73627246]
 [ 0.25666667 86.69297093]]","[[0.         0.16736189]
 [0.1        0.82539527]
 [0.2        1.26581733]
 [0.25666667 1.40091334]]",0,0.68
8730571689,f,19,english,5,3,english,2024-02-01 10:33:22.879057,False,1,125,sounds\french\audio/french_53.wav,"[[  0.          -2.35814843]
 [  0.1        -48.73544303]
 [  0.2         38.27016364]
 [  0.25666667 -31.96265424]]","[[0.         1.83928924]
 [0.1        0.78912936]
 [0.2        0.60668558]
 [0.25666667 0.83130548]]",1,0.249
8730571689,f,19,english,5,3,english,2024-02-01 10:33:22.879057,False,1,126,sounds\french\audio/french_815.wav,"[[  0.         -30.97778369]
 [  0.1        -10.3506413 ]
 [  0.2         61.86726268]
 [  0.25666667 -32.12586702]]","[[0.         1.45421986]
 [0.1        0.28044698]
 [0.2        1.88309962]
 [0.25666667 1.86356454]]",0,1.208
8730571689,f,19,english,5,3,english,2024-02-01 10:33:22.879057,False,1,127,sounds\french\audio/french_498.wav,"[[  0.           4.68377609]
 [  0.1        -15.28708952]
 [  0.2         12.01036293]
 [  0.25666667   2.49690218]]","[[0.         1.22559932]
 [0.1        1.70630703]
 [0.2        0.54123502]
 [0.25666667 0.39602685]]",1,0.852
8730571689,f,19,english,5,3,english,2024-02-01 10:33:22.879057,False,1,128,sounds\french\audio/french_387.wav,"[[  0.         -24.2271051 ]
 [  0.1        -69.58889879]
 [  0.2         21.02997226]
 [  0.25666667  58.82746302]]","[[0.         0.1957751 ]
 [0.1        0.86781049]
 [0.2        1.73501265]
 [0.25666667 1.75042849]]",0,0.939
8730571689,f,19,english,5,3,english,2024-02-01 10:33:22.879057,False,1,129,sounds\french\audio/french_340.wav,"[[  0.         -77.74428769]
 [  0.1        -23.36816436]
 [  0.2        -44.47255335]
 [  0.25666667 -51.35474548]]","[[0.         1.5012345 ]
 [0.1        1.72338521]
 [0.2        0.55046319]
 [0.25666667 0.98182936]]",1,0.292
8730571689,f,19,english,5,3,english,2024-02-01 10:33:22.879057,False,1,130,sounds\french\audio/french_731.wav,"[[  0.          52.82888701]
 [  0.1         44.66747194]
 [  0.2         83.54065351]
 [  0.25666667 -50.41579204]]","[[0.         1.42077684]
 [0.1        0.2996776 ]
 [0.2        1.21708869]
 [0.25666667 1.31490505]]",0,0.33
8730571689,f,19,english,5,3,english,2024-02-01 10:33:22.879057,False,1,131,sounds\french\audio/french_758.wav,"[[  0.          45.30317447]
 [  0.1         37.35504147]
 [  0.2         -7.74982346]
 [  0.25666667 -75.22654498]]","[[0.         1.53591398]
 [0.1        1.00413053]
 [0.2        1.59140772]
 [0.25666667 0.76456646]]",1,0.264
8730571689,f,19,english,5,3,english,2024-02-01 10:33:22.879057,False,1,132,sounds\french\audio/french_232.wav,"[[  0.          48.62304181]
 [  0.1        -66.91586117]
 [  0.2        -71.38800945]
 [  0.25666667  32.42157584]]","[[0.         1.60041799]
 [0.1        0.5698369 ]
 [0.2        1.21368891]
 [0.25666667 1.05085576]]",0,0.291
8730571689,f,19,english,5,3,english,2024-02-01 10:33:22.879057,False,1,133,sounds\french\audio/french_642.wav,"[[  0.          94.74505174]
 [  0.1        -41.90916732]
 [  0.2        -70.07976965]
 [  0.25666667  42.72168091]]","[[0.         1.94145252]
 [0.1        1.43327494]
 [0.2        0.59817774]
 [0.25666667 1.11755549]]",0,0.278
8730571689,f,19,english,5,3,english,2024-02-01 10:33:22.879057,False,1,134,sounds\french\audio/french_842.wav,"[[  0.          74.80920959]
 [  0.1        -40.95587484]
 [  0.2         40.36105872]
 [  0.25666667 -80.22764814]]","[[0.         0.40194032]
 [0.1        0.66729024]
 [0.2        0.3355789 ]
 [0.25666667 0.97335266]]",0,0.955
8730571689,f,19,english,5,3,english,2024-02-01 10:33:22.879057,False,1,135,sounds\french\audio/french_827.wav,"[[ 0.         52.76736232]
 [ 0.1        43.3684124 ]
 [ 0.2         5.13351566]
 [ 0.25666667 57.45570888]]","[[0.         0.65431252]
 [0.1        1.37281261]
 [0.2        0.35708699]
 [0.25666667 0.33493738]]",1,0.429
8730571689,f,19,english,5,3,english,2024-02-01 10:33:22.879057,False,1,136,sounds\french\audio/french_782.wav,"[[  0.         -22.12019493]
 [  0.1          4.49416446]
 [  0.2         95.81757258]
 [  0.25666667  37.17912971]]","[[0.         0.33541309]
 [0.1        0.60665876]
 [0.2        0.65040298]
 [0.25666667 0.93901734]]",0,0.602
8730571689,f,19,english,5,3,english,2024-02-01 10:33:22.879057,False,1,137,sounds\french\audio/french_685.wav,"[[  0.         -62.74714371]
 [  0.1         48.52467862]
 [  0.2          4.749694  ]
 [  0.25666667  88.03032973]]","[[0.         1.57330944]
 [0.1        1.34151114]
 [0.2        0.18097188]
 [0.25666667 0.30113467]]",1,0.439
8730571689,f,19,english,5,3,english,2024-02-01 10:33:22.879057,False,1,138,sounds\french\audio/french_456.wav,"[[  0.         -27.91969988]
 [  0.1         -6.9905469 ]
 [  0.2          7.34213132]
 [  0.25666667 -16.30576404]]","[[0.         0.874098  ]
 [0.1        0.40632282]
 [0.2        0.88508218]
 [0.25666667 1.43350061]]",0,0.726
8730571689,f,19,english,5,3,english,2024-02-01 10:33:22.879057,False,1,139,sounds\french\audio/french_943.wav,"[[  0.          27.08075724]
 [  0.1         11.89706259]
 [  0.2        -68.36208072]
 [  0.25666667  93.65942771]]","[[0.         1.18472309]
 [0.1        0.18520331]
 [0.2        0.55970606]
 [0.25666667 0.63383354]]",0,1.875
8730571689,f,19,english,5,3,english,2024-02-01 10:33:22.879057,False,1,140,sounds\french\audio/french_332.wav,"[[  0.         -88.68220121]
 [  0.1         68.217882  ]
 [  0.2        -19.05049855]
 [  0.25666667 -98.47604088]]","[[0.         0.82286563]
 [0.1        1.40641777]
 [0.2        0.59183839]
 [0.25666667 0.80823464]]",1,0.434
8730571689,f,19,english,5,3,english,2024-02-01 10:33:22.879057,False,1,141,sounds\french\audio/french_96.wav,"[[  0.         -35.67204937]
 [  0.1        -14.5967046 ]
 [  0.2         23.77171322]
 [  0.25666667 -43.45086892]]","[[0.         1.29614461]
 [0.1        0.74963508]
 [0.2        0.96397917]
 [0.25666667 0.69619931]]",0,0.72
8730571689,f,19,english,5,3,english,2024-02-01 10:33:22.879057,False,1,142,sounds\french\audio/french_702.wav,"[[  0.         -53.8337347 ]
 [  0.1         13.17722269]
 [  0.2        -63.63948694]
 [  0.25666667  -7.77006894]]","[[0.         0.65995653]
 [0.1        1.48591365]
 [0.2        1.16262137]
 [0.25666667 1.49403865]]",1,0.198
8730571689,f,19,english,5,3,english,2024-02-01 10:33:22.879057,False,1,143,sounds\french\audio/french_300.wav,"[[  0.         -13.28568226]
 [  0.1         80.95964609]
 [  0.2         97.81212175]
 [  0.25666667  60.85112551]]","[[0.         1.4723541 ]
 [0.1        1.07308012]
 [0.2        1.14674573]
 [0.25666667 1.78656344]]",0,2.772
8730571689,f,19,english,5,3,english,2024-02-01 10:33:22.879057,False,1,144,sounds\french\audio/french_824.wav,"[[  0.          95.58094713]
 [  0.1        -47.05258515]
 [  0.2         43.18521816]
 [  0.25666667  -5.69582576]]","[[0.         1.84230129]
 [0.1        1.74244762]
 [0.2        1.04703492]
 [0.25666667 0.75358401]]",1,0.42
8730571689,f,19,english,5,3,english,2024-02-01 10:33:22.879057,False,1,145,sounds\french\audio/french_38.wav,"[[  0.          -0.72741882]
 [  0.1         17.06804162]
 [  0.2        -90.47269694]
 [  0.25666667 -46.03968341]]","[[0.         1.73508679]
 [0.1        1.04827054]
 [0.2        0.06966066]
 [0.25666667 1.13213122]]",0,0.842
8730571689,f,19,english,5,3,english,2024-02-01 10:33:22.879057,False,1,146,sounds\french\audio/french_807.wav,"[[  0.          41.22965042]
 [  0.1         55.45523643]
 [  0.2        -56.08981041]
 [  0.25666667  27.67304414]]","[[0.         0.26309645]
 [0.1        0.30227962]
 [0.2        0.58983644]
 [0.25666667 1.26996728]]",0,0.666
8730571689,f,19,english,5,3,english,2024-02-01 10:33:22.879057,False,1,147,sounds\french\audio/french_750.wav,"[[  0.          36.16157767]
 [  0.1        -94.09249833]
 [  0.2         97.07405484]
 [  0.25666667  -8.28043626]]","[[0.         1.69010054]
 [0.1        0.7877665 ]
 [0.2        0.99353813]
 [0.25666667 0.64245914]]",1,0.258
8730571689,f,19,english,5,3,english,2024-02-01 10:33:22.879057,False,1,148,sounds\french\audio/french_277.wav,"[[  0.          25.76771762]
 [  0.1        -70.25975294]
 [  0.2        -52.96477311]
 [  0.25666667  41.51950841]]","[[0.         1.36859257]
 [0.1        1.02052852]
 [0.2        1.14771146]
 [0.25666667 0.3441713 ]]",1,0.334
8730571689,f,19,english,5,3,english,2024-02-01 10:33:22.879057,False,1,149,sounds\french\audio/french_561.wav,"[[  0.          43.72245453]
 [  0.1        -99.96065046]
 [  0.2        -79.74506532]
 [  0.25666667   3.19515671]]","[[0.         1.14403907]
 [0.1        0.22103922]
 [0.2        0.12690813]
 [0.25666667 1.47601923]]",0,0.403
8730571689,f,19,english,5,3,english,2024-02-01 10:33:22.879057,False,1,150,sounds\french\audio/french_79.wav,"[[  0.         -17.81057473]
 [  0.1        -79.49788956]
 [  0.2         21.64031361]
 [  0.25666667   9.8962074 ]]","[[0.         1.07647634]
 [0.1        0.19758175]
 [0.2        1.4893643 ]
 [0.25666667 1.60982877]]",0,0.74
8730571689,f,19,english,5,3,english,2024-02-01 10:33:22.879057,False,1,151,sounds\french\audio/french_12.wav,"[[  0.         -57.76127346]
 [  0.1         13.80138245]
 [  0.2         70.02389064]
 [  0.25666667 -46.37027392]]","[[0.         1.31680682]
 [0.1        1.40135686]
 [0.2        0.63152994]
 [0.25666667 0.33836826]]",1,0.337
8730571689,f,19,english,5,3,english,2024-02-01 10:33:22.879057,False,1,152,sounds\french\audio/french_154.wav,"[[  0.         -35.77368222]
 [  0.1          5.93918526]
 [  0.2         36.13172948]
 [  0.25666667 -52.77395679]]","[[0.         0.10248514]
 [0.1        0.42084566]
 [0.2        1.29147589]
 [0.25666667 0.60791213]]",0,0.295
8730571689,f,19,english,5,3,english,2024-02-01 10:33:22.879057,False,1,153,sounds\french\audio/french_334.wav,"[[  0.          40.44836216]
 [  0.1        -67.56280837]
 [  0.2        -28.73514643]
 [  0.25666667 -49.63309354]]","[[0.         0.13212964]
 [0.1        0.74019732]
 [0.2        0.72240648]
 [0.25666667 0.47162208]]",1,0.704
8730571689,f,19,english,5,3,english,2024-02-01 10:33:22.879057,False,1,154,sounds\french\audio/french_782.wav,"[[  0.         -22.12019493]
 [  0.1          4.49416446]
 [  0.2         95.81757258]
 [  0.25666667  37.17912971]]","[[0.         0.33541309]
 [0.1        0.60665876]
 [0.2        0.65040298]
 [0.25666667 0.93901734]]",1,0.753
8730571689,f,19,english,5,3,english,2024-02-01 10:33:22.879057,False,1,155,sounds\french\audio/french_794.wav,"[[  0.         -41.85324617]
 [  0.1          1.64774739]
 [  0.2        -16.9250465 ]
 [  0.25666667 -47.53807225]]","[[0.         0.4524196 ]
 [0.1        1.94571184]
 [0.2        1.39882797]
 [0.25666667 0.19962905]]",0,1.171
8730571689,f,19,english,5,3,english,2024-02-01 10:33:22.879057,False,1,156,sounds\french\audio/french_389.wav,"[[  0.          69.62296415]
 [  0.1        -41.49433877]
 [  0.2        -65.025051  ]
 [  0.25666667  10.9117334 ]]","[[0.         1.67675408]
 [0.1        1.60540147]
 [0.2        0.45817867]
 [0.25666667 1.10562968]]",1,0.279
8730571689,f,19,english,5,3,english,2024-02-01 10:33:22.879057,False,1,157,sounds\french\audio/french_520.wav,"[[  0.         -93.2931023 ]
 [  0.1         13.33088057]
 [  0.2        -27.94628904]
 [  0.25666667  -1.59677094]]","[[0.         0.41573501]
 [0.1        0.24185226]
 [0.2        0.74385359]
 [0.25666667 0.80521135]]",1,1.311
8730571689,f,19,english,5,3,english,2024-02-01 10:33:22.879057,False,1,158,sounds\french\audio/french_985.wav,"[[  0.          29.21663761]
 [  0.1        -71.61154632]
 [  0.2         41.30472765]
 [  0.25666667 -19.1628823 ]]","[[0.         0.89782151]
 [0.1        0.27969284]
 [0.2        1.11185271]
 [0.25666667 1.39441914]]",0,0.693
8730571689,f,19,english,5,3,english,2024-02-01 10:33:22.879057,False,1,159,sounds\french\audio/french_200.wav,"[[  0.         -10.65818699]
 [  0.1         -8.96413357]
 [  0.2        -78.89627616]
 [  0.25666667   8.01745362]]","[[0.         0.95052916]
 [0.1        0.11424824]
 [0.2        1.718039  ]
 [0.25666667 1.42690066]]",1,0.678
8730571689,f,19,english,5,3,english,2024-02-01 10:33:22.879057,False,1,160,sounds\french\audio/french_194.wav,"[[  0.          82.45325258]
 [  0.1         88.9094727 ]
 [  0.2        -44.07936747]
 [  0.25666667  97.80970813]]","[[0.         0.54112087]
 [0.1        0.47601939]
 [0.2        1.71905709]
 [0.25666667 1.16289195]]",0,1.349
8730571689,f,19,english,5,3,english,2024-02-01 10:33:22.879057,False,1,161,sounds\french\audio/french_479.wav,"[[  0.         -77.56228832]
 [  0.1        -51.14246902]
 [  0.2         54.51803315]
 [  0.25666667  -8.31356421]]","[[0.         0.23971003]
 [0.1        1.41057828]
 [0.2        0.5803481 ]
 [0.25666667 0.39274068]]",1,0.39
8730571689,f,19,english,5,3,english,2024-02-01 10:33:22.879057,False,1,162,sounds\french\audio/french_788.wav,"[[  0.         -49.59093674]
 [  0.1        -37.12859592]
 [  0.2         78.06548219]
 [  0.25666667  52.38730842]]","[[0.         1.03975343]
 [0.1        0.12530513]
 [0.2        0.40268526]
 [0.25666667 1.72021211]]",0,0.619
8730571689,f,19,english,5,3,english,2024-02-01 10:33:22.879057,False,1,163,sounds\french\audio/french_847.wav,"[[  0.          -8.33122073]
 [  0.1         28.51239659]
 [  0.2        -26.33136573]
 [  0.25666667  21.45038454]]","[[0.         1.64160395]
 [0.1        0.11991739]
 [0.2        1.12824789]
 [0.25666667 0.68287375]]",0,0.753
8730571689,f,19,english,5,3,english,2024-02-01 10:33:22.879057,False,1,164,sounds\french\audio/french_448.wav,"[[  0.          31.66119151]
 [  0.1         20.17093967]
 [  0.2        -46.84568686]
 [  0.25666667  10.399138  ]]","[[0.         0.87276462]
 [0.1        1.08469616]
 [0.2        1.99629221]
 [0.25666667 0.44449425]]",1,0.372
8730571689,f,19,english,5,3,english,2024-02-01 10:33:22.879057,False,1,165,sounds\french\audio/french_872.wav,"[[  0.          85.31192626]
 [  0.1        -62.96284321]
 [  0.2         93.26127986]
 [  0.25666667  48.13314647]]","[[0.         1.27180188]
 [0.1        0.82867252]
 [0.2        1.69740624]
 [0.25666667 0.31258738]]",1,0.591
8730571689,f,19,english,5,3,english,2024-02-01 10:33:22.879057,False,1,166,sounds\french\audio/french_56.wav,"[[  0.         -45.81384366]
 [  0.1        -31.22745768]
 [  0.2          7.07301694]
 [  0.25666667  85.51747291]]","[[0.         0.89556329]
 [0.1        1.16444889]
 [0.2        0.03247946]
 [0.25666667 0.10908846]]",0,0.355
8730571689,f,19,english,5,3,english,2024-02-01 10:33:22.879057,False,1,167,sounds\french\audio/french_86.wav,"[[  0.         -13.34839912]
 [  0.1         -0.15074382]
 [  0.2         25.45831569]
 [  0.25666667  48.27326553]]","[[0.         1.5394535 ]
 [0.1        0.88064418]
 [0.2        1.66652907]
 [0.25666667 0.20293469]]",1,1.164
8730571689,f,19,english,5,3,english,2024-02-01 10:33:22.879057,False,1,168,sounds\french\audio/french_433.wav,"[[  0.         -17.50255462]
 [  0.1         46.48307521]
 [  0.2         39.12417732]
 [  0.25666667 -52.98872919]]","[[0.         1.12652369]
 [0.1        1.78874207]
 [0.2        0.52833996]
 [0.25666667 0.52335447]]",1,0.447
8730571689,f,19,english,5,3,english,2024-02-01 10:33:22.879057,False,1,169,sounds\french\audio/french_343.wav,"[[  0.         -21.71261116]
 [  0.1         63.21036052]
 [  0.2        -29.86802649]
 [  0.25666667  57.96835755]]","[[0.         1.74552957]
 [0.1        1.86769095]
 [0.2        0.55355845]
 [0.25666667 1.24725328]]",0,0.439
8730571689,f,19,english,5,3,english,2024-02-01 10:33:22.879057,False,1,170,sounds\french\audio/french_146.wav,"[[  0.           2.88911392]
 [  0.1         20.34035446]
 [  0.2        -17.47138226]
 [  0.25666667 -15.1567399 ]]","[[0.         0.44051244]
 [0.1        0.76269488]
 [0.2        0.12643706]
 [0.25666667 0.55905625]]",0,0.454
8730571689,f,19,english,5,3,english,2024-02-01 10:33:22.879057,False,1,171,sounds\french\audio/french_763.wav,"[[  0.         -96.72958763]
 [  0.1         95.66434095]
 [  0.2        -84.28875962]
 [  0.25666667 -41.37848175]]","[[0.         0.69845728]
 [0.1        1.4089076 ]
 [0.2        1.74428554]
 [0.25666667 0.12054272]]",1,0.429
8730571689,f,19,english,5,3,english,2024-02-01 10:33:22.879057,False,1,172,sounds\french\audio/french_275.wav,"[[  0.         -71.45872278]
 [  0.1         50.23093754]
 [  0.2         82.04936404]
 [  0.25666667 -63.35862329]]","[[0.         0.56157087]
 [0.1        1.03531052]
 [0.2        1.31605034]
 [0.25666667 0.72936955]]",1,1.489
8730571689,f,19,english,5,3,english,2024-02-01 10:33:22.879057,False,1,173,sounds\french\audio/french_665.wav,"[[  0.           1.77078633]
 [  0.1        -95.60257374]
 [  0.2        -26.21333041]
 [  0.25666667 -67.7705493 ]]","[[0.         0.29838278]
 [0.1        0.72198918]
 [0.2        0.91284695]
 [0.25666667 0.52625369]]",0,3.249
8730571689,f,19,english,5,3,english,2024-02-01 10:33:22.879057,False,1,174,sounds\french\audio/french_995.wav,"[[  0.         -29.39777781]
 [  0.1         22.57403903]
 [  0.2        -65.41348422]
 [  0.25666667  24.23364448]]","[[0.         0.04069973]
 [0.1        0.75529124]
 [0.2        0.72194837]
 [0.25666667 0.85657711]]",0,0.463
8730571689,f,19,english,5,3,english,2024-02-01 10:33:22.879057,False,1,175,sounds\french\audio/french_352.wav,"[[ 0.         74.68489003]
 [ 0.1        96.39949195]
 [ 0.2        90.64764472]
 [ 0.25666667 65.55341103]]","[[0.         0.29948735]
 [0.1        0.51724136]
 [0.2        1.48158799]
 [0.25666667 0.97952247]]",0,1.317
8730571689,f,19,english,5,3,english,2024-02-01 10:33:22.879057,False,1,176,sounds\french\audio/french_771.wav,"[[  0.         -31.32443984]
 [  0.1          2.91896775]
 [  0.2         73.75563113]
 [  0.25666667  61.27629387]]","[[0.         0.10443369]
 [0.1        0.0162425 ]
 [0.2        0.96029425]
 [0.25666667 1.26482275]]",0,0.58
8730571689,f,19,english,5,3,english,2024-02-01 10:33:22.879057,False,1,177,sounds\french\audio/french_26.wav,"[[  0.         -38.52186107]
 [  0.1         92.94908957]
 [  0.2         38.63958599]
 [  0.25666667  81.76747676]]","[[0.         1.55913274]
 [0.1        0.73355846]
 [0.2        0.51766924]
 [0.25666667 0.7935304 ]]",1,0.59
8730571689,f,19,english,5,3,english,2024-02-01 10:33:22.879057,False,1,178,sounds\french\audio/french_474.wav,"[[  0.          94.09836303]
 [  0.1         43.08248712]
 [  0.2        -98.14389097]
 [  0.25666667 -80.28643924]]","[[0.         0.01406103]
 [0.1        1.41739343]
 [0.2        1.7994516 ]
 [0.25666667 0.15166218]]",0,0.714
8730571689,f,19,english,5,3,english,2024-02-01 10:33:22.879057,False,1,179,sounds\french\audio/french_364.wav,"[[  0.         -32.92421433]
 [  0.1        -56.96078069]
 [  0.2         44.72635853]
 [  0.25666667  23.55157996]]","[[0.         1.35253812]
 [0.1        1.83722727]
 [0.2        1.43933089]
 [0.25666667 1.1354083 ]]",1,0.362
8730571689,f,19,english,5,3,english,2024-02-01 10:33:22.879057,False,1,180,sounds\french\audio/french_988.wav,"[[  0.          -4.11470775]
 [  0.1        -66.00013865]
 [  0.2         59.59027652]
 [  0.25666667   0.47429662]]","[[0.         0.28957615]
 [0.1        0.7977557 ]
 [0.2        1.24206297]
 [0.25666667 1.11640868]]",0,1.302
8730571689,f,19,english,5,3,english,2024-02-01 10:33:22.879057,False,1,181,sounds\french\audio/french_699.wav,"[[ 0.         38.02578945]
 [ 0.1        21.65060188]
 [ 0.2        73.60148166]
 [ 0.25666667 94.39755493]]","[[0.         0.2020154 ]
 [0.1        0.44231897]
 [0.2        1.2945402 ]
 [0.25666667 1.2548045 ]]",0,4.439
8730571689,f,19,english,5,3,english,2024-02-01 10:33:22.879057,False,1,182,sounds\french\audio/french_691.wav,"[[  0.          89.02514599]
 [  0.1         84.72414094]
 [  0.2         -3.6265137 ]
 [  0.25666667 -99.35319265]]","[[0.         1.04651451]
 [0.1        1.61938954]
 [0.2        1.34588415]
 [0.25666667 1.50620009]]",1,0.501
8730571689,f,19,english,5,3,english,2024-02-01 10:33:22.879057,False,1,183,sounds\french\audio/french_110.wav,"[[  0.          14.8960744 ]
 [  0.1        -82.02762151]
 [  0.2         66.91383722]
 [  0.25666667 -78.07836064]]","[[0.         1.68730737]
 [0.1        1.03733778]
 [0.2        1.59061665]
 [0.25666667 0.49489255]]",0,0.715
8730571689,f,19,english,5,3,english,2024-02-01 10:33:22.879057,False,1,184,sounds\french\audio/french_564.wav,"[[  0.         -42.85760261]
 [  0.1         78.12316343]
 [  0.2         32.53186734]
 [  0.25666667  60.20924512]]","[[0.         0.14777183]
 [0.1        1.08229262]
 [0.2        0.52251513]
 [0.25666667 1.40255579]]",0,2.491
8730571689,f,19,english,5,3,english,2024-02-01 10:33:22.879057,False,1,185,sounds\french\audio/french_188.wav,"[[  0.          49.6210254 ]
 [  0.1        -51.2490581 ]
 [  0.2         40.00177065]
 [  0.25666667  -3.28540475]]","[[0.         1.07409835]
 [0.1        0.05018037]
 [0.2        1.57813661]
 [0.25666667 0.4516863 ]]",1,0.736
8730571689,f,19,english,5,3,english,2024-02-01 10:33:22.879057,False,1,186,sounds\french\audio/french_556.wav,"[[  0.          57.69742807]
 [  0.1         74.69192241]
 [  0.2        -92.88512431]
 [  0.25666667  27.11476112]]","[[0.         1.23910924]
 [0.1        0.49477788]
 [0.2        1.56323012]
 [0.25666667 1.7455964 ]]",0,0.535
8730571689,f,19,english,5,3,english,2024-02-01 10:33:22.879057,False,1,187,sounds\french\audio/french_22.wav,"[[ 0.         71.14052921]
 [ 0.1        32.6622244 ]
 [ 0.2        96.1292121 ]
 [ 0.25666667 65.79523532]]","[[0.         0.14678418]
 [0.1        0.81024714]
 [0.2        1.14392668]
 [0.25666667 1.62437335]]",0,2.116
8730571689,f,19,english,5,3,english,2024-02-01 10:33:22.879057,False,1,188,sounds\french\audio/french_594.wav,"[[  0.         -77.17245549]
 [  0.1         -9.42910309]
 [  0.2         28.840902  ]
 [  0.25666667 -27.68960177]]","[[0.         1.803544  ]
 [0.1        1.0387293 ]
 [0.2        1.64762654]
 [0.25666667 0.23150428]]",1,0.385
8730571689,f,19,english,5,3,english,2024-02-01 10:33:22.879057,False,1,189,sounds\french\audio/french_708.wav,"[[  0.          77.88438146]
 [  0.1        -89.66132416]
 [  0.2         66.08375885]
 [  0.25666667 -39.93161414]]","[[0.         0.30850898]
 [0.1        1.49064351]
 [0.2        1.28629193]
 [0.25666667 1.01533724]]",1,0.54
8730571689,f,19,english,5,3,english,2024-02-01 10:33:22.879057,False,1,190,sounds\french\audio/french_447.wav,"[[  0.         -15.50115845]
 [  0.1         -4.86998407]
 [  0.2        -86.84595189]
 [  0.25666667 -28.81346371]]","[[0.         0.77909013]
 [0.1        1.31519509]
 [0.2        1.40793423]
 [0.25666667 0.16835643]]",1,1.138
8730571689,f,19,english,5,3,english,2024-02-01 10:33:22.879057,False,1,191,sounds\french\audio/french_933.wav,"[[  0.         -24.27897726]
 [  0.1         45.4380102 ]
 [  0.2         44.52165476]
 [  0.25666667  11.96128215]]","[[0.         0.66366025]
 [0.1        1.16686233]
 [0.2        0.86083852]
 [0.25666667 1.88972919]]",0,0.427
8730571689,f,19,english,5,3,english,2024-02-01 10:33:22.879057,False,1,192,sounds\french\audio/french_284.wav,"[[  0.           9.11616736]
 [  0.1          1.28278273]
 [  0.2         64.48623036]
 [  0.25666667 -18.83957989]]","[[0.         0.794635  ]
 [0.1        0.64071903]
 [0.2        0.85736223]
 [0.25666667 1.30798049]]",0,0.408
8730571689,f,19,english,5,3,english,2024-02-01 10:33:22.879057,False,1,193,sounds\french\audio/french_366.wav,"[[  0.         -11.67543603]
 [  0.1        -73.020852  ]
 [  0.2        -53.53259577]
 [  0.25666667  19.02620798]]","[[0.         0.93730839]
 [0.1        0.54674712]
 [0.2        0.98192793]
 [0.25666667 0.14835446]]",1,0.214
8730571689,f,19,english,5,3,english,2024-02-01 10:33:22.879057,False,1,194,sounds\french\audio/french_940.wav,"[[  0.          60.64207397]
 [  0.1        -16.07257124]
 [  0.2        -38.93693506]
 [  0.25666667 -22.19838027]]","[[0.         1.38818271]
 [0.1        1.64047706]
 [0.2        1.31963125]
 [0.25666667 1.73227719]]",1,0.193
8730571689,f,19,english,5,3,english,2024-02-01 10:33:22.879057,False,1,195,sounds\french\audio/french_732.wav,"[[  0.         -82.9393053 ]
 [  0.1        -79.22735873]
 [  0.2        -67.09796721]
 [  0.25666667  35.15971491]]","[[0.         0.90840431]
 [0.1        0.47468339]
 [0.2        1.61768905]
 [0.25666667 1.44596926]]",1,1.185
8730571689,f,19,english,5,3,english,2024-02-01 10:33:22.879057,False,1,196,sounds\french\audio/french_724.wav,"[[  0.         -58.96674975]
 [  0.1        -95.33611412]
 [  0.2        -56.69004984]
 [  0.25666667 -50.97008283]]","[[0.         0.30578628]
 [0.1        0.57010607]
 [0.2        1.33615123]
 [0.25666667 1.59962144]]",0,0.358
8730571689,f,19,english,5,3,english,2024-02-01 10:33:22.879057,False,1,197,sounds\french\audio/french_618.wav,"[[  0.         -48.84080529]
 [  0.1         52.1949693 ]
 [  0.2          2.68255661]
 [  0.25666667 -32.43465806]]","[[0.         0.47316377]
 [0.1        0.45430598]
 [0.2        0.75800451]
 [0.25666667 0.99622678]]",0,0.253
8730571689,f,19,english,5,3,english,2024-02-01 10:33:22.879057,False,1,198,sounds\french\audio/french_963.wav,"[[ 0.         47.65214736]
 [ 0.1         6.38608236]
 [ 0.2        90.58649254]
 [ 0.25666667 -7.76898595]]","[[0.         0.44378955]
 [0.1        0.94107122]
 [0.2        1.48470349]
 [0.25666667 1.98203536]]",0,5.181
8730571689,f,19,english,5,3,english,2024-02-01 10:33:22.879057,False,1,199,sounds\french\audio/french_653.wav,"[[  0.          77.9010548 ]
 [  0.1        -51.77114594]
 [  0.2         87.84855202]
 [  0.25666667  84.03497815]]","[[0.         1.15209157]
 [0.1        0.29445829]
 [0.2        0.58679482]
 [0.25666667 1.23322571]]",0,1.951
8730571689,f,19,english,5,3,english,2024-02-01 10:33:22.879057,False,1,200,sounds\french\audio/french_417.wav,"[[  0.         -52.68130191]
 [  0.1         73.91368418]
 [  0.2          7.73324389]
 [  0.25666667  92.88066518]]","[[0.         1.49469738]
 [0.1        1.06358835]
 [0.2        1.12421265]
 [0.25666667 0.65436219]]",1,0.384
8730571689,f,19,english,5,3,english,2024-02-01 10:33:22.879057,False,1,201,sounds\french\audio/french_785.wav,"[[  0.         -85.51822201]
 [  0.1         -3.83792251]
 [  0.2         45.88945115]
 [  0.25666667  38.51931882]]","[[0.         1.39201941]
 [0.1        0.93814534]
 [0.2        0.59493864]
 [0.25666667 0.08649149]]",0,1.145
8730571689,f,19,english,5,3,english,2024-02-01 10:33:22.879057,False,1,202,sounds\french\audio/french_351.wav,"[[  0.         -22.87012194]
 [  0.1         10.68995272]
 [  0.2         60.8101445 ]
 [  0.25666667  32.12752515]]","[[0.         0.67033139]
 [0.1        0.80045466]
 [0.2        0.88778875]
 [0.25666667 0.26390259]]",1,2.483
8730571689,f,19,english,5,3,english,2024-02-01 10:33:22.879057,False,1,203,sounds\french\audio/french_233.wav,"[[  0.         -74.05194232]
 [  0.1         45.77276391]
 [  0.2        -37.66213209]
 [  0.25666667 -32.85858595]]","[[0.         1.46941626]
 [0.1        0.63238632]
 [0.2        1.46686039]
 [0.25666667 1.82755258]]",0,0.375
8730571689,f,19,english,5,3,english,2024-02-01 10:33:22.879057,False,1,204,sounds\french\audio/french_394.wav,"[[  0.         -46.0867736 ]
 [  0.1        -42.56429646]
 [  0.2         31.61260766]
 [  0.25666667  -7.99475259]]","[[0.         1.77850735]
 [0.1        0.50210825]
 [0.2        1.1233825 ]
 [0.25666667 0.72186821]]",0,3.82
8730571689,f,19,english,5,3,english,2024-02-01 10:33:22.879057,False,1,205,sounds\french\audio/french_479.wav,"[[  0.         -77.56228832]
 [  0.1        -51.14246902]
 [  0.2         54.51803315]
 [  0.25666667  -8.31356421]]","[[0.         0.23971003]
 [0.1        1.41057828]
 [0.2        0.5803481 ]
 [0.25666667 0.39274068]]",1,0.505
8730571689,f,19,english,5,3,english,2024-02-01 10:33:22.879057,False,1,206,sounds\french\audio/french_355.wav,"[[  0.         -92.75119925]
 [  0.1         77.20775246]
 [  0.2        -51.05688592]
 [  0.25666667  27.03743598]]","[[0.         0.18544254]
 [0.1        0.07031399]
 [0.2        0.46666342]
 [0.25666667 1.78468618]]",0,0.451
8730571689,f,19,english,5,3,english,2024-02-01 10:33:22.879057,False,1,207,sounds\french\audio/french_862.wav,"[[  0.          99.41401176]
 [  0.1         35.25307956]
 [  0.2        -56.34938096]
 [  0.25666667 -51.21225279]]","[[0.         0.02807195]
 [0.1        0.7885189 ]
 [0.2        0.76649358]
 [0.25666667 1.75346492]]",0,0.665
8730571689,f,19,english,5,3,english,2024-02-01 10:33:22.879057,False,1,208,sounds\french\audio/french_32.wav,"[[  0.         -95.97477456]
 [  0.1        -25.31572866]
 [  0.2        -25.0492654 ]
 [  0.25666667 -74.56689772]]","[[0.         1.5242089 ]
 [0.1        0.2047991 ]
 [0.2        1.11388434]
 [0.25666667 1.18772321]]",1,0.437
8730571689,f,19,english,5,3,english,2024-02-01 10:33:22.879057,False,1,209,sounds\french\audio/french_893.wav,"[[  0.         -94.12021506]
 [  0.1         53.79826098]
 [  0.2        -24.3553788 ]
 [  0.25666667 -81.90861644]]","[[0.         0.88252126]
 [0.1        0.31460198]
 [0.2        1.36492904]
 [0.25666667 1.93292807]]",0,1.638
8730571689,f,19,english,5,3,english,2024-02-01 10:33:22.879057,False,1,210,sounds\french\audio/french_638.wav,"[[  0.         -18.90498038]
 [  0.1        -28.86355513]
 [  0.2        -97.62198235]
 [  0.25666667  26.30993693]]","[[0.         0.47409532]
 [0.1        1.76910273]
 [0.2        0.72222374]
 [0.25666667 0.09803926]]",0,0.71
8730571689,f,19,english,5,3,english,2024-02-01 10:33:22.879057,False,1,211,sounds\french\audio/french_451.wav,"[[  0.           4.63188994]
 [  0.1         28.08955108]
 [  0.2         71.15157801]
 [  0.25666667 -28.31676071]]","[[0.         1.82787098]
 [0.1        0.29502826]
 [0.2        0.14883578]
 [0.25666667 0.64245631]]",1,0.306
8730571689,f,19,english,5,3,english,2024-02-01 10:33:22.879057,False,1,212,sounds\french\audio/french_666.wav,"[[  0.          51.58977068]
 [  0.1         81.806625  ]
 [  0.2         10.32462757]
 [  0.25666667 -51.25764779]]","[[0.         0.51416215]
 [0.1        0.1213722 ]
 [0.2        1.14435945]
 [0.25666667 1.68381456]]",0,0.424
8730571689,f,19,english,5,3,english,2024-02-01 10:33:22.879057,False,1,213,sounds\french\audio/french_785.wav,"[[  0.         -85.51822201]
 [  0.1         -3.83792251]
 [  0.2         45.88945115]
 [  0.25666667  38.51931882]]","[[0.         1.39201941]
 [0.1        0.93814534]
 [0.2        0.59493864]
 [0.25666667 0.08649149]]",1,0.239
8730571689,f,19,english,5,3,english,2024-02-01 10:33:22.879057,False,1,214,sounds\french\audio/french_30.wav,"[[ 0.         76.62673318]
 [ 0.1        68.4553342 ]
 [ 0.2        55.51592845]
 [ 0.25666667 80.18190702]]","[[0.         0.98317975]
 [0.1        1.99903841]
 [0.2        1.19167606]
 [0.25666667 0.01328513]]",0,1.406
8730571689,f,19,english,5,3,english,2024-02-01 10:33:22.879057,False,1,215,sounds\french\audio/french_329.wav,"[[  0.          14.6954169 ]
 [  0.1        -60.61079034]
 [  0.2        -27.52715396]
 [  0.25666667 -71.65343532]]","[[0.         0.80369944]
 [0.1        1.40829285]
 [0.2        0.22971006]
 [0.25666667 0.37653007]]",0,0.795
8730571689,f,19,english,5,3,english,2024-02-01 10:33:22.879057,False,1,216,sounds\french\audio/french_391.wav,"[[  0.         -76.68975493]
 [  0.1        -61.92507962]
 [  0.2        -59.03609545]
 [  0.25666667  88.69049446]]","[[0.         1.01472424]
 [0.1        1.84772624]
 [0.2        1.36374408]
 [0.25666667 1.21538153]]",1,0.495
8730571689,f,19,english,5,3,english,2024-02-01 10:33:22.879057,False,1,217,sounds\french\audio/french_395.wav,"[[  0.          53.54317287]
 [  0.1        -58.7899365 ]
 [  0.2        -16.29959602]
 [  0.25666667 -29.17949613]]","[[0.         1.78210887]
 [0.1        0.28539332]
 [0.2        1.44255764]
 [0.25666667 0.93749012]]",1,0.309
8730571689,f,19,english,5,3,english,2024-02-01 10:33:22.879057,False,1,218,sounds\french\audio/french_748.wav,"[[  0.          66.19282508]
 [  0.1        -81.39884416]
 [  0.2         72.72612179]
 [  0.25666667  76.03481505]]","[[0.         0.41357469]
 [0.1        1.04952   ]
 [0.2        1.37113635]
 [0.25666667 1.54211369]]",1,0.668
8730571689,f,19,english,5,3,english,2024-02-01 10:33:22.879057,False,1,219,sounds\french\audio/french_169.wav,"[[  0.          14.47590961]
 [  0.1         38.07545665]
 [  0.2        -50.40298695]
 [  0.25666667  25.61467991]]","[[0.         1.38784349]
 [0.1        1.28983767]
 [0.2        0.58936297]
 [0.25666667 0.49151359]]",0,0.307
8730571689,f,19,english,5,3,english,2024-02-01 10:33:22.879057,False,1,220,sounds\french\audio/french_80.wav,"[[  0.          -4.85614904]
 [  0.1        -36.95221558]
 [  0.2        -16.65007611]
 [  0.25666667  57.44018977]]","[[0.         0.67500586]
 [0.1        0.10692408]
 [0.2        1.27299782]
 [0.25666667 0.9780754 ]]",0,0.98
8730571689,f,19,english,5,3,english,2024-02-01 10:33:22.879057,False,1,221,sounds\french\audio/french_567.wav,"[[ 0.         27.43626477]
 [ 0.1        41.78362701]
 [ 0.2        54.76706712]
 [ 0.25666667 32.83264266]]","[[0.         1.24283832]
 [0.1        1.94246111]
 [0.2        1.04642714]
 [0.25666667 0.77358904]]",0,0.678
8730571689,f,19,english,5,3,english,2024-02-01 10:33:22.879057,False,1,222,sounds\french\audio/french_158.wav,"[[  0.          72.88318106]
 [  0.1         51.2800476 ]
 [  0.2        -29.39007937]
 [  0.25666667  87.52810159]]","[[0.         1.5476705 ]
 [0.1        1.92933226]
 [0.2        1.77733774]
 [0.25666667 1.82253327]]",0,4.043
8730571689,f,19,english,5,3,english,2024-02-01 10:33:22.879057,False,1,223,sounds\french\audio/french_762.wav,"[[  0.         -45.61990315]
 [  0.1        -38.16727298]
 [  0.2        -15.44626984]
 [  0.25666667 -31.31206952]]","[[0.         0.95776955]
 [0.1        0.16992331]
 [0.2        1.21301125]
 [0.25666667 0.49399223]]",1,0.415
8730571689,f,19,english,5,3,english,2024-02-01 10:33:22.879057,False,1,224,sounds\french\audio/french_395.wav,"[[  0.          53.54317287]
 [  0.1        -58.7899365 ]
 [  0.2        -16.29959602]
 [  0.25666667 -29.17949613]]","[[0.         1.78210887]
 [0.1        0.28539332]
 [0.2        1.44255764]
 [0.25666667 0.93749012]]",1,4.945
8730571689,f,19,english,5,3,english,2024-02-01 10:33:22.879057,False,1,225,sounds\french\audio/french_359.wav,"[[  0.           4.86221528]
 [  0.1         41.19609007]
 [  0.2         55.98013436]
 [  0.25666667 -59.88256532]]","[[0.         1.66863127]
 [0.1        0.25992168]
 [0.2        1.95186144]
 [0.25666667 1.64110453]]",0,0.465
8730571689,f,19,english,5,3,english,2024-02-01 10:33:22.879057,False,1,226,sounds\french\audio/french_839.wav,"[[ 0.         11.03740457]
 [ 0.1        23.46119987]
 [ 0.2        -0.31614798]
 [ 0.25666667 62.63183259]]","[[0.         0.76467652]
 [0.1        0.76268055]
 [0.2        1.64444165]
 [0.25666667 0.69482811]]",0,1.732
8730571689,f,19,english,5,3,english,2024-02-01 10:33:22.879057,False,1,227,sounds\french\audio/french_590.wav,"[[  0.         -77.28287391]
 [  0.1        -59.34931175]
 [  0.2        -59.15957395]
 [  0.25666667  88.90935082]]","[[0.         1.10563408]
 [0.1        0.27897949]
 [0.2        1.42245938]
 [0.25666667 0.18524725]]",0,0.573
8730571689,f,19,english,5,3,english,2024-02-01 10:33:22.879057,False,1,228,sounds\french\audio/french_369.wav,"[[  0.           6.84974499]
 [  0.1         61.60531042]
 [  0.2         34.70817747]
 [  0.25666667 -13.14208541]]","[[0.         1.45229952]
 [0.1        0.56068962]
 [0.2        0.98283966]
 [0.25666667 1.24311155]]",1,0.33
8730571689,f,19,english,5,3,english,2024-02-01 10:33:22.879057,False,1,229,sounds\french\audio/french_219.wav,"[[  0.         -98.78648146]
 [  0.1        -54.51672601]
 [  0.2         75.82451993]
 [  0.25666667  42.52821499]]","[[0.         1.35832625]
 [0.1        0.9105506 ]
 [0.2        0.22027405]
 [0.25666667 1.53742188]]",1,0.473
8730571689,f,19,english,5,3,english,2024-02-01 10:33:22.879057,False,1,230,sounds\french\audio/french_461.wav,"[[  0.          76.34817382]
 [  0.1          2.37579461]
 [  0.2        -59.90047781]
 [  0.25666667  20.08623444]]","[[0.         0.72953599]
 [0.1        1.5415695 ]
 [0.2        1.01078515]
 [0.25666667 1.02737445]]",0,0.408
8730571689,f,19,english,5,3,english,2024-02-01 10:33:22.879057,False,1,231,sounds\french\audio/french_162.wav,"[[  0.         -20.03052962]
 [  0.1        -35.11860261]
 [  0.2         20.80868131]
 [  0.25666667  50.74802705]]","[[0.         1.70466969]
 [0.1        0.77666831]
 [0.2        1.88915568]
 [0.25666667 1.69994842]]",1,0.607
8730571689,f,19,english,5,3,english,2024-02-01 10:33:22.879057,False,1,232,sounds\french\audio/french_686.wav,"[[ 0.         20.49516986]
 [ 0.1        27.4040505 ]
 [ 0.2        31.96095965]
 [ 0.25666667 61.08066052]]","[[0.         1.86861476]
 [0.1        1.87689714]
 [0.2        0.80940067]
 [0.25666667 0.04075967]]",0,0.476
8730571689,f,19,english,5,3,english,2024-02-01 10:33:22.879057,False,1,233,sounds\french\audio/french_289.wav,"[[  0.         -36.76000605]
 [  0.1         10.32506406]
 [  0.2        -63.16699613]
 [  0.25666667  44.4452875 ]]","[[0.         0.0295717 ]
 [0.1        0.30354321]
 [0.2        0.64873245]
 [0.25666667 1.33679234]]",0,1.104
8730571689,f,19,english,5,3,english,2024-02-01 10:33:22.879057,False,1,234,sounds\french\audio/french_553.wav,"[[  0.          -1.38146628]
 [  0.1        -34.28745567]
 [  0.2          6.87532462]
 [  0.25666667  90.98690029]]","[[0.         0.44011383]
 [0.1        1.14829302]
 [0.2        1.07508961]
 [0.25666667 0.10252166]]",0,1.184
8730571689,f,19,english,5,3,english,2024-02-01 10:33:22.879057,False,1,235,sounds\french\audio/french_535.wav,"[[  0.         -81.47221285]
 [  0.1         42.68543716]
 [  0.2        -73.81682794]
 [  0.25666667 -85.27887702]]","[[0.         1.61446576]
 [0.1        1.13976105]
 [0.2        0.22032829]
 [0.25666667 0.61620659]]",1,0.636
8730571689,f,19,english,5,3,english,2024-02-01 10:33:22.879057,False,1,236,sounds\french\audio/french_937.wav,"[[  0.          27.89553513]
 [  0.1        -51.2753628 ]
 [  0.2        -75.08991272]
 [  0.25666667 -24.40434042]]","[[0.         1.9323197 ]
 [0.1        1.67315664]
 [0.2        1.14592467]
 [0.25666667 1.81837395]]",0,1.51
8730571689,f,19,english,5,3,english,2024-02-01 10:33:22.879057,False,1,237,sounds\french\audio/french_358.wav,"[[  0.         -21.88755711]
 [  0.1         -5.628981  ]
 [  0.2        -60.01307733]
 [  0.25666667  65.58947466]]","[[0.         1.21014447]
 [0.1        1.2650669 ]
 [0.2        0.97277603]
 [0.25666667 0.28969343]]",1,1.49
8730571689,f,19,english,5,3,english,2024-02-01 10:33:22.879057,False,1,238,sounds\french\audio/french_790.wav,"[[  0.         -78.0899986 ]
 [  0.1        -13.38999599]
 [  0.2        -59.88967217]
 [  0.25666667  34.06701256]]","[[0.         0.03777082]
 [0.1        1.54425687]
 [0.2        0.07634696]
 [0.25666667 1.62279479]]",0,3.207
8730571689,f,19,english,5,3,english,2024-02-01 10:33:22.879057,False,1,239,sounds\french\audio/french_287.wav,"[[  0.          -6.24804435]
 [  0.1        -47.42967866]
 [  0.2        -83.16585562]
 [  0.25666667  77.49694817]]","[[0.         1.11596696]
 [0.1        0.08887129]
 [0.2        1.70974676]
 [0.25666667 0.42476907]]",1,0.454
8730571689,f,19,english,5,3,english,2024-02-01 10:33:22.879057,False,1,240,sounds\french\audio/french_682.wav,"[[  0.         -16.33102186]
 [  0.1        -49.72009429]
 [  0.2        -23.39596266]
 [  0.25666667 -34.72439006]]","[[0.         0.79850708]
 [0.1        1.31273679]
 [0.2        1.51298147]
 [0.25666667 0.92861139]]",0,0.44
8730571689,f,19,english,5,3,english,2024-02-01 10:33:22.879057,False,1,241,sounds\french\audio/french_466.wav,"[[  0.          73.58992944]
 [  0.1         63.97983353]
 [  0.2         36.10141743]
 [  0.25666667 -59.38235663]]","[[0.         1.41071494]
 [0.1        0.05598534]
 [0.2        1.99104708]
 [0.25666667 0.89990448]]",1,0.478
8730571689,f,19,english,5,3,english,2024-02-01 10:33:22.879057,False,1,242,sounds\french\audio/french_205.wav,"[[  0.          31.24463061]
 [  0.1        -22.87848896]
 [  0.2        -36.82881223]
 [  0.25666667 -47.84026219]]","[[0.         0.69283155]
 [0.1        1.55894518]
 [0.2        1.67941014]
 [0.25666667 0.92091984]]",0,0.343
8730571689,f,19,english,5,3,english,2024-02-01 10:33:22.879057,False,1,243,sounds\french\audio/french_103.wav,"[[  0.         -37.64273041]
 [  0.1         41.40974178]
 [  0.2        -53.90098235]
 [  0.25666667 -57.22614073]]","[[0.         0.8608001 ]
 [0.1        0.05604445]
 [0.2        0.48473984]
 [0.25666667 0.01055005]]",1,0.789
8730571689,f,19,english,5,3,english,2024-02-01 10:33:22.879057,False,1,244,sounds\french\audio/french_976.wav,"[[  0.         -70.02335232]
 [  0.1        -61.25816472]
 [  0.2         38.21349803]
 [  0.25666667  27.10323863]]","[[0.         0.30263581]
 [0.1        1.77513966]
 [0.2        0.48920434]
 [0.25666667 1.97348905]]",1,1.819
8730571689,f,19,english,5,3,english,2024-02-01 10:33:22.879057,False,1,245,sounds\french\audio/french_875.wav,"[[  0.         -21.85805239]
 [  0.1         89.69626046]
 [  0.2        -30.27044373]
 [  0.25666667  34.72149061]]","[[0.         1.53415162]
 [0.1        1.00812403]
 [0.2        0.85877698]
 [0.25666667 1.23447623]]",0,0.402
8730571689,f,19,english,5,3,english,2024-02-01 10:33:22.879057,False,1,246,sounds\french\audio/french_628.wav,"[[  0.          68.49177404]
 [  0.1        -37.23139728]
 [  0.2        -66.57894256]
 [  0.25666667  94.63403104]]","[[0.         1.08718887]
 [0.1        1.92014291]
 [0.2        1.74485312]
 [0.25666667 1.25946788]]",1,0.32
8730571689,f,19,english,5,3,english,2024-02-01 10:33:22.879057,False,1,247,sounds\french\audio/french_690.wav,"[[  0.          79.01312907]
 [  0.1        -50.63616883]
 [  0.2         19.49439666]
 [  0.25666667 -20.64233715]]","[[0.         1.49686193]
 [0.1        0.92741038]
 [0.2        0.30770403]
 [0.25666667 0.53460579]]",0,0.354
8730571689,f,19,english,5,3,english,2024-02-01 10:33:22.879057,False,1,248,sounds\french\audio/french_966.wav,"[[  0.          94.80811126]
 [  0.1        -90.73743651]
 [  0.2         94.60686235]
 [  0.25666667 -83.76406221]]","[[0.         1.26057873]
 [0.1        1.58996588]
 [0.2        0.08752829]
 [0.25666667 0.32239013]]",1,0.772
8730571689,f,19,english,5,3,english,2024-02-01 10:33:22.879057,False,1,249,sounds\french\audio/french_814.wav,"[[  0.          83.0056253 ]
 [  0.1        -71.4586846 ]
 [  0.2         12.63844789]
 [  0.25666667  12.39326704]]","[[0.         1.4499936 ]
 [0.1        0.77595229]
 [0.2        0.21302651]
 [0.25666667 0.16177964]]",0,0.226
8730571689,f,19,english,5,3,english,2024-02-01 10:33:22.879057,False,1,250,sounds\french\audio/french_217.wav,"[[ 0.         -8.63904718]
 [ 0.1        71.12460489]
 [ 0.2        81.48384407]
 [ 0.25666667 64.01477431]]","[[0.         0.91131932]
 [0.1        1.66035555]
 [0.2        0.95248702]
 [0.25666667 0.54451157]]",1,0.966
8730571689,f,19,english,5,3,english,2024-02-01 10:33:22.879057,False,1,251,sounds\french\audio/french_719.wav,"[[  0.          -0.39387326]
 [  0.1          1.52424656]
 [  0.2         34.63950895]
 [  0.25666667 -19.23986751]]","[[0.         0.47887204]
 [0.1        1.22874683]
 [0.2        0.97564384]
 [0.25666667 0.79252429]]",0,0.483
8730571689,f,19,english,5,3,english,2024-02-01 10:33:22.879057,False,1,252,sounds\french\audio/french_752.wav,"[[  0.         -49.05511086]
 [  0.1         68.97169656]
 [  0.2         35.56747744]
 [  0.25666667   3.91641015]]","[[0.         0.41123153]
 [0.1        0.36604045]
 [0.2        0.22184937]
 [0.25666667 1.3158831 ]]",0,0.624
