subj,sex,age,language,english,french,native_lang,date,practice,block,trial,stim,pitch,stretch,response,rt
8729820499,f,20,english,5,3,english,2024-01-25 10:40:18.164074,True,0,0,sounds\french\audio/french_827.wav,"[[ 0.         52.76736232]
 [ 0.1        43.3684124 ]
 [ 0.2         5.13351566]
 [ 0.25666667 57.45570888]]","[[0.         0.65431252]
 [0.1        1.37281261]
 [0.2        0.35708699]
 [0.25666667 0.33493738]]",1,7.745
8729820499,f,20,english,5,3,english,2024-01-25 10:40:18.164074,True,0,1,sounds\french\audio/french_496.wav,"[[  0.          95.35910422]
 [  0.1         -6.65722592]
 [  0.2         -0.21871516]
 [  0.25666667 -55.34055424]]","[[0.         1.71732874]
 [0.1        0.79073406]
 [0.2        0.34583293]
 [0.25666667 0.39020762]]",1,1.46
8729820499,f,20,english,5,3,english,2024-01-25 10:40:18.164074,True,0,2,sounds\french\audio/french_725.wav,"[[  0.          61.28532458]
 [  0.1         25.43953492]
 [  0.2         31.92964858]
 [  0.25666667 -96.80759498]]","[[0.         0.86285292]
 [0.1        0.5175718 ]
 [0.2        1.72668514]
 [0.25666667 1.79225728]]",1,1.676
8729820499,f,20,english,5,3,english,2024-01-25 10:40:18.164074,False,1,3,sounds\french\audio/french_823.wav,"[[  0.         -89.53533563]
 [  0.1         14.01752274]
 [  0.2         33.24657022]
 [  0.25666667 -78.84260648]]","[[0.         0.87621895]
 [0.1        0.92757563]
 [0.2        1.30685671]
 [0.25666667 1.33840969]]",1,3.998
8729820499,f,20,english,5,3,english,2024-01-25 10:40:18.164074,False,1,4,sounds\french\audio/french_692.wav,"[[  0.         -30.56073905]
 [  0.1         67.72997498]
 [  0.2         55.48980932]
 [  0.25666667  99.47423215]]","[[0.         0.00354931]
 [0.1        1.79271885]
 [0.2        1.35474436]
 [0.25666667 1.33636308]]",1,6.584
8729820499,f,20,english,5,3,english,2024-01-25 10:40:18.164074,False,1,5,sounds\french\audio/french_323.wav,"[[ 0.         32.98542524]
 [ 0.1        23.31860642]
 [ 0.2        85.24347173]
 [ 0.25666667 17.19160257]]","[[0.         1.64001987]
 [0.1        0.049539  ]
 [0.2        1.32093022]
 [0.25666667 0.33485384]]",0,2.958
8729820499,f,20,english,5,3,english,2024-01-25 10:40:18.164074,False,1,6,sounds\french\audio/french_880.wav,"[[  0.          34.54343789]
 [  0.1         76.62551814]
 [  0.2         69.99614697]
 [  0.25666667 -97.30266151]]","[[0.         1.97652899]
 [0.1        0.35866047]
 [0.2        1.49815227]
 [0.25666667 1.92878763]]",1,1.035
8729820499,f,20,english,5,3,english,2024-01-25 10:40:18.164074,False,1,7,sounds\french\audio/french_301.wav,"[[ 0.         69.85248337]
 [ 0.1        -5.79297453]
 [ 0.2        45.5401504 ]
 [ 0.25666667 54.55962649]]","[[0.         0.52307933]
 [0.1        1.24080119]
 [0.2        0.43993349]
 [0.25666667 1.3035803 ]]",1,1.352
8729820499,f,20,english,5,3,english,2024-01-25 10:40:18.164074,False,1,8,sounds\french\audio/french_615.wav,"[[  0.         -99.04240885]
 [  0.1        -49.15643876]
 [  0.2        -66.91195639]
 [  0.25666667 -56.29346357]]","[[0.         1.08448469]
 [0.1        1.88363881]
 [0.2        1.28593097]
 [0.25666667 1.82136606]]",1,1.827
8729820499,f,20,english,5,3,english,2024-01-25 10:40:18.164074,False,1,9,sounds\french\audio/french_789.wav,"[[  0.          16.13130467]
 [  0.1        -53.51301261]
 [  0.2         91.10833978]
 [  0.25666667   9.61415248]]","[[0.         1.41580253]
 [0.1        1.63533644]
 [0.2        0.42839577]
 [0.25666667 0.64971622]]",1,2.17
8729820499,f,20,english,5,3,english,2024-01-25 10:40:18.164074,False,1,10,sounds\french\audio/french_498.wav,"[[  0.           4.68377609]
 [  0.1        -15.28708952]
 [  0.2         12.01036293]
 [  0.25666667   2.49690218]]","[[0.         1.22559932]
 [0.1        1.70630703]
 [0.2        0.54123502]
 [0.25666667 0.39602685]]",1,0.775
8729820499,f,20,english,5,3,english,2024-01-25 10:40:18.164074,False,1,11,sounds\french\audio/french_60.wav,"[[  0.         -40.9463495 ]
 [  0.1          8.65325309]
 [  0.2        -18.23980249]
 [  0.25666667 -34.79014982]]","[[0.         0.32779355]
 [0.1        0.55656076]
 [0.2        0.81322525]
 [0.25666667 0.57120985]]",0,1.095
8729820499,f,20,english,5,3,english,2024-01-25 10:40:18.164074,False,1,12,sounds\french\audio/french_575.wav,"[[  0.          32.80241223]
 [  0.1         11.70984026]
 [  0.2        -24.23897751]
 [  0.25666667   5.92669397]]","[[0.         0.38229386]
 [0.1        0.34252019]
 [0.2        1.12781483]
 [0.25666667 1.51292739]]",1,0.961
8729820499,f,20,english,5,3,english,2024-01-25 10:40:18.164074,False,1,13,sounds\french\audio/french_926.wav,"[[  0.         -38.30420493]
 [  0.1        -97.26803886]
 [  0.2         55.3544282 ]
 [  0.25666667   8.78644418]]","[[0.         1.0266732 ]
 [0.1        0.03873156]
 [0.2        0.32593073]
 [0.25666667 0.80695306]]",0,3.077
8729820499,f,20,english,5,3,english,2024-01-25 10:40:18.164074,False,1,14,sounds\french\audio/french_534.wav,"[[  0.          96.41776506]
 [  0.1        -53.52749338]
 [  0.2         51.10087415]
 [  0.25666667  27.39654188]]","[[0.         0.28463844]
 [0.1        1.69872517]
 [0.2        0.80798533]
 [0.25666667 1.79838566]]",1,1.471
8729820499,f,20,english,5,3,english,2024-01-25 10:40:18.164074,False,1,15,sounds\french\audio/french_189.wav,"[[ 0.         25.45363348]
 [ 0.1        10.19219643]
 [ 0.2        79.32306783]
 [ 0.25666667 77.27494318]]","[[0.         0.70243048]
 [0.1        0.78977161]
 [0.2        0.18017453]
 [0.25666667 0.76350619]]",1,1.497
8729820499,f,20,english,5,3,english,2024-01-25 10:40:18.164074,False,1,16,sounds\french\audio/french_499.wav,"[[  0.          24.28229917]
 [  0.1        -90.85236303]
 [  0.2        -60.29957953]
 [  0.25666667  91.79807534]]","[[0.         0.76159538]
 [0.1        0.50536641]
 [0.2        0.99158085]
 [0.25666667 1.05465089]]",1,2.73
8729820499,f,20,english,5,3,english,2024-01-25 10:40:18.164074,False,1,17,sounds\french\audio/french_542.wav,"[[  0.          88.21755363]
 [  0.1         59.97016865]
 [  0.2        -54.94167031]
 [  0.25666667 -74.88408835]]","[[0.         1.84211071]
 [0.1        1.57396898]
 [0.2        1.14268549]
 [0.25666667 1.52682198]]",1,0.524
8729820499,f,20,english,5,3,english,2024-01-25 10:40:18.164074,False,1,18,sounds\french\audio/french_585.wav,"[[  0.          55.40756654]
 [  0.1        -99.68924549]
 [  0.2        -52.13930441]
 [  0.25666667 -49.42840454]]","[[0.         1.79357949]
 [0.1        1.94389706]
 [0.2        0.70685753]
 [0.25666667 0.08344351]]",0,0.928
8729820499,f,20,english,5,3,english,2024-01-25 10:40:18.164074,False,1,19,sounds\french\audio/french_190.wav,"[[ 0.         69.06529403]
 [ 0.1        69.42395119]
 [ 0.2        67.79801708]
 [ 0.25666667 63.92857008]]","[[0.         1.3481685 ]
 [0.1        0.73404764]
 [0.2        1.27794388]
 [0.25666667 1.43465572]]",1,1.111
8729820499,f,20,english,5,3,english,2024-01-25 10:40:18.164074,False,1,20,sounds\french\audio/french_436.wav,"[[  0.          21.52139078]
 [  0.1         91.02122448]
 [  0.2         28.53627776]
 [  0.25666667 -78.88687792]]","[[0.         0.27861971]
 [0.1        0.31750307]
 [0.2        0.35857003]
 [0.25666667 1.70163595]]",0,0.868
8729820499,f,20,english,5,3,english,2024-01-25 10:40:18.164074,False,1,21,sounds\french\audio/french_554.wav,"[[  0.         -31.9650703 ]
 [  0.1         78.95364823]
 [  0.2         -0.5294376 ]
 [  0.25666667 -36.78296127]]","[[0.         1.45983082]
 [0.1        0.40013818]
 [0.2        0.96374115]
 [0.25666667 1.20732856]]",1,1.619
8729820499,f,20,english,5,3,english,2024-01-25 10:40:18.164074,False,1,22,sounds\french\audio/french_298.wav,"[[  0.          77.93003267]
 [  0.1        -23.8442355 ]
 [  0.2        -77.62110697]
 [  0.25666667 -25.23897767]]","[[0.         0.74693873]
 [0.1        1.94963825]
 [0.2        1.02670819]
 [0.25666667 0.18670197]]",1,0.519
8729820499,f,20,english,5,3,english,2024-01-25 10:40:18.164074,False,1,23,sounds\french\audio/french_608.wav,"[[  0.         -21.93815625]
 [  0.1         68.35071967]
 [  0.2        -10.44332041]
 [  0.25666667 -49.43801065]]","[[0.         0.80217517]
 [0.1        1.13802751]
 [0.2        0.09203458]
 [0.25666667 0.18129022]]",1,1.248
8729820499,f,20,english,5,3,english,2024-01-25 10:40:18.164074,False,1,24,sounds\french\audio/french_432.wav,"[[  0.          41.78718943]
 [  0.1        -73.8341876 ]
 [  0.2          2.46605077]
 [  0.25666667  -5.34058627]]","[[0.         1.64767318]
 [0.1        1.66923601]
 [0.2        1.63004177]
 [0.25666667 1.91522166]]",1,0.893
8729820499,f,20,english,5,3,english,2024-01-25 10:40:18.164074,False,1,25,sounds\french\audio/french_148.wav,"[[  0.         -65.76338754]
 [  0.1        -45.02607009]
 [  0.2         -4.18875901]
 [  0.25666667  85.40607693]]","[[0.         1.63378801]
 [0.1        0.19427674]
 [0.2        1.20463049]
 [0.25666667 0.17184116]]",0,2.4
8729820499,f,20,english,5,3,english,2024-01-25 10:40:18.164074,False,1,26,sounds\french\audio/french_25.wav,"[[  0.          46.82844357]
 [  0.1          5.52502331]
 [  0.2        -34.25373026]
 [  0.25666667 -52.44039001]]","[[0.         1.1493518 ]
 [0.1        1.41536953]
 [0.2        0.41949869]
 [0.25666667 0.5013656 ]]",1,0.674
8729820499,f,20,english,5,3,english,2024-01-25 10:40:18.164074,False,1,27,sounds\french\audio/french_112.wav,"[[  0.         -70.30580716]
 [  0.1         33.64373442]
 [  0.2         26.55830463]
 [  0.25666667  46.16769785]]","[[0.         0.18088618]
 [0.1        1.43869791]
 [0.2        0.89230346]
 [0.25666667 0.14009493]]",1,0.433
8729820499,f,20,english,5,3,english,2024-01-25 10:40:18.164074,False,1,28,sounds\french\audio/french_134.wav,"[[  0.         -65.58132827]
 [  0.1        -89.82992505]
 [  0.2          9.99695038]
 [  0.25666667  24.50908123]]","[[0.         0.68669704]
 [0.1        1.50131287]
 [0.2        0.69598371]
 [0.25666667 1.57047358]]",1,0.876
8729820499,f,20,english,5,3,english,2024-01-25 10:40:18.164074,False,1,29,sounds\french\audio/french_241.wav,"[[ 0.         89.40240056]
 [ 0.1        40.19017079]
 [ 0.2         6.95264839]
 [ 0.25666667 60.0147698 ]]","[[0.         1.53101086]
 [0.1        0.22293869]
 [0.2        0.66477428]
 [0.25666667 1.1640228 ]]",0,0.568
8729820499,f,20,english,5,3,english,2024-01-25 10:40:18.164074,False,1,30,sounds\french\audio/french_973.wav,"[[  0.         -99.0384004 ]
 [  0.1         40.13117567]
 [  0.2         49.54188212]
 [  0.25666667  89.60941169]]","[[0.         1.64247416]
 [0.1        0.98090528]
 [0.2        1.75566355]
 [0.25666667 0.64442147]]",1,0.957
8729820499,f,20,english,5,3,english,2024-01-25 10:40:18.164074,False,1,31,sounds\french\audio/french_210.wav,"[[ 0.         68.99377403]
 [ 0.1        17.92188754]
 [ 0.2        87.00714336]
 [ 0.25666667 69.75485878]]","[[0.         1.59687847]
 [0.1        0.67113491]
 [0.2        1.30631186]
 [0.25666667 0.1897549 ]]",1,1.8
8729820499,f,20,english,5,3,english,2024-01-25 10:40:18.164074,False,1,32,sounds\french\audio/french_994.wav,"[[  0.         -39.66278541]
 [  0.1         66.70535545]
 [  0.2        -87.43703712]
 [  0.25666667 -41.83233866]]","[[0.         0.39681658]
 [0.1        1.6498105 ]
 [0.2        1.48803434]
 [0.25666667 1.54058484]]",0,1.615
8729820499,f,20,english,5,3,english,2024-01-25 10:40:18.164074,False,1,33,sounds\french\audio/french_319.wav,"[[  0.          63.69489547]
 [  0.1         60.76449486]
 [  0.2        -58.82123998]
 [  0.25666667  43.46614377]]","[[0.         0.79356863]
 [0.1        1.37507237]
 [0.2        1.06369674]
 [0.25666667 1.64660946]]",1,1.293
8729820499,f,20,english,5,3,english,2024-01-25 10:40:18.164074,False,1,34,sounds\french\audio/french_316.wav,"[[  0.          71.43385859]
 [  0.1        -31.05932013]
 [  0.2          7.51523711]
 [  0.25666667 -46.68412198]]","[[0.         0.02011656]
 [0.1        1.43477753]
 [0.2        0.06852206]
 [0.25666667 1.51807936]]",1,1.957
8729820499,f,20,english,5,3,english,2024-01-25 10:40:18.164074,False,1,35,sounds\french\audio/french_795.wav,"[[  0.          33.06955163]
 [  0.1         99.3644883 ]
 [  0.2        -80.69510174]
 [  0.25666667  67.54375124]]","[[0.         0.26323542]
 [0.1        0.35684642]
 [0.2        0.7045199 ]
 [0.25666667 0.58342204]]",1,2.485
8729820499,f,20,english,5,3,english,2024-01-25 10:40:18.164074,False,1,36,sounds\french\audio/french_291.wav,"[[  0.         -84.80785011]
 [  0.1        -36.68987184]
 [  0.2        -96.57368066]
 [  0.25666667 -53.58057918]]","[[0.         0.63456403]
 [0.1        1.00353926]
 [0.2        1.89833315]
 [0.25666667 1.00269885]]",1,1.357
8729820499,f,20,english,5,3,english,2024-01-25 10:40:18.164074,False,1,37,sounds\french\audio/french_668.wav,"[[  0.          44.4696917 ]
 [  0.1         63.48880943]
 [  0.2         96.50351719]
 [  0.25666667 -38.26923088]]","[[0.         0.61167569]
 [0.1        0.96933631]
 [0.2        1.39779359]
 [0.25666667 1.779663  ]]",1,0.575
8729820499,f,20,english,5,3,english,2024-01-25 10:40:18.164074,False,1,38,sounds\french\audio/french_672.wav,"[[ 0.         -6.36877595]
 [ 0.1        45.21137281]
 [ 0.2        80.52737907]
 [ 0.25666667 83.07440583]]","[[0.         1.19503778]
 [0.1        0.09977323]
 [0.2        0.72738581]
 [0.25666667 0.28099012]]",0,2.105
8729820499,f,20,english,5,3,english,2024-01-25 10:40:18.164074,False,1,39,sounds\french\audio/french_714.wav,"[[  0.          77.35355583]
 [  0.1        -16.5812175 ]
 [  0.2        -79.42314022]
 [  0.25666667  64.71981705]]","[[0.         0.35690042]
 [0.1        0.7400083 ]
 [0.2        1.17849399]
 [0.25666667 1.38365213]]",1,2.31
8729820499,f,20,english,5,3,english,2024-01-25 10:40:18.164074,False,1,40,sounds\french\audio/french_515.wav,"[[  0.          90.1787868 ]
 [  0.1         95.19464712]
 [  0.2        -71.09612906]
 [  0.25666667  86.48037909]]","[[0.         1.05169603]
 [0.1        0.16234368]
 [0.2        1.85560054]
 [0.25666667 0.23492468]]",1,1.391
8729820499,f,20,english,5,3,english,2024-01-25 10:40:18.164074,False,1,41,sounds\french\audio/french_206.wav,"[[  0.          54.3984601 ]
 [  0.1         63.13301153]
 [  0.2         42.02994149]
 [  0.25666667 -16.37363905]]","[[0.         1.52634336]
 [0.1        0.52222794]
 [0.2        1.32066154]
 [0.25666667 0.63957267]]",0,2.094
8729820499,f,20,english,5,3,english,2024-01-25 10:40:18.164074,False,1,42,sounds\french\audio/french_315.wav,"[[ 0.00000000e+00  8.45751695e+01]
 [ 1.00000000e-01 -5.49339599e+01]
 [ 2.00000000e-01 -2.04659381e+01]
 [ 2.56666667e-01  4.97627412e-02]]","[[0.         1.39276289]
 [0.1        0.42909402]
 [0.2        1.80166787]
 [0.25666667 1.01422067]]",1,1.765
8729820499,f,20,english,5,3,english,2024-01-25 10:40:18.164074,False,1,43,sounds\french\audio/french_678.wav,"[[  0.           8.99494286]
 [  0.1         56.3447022 ]
 [  0.2        -85.36803825]
 [  0.25666667 -65.39277698]]","[[0.         0.31277465]
 [0.1        0.04822955]
 [0.2        0.03738606]
 [0.25666667 1.60364947]]",0,1.444
8729820499,f,20,english,5,3,english,2024-01-25 10:40:18.164074,False,1,44,sounds\french\audio/french_479.wav,"[[  0.         -77.56228832]
 [  0.1        -51.14246902]
 [  0.2         54.51803315]
 [  0.25666667  -8.31356421]]","[[0.         0.23971003]
 [0.1        1.41057828]
 [0.2        0.5803481 ]
 [0.25666667 0.39274068]]",1,3.186
8729820499,f,20,english,5,3,english,2024-01-25 10:40:18.164074,False,1,45,sounds\french\audio/french_772.wav,"[[  0.          13.96800705]
 [  0.1          5.87945336]
 [  0.2         15.35769187]
 [  0.25666667 -12.22278281]]","[[0.         0.2991113 ]
 [0.1        0.00189684]
 [0.2        0.99190584]
 [0.25666667 1.49955539]]",0,1.02
8729820499,f,20,english,5,3,english,2024-01-25 10:40:18.164074,False,1,46,sounds\french\audio/french_959.wav,"[[  0.         -92.66274659]
 [  0.1         10.27191584]
 [  0.2        -51.62824615]
 [  0.25666667 -30.4370249 ]]","[[0.         1.46575448]
 [0.1        1.6425047 ]
 [0.2        0.28117244]
 [0.25666667 1.68634793]]",1,1.142
8729820499,f,20,english,5,3,english,2024-01-25 10:40:18.164074,False,1,47,sounds\french\audio/french_946.wav,"[[  0.         -59.20376503]
 [  0.1         41.31347152]
 [  0.2        -58.18080138]
 [  0.25666667 -28.00273528]]","[[0.         1.07432488]
 [0.1        0.26624757]
 [0.2        0.53636085]
 [0.25666667 1.77786979]]",0,1.954
8729820499,f,20,english,5,3,english,2024-01-25 10:40:18.164074,False,1,48,sounds\french\audio/french_722.wav,"[[  0.          60.56599831]
 [  0.1        -62.73703536]
 [  0.2        -66.13157344]
 [  0.25666667  59.05774632]]","[[0.         1.86075077]
 [0.1        0.80738175]
 [0.2        0.80798992]
 [0.25666667 0.27445487]]",1,0.799
8729820499,f,20,english,5,3,english,2024-01-25 10:40:18.164074,False,1,49,sounds\french\audio/french_769.wav,"[[  0.          78.39802529]
 [  0.1         98.35868913]
 [  0.2        -63.4251983 ]
 [  0.25666667 -17.35256236]]","[[0.         0.31346408]
 [0.1        0.8359084 ]
 [0.2        1.75433615]
 [0.25666667 0.30245362]]",1,0.919
8729820499,f,20,english,5,3,english,2024-01-25 10:40:18.164074,False,1,50,sounds\french\audio/french_516.wav,"[[  0.         -18.05376101]
 [  0.1         46.96361083]
 [  0.2         63.85228851]
 [  0.25666667 -69.83202403]]","[[0.         1.88602221]
 [0.1        1.82153179]
 [0.2        1.94475993]
 [0.25666667 1.41132457]]",1,0.816
8729820499,f,20,english,5,3,english,2024-01-25 10:40:18.164074,False,1,51,sounds\french\audio/french_319.wav,"[[  0.          63.69489547]
 [  0.1         60.76449486]
 [  0.2        -58.82123998]
 [  0.25666667  43.46614377]]","[[0.         0.79356863]
 [0.1        1.37507237]
 [0.2        1.06369674]
 [0.25666667 1.64660946]]",1,0.54
8729820499,f,20,english,5,3,english,2024-01-25 10:40:18.164074,False,1,52,sounds\french\audio/french_666.wav,"[[  0.          51.58977068]
 [  0.1         81.806625  ]
 [  0.2         10.32462757]
 [  0.25666667 -51.25764779]]","[[0.         0.51416215]
 [0.1        0.1213722 ]
 [0.2        1.14435945]
 [0.25666667 1.68381456]]",1,0.704
8729820499,f,20,english,5,3,english,2024-01-25 10:40:18.164074,False,1,53,sounds\french\audio/french_60.wav,"[[  0.         -40.9463495 ]
 [  0.1          8.65325309]
 [  0.2        -18.23980249]
 [  0.25666667 -34.79014982]]","[[0.         0.32779355]
 [0.1        0.55656076]
 [0.2        0.81322525]
 [0.25666667 0.57120985]]",1,1.591
8729820499,f,20,english,5,3,english,2024-01-25 10:40:18.164074,False,1,54,sounds\french\audio/french_747.wav,"[[  0.          81.67289695]
 [  0.1        -95.51692527]
 [  0.2          8.63144179]
 [  0.25666667 -85.56554801]]","[[0.         0.03581997]
 [0.1        0.40356434]
 [0.2        0.58773385]
 [0.25666667 1.10376778]]",0,1.82
8729820499,f,20,english,5,3,english,2024-01-25 10:40:18.164074,False,1,55,sounds\french\audio/french_98.wav,"[[  0.          -5.34356544]
 [  0.1        -51.77157259]
 [  0.2         16.6615471 ]
 [  0.25666667 -37.68560636]]","[[0.         0.47275823]
 [0.1        0.98771666]
 [0.2        0.01400035]
 [0.25666667 0.42827786]]",1,1.288
8729820499,f,20,english,5,3,english,2024-01-25 10:40:18.164074,False,1,56,sounds\french\audio/french_21.wav,"[[  0.          54.83693262]
 [  0.1        -44.5884084 ]
 [  0.2        -75.20982548]
 [  0.25666667 -57.69855476]]","[[0.         0.05508037]
 [0.1        0.46211883]
 [0.2        1.96075125]
 [0.25666667 0.5365247 ]]",1,1.912
8729820499,f,20,english,5,3,english,2024-01-25 10:40:18.164074,False,1,57,sounds\french\audio/french_272.wav,"[[  0.          50.55701535]
 [  0.1         63.46835537]
 [  0.2        -46.63250527]
 [  0.25666667  74.93577843]]","[[0.         1.0419248 ]
 [0.1        0.05024982]
 [0.2        0.3554473 ]
 [0.25666667 1.3845464 ]]",0,0.918
8729820499,f,20,english,5,3,english,2024-01-25 10:40:18.164074,False,1,58,sounds\french\audio/french_568.wav,"[[  0.         -18.10302265]
 [  0.1          9.93139794]
 [  0.2         91.46195775]
 [  0.25666667  56.10040773]]","[[0.         1.34189827]
 [0.1        1.47029794]
 [0.2        0.17269775]
 [0.25666667 1.22679594]]",1,0.591
8729820499,f,20,english,5,3,english,2024-01-25 10:40:18.164074,False,1,59,sounds\french\audio/french_546.wav,"[[  0.          36.39546499]
 [  0.1        -76.59722628]
 [  0.2        -20.75900546]
 [  0.25666667   8.86958668]]","[[0.         1.70532748]
 [0.1        1.24815266]
 [0.2        1.81852615]
 [0.25666667 0.22376713]]",1,0.632
8729820499,f,20,english,5,3,english,2024-01-25 10:40:18.164074,False,1,60,sounds\french\audio/french_995.wav,"[[  0.         -29.39777781]
 [  0.1         22.57403903]
 [  0.2        -65.41348422]
 [  0.25666667  24.23364448]]","[[0.         0.04069973]
 [0.1        0.75529124]
 [0.2        0.72194837]
 [0.25666667 0.85657711]]",0,0.903
8729820499,f,20,english,5,3,english,2024-01-25 10:40:18.164074,False,1,61,sounds\french\audio/french_977.wav,"[[  0.         -23.34946859]
 [  0.1        -74.17160997]
 [  0.2         31.43852713]
 [  0.25666667 -10.29160018]]","[[0.         1.58788712]
 [0.1        0.25032328]
 [0.2        0.90752219]
 [0.25666667 1.52460946]]",0,2.713
8729820499,f,20,english,5,3,english,2024-01-25 10:40:18.164074,False,1,62,sounds\french\audio/french_790.wav,"[[  0.         -78.0899986 ]
 [  0.1        -13.38999599]
 [  0.2        -59.88967217]
 [  0.25666667  34.06701256]]","[[0.         0.03777082]
 [0.1        1.54425687]
 [0.2        0.07634696]
 [0.25666667 1.62279479]]",0,0.985
8729820499,f,20,english,5,3,english,2024-01-25 10:40:18.164074,False,1,63,sounds\french\audio/french_350.wav,"[[  0.         -94.89147327]
 [  0.1        -69.96874844]
 [  0.2        -41.05008416]
 [  0.25666667  27.21030297]]","[[0.         1.34276454]
 [0.1        1.56346818]
 [0.2        0.76037532]
 [0.25666667 1.08356683]]",1,0.81
8729820499,f,20,english,5,3,english,2024-01-25 10:40:18.164074,False,1,64,sounds\french\audio/french_152.wav,"[[  0.          -3.84179402]
 [  0.1         56.28738818]
 [  0.2        -25.33799013]
 [  0.25666667 -10.23447911]]","[[0.         0.21245747]
 [0.1        1.74384484]
 [0.2        1.40208126]
 [0.25666667 0.94312755]]",1,1.372
8729820499,f,20,english,5,3,english,2024-01-25 10:40:18.164074,False,1,65,sounds\french\audio/french_568.wav,"[[  0.         -18.10302265]
 [  0.1          9.93139794]
 [  0.2         91.46195775]
 [  0.25666667  56.10040773]]","[[0.         1.34189827]
 [0.1        1.47029794]
 [0.2        0.17269775]
 [0.25666667 1.22679594]]",0,1.005
8729820499,f,20,english,5,3,english,2024-01-25 10:40:18.164074,False,1,66,sounds\french\audio/french_82.wav,"[[  0.          82.26293442]
 [  0.1        -13.98955844]
 [  0.2         44.8739745 ]
 [  0.25666667  23.31967993]]","[[0.         0.95636636]
 [0.1        0.8765529 ]
 [0.2        0.75785774]
 [0.25666667 0.26363467]]",0,1.455
8729820499,f,20,english,5,3,english,2024-01-25 10:40:18.164074,False,1,67,sounds\french\audio/french_872.wav,"[[  0.          85.31192626]
 [  0.1        -62.96284321]
 [  0.2         93.26127986]
 [  0.25666667  48.13314647]]","[[0.         1.27180188]
 [0.1        0.82867252]
 [0.2        1.69740624]
 [0.25666667 0.31258738]]",1,0.897
8729820499,f,20,english,5,3,english,2024-01-25 10:40:18.164074,False,1,68,sounds\french\audio/french_867.wav,"[[  0.         -56.83459408]
 [  0.1        -43.30462201]
 [  0.2        -57.08778715]
 [  0.25666667  26.25433727]]","[[0.         0.56298114]
 [0.1        1.09173708]
 [0.2        1.10722732]
 [0.25666667 0.48299304]]",0,0.812
8729820499,f,20,english,5,3,english,2024-01-25 10:40:18.164074,False,1,69,sounds\french\audio/french_204.wav,"[[  0.         -28.36319627]
 [  0.1        -92.66891013]
 [  0.2         96.29592204]
 [  0.25666667 -46.81515004]]","[[0.         0.07789368]
 [0.1        0.00203791]
 [0.2        1.92374636]
 [0.25666667 0.97947469]]",0,0.896
8729820499,f,20,english,5,3,english,2024-01-25 10:40:18.164074,False,1,70,sounds\french\audio/french_384.wav,"[[ 0.         96.27107524]
 [ 0.1        31.19825585]
 [ 0.2        59.60884037]
 [ 0.25666667 90.96213602]]","[[0.         0.63462189]
 [0.1        1.63064356]
 [0.2        0.96291672]
 [0.25666667 1.24636593]]",0,0.78
8729820499,f,20,english,5,3,english,2024-01-25 10:40:18.164074,False,1,71,sounds\french\audio/french_144.wav,"[[  0.          54.7439873 ]
 [  0.1        -90.40840953]
 [  0.2        -23.8496949 ]
 [  0.25666667   9.69074846]]","[[0.         1.65699933]
 [0.1        0.10946834]
 [0.2        0.63660565]
 [0.25666667 0.31092992]]",1,1.288
8729820499,f,20,english,5,3,english,2024-01-25 10:40:18.164074,False,1,72,sounds\french\audio/french_266.wav,"[[  0.          58.27883453]
 [  0.1        -28.04411439]
 [  0.2        -38.46127027]
 [  0.25666667 -84.67234247]]","[[0.         0.79886668]
 [0.1        1.49488383]
 [0.2        0.15170522]
 [0.25666667 1.57053192]]",0,1.275
8729820499,f,20,english,5,3,english,2024-01-25 10:40:18.164074,False,1,73,sounds\french\audio/french_788.wav,"[[  0.         -49.59093674]
 [  0.1        -37.12859592]
 [  0.2         78.06548219]
 [  0.25666667  52.38730842]]","[[0.         1.03975343]
 [0.1        0.12530513]
 [0.2        0.40268526]
 [0.25666667 1.72021211]]",0,0.716
8729820499,f,20,english,5,3,english,2024-01-25 10:40:18.164074,False,1,74,sounds\french\audio/french_214.wav,"[[  0.          76.24554567]
 [  0.1        -45.01894732]
 [  0.2         36.56408721]
 [  0.25666667 -35.03381059]]","[[0.         0.83658468]
 [0.1        0.66247732]
 [0.2        0.57350576]
 [0.25666667 1.70097913]]",0,1.034
8729820499,f,20,english,5,3,english,2024-01-25 10:40:18.164074,False,1,75,sounds\french\audio/french_117.wav,"[[ 0.          6.74214439]
 [ 0.1         3.15736066]
 [ 0.2        10.42128043]
 [ 0.25666667 89.20041031]]","[[0.         0.42718416]
 [0.1        1.82203077]
 [0.2        0.49696174]
 [0.25666667 0.34350523]]",0,1.269
8729820499,f,20,english,5,3,english,2024-01-25 10:40:18.164074,False,1,76,sounds\french\audio/french_548.wav,"[[ 0.          1.54236609]
 [ 0.1        42.93927178]
 [ 0.2        94.14256546]
 [ 0.25666667 78.31055202]]","[[0.         0.97335898]
 [0.1        0.92328993]
 [0.2        0.31229256]
 [0.25666667 0.51911246]]",0,1.039
8729820499,f,20,english,5,3,english,2024-01-25 10:40:18.164074,False,1,77,sounds\french\audio/french_288.wav,"[[  0.          -9.24929425]
 [  0.1         97.18434129]
 [  0.2         -8.99940005]
 [  0.25666667 -80.67587563]]","[[0.         1.2144441 ]
 [0.1        0.01267679]
 [0.2        1.13720482]
 [0.25666667 1.56801852]]",0,1.262
8729820499,f,20,english,5,3,english,2024-01-25 10:40:18.164074,False,1,78,sounds\french\audio/french_905.wav,"[[  0.          87.86620346]
 [  0.1         17.88859649]
 [  0.2         51.58456374]
 [  0.25666667 -98.76806622]]","[[0.         1.28585996]
 [0.1        0.57714405]
 [0.2        0.3219524 ]
 [0.25666667 1.69480445]]",0,0.663
8729820499,f,20,english,5,3,english,2024-01-25 10:40:18.164074,False,1,79,sounds\french\audio/french_937.wav,"[[  0.          27.89553513]
 [  0.1        -51.2753628 ]
 [  0.2        -75.08991272]
 [  0.25666667 -24.40434042]]","[[0.         1.9323197 ]
 [0.1        1.67315664]
 [0.2        1.14592467]
 [0.25666667 1.81837395]]",0,0.91
8729820499,f,20,english,5,3,english,2024-01-25 10:40:18.164074,False,1,80,sounds\french\audio/french_316.wav,"[[  0.          71.43385859]
 [  0.1        -31.05932013]
 [  0.2          7.51523711]
 [  0.25666667 -46.68412198]]","[[0.         0.02011656]
 [0.1        1.43477753]
 [0.2        0.06852206]
 [0.25666667 1.51807936]]",0,1.213
8729820499,f,20,english,5,3,english,2024-01-25 10:40:18.164074,False,1,81,sounds\french\audio/french_342.wav,"[[  0.         -84.22246184]
 [  0.1        -88.55202377]
 [  0.2         12.74462997]
 [  0.25666667 -73.67155113]]","[[0.         0.80111929]
 [0.1        0.92289162]
 [0.2        0.96187701]
 [0.25666667 0.57764427]]",1,1.403
8729820499,f,20,english,5,3,english,2024-01-25 10:40:18.164074,False,1,82,sounds\french\audio/french_732.wav,"[[  0.         -82.9393053 ]
 [  0.1        -79.22735873]
 [  0.2        -67.09796721]
 [  0.25666667  35.15971491]]","[[0.         0.90840431]
 [0.1        0.47468339]
 [0.2        1.61768905]
 [0.25666667 1.44596926]]",1,1.294
8729820499,f,20,english,5,3,english,2024-01-25 10:40:18.164074,False,1,83,sounds\french\audio/french_682.wav,"[[  0.         -16.33102186]
 [  0.1        -49.72009429]
 [  0.2        -23.39596266]
 [  0.25666667 -34.72439006]]","[[0.         0.79850708]
 [0.1        1.31273679]
 [0.2        1.51298147]
 [0.25666667 0.92861139]]",1,0.719
8729820499,f,20,english,5,3,english,2024-01-25 10:40:18.164074,False,1,84,sounds\french\audio/french_709.wav,"[[  0.         -79.1228884 ]
 [  0.1        -27.45222572]
 [  0.2        -11.54770291]
 [  0.25666667 -99.06734201]]","[[0.         1.66046785]
 [0.1        0.50815509]
 [0.2        1.01994244]
 [0.25666667 1.8368488 ]]",1,0.689
8729820499,f,20,english,5,3,english,2024-01-25 10:40:18.164074,False,1,85,sounds\french\audio/french_278.wav,"[[  0.           0.92058819]
 [  0.1        -11.12293645]
 [  0.2         51.74113392]
 [  0.25666667  59.96495371]]","[[0.         0.58166089]
 [0.1        0.6190237 ]
 [0.2        1.02661965]
 [0.25666667 0.89915078]]",1,0.544
8729820499,f,20,english,5,3,english,2024-01-25 10:40:18.164074,False,1,86,sounds\french\audio/french_922.wav,"[[  0.          16.31592569]
 [  0.1         -2.28258737]
 [  0.2        -89.56675227]
 [  0.25666667  35.85711901]]","[[0.         1.06783245]
 [0.1        0.48563761]
 [0.2        1.02625397]
 [0.25666667 0.82092749]]",1,2.421
8729820499,f,20,english,5,3,english,2024-01-25 10:40:18.164074,False,1,87,sounds\french\audio/french_692.wav,"[[  0.         -30.56073905]
 [  0.1         67.72997498]
 [  0.2         55.48980932]
 [  0.25666667  99.47423215]]","[[0.         0.00354931]
 [0.1        1.79271885]
 [0.2        1.35474436]
 [0.25666667 1.33636308]]",0,1.012
8729820499,f,20,english,5,3,english,2024-01-25 10:40:18.164074,False,1,88,sounds\french\audio/french_13.wav,"[[  0.         -32.13252367]
 [  0.1         70.64746455]
 [  0.2        -67.50971173]
 [  0.25666667  94.74832862]]","[[0.         0.96861247]
 [0.1        0.7552715 ]
 [0.2        1.7097775 ]
 [0.25666667 1.62121013]]",1,0.747
8729820499,f,20,english,5,3,english,2024-01-25 10:40:18.164074,False,1,89,sounds\french\audio/french_425.wav,"[[  0.          36.0896382 ]
 [  0.1        -60.28824884]
 [  0.2        -83.12671609]
 [  0.25666667  32.66103116]]","[[0.         0.72680638]
 [0.1        0.01839492]
 [0.2        1.09901753]
 [0.25666667 1.13928828]]",0,5.272
8729820499,f,20,english,5,3,english,2024-01-25 10:40:18.164074,False,1,90,sounds\french\audio/french_676.wav,"[[  0.          77.51634327]
 [  0.1        -98.7950763 ]
 [  0.2        -10.44477989]
 [  0.25666667   3.71960258]]","[[0.         0.52312795]
 [0.1        0.58996043]
 [0.2        1.89966038]
 [0.25666667 0.61903343]]",1,1.038
8729820499,f,20,english,5,3,english,2024-01-25 10:40:18.164074,False,1,91,sounds\french\audio/french_190.wav,"[[ 0.         69.06529403]
 [ 0.1        69.42395119]
 [ 0.2        67.79801708]
 [ 0.25666667 63.92857008]]","[[0.         1.3481685 ]
 [0.1        0.73404764]
 [0.2        1.27794388]
 [0.25666667 1.43465572]]",1,0.921
8729820499,f,20,english,5,3,english,2024-01-25 10:40:18.164074,False,1,92,sounds\french\audio/french_523.wav,"[[  0.         -20.54401218]
 [  0.1        -64.61887171]
 [  0.2        -56.67652055]
 [  0.25666667 -29.90055738]]","[[0.         1.01178449]
 [0.1        1.79283511]
 [0.2        0.92711934]
 [0.25666667 1.0186138 ]]",1,0.4
8729820499,f,20,english,5,3,english,2024-01-25 10:40:18.164074,False,1,93,sounds\french\audio/french_854.wav,"[[  0.          -7.31529778]
 [  0.1        -99.41756076]
 [  0.2          9.72781791]
 [  0.25666667  12.92966386]]","[[0.         1.19205775]
 [0.1        1.8519083 ]
 [0.2        0.75121465]
 [0.25666667 0.73809803]]",0,0.575
8729820499,f,20,english,5,3,english,2024-01-25 10:40:18.164074,False,1,94,sounds\french\audio/french_834.wav,"[[  0.         -86.08965853]
 [  0.1         69.78931281]
 [  0.2        -42.1324214 ]
 [  0.25666667 -13.11810425]]","[[0.         1.35817583]
 [0.1        0.2902945 ]
 [0.2        0.84488429]
 [0.25666667 0.59655356]]",0,3.815
8729820499,f,20,english,5,3,english,2024-01-25 10:40:18.164074,False,1,95,sounds\french\audio/french_670.wav,"[[  0.         -38.80852857]
 [  0.1         -8.64332938]
 [  0.2        -55.35683075]
 [  0.25666667  17.57735741]]","[[0.         0.18324618]
 [0.1        0.81857347]
 [0.2        1.27404838]
 [0.25666667 1.12537981]]",1,1.548
8729820499,f,20,english,5,3,english,2024-01-25 10:40:18.164074,False,1,96,sounds\french\audio/french_16.wav,"[[  0.          -0.6461067 ]
 [  0.1         90.1568776 ]
 [  0.2         64.8388413 ]
 [  0.25666667 -49.08803112]]","[[0.         1.33944457]
 [0.1        0.35137866]
 [0.2        1.61271584]
 [0.25666667 0.05305125]]",0,0.573
8729820499,f,20,english,5,3,english,2024-01-25 10:40:18.164074,False,1,97,sounds\french\audio/french_7.wav,"[[  0.         -71.02833311]
 [  0.1        -12.38691322]
 [  0.2        -62.8930846 ]
 [  0.25666667  27.53159518]]","[[0.         1.79953402]
 [0.1        1.89065694]
 [0.2        0.59849277]
 [0.25666667 0.94237915]]",0,0.886
8729820499,f,20,english,5,3,english,2024-01-25 10:40:18.164074,False,1,98,sounds\french\audio/french_472.wav,"[[  0.          -9.46806957]
 [  0.1         45.81973918]
 [  0.2        -32.95266456]
 [  0.25666667 -10.56557549]]","[[0.         0.85855516]
 [0.1        1.60383991]
 [0.2        0.80244772]
 [0.25666667 1.48234138]]",0,0.242
8729820499,f,20,english,5,3,english,2024-01-25 10:40:18.164074,False,1,99,sounds\french\audio/french_189.wav,"[[ 0.         25.45363348]
 [ 0.1        10.19219643]
 [ 0.2        79.32306783]
 [ 0.25666667 77.27494318]]","[[0.         0.70243048]
 [0.1        0.78977161]
 [0.2        0.18017453]
 [0.25666667 0.76350619]]",0,0.452
8729820499,f,20,english,5,3,english,2024-01-25 10:40:18.164074,False,1,100,sounds\french\audio/french_905.wav,"[[  0.          87.86620346]
 [  0.1         17.88859649]
 [  0.2         51.58456374]
 [  0.25666667 -98.76806622]]","[[0.         1.28585996]
 [0.1        0.57714405]
 [0.2        0.3219524 ]
 [0.25666667 1.69480445]]",0,1.415
8729820499,f,20,english,5,3,english,2024-01-25 10:40:18.164074,False,1,101,sounds\french\audio/french_48.wav,"[[  0.          39.79198264]
 [  0.1         66.47948286]
 [  0.2         57.39946228]
 [  0.25666667 -39.27972342]]","[[0.         1.78905862]
 [0.1        1.41226809]
 [0.2        1.54721415]
 [0.25666667 0.33574946]]",0,0.64
8729820499,f,20,english,5,3,english,2024-01-25 10:40:18.164074,False,1,102,sounds\french\audio/french_197.wav,"[[  0.          -6.69305154]
 [  0.1         23.33285596]
 [  0.2        -47.26714808]
 [  0.25666667 -64.80738279]]","[[0.         1.22063961]
 [0.1        0.20505699]
 [0.2        1.45150796]
 [0.25666667 0.00954455]]",1,1.714
8729820499,f,20,english,5,3,english,2024-01-25 10:40:18.164074,False,1,103,sounds\french\audio/french_692.wav,"[[  0.         -30.56073905]
 [  0.1         67.72997498]
 [  0.2         55.48980932]
 [  0.25666667  99.47423215]]","[[0.         0.00354931]
 [0.1        1.79271885]
 [0.2        1.35474436]
 [0.25666667 1.33636308]]",0,1.774
8729820499,f,20,english,5,3,english,2024-01-25 10:40:18.164074,False,1,104,sounds\french\audio/french_265.wav,"[[ 0.         12.13424101]
 [ 0.1        31.84170149]
 [ 0.2        45.73784214]
 [ 0.25666667 35.60173059]]","[[0.         1.65569129]
 [0.1        1.94822248]
 [0.2        0.46939125]
 [0.25666667 0.82856794]]",0,1.138
8729820499,f,20,english,5,3,english,2024-01-25 10:40:18.164074,False,1,105,sounds\french\audio/french_48.wav,"[[  0.          39.79198264]
 [  0.1         66.47948286]
 [  0.2         57.39946228]
 [  0.25666667 -39.27972342]]","[[0.         1.78905862]
 [0.1        1.41226809]
 [0.2        1.54721415]
 [0.25666667 0.33574946]]",0,0.365
8729820499,f,20,english,5,3,english,2024-01-25 10:40:18.164074,False,1,106,sounds\french\audio/french_24.wav,"[[  0.         -90.56488298]
 [  0.1        -50.97686263]
 [  0.2         15.79918005]
 [  0.25666667   3.83977191]]","[[0.         1.23408284]
 [0.1        0.21485458]
 [0.2        0.7737077 ]
 [0.25666667 0.99994749]]",0,0.32
8729820499,f,20,english,5,3,english,2024-01-25 10:40:18.164074,False,1,107,sounds\french\audio/french_252.wav,"[[  0.         -68.3996329 ]
 [  0.1         79.02734002]
 [  0.2        -18.50805447]
 [  0.25666667 -85.84066145]]","[[0.         0.41781817]
 [0.1        1.03502761]
 [0.2        0.82044901]
 [0.25666667 1.09163249]]",0,0.222
8729820499,f,20,english,5,3,english,2024-01-25 10:40:18.164074,False,1,108,sounds\french\audio/french_551.wav,"[[  0.         -87.08357851]
 [  0.1         71.56090061]
 [  0.2        -46.55712742]
 [  0.25666667 -57.93002391]]","[[0.         1.2328931 ]
 [0.1        1.28136219]
 [0.2        0.3781059 ]
 [0.25666667 1.42095582]]",1,0.418
8729820499,f,20,english,5,3,english,2024-01-25 10:40:18.164074,False,1,109,sounds\french\audio/french_848.wav,"[[  0.         -60.99605007]
 [  0.1        -27.05939135]
 [  0.2        -10.58439289]
 [  0.25666667 -17.47548333]]","[[0.         1.01059702]
 [0.1        1.98581859]
 [0.2        0.30142011]
 [0.25666667 1.16939553]]",1,0.286
8729820499,f,20,english,5,3,english,2024-01-25 10:40:18.164074,False,1,110,sounds\french\audio/french_193.wav,"[[  0.         -28.32639357]
 [  0.1        -28.26139456]
 [  0.2        -57.21870996]
 [  0.25666667 -51.4120543 ]]","[[0.         1.40536398]
 [0.1        0.96467568]
 [0.2        1.12687293]
 [0.25666667 0.49094377]]",1,0.302
8729820499,f,20,english,5,3,english,2024-01-25 10:40:18.164074,False,1,111,sounds\french\audio/french_521.wav,"[[  0.          11.04386286]
 [  0.1        -55.65083084]
 [  0.2         98.93037095]
 [  0.25666667  14.06437892]]","[[0.         1.73052604]
 [0.1        0.96564678]
 [0.2        1.35299162]
 [0.25666667 1.41353716]]",1,0.224
8729820499,f,20,english,5,3,english,2024-01-25 10:40:18.164074,False,1,112,sounds\french\audio/french_818.wav,"[[  0.         -26.74770248]
 [  0.1        -33.54864391]
 [  0.2        -23.72939517]
 [  0.25666667  53.93300908]]","[[0.         1.09674102]
 [0.1        0.98606035]
 [0.2        1.86933067]
 [0.25666667 0.6204836 ]]",1,0.775
8729820499,f,20,english,5,3,english,2024-01-25 10:40:18.164074,False,1,113,sounds\french\audio/french_657.wav,"[[  0.          99.76716584]
 [  0.1         11.51898435]
 [  0.2        -43.45408234]
 [  0.25666667  22.46427071]]","[[0.         0.85695778]
 [0.1        1.00645436]
 [0.2        0.73989588]
 [0.25666667 1.57217431]]",0,0.215
8729820499,f,20,english,5,3,english,2024-01-25 10:40:18.164074,False,1,114,sounds\french\audio/french_254.wav,"[[  0.         -80.26287383]
 [  0.1        -40.33934554]
 [  0.2         63.1875163 ]
 [  0.25666667  55.87543548]]","[[0.         0.610966  ]
 [0.1        1.74213191]
 [0.2        0.92287848]
 [0.25666667 0.4746978 ]]",0,0.773
8729820499,f,20,english,5,3,english,2024-01-25 10:40:18.164074,False,1,115,sounds\french\audio/french_77.wav,"[[  0.         -38.97456477]
 [  0.1        -27.77573133]
 [  0.2         62.31685549]
 [  0.25666667  13.7751853 ]]","[[0.         1.51906971]
 [0.1        1.43123518]
 [0.2        1.04030098]
 [0.25666667 1.45792424]]",0,0.186
8729820499,f,20,english,5,3,english,2024-01-25 10:40:18.164074,False,1,116,sounds\french\audio/french_503.wav,"[[  0.         -70.57406247]
 [  0.1        -50.28029143]
 [  0.2         -1.92788211]
 [  0.25666667  82.92590596]]","[[0.         0.43346158]
 [0.1        1.6767429 ]
 [0.2        0.59100625]
 [0.25666667 1.4727109 ]]",0,0.17
8729820499,f,20,english,5,3,english,2024-01-25 10:40:18.164074,False,1,117,sounds\french\audio/french_935.wav,"[[  0.         -44.99349069]
 [  0.1        -36.99771552]
 [  0.2         73.94933819]
 [  0.25666667  99.03349287]]","[[0.         1.17032266]
 [0.1        1.41237049]
 [0.2        0.72245199]
 [0.25666667 1.64210213]]",0,0.225
8729820499,f,20,english,5,3,english,2024-01-25 10:40:18.164074,False,1,118,sounds\french\audio/french_512.wav,"[[  0.         -78.17864001]
 [  0.1          0.33316605]
 [  0.2        -88.66010948]
 [  0.25666667 -69.42732992]]","[[0.         1.53776746]
 [0.1        0.01358873]
 [0.2        0.2850161 ]
 [0.25666667 0.92419145]]",0,2.048
8729820499,f,20,english,5,3,english,2024-01-25 10:40:18.164074,False,1,119,sounds\french\audio/french_532.wav,"[[  0.          51.6664435 ]
 [  0.1         12.38327687]
 [  0.2        -89.35582175]
 [  0.25666667  25.37493155]]","[[0.         1.30171402]
 [0.1        0.03929558]
 [0.2        1.38931331]
 [0.25666667 0.74157834]]",1,2.193
8729820499,f,20,english,5,3,english,2024-01-25 10:40:18.164074,False,1,120,sounds\french\audio/french_885.wav,"[[  0.          33.82264354]
 [  0.1        -17.07734064]
 [  0.2        -15.93967404]
 [  0.25666667  58.67746901]]","[[0.         0.94046277]
 [0.1        0.79714646]
 [0.2        1.26873891]
 [0.25666667 1.69592015]]",1,0.696
8729820499,f,20,english,5,3,english,2024-01-25 10:40:18.164074,False,1,121,sounds\french\audio/french_347.wav,"[[  0.         -50.57249908]
 [  0.1         -0.96259157]
 [  0.2         56.28626554]
 [  0.25666667  46.89576118]]","[[0.         1.7558536 ]
 [0.1        0.42717605]
 [0.2        1.32943016]
 [0.25666667 0.4771217 ]]",0,0.777
8729820499,f,20,english,5,3,english,2024-01-25 10:40:18.164074,False,1,122,sounds\french\audio/french_874.wav,"[[  0.         -35.96007818]
 [  0.1         93.27546243]
 [  0.2        -82.54110259]
 [  0.25666667   1.86870901]]","[[0.         0.94126631]
 [0.1        1.47253108]
 [0.2        1.71868685]
 [0.25666667 0.93280664]]",0,0.458
8729820499,f,20,english,5,3,english,2024-01-25 10:40:18.164074,False,1,123,sounds\french\audio/french_821.wav,"[[  0.          70.15336782]
 [  0.1         -1.11865535]
 [  0.2        -91.54006312]
 [  0.25666667  24.13643902]]","[[0.         1.4099425 ]
 [0.1        1.36643738]
 [0.2        0.06599991]
 [0.25666667 1.20854405]]",0,0.383
8729820499,f,20,english,5,3,english,2024-01-25 10:40:18.164074,False,1,124,sounds\french\audio/french_358.wav,"[[  0.         -21.88755711]
 [  0.1         -5.628981  ]
 [  0.2        -60.01307733]
 [  0.25666667  65.58947466]]","[[0.         1.21014447]
 [0.1        1.2650669 ]
 [0.2        0.97277603]
 [0.25666667 0.28969343]]",0,1.393
8729820499,f,20,english,5,3,english,2024-01-25 10:40:18.164074,False,1,125,sounds\french\audio/french_911.wav,"[[  0.          11.85203828]
 [  0.1        -24.36206963]
 [  0.2        -79.91713821]
 [  0.25666667 -65.93332008]]","[[0.         0.91676267]
 [0.1        0.3897793 ]
 [0.2        0.96594055]
 [0.25666667 1.97851167]]",0,1.486
8729820499,f,20,english,5,3,english,2024-01-25 10:40:18.164074,False,1,126,sounds\french\audio/french_461.wav,"[[  0.          76.34817382]
 [  0.1          2.37579461]
 [  0.2        -59.90047781]
 [  0.25666667  20.08623444]]","[[0.         0.72953599]
 [0.1        1.5415695 ]
 [0.2        1.01078515]
 [0.25666667 1.02737445]]",0,2.08
8729820499,f,20,english,5,3,english,2024-01-25 10:40:18.164074,False,1,127,sounds\french\audio/french_19.wav,"[[  0.         -43.32613145]
 [  0.1        -51.04998213]
 [  0.2        -30.05832199]
 [  0.25666667 -62.89931607]]","[[0.         0.86768791]
 [0.1        0.12235363]
 [0.2        0.93205141]
 [0.25666667 0.68272422]]",0,0.905
8729820499,f,20,english,5,3,english,2024-01-25 10:40:18.164074,False,1,128,sounds\french\audio/french_846.wav,"[[  0.          70.67693031]
 [  0.1        -66.50397015]
 [  0.2         37.81388611]
 [  0.25666667 -25.90764661]]","[[0.         1.34255937]
 [0.1        0.4230684 ]
 [0.2        1.53749893]
 [0.25666667 0.57819313]]",0,0.549
8729820499,f,20,english,5,3,english,2024-01-25 10:40:18.164074,False,1,129,sounds\french\audio/french_455.wav,"[[  0.         -38.32224649]
 [  0.1         16.6107471 ]
 [  0.2        -53.73538957]
 [  0.25666667 -39.28573671]]","[[0.         1.67202697]
 [0.1        0.91904085]
 [0.2        1.09329776]
 [0.25666667 1.37901108]]",0,0.649
8729820499,f,20,english,5,3,english,2024-01-25 10:40:18.164074,False,1,130,sounds\french\audio/french_436.wav,"[[  0.          21.52139078]
 [  0.1         91.02122448]
 [  0.2         28.53627776]
 [  0.25666667 -78.88687792]]","[[0.         0.27861971]
 [0.1        0.31750307]
 [0.2        0.35857003]
 [0.25666667 1.70163595]]",0,0.85
8729820499,f,20,english,5,3,english,2024-01-25 10:40:18.164074,False,1,131,sounds\french\audio/french_751.wav,"[[ 0.         43.14158788]
 [ 0.1        18.43858874]
 [ 0.2        79.49995567]
 [ 0.25666667 54.04463095]]","[[0.         0.5897858 ]
 [0.1        0.77618244]
 [0.2        1.33641446]
 [0.25666667 0.80537668]]",0,0.228
8729820499,f,20,english,5,3,english,2024-01-25 10:40:18.164074,False,1,132,sounds\french\audio/french_975.wav,"[[  0.         -26.92402708]
 [  0.1        -12.18779535]
 [  0.2        -49.74503626]
 [  0.25666667  48.08434321]]","[[0.         1.54282139]
 [0.1        0.57018571]
 [0.2        1.72772198]
 [0.25666667 1.83415107]]",0,0.258
8729820499,f,20,english,5,3,english,2024-01-25 10:40:18.164074,False,1,133,sounds\french\audio/french_715.wav,"[[  0.          89.89167485]
 [  0.1         47.15597215]
 [  0.2         44.59513653]
 [  0.25666667 -32.08567965]]","[[0.         1.90551341]
 [0.1        0.2376049 ]
 [0.2        0.03260857]
 [0.25666667 1.14470607]]",1,1.62
8729820499,f,20,english,5,3,english,2024-01-25 10:40:18.164074,False,1,134,sounds\french\audio/french_305.wav,"[[  0.         -54.69953739]
 [  0.1        -55.57420142]
 [  0.2         69.52625069]
 [  0.25666667 -71.2713804 ]]","[[0.         0.89911595]
 [0.1        0.95414013]
 [0.2        1.47998422]
 [0.25666667 1.78847242]]",0,1.201
8729820499,f,20,english,5,3,english,2024-01-25 10:40:18.164074,False,1,135,sounds\french\audio/french_268.wav,"[[  0.         -31.22986491]
 [  0.1         85.41130684]
 [  0.2         51.81326747]
 [  0.25666667  -9.66270327]]","[[0.         0.61965618]
 [0.1        0.43772331]
 [0.2        0.97717852]
 [0.25666667 0.83042374]]",0,1.929
8729820499,f,20,english,5,3,english,2024-01-25 10:40:18.164074,False,1,136,sounds\french\audio/french_513.wav,"[[  0.          84.63539274]
 [  0.1         36.6114333 ]
 [  0.2         14.49628471]
 [  0.25666667 -17.17346171]]","[[0.         1.68726635]
 [0.1        0.88690679]
 [0.2        0.37350839]
 [0.25666667 1.74122924]]",1,1.542
8729820499,f,20,english,5,3,english,2024-01-25 10:40:18.164074,False,1,137,sounds\french\audio/french_478.wav,"[[  0.          83.43470999]
 [  0.1         -2.90020724]
 [  0.2          3.04122674]
 [  0.25666667 -16.94968741]]","[[0.         1.59134243]
 [0.1        1.87737404]
 [0.2        1.09323353]
 [0.25666667 0.48225636]]",1,0.657
8729820499,f,20,english,5,3,english,2024-01-25 10:40:18.164074,False,1,138,sounds\french\audio/french_856.wav,"[[  0.         -64.45291012]
 [  0.1         51.16318907]
 [  0.2         51.97117103]
 [  0.25666667  78.82524423]]","[[0.         0.77997639]
 [0.1        0.05317495]
 [0.2        0.19638347]
 [0.25666667 1.64847488]]",1,1.513
8729820499,f,20,english,5,3,english,2024-01-25 10:40:18.164074,False,1,139,sounds\french\audio/french_902.wav,"[[  0.          27.03523978]
 [  0.1        -67.54213764]
 [  0.2         21.7683879 ]
 [  0.25666667 -96.90742585]]","[[0.         0.1459181 ]
 [0.1        1.3453624 ]
 [0.2        1.83277685]
 [0.25666667 0.52631336]]",1,0.725
8729820499,f,20,english,5,3,english,2024-01-25 10:40:18.164074,False,1,140,sounds\french\audio/french_513.wav,"[[  0.          84.63539274]
 [  0.1         36.6114333 ]
 [  0.2         14.49628471]
 [  0.25666667 -17.17346171]]","[[0.         1.68726635]
 [0.1        0.88690679]
 [0.2        0.37350839]
 [0.25666667 1.74122924]]",0,1.474
8729820499,f,20,english,5,3,english,2024-01-25 10:40:18.164074,False,1,141,sounds\french\audio/french_700.wav,"[[  0.          27.78595998]
 [  0.1        -29.96160528]
 [  0.2         60.6733782 ]
 [  0.25666667  39.12324738]]","[[0.         1.84943535]
 [0.1        0.52483958]
 [0.2        0.55672926]
 [0.25666667 0.96842636]]",0,1.166
8729820499,f,20,english,5,3,english,2024-01-25 10:40:18.164074,False,1,142,sounds\french\audio/french_384.wav,"[[ 0.         96.27107524]
 [ 0.1        31.19825585]
 [ 0.2        59.60884037]
 [ 0.25666667 90.96213602]]","[[0.         0.63462189]
 [0.1        1.63064356]
 [0.2        0.96291672]
 [0.25666667 1.24636593]]",0,1.946
8729820499,f,20,english,5,3,english,2024-01-25 10:40:18.164074,False,1,143,sounds\french\audio/french_260.wav,"[[  0.          -3.22947754]
 [  0.1        -16.22535722]
 [  0.2        -91.54207183]
 [  0.25666667 -55.70642268]]","[[0.         0.22766361]
 [0.1        1.16747398]
 [0.2        1.39667181]
 [0.25666667 1.03484551]]",1,0.62
8729820499,f,20,english,5,3,english,2024-01-25 10:40:18.164074,False,1,144,sounds\french\audio/french_153.wav,"[[  0.          47.87386837]
 [  0.1          7.07648522]
 [  0.2         20.87760624]
 [  0.25666667 -54.47130494]]","[[0.         0.75426526]
 [0.1        1.23801955]
 [0.2        0.38230121]
 [0.25666667 0.58190832]]",1,0.291
8729820499,f,20,english,5,3,english,2024-01-25 10:40:18.164074,False,1,145,sounds\french\audio/french_659.wav,"[[ 0.         85.50464417]
 [ 0.1        65.46448613]
 [ 0.2        39.40171471]
 [ 0.25666667 -2.24011696]]","[[0.         1.33522586]
 [0.1        1.79413259]
 [0.2        1.57337642]
 [0.25666667 0.55895062]]",1,0.19
8729820499,f,20,english,5,3,english,2024-01-25 10:40:18.164074,False,1,146,sounds\french\audio/french_387.wav,"[[  0.         -24.2271051 ]
 [  0.1        -69.58889879]
 [  0.2         21.02997226]
 [  0.25666667  58.82746302]]","[[0.         0.1957751 ]
 [0.1        0.86781049]
 [0.2        1.73501265]
 [0.25666667 1.75042849]]",1,0.535
8729820499,f,20,english,5,3,english,2024-01-25 10:40:18.164074,False,1,147,sounds\french\audio/french_146.wav,"[[  0.           2.88911392]
 [  0.1         20.34035446]
 [  0.2        -17.47138226]
 [  0.25666667 -15.1567399 ]]","[[0.         0.44051244]
 [0.1        0.76269488]
 [0.2        0.12643706]
 [0.25666667 0.55905625]]",0,0.548
8729820499,f,20,english,5,3,english,2024-01-25 10:40:18.164074,False,1,148,sounds\french\audio/french_777.wav,"[[  0.           8.03786355]
 [  0.1        -25.18391206]
 [  0.2        -83.38753258]
 [  0.25666667  40.68339476]]","[[0.         1.59828936]
 [0.1        0.4858639 ]
 [0.2        1.25666852]
 [0.25666667 1.11090511]]",0,1.075
8729820499,f,20,english,5,3,english,2024-01-25 10:40:18.164074,False,1,149,sounds\french\audio/french_292.wav,"[[  0.          -5.98307963]
 [  0.1        -89.4143915 ]
 [  0.2         50.82370108]
 [  0.25666667 -75.87081721]]","[[0.         1.30181039]
 [0.1        0.71580693]
 [0.2        0.58623796]
 [0.25666667 1.49080339]]",1,0.572
8729820499,f,20,english,5,3,english,2024-01-25 10:40:18.164074,False,1,150,sounds\french\audio/french_853.wav,"[[  0.         -51.03576257]
 [  0.1         41.51658453]
 [  0.2        -92.89610403]
 [  0.25666667 -36.6460181 ]]","[[0.         1.07641583]
 [0.1        0.77538457]
 [0.2        0.19170679]
 [0.25666667 1.18241166]]",1,0.3
8729820499,f,20,english,5,3,english,2024-01-25 10:40:18.164074,False,1,151,sounds\french\audio/french_484.wav,"[[  0.          -9.6162674 ]
 [  0.1          9.27811619]
 [  0.2        -71.03065972]
 [  0.25666667 -29.12959292]]","[[0.         0.19772274]
 [0.1        0.11941549]
 [0.2        1.54802806]
 [0.25666667 1.03524562]]",0,0.624
8729820499,f,20,english,5,3,english,2024-01-25 10:40:18.164074,False,1,152,sounds\french\audio/french_71.wav,"[[  0.         -97.29707499]
 [  0.1         41.74238765]
 [  0.2        -91.89336592]
 [  0.25666667  53.06515209]]","[[0.         0.6163898 ]
 [0.1        1.06775198]
 [0.2        1.31906527]
 [0.25666667 0.58556407]]",1,0.278
8729820499,f,20,english,5,3,english,2024-01-25 10:40:18.164074,False,1,153,sounds\french\audio/french_363.wav,"[[  0.          53.04818478]
 [  0.1         68.67010762]
 [  0.2        -91.11205335]
 [  0.25666667 -38.9131055 ]]","[[0.         0.48026107]
 [0.1        1.94302888]
 [0.2        0.36511891]
 [0.25666667 1.6181542 ]]",1,0.29
8729820499,f,20,english,5,3,english,2024-01-25 10:40:18.164074,False,1,154,sounds\french\audio/french_703.wav,"[[  0.          84.48201003]
 [  0.1        -13.2968245 ]
 [  0.2        -49.01598543]
 [  0.25666667 -63.56156529]]","[[0.         0.82331622]
 [0.1        1.50639414]
 [0.2        0.83966854]
 [0.25666667 1.27848793]]",0,0.561
8729820499,f,20,english,5,3,english,2024-01-25 10:40:18.164074,False,1,155,sounds\french\audio/french_627.wav,"[[  0.           2.1799823 ]
 [  0.1         30.63833179]
 [  0.2         99.93583097]
 [  0.25666667 -23.95585557]]","[[0.         1.97167661]
 [0.1        1.14790719]
 [0.2        1.70510721]
 [0.25666667 1.67415678]]",1,1.054
8729820499,f,20,english,5,3,english,2024-01-25 10:40:18.164074,False,1,156,sounds\french\audio/french_274.wav,"[[  0.          43.75822691]
 [  0.1         86.10199067]
 [  0.2        -33.25278445]
 [  0.25666667 -94.53609652]]","[[0.         1.39255027]
 [0.1        1.73272922]
 [0.2        0.27567755]
 [0.25666667 1.08955952]]",1,0.776
8729820499,f,20,english,5,3,english,2024-01-25 10:40:18.164074,False,1,157,sounds\french\audio/french_120.wav,"[[  0.          59.29212404]
 [  0.1          4.80411823]
 [  0.2         12.26509955]
 [  0.25666667 -79.44354783]]","[[0.         1.04724114]
 [0.1        0.97380182]
 [0.2        0.22521264]
 [0.25666667 0.8027629 ]]",1,0.402
8729820499,f,20,english,5,3,english,2024-01-25 10:40:18.164074,False,1,158,sounds\french\audio/french_363.wav,"[[  0.          53.04818478]
 [  0.1         68.67010762]
 [  0.2        -91.11205335]
 [  0.25666667 -38.9131055 ]]","[[0.         0.48026107]
 [0.1        1.94302888]
 [0.2        0.36511891]
 [0.25666667 1.6181542 ]]",1,0.283
8729820499,f,20,english,5,3,english,2024-01-25 10:40:18.164074,False,1,159,sounds\french\audio/french_326.wav,"[[  0.         -63.35446608]
 [  0.1         12.54179258]
 [  0.2          2.59324468]
 [  0.25666667  34.92537359]]","[[0.         1.54071776]
 [0.1        0.67448432]
 [0.2        0.56210636]
 [0.25666667 1.5196438 ]]",1,0.178
8729820499,f,20,english,5,3,english,2024-01-25 10:40:18.164074,False,1,160,sounds\french\audio/french_39.wav,"[[  0.         -37.58690814]
 [  0.1         64.36969435]
 [  0.2        -16.17747505]
 [  0.25666667 -31.52468705]]","[[0.         0.69509593]
 [0.1        0.9899387 ]
 [0.2        1.54991446]
 [0.25666667 1.42558302]]",1,0.416
8729820499,f,20,english,5,3,english,2024-01-25 10:40:18.164074,False,1,161,sounds\french\audio/french_556.wav,"[[  0.          57.69742807]
 [  0.1         74.69192241]
 [  0.2        -92.88512431]
 [  0.25666667  27.11476112]]","[[0.         1.23910924]
 [0.1        0.49477788]
 [0.2        1.56323012]
 [0.25666667 1.7455964 ]]",1,0.657
8729820499,f,20,english,5,3,english,2024-01-25 10:40:18.164074,False,1,162,sounds\french\audio/french_930.wav,"[[  0.         -85.15004264]
 [  0.1        -51.05179236]
 [  0.2         60.60693854]
 [  0.25666667  60.89136328]]","[[0.         1.38463402]
 [0.1        1.37480081]
 [0.2        0.42262721]
 [0.25666667 1.58192794]]",1,0.365
8729820499,f,20,english,5,3,english,2024-01-25 10:40:18.164074,False,1,163,sounds\french\audio/french_883.wav,"[[  0.          79.42425648]
 [  0.1        -55.57656198]
 [  0.2        -42.3009185 ]
 [  0.25666667   9.11567641]]","[[0.         0.82987007]
 [0.1        1.06788753]
 [0.2        1.49414105]
 [0.25666667 1.30049822]]",1,0.118
8729820499,f,20,english,5,3,english,2024-01-25 10:40:18.164074,False,1,164,sounds\french\audio/french_490.wav,"[[  0.         -77.54246231]
 [  0.1         -0.13066058]
 [  0.2        -90.37490593]
 [  0.25666667  62.21960288]]","[[0.         1.03559912]
 [0.1        0.94588293]
 [0.2        1.16449319]
 [0.25666667 1.46557017]]",1,0.194
8729820499,f,20,english,5,3,english,2024-01-25 10:40:18.164074,False,1,165,sounds\french\audio/french_373.wav,"[[  0.          27.88559689]
 [  0.1         61.41244142]
 [  0.2         37.97273047]
 [  0.25666667 -82.72738113]]","[[0.         1.35161412]
 [0.1        1.00997609]
 [0.2        1.87297461]
 [0.25666667 0.97441242]]",1,0.353
8729820499,f,20,english,5,3,english,2024-01-25 10:40:18.164074,False,1,166,sounds\french\audio/french_889.wav,"[[  0.         -11.44618348]
 [  0.1         14.52697714]
 [  0.2        -51.60315894]
 [  0.25666667  40.16126686]]","[[0.         1.60032155]
 [0.1        0.84860504]
 [0.2        1.67734449]
 [0.25666667 0.04411269]]",1,1.2
8729820499,f,20,english,5,3,english,2024-01-25 10:40:18.164074,False,1,167,sounds\french\audio/french_736.wav,"[[  0.         -58.2057669 ]
 [  0.1         67.4754916 ]
 [  0.2         92.18157431]
 [  0.25666667  88.23593553]]","[[0.         1.39182764]
 [0.1        0.85405242]
 [0.2        1.06665121]
 [0.25666667 0.29553719]]",1,1.121
8729820499,f,20,english,5,3,english,2024-01-25 10:40:18.164074,False,1,168,sounds\french\audio/french_705.wav,"[[  0.         -31.52083019]
 [  0.1         93.24854214]
 [  0.2        -36.26217339]
 [  0.25666667  58.31905924]]","[[0.         1.71356233]
 [0.1        0.26324818]
 [0.2        0.66385994]
 [0.25666667 1.85027868]]",1,2.183
8729820499,f,20,english,5,3,english,2024-01-25 10:40:18.164074,False,1,169,sounds\french\audio/french_145.wav,"[[  0.          45.95226671]
 [  0.1        -66.66601381]
 [  0.2        -89.77596615]
 [  0.25666667   8.03115864]]","[[0.         0.38136586]
 [0.1        1.38589502]
 [0.2        0.43712509]
 [0.25666667 1.92826262]]",1,0.601
8729820499,f,20,english,5,3,english,2024-01-25 10:40:18.164074,False,1,170,sounds\french\audio/french_547.wav,"[[  0.         -72.35697933]
 [  0.1        -74.8664908 ]
 [  0.2         67.97778582]
 [  0.25666667  23.13057238]]","[[0.         0.54090293]
 [0.1        1.21231176]
 [0.2        1.67585204]
 [0.25666667 0.28113426]]",1,0.748
8729820499,f,20,english,5,3,english,2024-01-25 10:40:18.164074,False,1,171,sounds\french\audio/french_488.wav,"[[  0.          83.09023231]
 [  0.1         31.08155804]
 [  0.2         23.00603586]
 [  0.25666667 -14.42068905]]","[[0.         0.61404301]
 [0.1        1.79467821]
 [0.2        0.24163263]
 [0.25666667 1.80620701]]",1,0.357
8729820499,f,20,english,5,3,english,2024-01-25 10:40:18.164074,False,1,172,sounds\french\audio/french_67.wav,"[[  0.         -85.58948589]
 [  0.1         13.09838054]
 [  0.2        -56.56906679]
 [  0.25666667  57.4599261 ]]","[[0.         0.63200809]
 [0.1        1.95867716]
 [0.2        0.48937635]
 [0.25666667 1.24156625]]",1,0.187
8729820499,f,20,english,5,3,english,2024-01-25 10:40:18.164074,False,1,173,sounds\french\audio/french_925.wav,"[[  0.         -30.51780923]
 [  0.1         35.11933452]
 [  0.2        -97.7648117 ]
 [  0.25666667 -62.39495561]]","[[0.         1.09841649]
 [0.1        0.05099013]
 [0.2        1.83429048]
 [0.25666667 1.66107303]]",1,0.949
8729820499,f,20,english,5,3,english,2024-01-25 10:40:18.164074,False,1,174,sounds\french\audio/french_858.wav,"[[  0.         -70.8749608 ]
 [  0.1        -68.92821451]
 [  0.2         48.1063746 ]
 [  0.25666667   0.98463207]]","[[0.         0.88986318]
 [0.1        0.34092676]
 [0.2        0.38776381]
 [0.25666667 1.26771376]]",0,0.422
8729820499,f,20,english,5,3,english,2024-01-25 10:40:18.164074,False,1,175,sounds\french\audio/french_979.wav,"[[  0.          58.05333973]
 [  0.1        -10.78982684]
 [  0.2         -1.76147191]
 [  0.25666667  35.54131035]]","[[0.         1.60321768]
 [0.1        0.5155038 ]
 [0.2        0.80270828]
 [0.25666667 0.30870089]]",0,1.179
8729820499,f,20,english,5,3,english,2024-01-25 10:40:18.164074,False,1,176,sounds\french\audio/french_834.wav,"[[  0.         -86.08965853]
 [  0.1         69.78931281]
 [  0.2        -42.1324214 ]
 [  0.25666667 -13.11810425]]","[[0.         1.35817583]
 [0.1        0.2902945 ]
 [0.2        0.84488429]
 [0.25666667 0.59655356]]",1,0.74
8729820499,f,20,english,5,3,english,2024-01-25 10:40:18.164074,False,1,177,sounds\french\audio/french_832.wav,"[[  0.          72.4957568 ]
 [  0.1        -42.52759542]
 [  0.2        -19.34515336]
 [  0.25666667  29.69631954]]","[[0.         1.55241154]
 [0.1        0.51342339]
 [0.2        1.23436829]
 [0.25666667 0.63501701]]",1,0.665
8729820499,f,20,english,5,3,english,2024-01-25 10:40:18.164074,False,1,178,sounds\french\audio/french_323.wav,"[[ 0.         32.98542524]
 [ 0.1        23.31860642]
 [ 0.2        85.24347173]
 [ 0.25666667 17.19160257]]","[[0.         1.64001987]
 [0.1        0.049539  ]
 [0.2        1.32093022]
 [0.25666667 0.33485384]]",1,3.149
8729820499,f,20,english,5,3,english,2024-01-25 10:40:18.164074,False,1,179,sounds\french\audio/french_875.wav,"[[  0.         -21.85805239]
 [  0.1         89.69626046]
 [  0.2        -30.27044373]
 [  0.25666667  34.72149061]]","[[0.         1.53415162]
 [0.1        1.00812403]
 [0.2        0.85877698]
 [0.25666667 1.23447623]]",1,0.764
8729820499,f,20,english,5,3,english,2024-01-25 10:40:18.164074,False,1,180,sounds\french\audio/french_764.wav,"[[  0.          -8.95969579]
 [  0.1          5.11158076]
 [  0.2          3.7358826 ]
 [  0.25666667 -14.74224302]]","[[0.         0.46272501]
 [0.1        1.84250995]
 [0.2        0.71585727]
 [0.25666667 0.58101627]]",1,0.213
8729820499,f,20,english,5,3,english,2024-01-25 10:40:18.164074,False,1,181,sounds\french\audio/french_246.wav,"[[  0.         -61.30298939]
 [  0.1         15.83987086]
 [  0.2         80.17394669]
 [  0.25666667 -81.65507189]]","[[0.         1.31566238]
 [0.1        1.23869052]
 [0.2        1.57286335]
 [0.25666667 0.07583844]]",1,0.143
8729820499,f,20,english,5,3,english,2024-01-25 10:40:18.164074,False,1,182,sounds\french\audio/french_467.wav,"[[  0.          26.36588123]
 [  0.1        -91.62831039]
 [  0.2         14.27679522]
 [  0.25666667 -77.75485007]]","[[0.         0.49078583]
 [0.1        1.37574102]
 [0.2        0.10009029]
 [0.25666667 1.32516535]]",1,1.11
8729820499,f,20,english,5,3,english,2024-01-25 10:40:18.164074,False,1,183,sounds\french\audio/french_994.wav,"[[  0.         -39.66278541]
 [  0.1         66.70535545]
 [  0.2        -87.43703712]
 [  0.25666667 -41.83233866]]","[[0.         0.39681658]
 [0.1        1.6498105 ]
 [0.2        1.48803434]
 [0.25666667 1.54058484]]",1,0.249
8729820499,f,20,english,5,3,english,2024-01-25 10:40:18.164074,False,1,184,sounds\french\audio/french_640.wav,"[[  0.         -15.56807975]
 [  0.1         54.79262645]
 [  0.2        -80.20485071]
 [  0.25666667 -47.69326323]]","[[0.         1.93294171]
 [0.1        1.3982646 ]
 [0.2        1.35271381]
 [0.25666667 0.1240569 ]]",1,0.905
8729820499,f,20,english,5,3,english,2024-01-25 10:40:18.164074,False,1,185,sounds\french\audio/french_746.wav,"[[  0.         -21.92593336]
 [  0.1        -33.34916741]
 [  0.2         -5.0291103 ]
 [  0.25666667 -67.6368859 ]]","[[0.         0.5521476 ]
 [0.1        1.58954792]
 [0.2        0.89586439]
 [0.25666667 0.35939035]]",1,0.242
8729820499,f,20,english,5,3,english,2024-01-25 10:40:18.164074,False,1,186,sounds\french\audio/french_460.wav,"[[  0.         -46.82547924]
 [  0.1        -89.06595485]
 [  0.2        -15.88362663]
 [  0.25666667 -55.00298372]]","[[0.         0.18532774]
 [0.1        0.73005791]
 [0.2        0.27848928]
 [0.25666667 1.6971829 ]]",1,1.153
8729820499,f,20,english,5,3,english,2024-01-25 10:40:18.164074,False,1,187,sounds\french\audio/french_317.wav,"[[  0.          16.10159391]
 [  0.1         -3.4784276 ]
 [  0.2        -59.35796464]
 [  0.25666667  -1.67752252]]","[[0.         1.00024107]
 [0.1        1.04292902]
 [0.2        1.9831422 ]
 [0.25666667 0.01532069]]",1,0.404
8729820499,f,20,english,5,3,english,2024-01-25 10:40:18.164074,False,1,188,sounds\french\audio/french_77.wav,"[[  0.         -38.97456477]
 [  0.1        -27.77573133]
 [  0.2         62.31685549]
 [  0.25666667  13.7751853 ]]","[[0.         1.51906971]
 [0.1        1.43123518]
 [0.2        1.04030098]
 [0.25666667 1.45792424]]",1,0.22
8729820499,f,20,english,5,3,english,2024-01-25 10:40:18.164074,False,1,189,sounds\french\audio/french_289.wav,"[[  0.         -36.76000605]
 [  0.1         10.32506406]
 [  0.2        -63.16699613]
 [  0.25666667  44.4452875 ]]","[[0.         0.0295717 ]
 [0.1        0.30354321]
 [0.2        0.64873245]
 [0.25666667 1.33679234]]",0,0.815
8729820499,f,20,english,5,3,english,2024-01-25 10:40:18.164074,False,1,190,sounds\french\audio/french_221.wav,"[[  0.         -51.4093514 ]
 [  0.1        -69.26159538]
 [  0.2        -72.79183118]
 [  0.25666667  34.31828887]]","[[0.         1.39236456]
 [0.1        1.1318895 ]
 [0.2        0.94601275]
 [0.25666667 1.80964418]]",1,0.316
8729820499,f,20,english,5,3,english,2024-01-25 10:40:18.164074,False,1,191,sounds\french\audio/french_531.wav,"[[  0.          76.38960861]
 [  0.1        -14.4624089 ]
 [  0.2         97.56303867]
 [  0.25666667  -4.62103118]]","[[0.         1.48422918]
 [0.1        0.31285067]
 [0.2        0.71358588]
 [0.25666667 0.65318394]]",1,0.221
8729820499,f,20,english,5,3,english,2024-01-25 10:40:18.164074,False,1,192,sounds\french\audio/french_39.wav,"[[  0.         -37.58690814]
 [  0.1         64.36969435]
 [  0.2        -16.17747505]
 [  0.25666667 -31.52468705]]","[[0.         0.69509593]
 [0.1        0.9899387 ]
 [0.2        1.54991446]
 [0.25666667 1.42558302]]",1,0.175
8729820499,f,20,english,5,3,english,2024-01-25 10:40:18.164074,False,1,193,sounds\french\audio/french_536.wav,"[[  0.          68.67423581]
 [  0.1        -41.0053329 ]
 [  0.2         83.63020031]
 [  0.25666667  91.23175369]]","[[0.         1.72386473]
 [0.1        0.5365144 ]
 [0.2        1.03248729]
 [0.25666667 0.91736707]]",1,0.194
8729820499,f,20,english,5,3,english,2024-01-25 10:40:18.164074,False,1,194,sounds\french\audio/french_76.wav,"[[ 0.         34.97070553]
 [ 0.1        46.59279974]
 [ 0.2        69.89439798]
 [ 0.25666667  4.40224836]]","[[0.         0.55167233]
 [0.1        0.47394225]
 [0.2        0.76682402]
 [0.25666667 1.69716011]]",1,0.503
8729820499,f,20,english,5,3,english,2024-01-25 10:40:18.164074,False,1,195,sounds\french\audio/french_701.wav,"[[  0.         -44.50216008]
 [  0.1         39.62093866]
 [  0.2         59.49522687]
 [  0.25666667 -55.32580216]]","[[0.         0.81644439]
 [0.1        1.46668212]
 [0.2        1.68659205]
 [0.25666667 1.60664037]]",1,0.292
8729820499,f,20,english,5,3,english,2024-01-25 10:40:18.164074,False,1,196,sounds\french\audio/french_623.wav,"[[  0.          39.03330695]
 [  0.1         53.03253456]
 [  0.2        -58.78521604]
 [  0.25666667  58.72042033]]","[[0.         1.53300878]
 [0.1        0.64917122]
 [0.2        0.12116027]
 [0.25666667 1.19887121]]",1,0.929
8729820499,f,20,english,5,3,english,2024-01-25 10:40:18.164074,False,1,197,sounds\french\audio/french_647.wav,"[[  0.         -41.18361869]
 [  0.1         11.48241437]
 [  0.2         60.38354651]
 [  0.25666667  15.78737628]]","[[0.         1.9224231 ]
 [0.1        1.96851625]
 [0.2        1.74064919]
 [0.25666667 1.76296374]]",1,0.406
8729820499,f,20,english,5,3,english,2024-01-25 10:40:18.164074,False,1,198,sounds\french\audio/french_789.wav,"[[  0.          16.13130467]
 [  0.1        -53.51301261]
 [  0.2         91.10833978]
 [  0.25666667   9.61415248]]","[[0.         1.41580253]
 [0.1        1.63533644]
 [0.2        0.42839577]
 [0.25666667 0.64971622]]",1,0.239
8729820499,f,20,english,5,3,english,2024-01-25 10:40:18.164074,False,1,199,sounds\french\audio/french_388.wav,"[[  0.         -56.99851318]
 [  0.1        -28.42117093]
 [  0.2        -17.37440647]
 [  0.25666667  19.5608334 ]]","[[0.         0.76802497]
 [0.1        1.07190306]
 [0.2        0.91030877]
 [0.25666667 0.1576099 ]]",1,0.417
8729820499,f,20,english,5,3,english,2024-01-25 10:40:18.164074,False,1,200,sounds\french\audio/french_59.wav,"[[  0.          39.36273925]
 [  0.1        -72.05438318]
 [  0.2        -58.73379721]
 [  0.25666667 -71.89754194]]","[[0.         0.85213244]
 [0.1        0.54541244]
 [0.2        0.77028914]
 [0.25666667 0.84538443]]",1,0.661
8729820499,f,20,english,5,3,english,2024-01-25 10:40:18.164074,False,1,201,sounds\french\audio/french_293.wav,"[[  0.         -11.30043192]
 [  0.1        -69.36716709]
 [  0.2         65.20751159]
 [  0.25666667  27.71872742]]","[[0.         0.58860684]
 [0.1        0.23928943]
 [0.2        1.00971501]
 [0.25666667 0.31746318]]",1,1.187
8729820499,f,20,english,5,3,english,2024-01-25 10:40:18.164074,False,1,202,sounds\french\audio/french_695.wav,"[[ 0.00000000e+00 -5.76665866e+01]
 [ 1.00000000e-01  6.09893846e+00]
 [ 2.00000000e-01 -8.08229011e+01]
 [ 2.56666667e-01  7.37669519e-03]]","[[0.         1.09792482]
 [0.1        1.46549104]
 [0.2        1.66085764]
 [0.25666667 1.19228029]]",0,0.929
8729820499,f,20,english,5,3,english,2024-01-25 10:40:18.164074,False,1,203,sounds\french\audio/french_70.wav,"[[  0.          24.17054112]
 [  0.1        -33.49200779]
 [  0.2        -94.66214176]
 [  0.25666667  65.90688931]]","[[0.         1.64784081]
 [0.1        0.51465366]
 [0.2        1.24573935]
 [0.25666667 1.78963367]]",1,0.91
8729820499,f,20,english,5,3,english,2024-01-25 10:40:18.164074,False,1,204,sounds\french\audio/french_464.wav,"[[  0.         -77.91073693]
 [  0.1         -4.27403448]
 [  0.2         93.79465132]
 [  0.25666667  49.64849416]]","[[0.         1.45882001]
 [0.1        1.08668269]
 [0.2        1.80605145]
 [0.25666667 1.6602635 ]]",1,1.708
8729820499,f,20,english,5,3,english,2024-01-25 10:40:18.164074,False,1,205,sounds\french\audio/french_618.wav,"[[  0.         -48.84080529]
 [  0.1         52.1949693 ]
 [  0.2          2.68255661]
 [  0.25666667 -32.43465806]]","[[0.         0.47316377]
 [0.1        0.45430598]
 [0.2        0.75800451]
 [0.25666667 0.99622678]]",0,0.951
8729820499,f,20,english,5,3,english,2024-01-25 10:40:18.164074,False,1,206,sounds\french\audio/french_998.wav,"[[  0.          41.25843424]
 [  0.1         16.31759718]
 [  0.2        -45.05489169]
 [  0.25666667  -0.1364182 ]]","[[0.         1.12001973]
 [0.1        1.22226563]
 [0.2        1.68799636]
 [0.25666667 0.6107462 ]]",1,0.391
8729820499,f,20,english,5,3,english,2024-01-25 10:40:18.164074,False,1,207,sounds\french\audio/french_886.wav,"[[  0.         -29.93146366]
 [  0.1        -19.22170842]
 [  0.2        -71.55320982]
 [  0.25666667 -23.6698032 ]]","[[0.         0.4543131 ]
 [0.1        1.74784503]
 [0.2        1.04864587]
 [0.25666667 1.15835862]]",1,0.272
8729820499,f,20,english,5,3,english,2024-01-25 10:40:18.164074,False,1,208,sounds\french\audio/french_438.wav,"[[  0.          38.28600595]
 [  0.1         -2.73615403]
 [  0.2        -43.32822043]
 [  0.25666667 -21.43836029]]","[[0.         0.24947118]
 [0.1        0.88566368]
 [0.2        0.23078024]
 [0.25666667 1.64360752]]",1,0.987
8729820499,f,20,english,5,3,english,2024-01-25 10:40:18.164074,False,1,209,sounds\french\audio/french_452.wav,"[[  0.          -0.54521087]
 [  0.1         21.1278642 ]
 [  0.2        -42.86108881]
 [  0.25666667  77.96430269]]","[[0.         0.71963755]
 [0.1        1.49294629]
 [0.2        1.86627756]
 [0.25666667 0.60359825]]",1,0.206
8729820499,f,20,english,5,3,english,2024-01-25 10:40:18.164074,False,1,210,sounds\french\audio/french_962.wav,"[[  0.         -23.88621243]
 [  0.1         -2.32674089]
 [  0.2         99.5739753 ]
 [  0.25666667 -60.89946795]]","[[0.         0.58686494]
 [0.1        1.96763724]
 [0.2        0.1339284 ]
 [0.25666667 0.14371278]]",0,0.348
8729820499,f,20,english,5,3,english,2024-01-25 10:40:18.164074,False,1,211,sounds\french\audio/french_166.wav,"[[  0.         -13.71320418]
 [  0.1        -74.77814183]
 [  0.2         42.48534987]
 [  0.25666667 -48.97271451]]","[[0.         1.40282364]
 [0.1        0.51226478]
 [0.2        1.59981073]
 [0.25666667 1.00485648]]",1,0.234
8729820499,f,20,english,5,3,english,2024-01-25 10:40:18.164074,False,1,212,sounds\french\audio/french_127.wav,"[[ 0.         56.99195339]
 [ 0.1        71.02339704]
 [ 0.2        72.81237495]
 [ 0.25666667 99.25740409]]","[[0.         1.23888103]
 [0.1        1.9853403 ]
 [0.2        0.22936254]
 [0.25666667 0.23690129]]",0,0.833
8729820499,f,20,english,5,3,english,2024-01-25 10:40:18.164074,False,1,213,sounds\french\audio/french_597.wav,"[[  0.          78.21673508]
 [  0.1         48.44931265]
 [  0.2         -9.21876948]
 [  0.25666667 -95.47680095]]","[[0.         0.32061172]
 [0.1        1.01687051]
 [0.2        0.22158162]
 [0.25666667 0.62073139]]",0,0.94
8729820499,f,20,english,5,3,english,2024-01-25 10:40:18.164074,False,1,214,sounds\french\audio/french_159.wav,"[[  0.         -35.81772681]
 [  0.1        -81.24007344]
 [  0.2        -76.66667718]
 [  0.25666667 -12.73742482]]","[[0.         1.09204322]
 [0.1        1.04236488]
 [0.2        0.27370424]
 [0.25666667 0.41375192]]",1,1.201
8729820499,f,20,english,5,3,english,2024-01-25 10:40:18.164074,False,1,215,sounds\french\audio/french_631.wav,"[[ 0.         87.50143958]
 [ 0.1        43.81698528]
 [ 0.2        97.72878597]
 [ 0.25666667 25.13380659]]","[[0.         0.46380881]
 [0.1        0.9935464 ]
 [0.2        1.55852459]
 [0.25666667 0.71365297]]",1,0.849
8729820499,f,20,english,5,3,english,2024-01-25 10:40:18.164074,False,1,216,sounds\french\audio/french_160.wav,"[[  0.          94.580754  ]
 [  0.1        -77.59057929]
 [  0.2         49.28871101]
 [  0.25666667  54.34008904]]","[[0.         1.48632924]
 [0.1        0.83284567]
 [0.2        1.32543638]
 [0.25666667 1.18016963]]",1,0.777
8729820499,f,20,english,5,3,english,2024-01-25 10:40:18.164074,False,1,217,sounds\french\audio/french_278.wav,"[[  0.           0.92058819]
 [  0.1        -11.12293645]
 [  0.2         51.74113392]
 [  0.25666667  59.96495371]]","[[0.         0.58166089]
 [0.1        0.6190237 ]
 [0.2        1.02661965]
 [0.25666667 0.89915078]]",1,0.666
8729820499,f,20,english,5,3,english,2024-01-25 10:40:18.164074,False,1,218,sounds\french\audio/french_730.wav,"[[  0.          45.92676741]
 [  0.1        -44.36449205]
 [  0.2         -0.92451291]
 [  0.25666667  30.80646356]]","[[0.         0.18014666]
 [0.1        1.39371349]
 [0.2        1.11032992]
 [0.25666667 1.142585  ]]",1,0.157
8729820499,f,20,english,5,3,english,2024-01-25 10:40:18.164074,False,1,219,sounds\french\audio/french_394.wav,"[[  0.         -46.0867736 ]
 [  0.1        -42.56429646]
 [  0.2         31.61260766]
 [  0.25666667  -7.99475259]]","[[0.         1.77850735]
 [0.1        0.50210825]
 [0.2        1.1233825 ]
 [0.25666667 0.72186821]]",1,0.549
8729820499,f,20,english,5,3,english,2024-01-25 10:40:18.164074,False,1,220,sounds\french\audio/french_940.wav,"[[  0.          60.64207397]
 [  0.1        -16.07257124]
 [  0.2        -38.93693506]
 [  0.25666667 -22.19838027]]","[[0.         1.38818271]
 [0.1        1.64047706]
 [0.2        1.31963125]
 [0.25666667 1.73227719]]",1,0.221
8729820499,f,20,english,5,3,english,2024-01-25 10:40:18.164074,False,1,221,sounds\french\audio/french_591.wav,"[[  0.           2.66615607]
 [  0.1        -24.26502045]
 [  0.2        -31.81388833]
 [  0.25666667  34.70768216]]","[[0.         1.05020949]
 [0.1        0.55521736]
 [0.2        0.20807215]
 [0.25666667 1.08119284]]",1,0.507
8729820499,f,20,english,5,3,english,2024-01-25 10:40:18.164074,False,1,222,sounds\french\audio/french_729.wav,"[[  0.          53.20588085]
 [  0.1         89.42375323]
 [  0.2        -13.37040397]
 [  0.25666667 -26.89484255]]","[[0.         1.49423138]
 [0.1        0.2074599 ]
 [0.2        1.07839331]
 [0.25666667 0.61183567]]",1,0.502
8729820499,f,20,english,5,3,english,2024-01-25 10:40:18.164074,False,1,223,sounds\french\audio/french_346.wav,"[[  0.          -9.57888942]
 [  0.1         44.75165277]
 [  0.2        -77.92949754]
 [  0.25666667 -10.35911767]]","[[0.         1.97053356]
 [0.1        0.16189102]
 [0.2        0.34896721]
 [0.25666667 1.54776001]]",1,0.288
8729820499,f,20,english,5,3,english,2024-01-25 10:40:18.164074,False,1,224,sounds\french\audio/french_687.wav,"[[  0.         -41.56393701]
 [  0.1         -5.27268445]
 [  0.2         58.5588678 ]
 [  0.25666667 -41.26863304]]","[[0.         1.23976021]
 [0.1        0.49715047]
 [0.2        0.70596761]
 [0.25666667 1.34000296]]",1,0.476
8729820499,f,20,english,5,3,english,2024-01-25 10:40:18.164074,False,1,225,sounds\french\audio/french_72.wav,"[[  0.          87.98067932]
 [  0.1        -81.71579554]
 [  0.2         90.50171836]
 [  0.25666667 -62.13003885]]","[[0.         1.39679477]
 [0.1        1.50716855]
 [0.2        0.40298903]
 [0.25666667 0.67217346]]",0,1.605
8729820499,f,20,english,5,3,english,2024-01-25 10:40:18.164074,False,1,226,sounds\french\audio/french_407.wav,"[[  0.         -57.6292462 ]
 [  0.1        -25.10683904]
 [  0.2         13.09742102]
 [  0.25666667  -8.98604593]]","[[0.         1.8651924 ]
 [0.1        1.55880725]
 [0.2        1.30220718]
 [0.25666667 1.55663467]]",1,0.226
8729820499,f,20,english,5,3,english,2024-01-25 10:40:18.164074,False,1,227,sounds\french\audio/french_905.wav,"[[  0.          87.86620346]
 [  0.1         17.88859649]
 [  0.2         51.58456374]
 [  0.25666667 -98.76806622]]","[[0.         1.28585996]
 [0.1        0.57714405]
 [0.2        0.3219524 ]
 [0.25666667 1.69480445]]",0,0.849
8729820499,f,20,english,5,3,english,2024-01-25 10:40:18.164074,False,1,228,sounds\french\audio/french_538.wav,"[[  0.         -62.11881418]
 [  0.1        -49.1326041 ]
 [  0.2         11.48721962]
 [  0.25666667 -26.18142206]]","[[0.         0.72316351]
 [0.1        0.52652182]
 [0.2        0.30218135]
 [0.25666667 1.69243497]]",1,1.677
8729820499,f,20,english,5,3,english,2024-01-25 10:40:18.164074,False,1,229,sounds\french\audio/french_515.wav,"[[  0.          90.1787868 ]
 [  0.1         95.19464712]
 [  0.2        -71.09612906]
 [  0.25666667  86.48037909]]","[[0.         1.05169603]
 [0.1        0.16234368]
 [0.2        1.85560054]
 [0.25666667 0.23492468]]",0,0.287
8729820499,f,20,english,5,3,english,2024-01-25 10:40:18.164074,False,1,230,sounds\french\audio/french_676.wav,"[[  0.          77.51634327]
 [  0.1        -98.7950763 ]
 [  0.2        -10.44477989]
 [  0.25666667   3.71960258]]","[[0.         0.52312795]
 [0.1        0.58996043]
 [0.2        1.89966038]
 [0.25666667 0.61903343]]",1,1.501
8729820499,f,20,english,5,3,english,2024-01-25 10:40:18.164074,False,1,231,sounds\french\audio/french_686.wav,"[[ 0.         20.49516986]
 [ 0.1        27.4040505 ]
 [ 0.2        31.96095965]
 [ 0.25666667 61.08066052]]","[[0.         1.86861476]
 [0.1        1.87689714]
 [0.2        0.80940067]
 [0.25666667 0.04075967]]",0,0.292
8729820499,f,20,english,5,3,english,2024-01-25 10:40:18.164074,False,1,232,sounds\french\audio/french_176.wav,"[[  0.           0.09776701]
 [  0.1         32.80523404]
 [  0.2         16.78979069]
 [  0.25666667 -52.73391922]]","[[0.         1.90735666]
 [0.1        1.52678684]
 [0.2        1.98703072]
 [0.25666667 1.7200077 ]]",0,0.978
8729820499,f,20,english,5,3,english,2024-01-25 10:40:18.164074,False,1,233,sounds\french\audio/french_407.wav,"[[  0.         -57.6292462 ]
 [  0.1        -25.10683904]
 [  0.2         13.09742102]
 [  0.25666667  -8.98604593]]","[[0.         1.8651924 ]
 [0.1        1.55880725]
 [0.2        1.30220718]
 [0.25666667 1.55663467]]",0,0.04
8729820499,f,20,english,5,3,english,2024-01-25 10:40:18.164074,False,1,234,sounds\french\audio/french_800.wav,"[[  0.          43.61588251]
 [  0.1        -17.8471941 ]
 [  0.2        -10.2363333 ]
 [  0.25666667 -85.1878963 ]]","[[0.         1.33995655]
 [0.1        0.26774995]
 [0.2        0.87274599]
 [0.25666667 0.37568781]]",1,1.179
8729820499,f,20,english,5,3,english,2024-01-25 10:40:18.164074,False,1,235,sounds\french\audio/french_14.wav,"[[  0.          29.04259121]
 [  0.1        -13.93862831]
 [  0.2         -3.57455278]
 [  0.25666667  14.81088412]]","[[0.         1.27596418]
 [0.1        1.81664743]
 [0.2        1.61822265]
 [0.25666667 1.58848758]]",0,0.166
8729820499,f,20,english,5,3,english,2024-01-25 10:40:18.164074,False,1,236,sounds\french\audio/french_993.wav,"[[  0.           3.12847982]
 [  0.1        -78.95304083]
 [  0.2        -13.84245357]
 [  0.25666667  66.66979397]]","[[0.         1.75015027]
 [0.1        0.83743251]
 [0.2        0.53594991]
 [0.25666667 1.46895698]]",1,0.914
8729820499,f,20,english,5,3,english,2024-01-25 10:40:18.164074,False,1,237,sounds\french\audio/french_54.wav,"[[ 0.         77.13223303]
 [ 0.1        -5.6152706 ]
 [ 0.2        22.05383838]
 [ 0.25666667 -9.52451309]]","[[0.         0.44302914]
 [0.1        0.26201868]
 [0.2        0.27892   ]
 [0.25666667 0.30908576]]",1,1.33
8729820499,f,20,english,5,3,english,2024-01-25 10:40:18.164074,False,1,238,sounds\french\audio/french_540.wav,"[[  0.          64.41538276]
 [  0.1         17.02048616]
 [  0.2        -33.22379056]
 [  0.25666667   6.66749413]]","[[0.         0.51709462]
 [0.1        1.30376576]
 [0.2        0.40148031]
 [0.25666667 1.14865781]]",1,0.552
8729820499,f,20,english,5,3,english,2024-01-25 10:40:18.164074,False,1,239,sounds\french\audio/french_957.wav,"[[  0.         -18.56504594]
 [  0.1         17.87447177]
 [  0.2         57.20134839]
 [  0.25666667  64.73544538]]","[[0.         1.70357669]
 [0.1        1.95920141]
 [0.2        1.7386973 ]
 [0.25666667 0.56015389]]",1,0.135
8729820499,f,20,english,5,3,english,2024-01-25 10:40:18.164074,False,1,240,sounds\french\audio/french_984.wav,"[[  0.         -47.91850728]
 [  0.1         26.54192822]
 [  0.2         31.46018772]
 [  0.25666667  54.61358492]]","[[0.         0.65620753]
 [0.1        0.71747565]
 [0.2        1.52452255]
 [0.25666667 1.85839607]]",1,0.683
8729820499,f,20,english,5,3,english,2024-01-25 10:40:18.164074,False,1,241,sounds\french\audio/french_208.wav,"[[  0.           8.68990421]
 [  0.1        -43.18378372]
 [  0.2         71.27860087]
 [  0.25666667 -15.56799856]]","[[0.         0.76850137]
 [0.1        1.33781212]
 [0.2        0.39946576]
 [0.25666667 0.17788265]]",1,0.262
8729820499,f,20,english,5,3,english,2024-01-25 10:40:18.164074,False,1,242,sounds\french\audio/french_38.wav,"[[  0.          -0.72741882]
 [  0.1         17.06804162]
 [  0.2        -90.47269694]
 [  0.25666667 -46.03968341]]","[[0.         1.73508679]
 [0.1        1.04827054]
 [0.2        0.06966066]
 [0.25666667 1.13213122]]",1,0.235
8729820499,f,20,english,5,3,english,2024-01-25 10:40:18.164074,False,1,243,sounds\french\audio/french_420.wav,"[[  0.         -21.03631645]
 [  0.1         59.70125687]
 [  0.2         54.71539052]
 [  0.25666667  38.49486436]]","[[0.         1.00707818]
 [0.1        0.92270488]
 [0.2        1.69105963]
 [0.25666667 0.9671157 ]]",1,0.284
8729820499,f,20,english,5,3,english,2024-01-25 10:40:18.164074,False,1,244,sounds\french\audio/french_132.wav,"[[  0.          55.7159221 ]
 [  0.1         96.01047895]
 [  0.2        -30.71931346]
 [  0.25666667  34.53763016]]","[[0.         0.1336911 ]
 [0.1        1.63690434]
 [0.2        0.7825174 ]
 [0.25666667 1.49477333]]",0,0.526
8729820499,f,20,english,5,3,english,2024-01-25 10:40:18.164074,False,1,245,sounds\french\audio/french_42.wav,"[[  0.         -62.21237173]
 [  0.1        -98.4992591 ]
 [  0.2         97.73183718]
 [  0.25666667 -56.73891221]]","[[0.         0.70589884]
 [0.1        0.40467669]
 [0.2        0.72488221]
 [0.25666667 0.44273829]]",0,1.074
8729820499,f,20,english,5,3,english,2024-01-25 10:40:18.164074,False,1,246,sounds\french\audio/french_21.wav,"[[  0.          54.83693262]
 [  0.1        -44.5884084 ]
 [  0.2        -75.20982548]
 [  0.25666667 -57.69855476]]","[[0.         0.05508037]
 [0.1        0.46211883]
 [0.2        1.96075125]
 [0.25666667 0.5365247 ]]",0,0.681
8729820499,f,20,english,5,3,english,2024-01-25 10:40:18.164074,False,1,247,sounds\french\audio/french_593.wav,"[[  0.          28.63563643]
 [  0.1        -92.54588956]
 [  0.2         54.29574758]
 [  0.25666667 -51.0775076 ]]","[[0.         0.95899308]
 [0.1        1.11632192]
 [0.2        0.28179711]
 [0.25666667 1.92785686]]",1,0.464
8729820499,f,20,english,5,3,english,2024-01-25 10:40:18.164074,False,1,248,sounds\french\audio/french_408.wav,"[[  0.         -97.26027128]
 [  0.1         85.50928544]
 [  0.2         52.29826895]
 [  0.25666667  54.6689314 ]]","[[0.         0.27661041]
 [0.1        0.07889603]
 [0.2        1.21380046]
 [0.25666667 1.65990502]]",0,0.788
8729820499,f,20,english,5,3,english,2024-01-25 10:40:18.164074,False,1,249,sounds\french\audio/french_860.wav,"[[ 0.         33.37389434]
 [ 0.1        66.22312498]
 [ 0.2        -4.57961146]
 [ 0.25666667 50.69207221]]","[[0.         1.87718004]
 [0.1        1.50950791]
 [0.2        0.09437067]
 [0.25666667 1.19183747]]",1,0.847
8729820499,f,20,english,5,3,english,2024-01-25 10:40:18.164074,False,1,250,sounds\french\audio/french_924.wav,"[[  0.          19.51956159]
 [  0.1        -22.93629197]
 [  0.2         72.54596199]
 [  0.25666667  13.27885696]]","[[0.         0.29322561]
 [0.1        0.34885274]
 [0.2        0.3497483 ]
 [0.25666667 0.14375838]]",0,0.7
8729820499,f,20,english,5,3,english,2024-01-25 10:40:18.164074,False,1,251,sounds\french\audio/french_165.wav,"[[ 0.         34.81781775]
 [ 0.1        -0.63630456]
 [ 0.2        85.92593744]
 [ 0.25666667  7.56589877]]","[[0.         0.27086967]
 [0.1        1.42196963]
 [0.2        1.99513726]
 [0.25666667 0.37439059]]",1,0.932
8729820499,f,20,english,5,3,english,2024-01-25 10:40:18.164074,False,1,252,sounds\french\audio/french_316.wav,"[[  0.          71.43385859]
 [  0.1        -31.05932013]
 [  0.2          7.51523711]
 [  0.25666667 -46.68412198]]","[[0.         0.02011656]
 [0.1        1.43477753]
 [0.2        0.06852206]
 [0.25666667 1.51807936]]",0,1.239
