subj,sex,age,language,english,french,native_lang,date,practice,block,trial,stim,pitch,stretch,response,rt
8782735929,f,25,english,5,4,french,2024-02-13 10:39:26.615494,False,2,253,sounds\french\audio/french_363.wav,"[[  0.          53.04818478]
 [  0.1         68.67010762]
 [  0.2        -91.11205335]
 [  0.25666667 -38.9131055 ]]","[[0.         0.48026107]
 [0.1        1.94302888]
 [0.2        0.36511891]
 [0.25666667 1.6181542 ]]",0,2.114
8782735929,f,25,english,5,4,french,2024-02-13 10:39:26.615494,False,2,254,sounds\french\audio/french_369.wav,"[[  0.           6.84974499]
 [  0.1         61.60531042]
 [  0.2         34.70817747]
 [  0.25666667 -13.14208541]]","[[0.         1.45229952]
 [0.1        0.56068962]
 [0.2        0.98283966]
 [0.25666667 1.24311155]]",0,0.296
8782735929,f,25,english,5,4,french,2024-02-13 10:39:26.615494,False,2,255,sounds\french\audio/french_444.wav,"[[  0.          55.47353293]
 [  0.1         12.04434333]
 [  0.2         14.09264182]
 [  0.25666667 -80.20656615]]","[[0.         0.9328321 ]
 [0.1        1.46542582]
 [0.2        1.44584709]
 [0.25666667 1.50777595]]",0,0.169
8782735929,f,25,english,5,4,french,2024-02-13 10:39:26.615494,False,2,256,sounds\french\audio/french_169.wav,"[[  0.          14.47590961]
 [  0.1         38.07545665]
 [  0.2        -50.40298695]
 [  0.25666667  25.61467991]]","[[0.         1.38784349]
 [0.1        1.28983767]
 [0.2        0.58936297]
 [0.25666667 0.49151359]]",1,0.513
8782735929,f,25,english,5,4,french,2024-02-13 10:39:26.615494,False,2,257,sounds\french\audio/french_615.wav,"[[  0.         -99.04240885]
 [  0.1        -49.15643876]
 [  0.2        -66.91195639]
 [  0.25666667 -56.29346357]]","[[0.         1.08448469]
 [0.1        1.88363881]
 [0.2        1.28593097]
 [0.25666667 1.82136606]]",0,0.336
8782735929,f,25,english,5,4,french,2024-02-13 10:39:26.615494,False,2,258,sounds\french\audio/french_428.wav,"[[  0.          32.54087273]
 [  0.1        -45.07567034]
 [  0.2         23.18683175]
 [  0.25666667 -58.08389968]]","[[0.         1.95600578]
 [0.1        1.3753822 ]
 [0.2        0.5862849 ]
 [0.25666667 0.11110367]]",1,0.477
8782735929,f,25,english,5,4,french,2024-02-13 10:39:26.615494,False,2,259,sounds\french\audio/french_424.wav,"[[ 0.         61.39777876]
 [ 0.1        -8.76552132]
 [ 0.2        33.4280736 ]
 [ 0.25666667  8.6823295 ]]","[[0.         0.24361375]
 [0.1        1.04711526]
 [0.2        1.33335174]
 [0.25666667 0.59077303]]",0,0.297
8782735929,f,25,english,5,4,french,2024-02-13 10:39:26.615494,False,2,260,sounds\french\audio/french_531.wav,"[[  0.          76.38960861]
 [  0.1        -14.4624089 ]
 [  0.2         97.56303867]
 [  0.25666667  -4.62103118]]","[[0.         1.48422918]
 [0.1        0.31285067]
 [0.2        0.71358588]
 [0.25666667 0.65318394]]",0,0.58
8782735929,f,25,english,5,4,french,2024-02-13 10:39:26.615494,False,2,261,sounds\french\audio/french_781.wav,"[[  0.          33.25938538]
 [  0.1        -13.90292419]
 [  0.2        -71.59350782]
 [  0.25666667  57.07291034]]","[[0.         1.27105286]
 [0.1        0.93357863]
 [0.2        1.0124146 ]
 [0.25666667 0.68511696]]",0,0.674
8782735929,f,25,english,5,4,french,2024-02-13 10:39:26.615494,False,2,262,sounds\french\audio/french_434.wav,"[[  0.           7.9294609 ]
 [  0.1         36.47837772]
 [  0.2         71.3301905 ]
 [  0.25666667 -21.81717993]]","[[0.         1.64452419]
 [0.1        0.73911435]
 [0.2        0.53221197]
 [0.25666667 1.83629349]]",1,0.914
8782735929,f,25,english,5,4,french,2024-02-13 10:39:26.615494,False,2,263,sounds\french\audio/french_542.wav,"[[  0.          88.21755363]
 [  0.1         59.97016865]
 [  0.2        -54.94167031]
 [  0.25666667 -74.88408835]]","[[0.         1.84211071]
 [0.1        1.57396898]
 [0.2        1.14268549]
 [0.25666667 1.52682198]]",1,0.399
8782735929,f,25,english,5,4,french,2024-02-13 10:39:26.615494,False,2,264,sounds\french\audio/french_505.wav,"[[  0.         -38.72168331]
 [  0.1        -12.49542568]
 [  0.2         71.90880982]
 [  0.25666667 -94.40337553]]","[[0.         1.89725183]
 [0.1        0.88243769]
 [0.2        1.24748728]
 [0.25666667 0.62032879]]",0,0.199
8782735929,f,25,english,5,4,french,2024-02-13 10:39:26.615494,False,2,265,sounds\french\audio/french_493.wav,"[[  0.         -68.32294441]
 [  0.1        -10.78892258]
 [  0.2         91.72278204]
 [  0.25666667 -45.09260027]]","[[0.         0.52835731]
 [0.1        0.49612748]
 [0.2        1.46473376]
 [0.25666667 1.2872874 ]]",0,0.119
8782735929,f,25,english,5,4,french,2024-02-13 10:39:26.615494,False,2,266,sounds\french\audio/french_165.wav,"[[ 0.         34.81781775]
 [ 0.1        -0.63630456]
 [ 0.2        85.92593744]
 [ 0.25666667  7.56589877]]","[[0.         0.27086967]
 [0.1        1.42196963]
 [0.2        1.99513726]
 [0.25666667 0.37439059]]",0,0.056
8782735929,f,25,english,5,4,french,2024-02-13 10:39:26.615494,False,2,267,sounds\french\audio/french_514.wav,"[[  0.         -99.76210077]
 [  0.1        -57.79872095]
 [  0.2        -51.12304885]
 [  0.25666667  51.53874679]]","[[0.         0.60226465]
 [0.1        0.08785461]
 [0.2        1.82353854]
 [0.25666667 1.77009288]]",0,0.219
8782735929,f,25,english,5,4,french,2024-02-13 10:39:26.615494,False,2,268,sounds\french\audio/french_871.wav,"[[  0.          -4.85456223]
 [  0.1         78.38715758]
 [  0.2        -65.12117647]
 [  0.25666667  96.09900544]]","[[0.         1.97775754]
 [0.1        1.19373072]
 [0.2        1.5578529 ]
 [0.25666667 1.61262149]]",0,0.455
8782735929,f,25,english,5,4,french,2024-02-13 10:39:26.615494,False,2,269,sounds\french\audio/french_456.wav,"[[  0.         -27.91969988]
 [  0.1         -6.9905469 ]
 [  0.2          7.34213132]
 [  0.25666667 -16.30576404]]","[[0.         0.874098  ]
 [0.1        0.40632282]
 [0.2        0.88508218]
 [0.25666667 1.43350061]]",0,0.292
8782735929,f,25,english,5,4,french,2024-02-13 10:39:26.615494,False,2,270,sounds\french\audio/french_604.wav,"[[  0.         -11.11210875]
 [  0.1        -13.90326971]
 [  0.2        -78.59226075]
 [  0.25666667  87.42620436]]","[[0.         1.64316359]
 [0.1        0.56968283]
 [0.2        1.3955722 ]
 [0.25666667 0.51982143]]",0,0.111
8782735929,f,25,english,5,4,french,2024-02-13 10:39:26.615494,False,2,271,sounds\french\audio/french_580.wav,"[[  0.          27.05941303]
 [  0.1        -10.3346088 ]
 [  0.2        -24.27512535]
 [  0.25666667  34.7313677 ]]","[[0.         0.35053576]
 [0.1        1.97169455]
 [0.2        0.90308202]
 [0.25666667 0.94790865]]",0,0.326
8782735929,f,25,english,5,4,french,2024-02-13 10:39:26.615494,False,2,272,sounds\french\audio/french_553.wav,"[[  0.          -1.38146628]
 [  0.1        -34.28745567]
 [  0.2          6.87532462]
 [  0.25666667  90.98690029]]","[[0.         0.44011383]
 [0.1        1.14829302]
 [0.2        1.07508961]
 [0.25666667 0.10252166]]",0,0.217
8782735929,f,25,english,5,4,french,2024-02-13 10:39:26.615494,False,2,273,sounds\french\audio/french_218.wav,"[[  0.          50.58163299]
 [  0.1        -62.47432707]
 [  0.2        -11.24403131]
 [  0.25666667 -76.23808147]]","[[0.         1.39700525]
 [0.1        0.24728847]
 [0.2        1.10420939]
 [0.25666667 0.34157158]]",0,0.352
8782735929,f,25,english,5,4,french,2024-02-13 10:39:26.615494,False,2,274,sounds\french\audio/french_483.wav,"[[ 0.         97.94153635]
 [ 0.1        11.27160269]
 [ 0.2        92.4188156 ]
 [ 0.25666667 46.65552131]]","[[0.         0.77689604]
 [0.1        0.07842581]
 [0.2        1.30147174]
 [0.25666667 0.73281584]]",0,0.348
8782735929,f,25,english,5,4,french,2024-02-13 10:39:26.615494,False,2,275,sounds\french\audio/french_796.wav,"[[  0.         -38.09805788]
 [  0.1        -51.81358868]
 [  0.2         88.47322764]
 [  0.25666667 -34.90405205]]","[[0.         1.93486201]
 [0.1        1.49994235]
 [0.2        1.42581223]
 [0.25666667 0.47367866]]",0,0.447
8782735929,f,25,english,5,4,french,2024-02-13 10:39:26.615494,False,2,276,sounds\french\audio/french_286.wav,"[[  0.         -12.75776796]
 [  0.1         37.83162005]
 [  0.2        -73.99987606]
 [  0.25666667 -99.59641202]]","[[0.         0.7334837 ]
 [0.1        0.13945261]
 [0.2        0.89700821]
 [0.25666667 0.06192005]]",1,1.046
8782735929,f,25,english,5,4,french,2024-02-13 10:39:26.615494,False,2,277,sounds\french\audio/french_716.wav,"[[  0.          84.94340614]
 [  0.1        -26.42004262]
 [  0.2         43.13419589]
 [  0.25666667  70.01736472]]","[[0.         0.02480266]
 [0.1        1.84645248]
 [0.2        1.11902957]
 [0.25666667 1.71178302]]",1,3.338
8782735929,f,25,english,5,4,french,2024-02-13 10:39:26.615494,False,2,278,sounds\french\audio/french_592.wav,"[[  0.         -60.74271859]
 [  0.1         93.57737247]
 [  0.2        -53.75438764]
 [  0.25666667  -2.22241718]]","[[0.         0.07910076]
 [0.1        0.09988206]
 [0.2        0.64371435]
 [0.25666667 0.65219405]]",1,0.617
8782735929,f,25,english,5,4,french,2024-02-13 10:39:26.615494,False,2,279,sounds\french\audio/french_67.wav,"[[  0.         -85.58948589]
 [  0.1         13.09838054]
 [  0.2        -56.56906679]
 [  0.25666667  57.4599261 ]]","[[0.         0.63200809]
 [0.1        1.95867716]
 [0.2        0.48937635]
 [0.25666667 1.24156625]]",1,0.13
8782735929,f,25,english,5,4,french,2024-02-13 10:39:26.615494,False,2,280,sounds\french\audio/french_310.wav,"[[  0.         -83.78338178]
 [  0.1        -13.73891655]
 [  0.2         58.07821313]
 [  0.25666667  26.26954934]]","[[0.         0.11877442]
 [0.1        1.32851017]
 [0.2        0.76082745]
 [0.25666667 1.37378881]]",1,0.131
8782735929,f,25,english,5,4,french,2024-02-13 10:39:26.615494,False,2,281,sounds\french\audio/french_764.wav,"[[  0.          -8.95969579]
 [  0.1          5.11158076]
 [  0.2          3.7358826 ]
 [  0.25666667 -14.74224302]]","[[0.         0.46272501]
 [0.1        1.84250995]
 [0.2        0.71585727]
 [0.25666667 0.58101627]]",0,0.163
8782735929,f,25,english,5,4,french,2024-02-13 10:39:26.615494,False,2,282,sounds\french\audio/french_308.wav,"[[  0.          10.28514005]
 [  0.1        -39.60290217]
 [  0.2         99.30719553]
 [  0.25666667  64.43745932]]","[[0.         0.92806529]
 [0.1        0.73191769]
 [0.2        0.07740888]
 [0.25666667 0.80481059]]",1,0.851
8782735929,f,25,english,5,4,french,2024-02-13 10:39:26.615494,False,2,283,sounds\french\audio/french_943.wav,"[[  0.          27.08075724]
 [  0.1         11.89706259]
 [  0.2        -68.36208072]
 [  0.25666667  93.65942771]]","[[0.         1.18472309]
 [0.1        0.18520331]
 [0.2        0.55970606]
 [0.25666667 0.63383354]]",0,0.485
8782735929,f,25,english,5,4,french,2024-02-13 10:39:26.615494,False,2,284,sounds\french\audio/french_254.wav,"[[  0.         -80.26287383]
 [  0.1        -40.33934554]
 [  0.2         63.1875163 ]
 [  0.25666667  55.87543548]]","[[0.         0.610966  ]
 [0.1        1.74213191]
 [0.2        0.92287848]
 [0.25666667 0.4746978 ]]",1,0.405
8782735929,f,25,english,5,4,french,2024-02-13 10:39:26.615494,False,2,285,sounds\french\audio/french_928.wav,"[[  0.          23.35867854]
 [  0.1        -18.47737087]
 [  0.2         41.22883985]
 [  0.25666667  67.72155047]]","[[0.         0.39112769]
 [0.1        1.71601552]
 [0.2        0.4467351 ]
 [0.25666667 0.12145746]]",0,0.262
8782735929,f,25,english,5,4,french,2024-02-13 10:39:26.615494,False,2,286,sounds\french\audio/french_304.wav,"[[  0.          58.70341866]
 [  0.1         64.39481967]
 [  0.2         24.44185136]
 [  0.25666667 -92.24598877]]","[[0.         1.21350262]
 [0.1        0.74970721]
 [0.2        0.32537914]
 [0.25666667 0.12166717]]",0,0.189
8782735929,f,25,english,5,4,french,2024-02-13 10:39:26.615494,False,2,287,sounds\french\audio/french_350.wav,"[[  0.         -94.89147327]
 [  0.1        -69.96874844]
 [  0.2        -41.05008416]
 [  0.25666667  27.21030297]]","[[0.         1.34276454]
 [0.1        1.56346818]
 [0.2        0.76037532]
 [0.25666667 1.08356683]]",0,0.253
8782735929,f,25,english,5,4,french,2024-02-13 10:39:26.615494,False,2,288,sounds\french\audio/french_855.wav,"[[ 0.          2.71159552]
 [ 0.1        66.05842931]
 [ 0.2        41.00995311]
 [ 0.25666667 98.2962498 ]]","[[0.         1.64624975]
 [0.1        0.54809415]
 [0.2        1.64541289]
 [0.25666667 1.22205238]]",0,0.095
8782735929,f,25,english,5,4,french,2024-02-13 10:39:26.615494,False,2,289,sounds\french\audio/french_68.wav,"[[  0.          58.83829029]
 [  0.1         77.59339865]
 [  0.2        -73.88341881]
 [  0.25666667 -24.56901296]]","[[0.         1.80244508]
 [0.1        1.3442738 ]
 [0.2        1.16581557]
 [0.25666667 0.71132336]]",0,0.236
8782735929,f,25,english,5,4,french,2024-02-13 10:39:26.615494,False,2,290,sounds\french\audio/french_166.wav,"[[  0.         -13.71320418]
 [  0.1        -74.77814183]
 [  0.2         42.48534987]
 [  0.25666667 -48.97271451]]","[[0.         1.40282364]
 [0.1        0.51226478]
 [0.2        1.59981073]
 [0.25666667 1.00485648]]",1,0.134
8782735929,f,25,english,5,4,french,2024-02-13 10:39:26.615494,False,2,291,sounds\french\audio/french_68.wav,"[[  0.          58.83829029]
 [  0.1         77.59339865]
 [  0.2        -73.88341881]
 [  0.25666667 -24.56901296]]","[[0.         1.80244508]
 [0.1        1.3442738 ]
 [0.2        1.16581557]
 [0.25666667 0.71132336]]",1,0.244
8782735929,f,25,english,5,4,french,2024-02-13 10:39:26.615494,False,2,292,sounds\french\audio/french_789.wav,"[[  0.          16.13130467]
 [  0.1        -53.51301261]
 [  0.2         91.10833978]
 [  0.25666667   9.61415248]]","[[0.         1.41580253]
 [0.1        1.63533644]
 [0.2        0.42839577]
 [0.25666667 0.64971622]]",0,0.49
8782735929,f,25,english,5,4,french,2024-02-13 10:39:26.615494,False,2,293,sounds\french\audio/french_198.wav,"[[  0.          72.51067349]
 [  0.1         26.15359829]
 [  0.2        -38.06500424]
 [  0.25666667 -63.59150526]]","[[0.         0.65547069]
 [0.1        0.30610144]
 [0.2        0.27462822]
 [0.25666667 1.37790723]]",0,0.371
8782735929,f,25,english,5,4,french,2024-02-13 10:39:26.615494,False,2,294,sounds\french\audio/french_773.wav,"[[ 0.         44.49367894]
 [ 0.1        -3.70834598]
 [ 0.2        10.6701804 ]
 [ 0.25666667 36.58697532]]","[[0.         1.02864329]
 [0.1        1.31333622]
 [0.2        0.86217131]
 [0.25666667 0.61318027]]",0,0.957
8782735929,f,25,english,5,4,french,2024-02-13 10:39:26.615494,False,2,295,sounds\french\audio/french_388.wav,"[[  0.         -56.99851318]
 [  0.1        -28.42117093]
 [  0.2        -17.37440647]
 [  0.25666667  19.5608334 ]]","[[0.         0.76802497]
 [0.1        1.07190306]
 [0.2        0.91030877]
 [0.25666667 0.1576099 ]]",0,0.147
8782735929,f,25,english,5,4,french,2024-02-13 10:39:26.615494,False,2,296,sounds\french\audio/french_390.wav,"[[  0.          13.63716389]
 [  0.1        -61.62928039]
 [  0.2         89.99724903]
 [  0.25666667 -99.60285567]]","[[0.         0.73987932]
 [0.1        1.19791102]
 [0.2        0.30500022]
 [0.25666667 1.08417724]]",0,0.133
8782735929,f,25,english,5,4,french,2024-02-13 10:39:26.615494,False,2,297,sounds\french\audio/french_559.wav,"[[  0.          64.66028359]
 [  0.1        -43.2680873 ]
 [  0.2        -64.36892284]
 [  0.25666667  44.10109235]]","[[0.         0.94999591]
 [0.1        1.38482691]
 [0.2        1.27938883]
 [0.25666667 0.16591499]]",1,0.111
8782735929,f,25,english,5,4,french,2024-02-13 10:39:26.615494,False,2,298,sounds\french\audio/french_626.wav,"[[  0.         -93.35692854]
 [  0.1         98.43225428]
 [  0.2        -65.0946996 ]
 [  0.25666667  62.51553639]]","[[0.         1.28523942]
 [0.1        0.26610399]
 [0.2        0.08304138]
 [0.25666667 1.47830697]]",1,0.617
8782735929,f,25,english,5,4,french,2024-02-13 10:39:26.615494,False,2,299,sounds\french\audio/french_33.wav,"[[  0.          57.46883034]
 [  0.1        -37.75467747]
 [  0.2         37.26126111]
 [  0.25666667  30.73694303]]","[[0.         0.51774601]
 [0.1        0.34297047]
 [0.2        0.88429292]
 [0.25666667 0.45040489]]",0,0.204
8782735929,f,25,english,5,4,french,2024-02-13 10:39:26.615494,False,2,300,sounds\french\audio/french_76.wav,"[[ 0.         34.97070553]
 [ 0.1        46.59279974]
 [ 0.2        69.89439798]
 [ 0.25666667  4.40224836]]","[[0.         0.55167233]
 [0.1        0.47394225]
 [0.2        0.76682402]
 [0.25666667 1.69716011]]",0,0.14
8782735929,f,25,english,5,4,french,2024-02-13 10:39:26.615494,False,2,301,sounds\french\audio/french_556.wav,"[[  0.          57.69742807]
 [  0.1         74.69192241]
 [  0.2        -92.88512431]
 [  0.25666667  27.11476112]]","[[0.         1.23910924]
 [0.1        0.49477788]
 [0.2        1.56323012]
 [0.25666667 1.7455964 ]]",0,0.289
8782735929,f,25,english,5,4,french,2024-02-13 10:39:26.615494,False,2,302,sounds\french\audio/french_383.wav,"[[  0.         -42.4544387 ]
 [  0.1        -90.68336638]
 [  0.2        -23.68224062]
 [  0.25666667 -19.21071009]]","[[0.         1.97405967]
 [0.1        0.7318817 ]
 [0.2        1.2439139 ]
 [0.25666667 0.24057374]]",0,0.119
8782735929,f,25,english,5,4,french,2024-02-13 10:39:26.615494,False,2,303,sounds\french\audio/french_975.wav,"[[  0.         -26.92402708]
 [  0.1        -12.18779535]
 [  0.2        -49.74503626]
 [  0.25666667  48.08434321]]","[[0.         1.54282139]
 [0.1        0.57018571]
 [0.2        1.72772198]
 [0.25666667 1.83415107]]",0,0.118
8782735929,f,25,english,5,4,french,2024-02-13 10:39:26.615494,False,2,304,sounds\french\audio/french_598.wav,"[[  0.          21.68363658]
 [  0.1        -21.32750779]
 [  0.2          7.72514192]
 [  0.25666667 -29.17866519]]","[[0.         1.67467049]
 [0.1        0.64095668]
 [0.2        0.23575639]
 [0.25666667 0.51628457]]",0,0.24
8782735929,f,25,english,5,4,french,2024-02-13 10:39:26.615494,False,2,305,sounds\french\audio/french_48.wav,"[[  0.          39.79198264]
 [  0.1         66.47948286]
 [  0.2         57.39946228]
 [  0.25666667 -39.27972342]]","[[0.         1.78905862]
 [0.1        1.41226809]
 [0.2        1.54721415]
 [0.25666667 0.33574946]]",0,0.326
8782735929,f,25,english,5,4,french,2024-02-13 10:39:26.615494,False,2,306,sounds\french\audio/french_295.wav,"[[ 0.         98.71232228]
 [ 0.1        19.8777742 ]
 [ 0.2         2.02188034]
 [ 0.25666667 -4.73018768]]","[[0.         1.58912918]
 [0.1        0.8460381 ]
 [0.2        1.72839065]
 [0.25666667 1.75057888]]",0,0.625
8782735929,f,25,english,5,4,french,2024-02-13 10:39:26.615494,False,2,307,sounds\french\audio/french_570.wav,"[[  0.         -73.07970403]
 [  0.1        -29.06072458]
 [  0.2        -25.44054287]
 [  0.25666667  96.93308839]]","[[0.         1.97071113]
 [0.1        1.64236312]
 [0.2        0.27343611]
 [0.25666667 1.31029171]]",1,0.295
8782735929,f,25,english,5,4,french,2024-02-13 10:39:26.615494,False,2,308,sounds\french\audio/french_781.wav,"[[  0.          33.25938538]
 [  0.1        -13.90292419]
 [  0.2        -71.59350782]
 [  0.25666667  57.07291034]]","[[0.         1.27105286]
 [0.1        0.93357863]
 [0.2        1.0124146 ]
 [0.25666667 0.68511696]]",1,0.62
8782735929,f,25,english,5,4,french,2024-02-13 10:39:26.615494,False,2,309,sounds\french\audio/french_621.wav,"[[  0.         -65.12133357]
 [  0.1        -34.98790471]
 [  0.2        -12.78608876]
 [  0.25666667  53.53170361]]","[[0.         1.7602607 ]
 [0.1        0.92649718]
 [0.2        1.46782633]
 [0.25666667 0.68266442]]",0,0.1
8782735929,f,25,english,5,4,french,2024-02-13 10:39:26.615494,False,2,310,sounds\french\audio/french_330.wav,"[[  0.         -46.98301203]
 [  0.1         55.18277966]
 [  0.2         68.01781419]
 [  0.25666667 -65.13341665]]","[[0.         1.92315583]
 [0.1        0.64158591]
 [0.2        0.71457858]
 [0.25666667 0.26661962]]",0,0.263
8782735929,f,25,english,5,4,french,2024-02-13 10:39:26.615494,False,2,311,sounds\french\audio/french_572.wav,"[[  0.          39.88309013]
 [  0.1        -96.79862589]
 [  0.2        -22.12237888]
 [  0.25666667 -29.01009828]]","[[0.         1.43577141]
 [0.1        0.70754044]
 [0.2        0.13254452]
 [0.25666667 0.2743676 ]]",0,0.797
8782735929,f,25,english,5,4,french,2024-02-13 10:39:26.615494,False,2,312,sounds\french\audio/french_975.wav,"[[  0.         -26.92402708]
 [  0.1        -12.18779535]
 [  0.2        -49.74503626]
 [  0.25666667  48.08434321]]","[[0.         1.54282139]
 [0.1        0.57018571]
 [0.2        1.72772198]
 [0.25666667 1.83415107]]",0,0.246
8782735929,f,25,english,5,4,french,2024-02-13 10:39:26.615494,False,2,313,sounds\french\audio/french_723.wav,"[[  0.         -46.61221312]
 [  0.1        -11.45492587]
 [  0.2         -2.50722763]
 [  0.25666667 -31.56133571]]","[[0.         0.88342187]
 [0.1        0.45371046]
 [0.2        1.8565603 ]
 [0.25666667 0.74236501]]",0,0.236
8782735929,f,25,english,5,4,french,2024-02-13 10:39:26.615494,False,2,314,sounds\french\audio/french_14.wav,"[[  0.          29.04259121]
 [  0.1        -13.93862831]
 [  0.2         -3.57455278]
 [  0.25666667  14.81088412]]","[[0.         1.27596418]
 [0.1        1.81664743]
 [0.2        1.61822265]
 [0.25666667 1.58848758]]",0,0.137
8782735929,f,25,english,5,4,french,2024-02-13 10:39:26.615494,False,2,315,sounds\french\audio/french_171.wav,"[[ 0.         13.3023016 ]
 [ 0.1        25.29505215]
 [ 0.2        -4.58061697]
 [ 0.25666667 34.76288366]]","[[0.         1.00497926]
 [0.1        0.58011724]
 [0.2        1.99843941]
 [0.25666667 1.29013512]]",0,0.136
8782735929,f,25,english,5,4,french,2024-02-13 10:39:26.615494,False,2,316,sounds\french\audio/french_347.wav,"[[  0.         -50.57249908]
 [  0.1         -0.96259157]
 [  0.2         56.28626554]
 [  0.25666667  46.89576118]]","[[0.         1.7558536 ]
 [0.1        0.42717605]
 [0.2        1.32943016]
 [0.25666667 0.4771217 ]]",0,0.541
8782735929,f,25,english,5,4,french,2024-02-13 10:39:26.615494,False,2,317,sounds\french\audio/french_425.wav,"[[  0.          36.0896382 ]
 [  0.1        -60.28824884]
 [  0.2        -83.12671609]
 [  0.25666667  32.66103116]]","[[0.         0.72680638]
 [0.1        0.01839492]
 [0.2        1.09901753]
 [0.25666667 1.13928828]]",0,0.382
8782735929,f,25,english,5,4,french,2024-02-13 10:39:26.615494,False,2,318,sounds\french\audio/french_242.wav,"[[ 0.00000000e+00  1.91317605e+01]
 [ 1.00000000e-01 -4.58995637e+01]
 [ 2.00000000e-01  1.60089686e-02]
 [ 2.56666667e-01  8.82940870e+01]]","[[0.         0.13091957]
 [0.1        1.80487076]
 [0.2        1.56599149]
 [0.25666667 1.35043951]]",0,1.092
8782735929,f,25,english,5,4,french,2024-02-13 10:39:26.615494,False,2,319,sounds\french\audio/french_924.wav,"[[  0.          19.51956159]
 [  0.1        -22.93629197]
 [  0.2         72.54596199]
 [  0.25666667  13.27885696]]","[[0.         0.29322561]
 [0.1        0.34885274]
 [0.2        0.3497483 ]
 [0.25666667 0.14375838]]",0,0.303
8782735929,f,25,english,5,4,french,2024-02-13 10:39:26.615494,False,2,320,sounds\french\audio/french_561.wav,"[[  0.          43.72245453]
 [  0.1        -99.96065046]
 [  0.2        -79.74506532]
 [  0.25666667   3.19515671]]","[[0.         1.14403907]
 [0.1        0.22103922]
 [0.2        0.12690813]
 [0.25666667 1.47601923]]",0,0.242
8782735929,f,25,english,5,4,french,2024-02-13 10:39:26.615494,False,2,321,sounds\french\audio/french_375.wav,"[[  0.          25.91972282]
 [  0.1        -60.98407933]
 [  0.2        -55.02276561]
 [  0.25666667  50.70039074]]","[[0.         0.89929791]
 [0.1        0.6101435 ]
 [0.2        1.65353502]
 [0.25666667 0.66964756]]",0,0.101
8782735929,f,25,english,5,4,french,2024-02-13 10:39:26.615494,False,2,322,sounds\french\audio/french_396.wav,"[[  0.         -42.7744445 ]
 [  0.1          3.59774391]
 [  0.2        -86.41595133]
 [  0.25666667  76.20152203]]","[[0.         0.31798537]
 [0.1        0.67756986]
 [0.2        1.44355676]
 [0.25666667 1.44326023]]",0,1.071
8782735929,f,25,english,5,4,french,2024-02-13 10:39:26.615494,False,2,323,sounds\french\audio/french_565.wav,"[[  0.          50.78822436]
 [  0.1        -75.93967217]
 [  0.2        -58.95969425]
 [  0.25666667 -53.32673619]]","[[0.         1.00864226]
 [0.1        1.52231663]
 [0.2        0.24874103]
 [0.25666667 1.47271882]]",0,0.122
8782735929,f,25,english,5,4,french,2024-02-13 10:39:26.615494,False,2,324,sounds\french\audio/french_748.wav,"[[  0.          66.19282508]
 [  0.1        -81.39884416]
 [  0.2         72.72612179]
 [  0.25666667  76.03481505]]","[[0.         0.41357469]
 [0.1        1.04952   ]
 [0.2        1.37113635]
 [0.25666667 1.54211369]]",1,0.615
8782735929,f,25,english,5,4,french,2024-02-13 10:39:26.615494,False,2,325,sounds\french\audio/french_702.wav,"[[  0.         -53.8337347 ]
 [  0.1         13.17722269]
 [  0.2        -63.63948694]
 [  0.25666667  -7.77006894]]","[[0.         0.65995653]
 [0.1        1.48591365]
 [0.2        1.16262137]
 [0.25666667 1.49403865]]",0,0.134
8782735929,f,25,english,5,4,french,2024-02-13 10:39:26.615494,False,2,326,sounds\french\audio/french_59.wav,"[[  0.          39.36273925]
 [  0.1        -72.05438318]
 [  0.2        -58.73379721]
 [  0.25666667 -71.89754194]]","[[0.         0.85213244]
 [0.1        0.54541244]
 [0.2        0.77028914]
 [0.25666667 0.84538443]]",0,0.212
8782735929,f,25,english,5,4,french,2024-02-13 10:39:26.615494,False,2,327,sounds\french\audio/french_763.wav,"[[  0.         -96.72958763]
 [  0.1         95.66434095]
 [  0.2        -84.28875962]
 [  0.25666667 -41.37848175]]","[[0.         0.69845728]
 [0.1        1.4089076 ]
 [0.2        1.74428554]
 [0.25666667 0.12054272]]",0,0.14
8782735929,f,25,english,5,4,french,2024-02-13 10:39:26.615494,False,2,328,sounds\french\audio/french_871.wav,"[[  0.          -4.85456223]
 [  0.1         78.38715758]
 [  0.2        -65.12117647]
 [  0.25666667  96.09900544]]","[[0.         1.97775754]
 [0.1        1.19373072]
 [0.2        1.5578529 ]
 [0.25666667 1.61262149]]",1,0.049
8782735929,f,25,english,5,4,french,2024-02-13 10:39:26.615494,False,2,329,sounds\french\audio/french_132.wav,"[[  0.          55.7159221 ]
 [  0.1         96.01047895]
 [  0.2        -30.71931346]
 [  0.25666667  34.53763016]]","[[0.         0.1336911 ]
 [0.1        1.63690434]
 [0.2        0.7825174 ]
 [0.25666667 1.49477333]]",0,0.456
8782735929,f,25,english,5,4,french,2024-02-13 10:39:26.615494,False,2,330,sounds\french\audio/french_807.wav,"[[  0.          41.22965042]
 [  0.1         55.45523643]
 [  0.2        -56.08981041]
 [  0.25666667  27.67304414]]","[[0.         0.26309645]
 [0.1        0.30227962]
 [0.2        0.58983644]
 [0.25666667 1.26996728]]",1,0.531
8782735929,f,25,english,5,4,french,2024-02-13 10:39:26.615494,False,2,331,sounds\french\audio/french_401.wav,"[[  0.         -70.28001137]
 [  0.1        -33.39817342]
 [  0.2         31.30905025]
 [  0.25666667  85.09993336]]","[[0.         0.55430578]
 [0.1        1.52055291]
 [0.2        1.05517946]
 [0.25666667 0.68126919]]",1,0.216
8782735929,f,25,english,5,4,french,2024-02-13 10:39:26.615494,False,2,332,sounds\french\audio/french_399.wav,"[[ 0.         60.88638106]
 [ 0.1        69.51712014]
 [ 0.2        11.9354414 ]
 [ 0.25666667 71.82951649]]","[[0.         0.92905576]
 [0.1        1.13956386]
 [0.2        0.89341089]
 [0.25666667 1.81253855]]",0,0.181
8782735929,f,25,english,5,4,french,2024-02-13 10:39:26.615494,False,2,333,sounds\french\audio/french_903.wav,"[[  0.         -17.08871031]
 [  0.1         52.87150714]
 [  0.2        -46.35078868]
 [  0.25666667  67.27089244]]","[[0.         0.50691937]
 [0.1        1.06902364]
 [0.2        1.77440634]
 [0.25666667 0.5573406 ]]",0,0.299
8782735929,f,25,english,5,4,french,2024-02-13 10:39:26.615494,False,2,334,sounds\french\audio/french_382.wav,"[[  0.         -28.76508335]
 [  0.1         37.36249056]
 [  0.2         12.02014155]
 [  0.25666667 -78.65251684]]","[[0.         1.75225743]
 [0.1        1.09069334]
 [0.2        1.36067751]
 [0.25666667 0.9131152 ]]",0,0.648
8782735929,f,25,english,5,4,french,2024-02-13 10:39:26.615494,False,2,335,sounds\french\audio/french_649.wav,"[[  0.         -26.84796804]
 [  0.1         90.50092835]
 [  0.2        -42.32642697]
 [  0.25666667  -6.05454316]]","[[0.         0.38564107]
 [0.1        0.07645681]
 [0.2        0.18898029]
 [0.25666667 0.88659006]]",1,0.532
8782735929,f,25,english,5,4,french,2024-02-13 10:39:26.615494,False,2,336,sounds\french\audio/french_916.wav,"[[  0.         -87.80939928]
 [  0.1         68.91902004]
 [  0.2         20.82551071]
 [  0.25666667 -10.41164891]]","[[0.         0.07100827]
 [0.1        0.08308916]
 [0.2        0.48942561]
 [0.25666667 0.67278955]]",0,0.661
8782735929,f,25,english,5,4,french,2024-02-13 10:39:26.615494,False,2,337,sounds\french\audio/french_346.wav,"[[  0.          -9.57888942]
 [  0.1         44.75165277]
 [  0.2        -77.92949754]
 [  0.25666667 -10.35911767]]","[[0.         1.97053356]
 [0.1        0.16189102]
 [0.2        0.34896721]
 [0.25666667 1.54776001]]",0,0.418
8782735929,f,25,english,5,4,french,2024-02-13 10:39:26.615494,False,2,338,sounds\french\audio/french_250.wav,"[[  0.          34.1596777 ]
 [  0.1        -44.36149414]
 [  0.2          5.0850049 ]
 [  0.25666667 -37.48818875]]","[[0.         0.91954119]
 [0.1        1.97424998]
 [0.2        0.32778381]
 [0.25666667 0.84724669]]",0,0.106
8782735929,f,25,english,5,4,french,2024-02-13 10:39:26.615494,False,2,339,sounds\french\audio/french_17.wav,"[[ 0.         61.86852427]
 [ 0.1        14.81642836]
 [ 0.2        -8.48865215]
 [ 0.25666667 71.68336874]]","[[0.         1.05769551]
 [0.1        0.81667418]
 [0.2        0.51249479]
 [0.25666667 0.29939213]]",0,0.559
8782735929,f,25,english,5,4,french,2024-02-13 10:39:26.615494,False,2,340,sounds\french\audio/french_574.wav,"[[  0.         -78.43657591]
 [  0.1         25.16959944]
 [  0.2         42.97785019]
 [  0.25666667  77.36764491]]","[[0.         1.27247015]
 [0.1        0.78898338]
 [0.2        1.49121094]
 [0.25666667 0.68004104]]",0,0.174
8782735929,f,25,english,5,4,french,2024-02-13 10:39:26.615494,False,2,341,sounds\french\audio/french_628.wav,"[[  0.          68.49177404]
 [  0.1        -37.23139728]
 [  0.2        -66.57894256]
 [  0.25666667  94.63403104]]","[[0.         1.08718887]
 [0.1        1.92014291]
 [0.2        1.74485312]
 [0.25666667 1.25946788]]",1,0.153
8782735929,f,25,english,5,4,french,2024-02-13 10:39:26.615494,False,2,342,sounds\french\audio/french_867.wav,"[[  0.         -56.83459408]
 [  0.1        -43.30462201]
 [  0.2        -57.08778715]
 [  0.25666667  26.25433727]]","[[0.         0.56298114]
 [0.1        1.09173708]
 [0.2        1.10722732]
 [0.25666667 0.48299304]]",1,0.232
8782735929,f,25,english,5,4,french,2024-02-13 10:39:26.615494,False,2,343,sounds\french\audio/french_229.wav,"[[  0.          17.32899675]
 [  0.1        -73.09434366]
 [  0.2        -24.47190501]
 [  0.25666667  11.45282545]]","[[0.         0.73401758]
 [0.1        0.90990932]
 [0.2        0.8791544 ]
 [0.25666667 1.1872524 ]]",1,0.211
8782735929,f,25,english,5,4,french,2024-02-13 10:39:26.615494,False,2,344,sounds\french\audio/french_461.wav,"[[  0.          76.34817382]
 [  0.1          2.37579461]
 [  0.2        -59.90047781]
 [  0.25666667  20.08623444]]","[[0.         0.72953599]
 [0.1        1.5415695 ]
 [0.2        1.01078515]
 [0.25666667 1.02737445]]",1,0.037
8782735929,f,25,english,5,4,french,2024-02-13 10:39:26.615494,False,2,345,sounds\french\audio/french_334.wav,"[[  0.          40.44836216]
 [  0.1        -67.56280837]
 [  0.2        -28.73514643]
 [  0.25666667 -49.63309354]]","[[0.         0.13212964]
 [0.1        0.74019732]
 [0.2        0.72240648]
 [0.25666667 0.47162208]]",0,0.413
8782735929,f,25,english,5,4,french,2024-02-13 10:39:26.615494,False,2,346,sounds\french\audio/french_513.wav,"[[  0.          84.63539274]
 [  0.1         36.6114333 ]
 [  0.2         14.49628471]
 [  0.25666667 -17.17346171]]","[[0.         1.68726635]
 [0.1        0.88690679]
 [0.2        0.37350839]
 [0.25666667 1.74122924]]",0,0.654
8782735929,f,25,english,5,4,french,2024-02-13 10:39:26.615494,False,2,347,sounds\french\audio/french_791.wav,"[[  0.         -81.64215326]
 [  0.1         84.74526907]
 [  0.2        -10.10354349]
 [  0.25666667 -10.14583619]]","[[0.         0.09493453]
 [0.1        0.0053506 ]
 [0.2        1.61132934]
 [0.25666667 1.39802197]]",1,0.309
8782735929,f,25,english,5,4,french,2024-02-13 10:39:26.615494,False,2,348,sounds\french\audio/french_835.wav,"[[  0.          -1.43190356]
 [  0.1        -99.33286499]
 [  0.2         34.34373885]
 [  0.25666667  39.86329231]]","[[0.         0.4805844 ]
 [0.1        1.12822193]
 [0.2        1.41477947]
 [0.25666667 0.63497531]]",0,0.071
8782735929,f,25,english,5,4,french,2024-02-13 10:39:26.615494,False,2,349,sounds\french\audio/french_814.wav,"[[  0.          83.0056253 ]
 [  0.1        -71.4586846 ]
 [  0.2         12.63844789]
 [  0.25666667  12.39326704]]","[[0.         1.4499936 ]
 [0.1        0.77595229]
 [0.2        0.21302651]
 [0.25666667 0.16177964]]",0,0.163
8782735929,f,25,english,5,4,french,2024-02-13 10:39:26.615494,False,2,350,sounds\french\audio/french_154.wav,"[[  0.         -35.77368222]
 [  0.1          5.93918526]
 [  0.2         36.13172948]
 [  0.25666667 -52.77395679]]","[[0.         0.10248514]
 [0.1        0.42084566]
 [0.2        1.29147589]
 [0.25666667 0.60791213]]",1,0.133
8782735929,f,25,english,5,4,french,2024-02-13 10:39:26.615494,False,2,351,sounds\french\audio/french_411.wav,"[[  0.          65.70741219]
 [  0.1          9.47903784]
 [  0.2         88.46874173]
 [  0.25666667 -33.05830924]]","[[0.         1.12073031]
 [0.1        1.20345695]
 [0.2        1.7567893 ]
 [0.25666667 0.68949127]]",1,0.007
8782735929,f,25,english,5,4,french,2024-02-13 10:39:26.615494,False,2,352,sounds\french\audio/french_954.wav,"[[  0.         -31.81965022]
 [  0.1         82.90828133]
 [  0.2         94.68318648]
 [  0.25666667 -42.01635115]]","[[0.         1.69468269]
 [0.1        0.7734121 ]
 [0.2        0.43346946]
 [0.25666667 0.14112827]]",1,0.667
8782735929,f,25,english,5,4,french,2024-02-13 10:39:26.615494,False,2,353,sounds\french\audio/french_469.wav,"[[  0.          66.71351684]
 [  0.1        -62.03219977]
 [  0.2          3.50074433]
 [  0.25666667  58.03584826]]","[[0.         0.70736983]
 [0.1        0.37939516]
 [0.2        0.65236   ]
 [0.25666667 0.94960182]]",0,0.122
8782735929,f,25,english,5,4,french,2024-02-13 10:39:26.615494,False,2,354,sounds\french\audio/french_491.wav,"[[ 0.00000000e+00  4.86868680e+01]
 [ 1.00000000e-01 -4.81683993e+01]
 [ 2.00000000e-01 -4.23609681e+01]
 [ 2.56666667e-01  2.49582160e-02]]","[[0.         0.42969684]
 [0.1        1.38937301]
 [0.2        1.25630672]
 [0.25666667 0.04562268]]",0,0.254
8782735929,f,25,english,5,4,french,2024-02-13 10:39:26.615494,False,2,355,sounds\french\audio/french_641.wav,"[[  0.         -92.89939655]
 [  0.1         80.14352585]
 [  0.2         74.03041043]
 [  0.25666667  18.97683281]]","[[0.         0.72916007]
 [0.1        1.01323436]
 [0.2        0.998205  ]
 [0.25666667 0.30086371]]",0,0.048
8782735929,f,25,english,5,4,french,2024-02-13 10:39:26.615494,False,2,356,sounds\french\audio/french_924.wav,"[[  0.          19.51956159]
 [  0.1        -22.93629197]
 [  0.2         72.54596199]
 [  0.25666667  13.27885696]]","[[0.         0.29322561]
 [0.1        0.34885274]
 [0.2        0.3497483 ]
 [0.25666667 0.14375838]]",0,0.201
8782735929,f,25,english,5,4,french,2024-02-13 10:39:26.615494,False,2,357,sounds\french\audio/french_764.wav,"[[  0.          -8.95969579]
 [  0.1          5.11158076]
 [  0.2          3.7358826 ]
 [  0.25666667 -14.74224302]]","[[0.         0.46272501]
 [0.1        1.84250995]
 [0.2        0.71585727]
 [0.25666667 0.58101627]]",1,0.552
8782735929,f,25,english,5,4,french,2024-02-13 10:39:26.615494,False,2,358,sounds\french\audio/french_874.wav,"[[  0.         -35.96007818]
 [  0.1         93.27546243]
 [  0.2        -82.54110259]
 [  0.25666667   1.86870901]]","[[0.         0.94126631]
 [0.1        1.47253108]
 [0.2        1.71868685]
 [0.25666667 0.93280664]]",0,0.501
8782735929,f,25,english,5,4,french,2024-02-13 10:39:26.615494,False,2,359,sounds\french\audio/french_284.wav,"[[  0.           9.11616736]
 [  0.1          1.28278273]
 [  0.2         64.48623036]
 [  0.25666667 -18.83957989]]","[[0.         0.794635  ]
 [0.1        0.64071903]
 [0.2        0.85736223]
 [0.25666667 1.30798049]]",1,0.133
8782735929,f,25,english,5,4,french,2024-02-13 10:39:26.615494,False,2,360,sounds\french\audio/french_114.wav,"[[ 0.         36.61172137]
 [ 0.1         1.16528437]
 [ 0.2        91.5106094 ]
 [ 0.25666667 23.38458366]]","[[0.         1.1665973 ]
 [0.1        0.29978092]
 [0.2        1.30847922]
 [0.25666667 1.1533172 ]]",0,0.501
8782735929,f,25,english,5,4,french,2024-02-13 10:39:26.615494,False,2,361,sounds\french\audio/french_602.wav,"[[ 0.         88.5156033 ]
 [ 0.1        50.37840389]
 [ 0.2        41.99983627]
 [ 0.25666667 11.33520808]]","[[0.         1.15034926]
 [0.1        0.70361943]
 [0.2        1.85629911]
 [0.25666667 0.32194213]]",1,0.015
8782735929,f,25,english,5,4,french,2024-02-13 10:39:26.615494,False,2,362,sounds\french\audio/french_534.wav,"[[  0.          96.41776506]
 [  0.1        -53.52749338]
 [  0.2         51.10087415]
 [  0.25666667  27.39654188]]","[[0.         0.28463844]
 [0.1        1.69872517]
 [0.2        0.80798533]
 [0.25666667 1.79838566]]",0,0.636
8782735929,f,25,english,5,4,french,2024-02-13 10:39:26.615494,False,2,363,sounds\french\audio/french_489.wav,"[[  0.           0.49645075]
 [  0.1        -49.42249353]
 [  0.2          3.0196593 ]
 [  0.25666667  11.9492669 ]]","[[0.         0.76062229]
 [0.1        1.72041063]
 [0.2        0.72496435]
 [0.25666667 0.84736567]]",1,0.041
8782735929,f,25,english,5,4,french,2024-02-13 10:39:26.615494,False,2,364,sounds\french\audio/french_98.wav,"[[  0.          -5.34356544]
 [  0.1        -51.77157259]
 [  0.2         16.6615471 ]
 [  0.25666667 -37.68560636]]","[[0.         0.47275823]
 [0.1        0.98771666]
 [0.2        0.01400035]
 [0.25666667 0.42827786]]",0,0.182
8782735929,f,25,english,5,4,french,2024-02-13 10:39:26.615494,False,2,365,sounds\french\audio/french_192.wav,"[[  0.          73.17690414]
 [  0.1         14.65884197]
 [  0.2         -6.29840632]
 [  0.25666667 -32.28340249]]","[[0.         1.47156363]
 [0.1        0.92412776]
 [0.2        0.27182316]
 [0.25666667 1.34820636]]",1,0.506
8782735929,f,25,english,5,4,french,2024-02-13 10:39:26.615494,False,2,366,sounds\french\audio/french_393.wav,"[[  0.          -4.17853165]
 [  0.1        -52.7672758 ]
 [  0.2        -35.65632354]
 [  0.25666667 -38.23501308]]","[[0.         1.11841435]
 [0.1        1.14982518]
 [0.2        1.99911749]
 [0.25666667 0.07284053]]",0,0.559
8782735929,f,25,english,5,4,french,2024-02-13 10:39:26.615494,False,2,367,sounds\french\audio/french_379.wav,"[[  0.          22.44752401]
 [  0.1         26.97339804]
 [  0.2         53.43729248]
 [  0.25666667 -63.2778902 ]]","[[0.         1.77059304]
 [0.1        0.69418911]
 [0.2        0.76703539]
 [0.25666667 0.57510346]]",1,0.474
8782735929,f,25,english,5,4,french,2024-02-13 10:39:26.615494,False,2,368,sounds\french\audio/french_5.wav,"[[  0.          -2.8714843 ]
 [  0.1        -50.9441672 ]
 [  0.2         56.21180826]
 [  0.25666667 -57.18619957]]","[[0.         1.07181682]
 [0.1        0.56733338]
 [0.2        0.26773361]
 [0.25666667 1.97613039]]",1,0.396
8782735929,f,25,english,5,4,french,2024-02-13 10:39:26.615494,False,2,369,sounds\french\audio/french_949.wav,"[[  0.          29.18752906]
 [  0.1        -67.27756955]
 [  0.2         55.26419326]
 [  0.25666667  11.27327126]]","[[0.         0.08608659]
 [0.1        1.93613179]
 [0.2        0.81834021]
 [0.25666667 0.09029871]]",1,0.286
8782735929,f,25,english,5,4,french,2024-02-13 10:39:26.615494,False,2,370,sounds\french\audio/french_392.wav,"[[  0.         -11.14407327]
 [  0.1        -20.38505303]
 [  0.2         21.27154916]
 [  0.25666667 -29.54267832]]","[[0.         1.55151156]
 [0.1        0.49285085]
 [0.2        0.56092788]
 [0.25666667 1.54424804]]",1,0.171
8782735929,f,25,english,5,4,french,2024-02-13 10:39:26.615494,False,2,371,sounds\french\audio/french_422.wav,"[[ 0.         84.96144948]
 [ 0.1        -4.96569357]
 [ 0.2         9.38898655]
 [ 0.25666667 -4.34292742]]","[[0.         0.57918651]
 [0.1        1.20973004]
 [0.2        0.40935242]
 [0.25666667 0.41859168]]",1,0.367
8782735929,f,25,english,5,4,french,2024-02-13 10:39:26.615494,False,2,372,sounds\french\audio/french_531.wav,"[[  0.          76.38960861]
 [  0.1        -14.4624089 ]
 [  0.2         97.56303867]
 [  0.25666667  -4.62103118]]","[[0.         1.48422918]
 [0.1        0.31285067]
 [0.2        0.71358588]
 [0.25666667 0.65318394]]",1,0.122
8782735929,f,25,english,5,4,french,2024-02-13 10:39:26.615494,False,2,373,sounds\french\audio/french_48.wav,"[[  0.          39.79198264]
 [  0.1         66.47948286]
 [  0.2         57.39946228]
 [  0.25666667 -39.27972342]]","[[0.         1.78905862]
 [0.1        1.41226809]
 [0.2        1.54721415]
 [0.25666667 0.33574946]]",0,0.118
8782735929,f,25,english,5,4,french,2024-02-13 10:39:26.615494,False,2,374,sounds\french\audio/french_660.wav,"[[  0.         -75.02051955]
 [  0.1        -36.41679043]
 [  0.2        -45.60366398]
 [  0.25666667  13.07838485]]","[[0.         0.75293762]
 [0.1        0.97452375]
 [0.2        1.88941483]
 [0.25666667 0.53297117]]",1,0.016
8782735929,f,25,english,5,4,french,2024-02-13 10:39:26.615494,False,2,375,sounds\french\audio/french_584.wav,"[[  0.          69.79321503]
 [  0.1        -52.7276802 ]
 [  0.2        -55.3142281 ]
 [  0.25666667 -51.83811077]]","[[0.         1.17746001]
 [0.1        1.52318031]
 [0.2        1.91796719]
 [0.25666667 0.8668783 ]]",1,0.481
8782735929,f,25,english,5,4,french,2024-02-13 10:39:26.615494,False,2,376,sounds\french\audio/french_916.wav,"[[  0.         -87.80939928]
 [  0.1         68.91902004]
 [  0.2         20.82551071]
 [  0.25666667 -10.41164891]]","[[0.         0.07100827]
 [0.1        0.08308916]
 [0.2        0.48942561]
 [0.25666667 0.67278955]]",1,0.291
8782735929,f,25,english,5,4,french,2024-02-13 10:39:26.615494,False,2,377,sounds\french\audio/french_784.wav,"[[  0.         -39.52347826]
 [  0.1        -77.42465605]
 [  0.2          4.05747108]
 [  0.25666667  56.71695408]]","[[0.         1.29179639]
 [0.1        1.30882922]
 [0.2        1.87909974]
 [0.25666667 1.07202912]]",1,0.079
8782735929,f,25,english,5,4,french,2024-02-13 10:39:26.615494,False,2,378,sounds\french\audio/french_541.wav,"[[  0.          53.31308138]
 [  0.1         48.16539561]
 [  0.2        -38.85260984]
 [  0.25666667  47.13501746]]","[[0.         1.84251248]
 [0.1        0.97729738]
 [0.2        1.28801687]
 [0.25666667 0.86548213]]",1,0.011
8782735929,f,25,english,5,4,french,2024-02-13 10:39:26.615494,False,2,379,sounds\french\audio/french_551.wav,"[[  0.         -87.08357851]
 [  0.1         71.56090061]
 [  0.2        -46.55712742]
 [  0.25666667 -57.93002391]]","[[0.         1.2328931 ]
 [0.1        1.28136219]
 [0.2        0.3781059 ]
 [0.25666667 1.42095582]]",1,0.209
8782735929,f,25,english,5,4,french,2024-02-13 10:39:26.615494,False,2,380,sounds\french\audio/french_285.wav,"[[  0.         -14.06099989]
 [  0.1         -5.26283055]
 [  0.2         18.02137941]
 [  0.25666667  46.27962364]]","[[0.         0.21649577]
 [0.1        0.66520183]
 [0.2        0.4490454 ]
 [0.25666667 1.92778075]]",1,0.068
8782735929,f,25,english,5,4,french,2024-02-13 10:39:26.615494,False,2,381,sounds\french\audio/french_858.wav,"[[  0.         -70.8749608 ]
 [  0.1        -68.92821451]
 [  0.2         48.1063746 ]
 [  0.25666667   0.98463207]]","[[0.         0.88986318]
 [0.1        0.34092676]
 [0.2        0.38776381]
 [0.25666667 1.26771376]]",1,0.223
8782735929,f,25,english,5,4,french,2024-02-13 10:39:26.615494,False,2,382,sounds\french\audio/french_853.wav,"[[  0.         -51.03576257]
 [  0.1         41.51658453]
 [  0.2        -92.89610403]
 [  0.25666667 -36.6460181 ]]","[[0.         1.07641583]
 [0.1        0.77538457]
 [0.2        0.19170679]
 [0.25666667 1.18241166]]",1,0.148
8782735929,f,25,english,5,4,french,2024-02-13 10:39:26.615494,False,2,383,sounds\french\audio/french_353.wav,"[[  0.         -27.01804801]
 [  0.1         16.22716876]
 [  0.2        -38.75476954]
 [  0.25666667  38.92446625]]","[[0.         0.51521002]
 [0.1        1.40915564]
 [0.2        1.13160084]
 [0.25666667 0.21009684]]",1,0.041
8782735929,f,25,english,5,4,french,2024-02-13 10:39:26.615494,False,2,384,sounds\french\audio/french_461.wav,"[[  0.          76.34817382]
 [  0.1          2.37579461]
 [  0.2        -59.90047781]
 [  0.25666667  20.08623444]]","[[0.         0.72953599]
 [0.1        1.5415695 ]
 [0.2        1.01078515]
 [0.25666667 1.02737445]]",0,0.694
8782735929,f,25,english,5,4,french,2024-02-13 10:39:26.615494,False,2,385,sounds\french\audio/french_591.wav,"[[  0.           2.66615607]
 [  0.1        -24.26502045]
 [  0.2        -31.81388833]
 [  0.25666667  34.70768216]]","[[0.         1.05020949]
 [0.1        0.55521736]
 [0.2        0.20807215]
 [0.25666667 1.08119284]]",1,0.409
8782735929,f,25,english,5,4,french,2024-02-13 10:39:26.615494,False,2,386,sounds\french\audio/french_714.wav,"[[  0.          77.35355583]
 [  0.1        -16.5812175 ]
 [  0.2        -79.42314022]
 [  0.25666667  64.71981705]]","[[0.         0.35690042]
 [0.1        0.7400083 ]
 [0.2        1.17849399]
 [0.25666667 1.38365213]]",0,0.501
8782735929,f,25,english,5,4,french,2024-02-13 10:39:26.615494,False,2,387,sounds\french\audio/french_922.wav,"[[  0.          16.31592569]
 [  0.1         -2.28258737]
 [  0.2        -89.56675227]
 [  0.25666667  35.85711901]]","[[0.         1.06783245]
 [0.1        0.48563761]
 [0.2        1.02625397]
 [0.25666667 0.82092749]]",1,0.655
8782735929,f,25,english,5,4,french,2024-02-13 10:39:26.615494,False,2,388,sounds\french\audio/french_995.wav,"[[  0.         -29.39777781]
 [  0.1         22.57403903]
 [  0.2        -65.41348422]
 [  0.25666667  24.23364448]]","[[0.         0.04069973]
 [0.1        0.75529124]
 [0.2        0.72194837]
 [0.25666667 0.85657711]]",0,0.183
8782735929,f,25,english,5,4,french,2024-02-13 10:39:26.615494,False,2,389,sounds\french\audio/french_825.wav,"[[ 0.         84.83698811]
 [ 0.1        58.10246948]
 [ 0.2        95.28795352]
 [ 0.25666667 40.96055212]]","[[0.         1.37161619]
 [0.1        1.88160769]
 [0.2        0.7228962 ]
 [0.25666667 1.18109596]]",1,0.566
8782735929,f,25,english,5,4,french,2024-02-13 10:39:26.615494,False,2,390,sounds\french\audio/french_302.wav,"[[  0.           8.4067376 ]
 [  0.1        -29.32780789]
 [  0.2        -43.35590711]
 [  0.25666667 -44.50549756]]","[[0.         0.06791418]
 [0.1        1.46578571]
 [0.2        1.81098556]
 [0.25666667 1.40235265]]",0,0.426
8782735929,f,25,english,5,4,french,2024-02-13 10:39:26.615494,False,2,391,sounds\french\audio/french_140.wav,"[[  0.          88.20971648]
 [  0.1        -47.21457526]
 [  0.2        -33.13299566]
 [  0.25666667   6.89149494]]","[[0.         1.40468934]
 [0.1        0.07517377]
 [0.2        0.96987146]
 [0.25666667 0.45515396]]",1,0.264
8782735929,f,25,english,5,4,french,2024-02-13 10:39:26.615494,False,2,392,sounds\french\audio/french_661.wav,"[[  0.          34.1047988 ]
 [  0.1        -45.42737183]
 [  0.2        -32.96226792]
 [  0.25666667  51.87575508]]","[[0.         1.29957539]
 [0.1        0.81809843]
 [0.2        1.39938296]
 [0.25666667 1.33634107]]",0,0.54
8782735929,f,25,english,5,4,french,2024-02-13 10:39:26.615494,False,2,393,sounds\french\audio/french_602.wav,"[[ 0.         88.5156033 ]
 [ 0.1        50.37840389]
 [ 0.2        41.99983627]
 [ 0.25666667 11.33520808]]","[[0.         1.15034926]
 [0.1        0.70361943]
 [0.2        1.85629911]
 [0.25666667 0.32194213]]",1,0.034
8782735929,f,25,english,5,4,french,2024-02-13 10:39:26.615494,False,2,394,sounds\french\audio/french_386.wav,"[[  0.          50.68041389]
 [  0.1         19.37586599]
 [  0.2          0.19752764]
 [  0.25666667 -78.73875249]]","[[0.         0.75883449]
 [0.1        1.33167931]
 [0.2        0.89836148]
 [0.25666667 0.64515466]]",0,0.296
8782735929,f,25,english,5,4,french,2024-02-13 10:39:26.615494,False,2,395,sounds\french\audio/french_985.wav,"[[  0.          29.21663761]
 [  0.1        -71.61154632]
 [  0.2         41.30472765]
 [  0.25666667 -19.1628823 ]]","[[0.         0.89782151]
 [0.1        0.27969284]
 [0.2        1.11185271]
 [0.25666667 1.39441914]]",1,0.219
8782735929,f,25,english,5,4,french,2024-02-13 10:39:26.615494,False,2,396,sounds\french\audio/french_580.wav,"[[  0.          27.05941303]
 [  0.1        -10.3346088 ]
 [  0.2        -24.27512535]
 [  0.25666667  34.7313677 ]]","[[0.         0.35053576]
 [0.1        1.97169455]
 [0.2        0.90308202]
 [0.25666667 0.94790865]]",0,0.262
8782735929,f,25,english,5,4,french,2024-02-13 10:39:26.615494,False,2,397,sounds\french\audio/french_299.wav,"[[  0.          12.52470623]
 [  0.1        -97.26544336]
 [  0.2        -80.62903972]
 [  0.25666667  73.47257664]]","[[0.         1.64482663]
 [0.1        1.84069115]
 [0.2        0.25110426]
 [0.25666667 1.45765737]]",1,0.052
8782735929,f,25,english,5,4,french,2024-02-13 10:39:26.615494,False,2,398,sounds\french\audio/french_50.wav,"[[  0.         -85.65055263]
 [  0.1         -8.41774185]
 [  0.2         31.4658541 ]
 [  0.25666667  98.77299977]]","[[0.         1.56155391]
 [0.1        0.5849625 ]
 [0.2        1.04346227]
 [0.25666667 0.72937699]]",0,0.06
8782735929,f,25,english,5,4,french,2024-02-13 10:39:26.615494,False,2,399,sounds\french\audio/french_495.wav,"[[  0.          93.48002859]
 [  0.1         99.142871  ]
 [  0.2        -33.98102163]
 [  0.25666667  38.68354094]]","[[0.         1.03648483]
 [0.1        1.23043948]
 [0.2        1.1332488 ]
 [0.25666667 0.62015381]]",1,0.272
8782735929,f,25,english,5,4,french,2024-02-13 10:39:26.615494,False,2,400,sounds\french\audio/french_231.wav,"[[  0.          15.23586761]
 [  0.1         15.03275874]
 [  0.2        -80.75641997]
 [  0.25666667 -36.14562296]]","[[0.         1.95048297]
 [0.1        1.45451509]
 [0.2        1.67801628]
 [0.25666667 1.39710855]]",1,0.042
8782735929,f,25,english,5,4,french,2024-02-13 10:39:26.615494,False,2,401,sounds\french\audio/french_612.wav,"[[  0.          43.10783066]
 [  0.1         -4.14995098]
 [  0.2         22.17563662]
 [  0.25666667 -48.75850842]]","[[0.         0.49686358]
 [0.1        1.10500502]
 [0.2        0.22222502]
 [0.25666667 1.14111641]]",1,0.209
8782735929,f,25,english,5,4,french,2024-02-13 10:39:26.615494,False,2,402,sounds\french\audio/french_962.wav,"[[  0.         -23.88621243]
 [  0.1         -2.32674089]
 [  0.2         99.5739753 ]
 [  0.25666667 -60.89946795]]","[[0.         0.58686494]
 [0.1        1.96763724]
 [0.2        0.1339284 ]
 [0.25666667 0.14371278]]",1,0.314
8782735929,f,25,english,5,4,french,2024-02-13 10:39:26.615494,False,2,403,sounds\french\audio/french_591.wav,"[[  0.           2.66615607]
 [  0.1        -24.26502045]
 [  0.2        -31.81388833]
 [  0.25666667  34.70768216]]","[[0.         1.05020949]
 [0.1        0.55521736]
 [0.2        0.20807215]
 [0.25666667 1.08119284]]",1,0.466
8782735929,f,25,english,5,4,french,2024-02-13 10:39:26.615494,False,2,404,sounds\french\audio/french_321.wav,"[[  0.         -11.01764706]
 [  0.1          9.90480799]
 [  0.2         44.10153768]
 [  0.25666667  10.91862898]]","[[0.         1.39443046]
 [0.1        1.51913173]
 [0.2        0.74961169]
 [0.25666667 1.74221707]]",0,0.163
8782735929,f,25,english,5,4,french,2024-02-13 10:39:26.615494,False,2,405,sounds\french\audio/french_530.wav,"[[  0.         -48.266975  ]
 [  0.1         10.53522492]
 [  0.2        -70.81391458]
 [  0.25666667 -13.69241617]]","[[0.         0.22885815]
 [0.1        0.99708564]
 [0.2        0.43471164]
 [0.25666667 0.61022423]]",0,0.403
8782735929,f,25,english,5,4,french,2024-02-13 10:39:26.615494,False,2,406,sounds\french\audio/french_33.wav,"[[  0.          57.46883034]
 [  0.1        -37.75467747]
 [  0.2         37.26126111]
 [  0.25666667  30.73694303]]","[[0.         0.51774601]
 [0.1        0.34297047]
 [0.2        0.88429292]
 [0.25666667 0.45040489]]",0,0.306
8782735929,f,25,english,5,4,french,2024-02-13 10:39:26.615494,False,2,407,sounds\french\audio/french_796.wav,"[[  0.         -38.09805788]
 [  0.1        -51.81358868]
 [  0.2         88.47322764]
 [  0.25666667 -34.90405205]]","[[0.         1.93486201]
 [0.1        1.49994235]
 [0.2        1.42581223]
 [0.25666667 0.47367866]]",0,0.445
8782735929,f,25,english,5,4,french,2024-02-13 10:39:26.615494,False,2,408,sounds\french\audio/french_18.wav,"[[  0.          29.29326365]
 [  0.1        -65.9497706 ]
 [  0.2        -68.38187686]
 [  0.25666667  26.32477662]]","[[0.         1.56476478]
 [0.1        0.7748919 ]
 [0.2        0.73946843]
 [0.25666667 1.33435109]]",0,0.327
8782735929,f,25,english,5,4,french,2024-02-13 10:39:26.615494,False,2,409,sounds\french\audio/french_84.wav,"[[  0.         -54.85806939]
 [  0.1         52.61671493]
 [  0.2         -3.50081054]
 [  0.25666667 -40.76156086]]","[[0.         1.84853156]
 [0.1        1.627657  ]
 [0.2        1.36210905]
 [0.25666667 0.69575672]]",0,0.161
8782735929,f,25,english,5,4,french,2024-02-13 10:39:26.615494,False,2,410,sounds\french\audio/french_161.wav,"[[  0.          61.58397479]
 [  0.1         44.64347815]
 [  0.2        -11.65199572]
 [  0.25666667  76.59463145]]","[[0.         1.02686065]
 [0.1        1.42523068]
 [0.2        0.36377374]
 [0.25666667 0.41836879]]",0,0.052
8782735929,f,25,english,5,4,french,2024-02-13 10:39:26.615494,False,2,411,sounds\french\audio/french_648.wav,"[[  0.          45.21338473]
 [  0.1         35.84509453]
 [  0.2        -67.01500747]
 [  0.25666667 -57.94291625]]","[[0.         1.3610165 ]
 [0.1        0.40626065]
 [0.2        0.74636895]
 [0.25666667 1.66903202]]",0,0.409
8782735929,f,25,english,5,4,french,2024-02-13 10:39:26.615494,False,2,412,sounds\french\audio/french_646.wav,"[[  0.          98.47808426]
 [  0.1         98.7741611 ]
 [  0.2        -51.76092723]
 [  0.25666667  53.55118827]]","[[0.         1.66300853]
 [0.1        0.58876545]
 [0.2        0.47940067]
 [0.25666667 0.48942216]]",1,0.206
8782735929,f,25,english,5,4,french,2024-02-13 10:39:26.615494,False,2,413,sounds\french\audio/french_303.wav,"[[  0.         -37.35678584]
 [  0.1        -60.74389767]
 [  0.2         74.2341812 ]
 [  0.25666667  74.10759125]]","[[0.         1.71041427]
 [0.1        0.8709471 ]
 [0.2        1.02400634]
 [0.25666667 0.07072526]]",0,0.147
8782735929,f,25,english,5,4,french,2024-02-13 10:39:26.615494,False,2,414,sounds\french\audio/french_6.wav,"[[  0.          67.46153681]
 [  0.1        -88.84735091]
 [  0.2        -91.91919173]
 [  0.25666667  29.60258617]]","[[0.         1.53277947]
 [0.1        1.45938327]
 [0.2        0.73643418]
 [0.25666667 1.91810532]]",1,0.113
8782735929,f,25,english,5,4,french,2024-02-13 10:39:26.615494,False,2,415,sounds\french\audio/french_740.wav,"[[  0.         -63.22643447]
 [  0.1        -76.79793208]
 [  0.2        -90.89358737]
 [  0.25666667 -87.57687491]]","[[0.         1.41698272]
 [0.1        1.15791198]
 [0.2        1.97460827]
 [0.25666667 0.61281255]]",1,0.1
8782735929,f,25,english,5,4,french,2024-02-13 10:39:26.615494,False,2,416,sounds\french\audio/french_861.wav,"[[  0.         -47.60379447]
 [  0.1          8.05593032]
 [  0.2        -18.27545885]
 [  0.25666667  49.68481265]]","[[0.         1.17561317]
 [0.1        0.12143354]
 [0.2        0.42948795]
 [0.25666667 0.3832977 ]]",1,0.209
8782735929,f,25,english,5,4,french,2024-02-13 10:39:26.615494,False,2,417,sounds\french\audio/french_92.wav,"[[  0.          59.20081487]
 [  0.1         95.6548793 ]
 [  0.2        -36.19224385]
 [  0.25666667  68.24894855]]","[[0.         1.21926368]
 [0.1        1.56053314]
 [0.2        1.38632022]
 [0.25666667 1.29084252]]",1,0.439
8782735929,f,25,english,5,4,french,2024-02-13 10:39:26.615494,False,2,418,sounds\french\audio/french_702.wav,"[[  0.         -53.8337347 ]
 [  0.1         13.17722269]
 [  0.2        -63.63948694]
 [  0.25666667  -7.77006894]]","[[0.         0.65995653]
 [0.1        1.48591365]
 [0.2        1.16262137]
 [0.25666667 1.49403865]]",1,0.036
8782735929,f,25,english,5,4,french,2024-02-13 10:39:26.615494,False,2,419,sounds\french\audio/french_338.wav,"[[  0.         -59.42111132]
 [  0.1        -69.70478814]
 [  0.2        -12.60920347]
 [  0.25666667 -82.44797384]]","[[0.         1.60060286]
 [0.1        0.22517269]
 [0.2        1.52190999]
 [0.25666667 0.82265445]]",1,0.045
8782735929,f,25,english,5,4,french,2024-02-13 10:39:26.615494,False,2,420,sounds\french\audio/french_459.wav,"[[  0.           4.79398058]
 [  0.1         85.90612859]
 [  0.2        -69.41023595]
 [  0.25666667 -22.07588814]]","[[0.         1.10654006]
 [0.1        1.2996969 ]
 [0.2        0.20520219]
 [0.25666667 1.17361701]]",1,0.944
8782735929,f,25,english,5,4,french,2024-02-13 10:39:26.615494,False,2,421,sounds\french\audio/french_964.wav,"[[  0.         -56.07629317]
 [  0.1        -19.45500988]
 [  0.2         97.83653085]
 [  0.25666667  70.5600413 ]]","[[0.         1.19943116]
 [0.1        0.89458005]
 [0.2        1.94180509]
 [0.25666667 0.3273771 ]]",0,0.446
8782735929,f,25,english,5,4,french,2024-02-13 10:39:26.615494,False,2,422,sounds\french\audio/french_662.wav,"[[ 0.         69.59464859]
 [ 0.1        92.96629611]
 [ 0.2        83.22574806]
 [ 0.25666667 59.78978888]]","[[0.         0.59800434]
 [0.1        0.25880336]
 [0.2        0.52365302]
 [0.25666667 1.67953256]]",0,0.325
8782735929,f,25,english,5,4,french,2024-02-13 10:39:26.615494,False,2,423,sounds\french\audio/french_513.wav,"[[  0.          84.63539274]
 [  0.1         36.6114333 ]
 [  0.2         14.49628471]
 [  0.25666667 -17.17346171]]","[[0.         1.68726635]
 [0.1        0.88690679]
 [0.2        0.37350839]
 [0.25666667 1.74122924]]",1,0.659
8782735929,f,25,english,5,4,french,2024-02-13 10:39:26.615494,False,2,424,sounds\french\audio/french_705.wav,"[[  0.         -31.52083019]
 [  0.1         93.24854214]
 [  0.2        -36.26217339]
 [  0.25666667  58.31905924]]","[[0.         1.71356233]
 [0.1        0.26324818]
 [0.2        0.66385994]
 [0.25666667 1.85027868]]",1,0.572
8782735929,f,25,english,5,4,french,2024-02-13 10:39:26.615494,False,2,425,sounds\french\audio/french_151.wav,"[[  0.          71.76568175]
 [  0.1        -74.84502799]
 [  0.2        -35.2682716 ]
 [  0.25666667 -20.9501034 ]]","[[0.         1.0902049 ]
 [0.1        0.763019  ]
 [0.2        0.78938414]
 [0.25666667 0.23047004]]",1,0.685
8782735929,f,25,english,5,4,french,2024-02-13 10:39:26.615494,False,2,426,sounds\french\audio/french_28.wav,"[[  0.         -42.04092007]
 [  0.1        -47.89065573]
 [  0.2         88.67668081]
 [  0.25666667  23.25138011]]","[[0.         0.8096396 ]
 [0.1        0.68168646]
 [0.2        0.86103635]
 [0.25666667 1.13642067]]",0,0.588
8782735929,f,25,english,5,4,french,2024-02-13 10:39:26.615494,False,2,427,sounds\french\audio/french_238.wav,"[[ 0.         -7.77377299]
 [ 0.1        24.08862247]
 [ 0.2        87.10581208]
 [ 0.25666667 73.57906518]]","[[0.         1.79398275]
 [0.1        0.12404774]
 [0.2        0.76943839]
 [0.25666667 1.68164748]]",1,0.203
8782735929,f,25,english,5,4,french,2024-02-13 10:39:26.615494,False,2,428,sounds\french\audio/french_477.wav,"[[  0.         -42.83355645]
 [  0.1        -62.82113547]
 [  0.2         87.24330329]
 [  0.25666667  51.53483355]]","[[0.         0.5966768 ]
 [0.1        0.86071515]
 [0.2        1.68377915]
 [0.25666667 1.05396705]]",1,0.14
8782735929,f,25,english,5,4,french,2024-02-13 10:39:26.615494,False,2,429,sounds\french\audio/french_651.wav,"[[  0.         -39.76270633]
 [  0.1         98.43983978]
 [  0.2        -35.93188367]
 [  0.25666667 -13.56550518]]","[[0.         0.57054307]
 [0.1        0.47887101]
 [0.2        1.36476361]
 [0.25666667 1.70592369]]",1,0.196
8782735929,f,25,english,5,4,french,2024-02-13 10:39:26.615494,False,2,430,sounds\french\audio/french_333.wav,"[[ 0.         10.14997655]
 [ 0.1        13.88697857]
 [ 0.2         3.86253466]
 [ 0.25666667 47.83568498]]","[[0.         0.96169616]
 [0.1        0.82290304]
 [0.2        0.18816998]
 [0.25666667 1.34102864]]",1,0.242
8782735929,f,25,english,5,4,french,2024-02-13 10:39:26.615494,False,2,431,sounds\french\audio/french_84.wav,"[[  0.         -54.85806939]
 [  0.1         52.61671493]
 [  0.2         -3.50081054]
 [  0.25666667 -40.76156086]]","[[0.         1.84853156]
 [0.1        1.627657  ]
 [0.2        1.36210905]
 [0.25666667 0.69575672]]",1,0.476
8782735929,f,25,english,5,4,french,2024-02-13 10:39:26.615494,False,2,432,sounds\french\audio/french_61.wav,"[[  0.          65.32887924]
 [  0.1         45.09641809]
 [  0.2        -37.75339878]
 [  0.25666667  87.5089899 ]]","[[0.         1.15653785]
 [0.1        1.72373813]
 [0.2        1.38726196]
 [0.25666667 0.41594812]]",1,0.236
8782735929,f,25,english,5,4,french,2024-02-13 10:39:26.615494,False,2,433,sounds\french\audio/french_764.wav,"[[  0.          -8.95969579]
 [  0.1          5.11158076]
 [  0.2          3.7358826 ]
 [  0.25666667 -14.74224302]]","[[0.         0.46272501]
 [0.1        1.84250995]
 [0.2        0.71585727]
 [0.25666667 0.58101627]]",1,0.203
8782735929,f,25,english,5,4,french,2024-02-13 10:39:26.615494,False,2,434,sounds\french\audio/french_276.wav,"[[  0.         -30.59490391]
 [  0.1         35.14119383]
 [  0.2        -47.54137466]
 [  0.25666667 -36.46330553]]","[[0.         1.59191255]
 [0.1        1.08920427]
 [0.2        1.15204711]
 [0.25666667 0.56107217]]",1,0.037
8782735929,f,25,english,5,4,french,2024-02-13 10:39:26.615494,False,2,435,sounds\french\audio/french_240.wav,"[[  0.          77.68768834]
 [  0.1        -29.82643761]
 [  0.2         18.33689373]
 [  0.25666667  24.70133008]]","[[0.         0.69241663]
 [0.1        1.16068826]
 [0.2        0.98486954]
 [0.25666667 0.89191813]]",1,0.297
8782735929,f,25,english,5,4,french,2024-02-13 10:39:26.615494,False,2,436,sounds\french\audio/french_504.wav,"[[  0.          -0.09953376]
 [  0.1        -56.24331475]
 [  0.2        -79.12350098]
 [  0.25666667  64.25656878]]","[[0.         1.58426169]
 [0.1        0.92396286]
 [0.2        0.70640993]
 [0.25666667 0.80299587]]",1,0.149
8782735929,f,25,english,5,4,french,2024-02-13 10:39:26.615494,False,2,437,sounds\french\audio/french_753.wav,"[[  0.         -59.12708259]
 [  0.1        -84.15149344]
 [  0.2        -30.31197396]
 [  0.25666667 -23.11550189]]","[[0.         1.15236918]
 [0.1        1.24278656]
 [0.2        0.56738218]
 [0.25666667 0.65045955]]",1,0.239
8782735929,f,25,english,5,4,french,2024-02-13 10:39:26.615494,False,2,438,sounds\french\audio/french_445.wav,"[[  0.           8.73559539]
 [  0.1        -22.15313252]
 [  0.2         26.0955013 ]
 [  0.25666667  22.70157082]]","[[0.         0.8054478 ]
 [0.1        1.73211315]
 [0.2        0.21896619]
 [0.25666667 0.54256666]]",1,0.036
8782735929,f,25,english,5,4,french,2024-02-13 10:39:26.615494,False,2,439,sounds\french\audio/french_399.wav,"[[ 0.         60.88638106]
 [ 0.1        69.51712014]
 [ 0.2        11.9354414 ]
 [ 0.25666667 71.82951649]]","[[0.         0.92905576]
 [0.1        1.13956386]
 [0.2        0.89341089]
 [0.25666667 1.81253855]]",0,0.693
8782735929,f,25,english,5,4,french,2024-02-13 10:39:26.615494,False,2,440,sounds\french\audio/french_657.wav,"[[  0.          99.76716584]
 [  0.1         11.51898435]
 [  0.2        -43.45408234]
 [  0.25666667  22.46427071]]","[[0.         0.85695778]
 [0.1        1.00645436]
 [0.2        0.73989588]
 [0.25666667 1.57217431]]",1,0.14
8782735929,f,25,english,5,4,french,2024-02-13 10:39:26.615494,False,2,441,sounds\french\audio/french_776.wav,"[[  0.          -9.17095967]
 [  0.1        -70.57850226]
 [  0.2         63.21349252]
 [  0.25666667  59.47578694]]","[[0.         0.42962635]
 [0.1        1.70698124]
 [0.2        1.25010697]
 [0.25666667 1.52671833]]",0,0.307
8782735929,f,25,english,5,4,french,2024-02-13 10:39:26.615494,False,2,442,sounds\french\audio/french_924.wav,"[[  0.          19.51956159]
 [  0.1        -22.93629197]
 [  0.2         72.54596199]
 [  0.25666667  13.27885696]]","[[0.         0.29322561]
 [0.1        0.34885274]
 [0.2        0.3497483 ]
 [0.25666667 0.14375838]]",0,0.572
8782735929,f,25,english,5,4,french,2024-02-13 10:39:26.615494,False,2,443,sounds\french\audio/french_370.wav,"[[  0.         -31.30279389]
 [  0.1         96.47349065]
 [  0.2         23.18843017]
 [  0.25666667  81.62933181]]","[[0.         1.88170435]
 [0.1        0.75067332]
 [0.2        1.06279648]
 [0.25666667 0.58974769]]",0,0.366
8782735929,f,25,english,5,4,french,2024-02-13 10:39:26.615494,False,2,444,sounds\french\audio/french_849.wav,"[[  0.         -28.99181256]
 [  0.1        -23.83365043]
 [  0.2        -51.88410218]
 [  0.25666667 -29.11212869]]","[[0.         1.60316931]
 [0.1        0.33831848]
 [0.2        1.05589654]
 [0.25666667 1.53017224]]",1,0.873
8782735929,f,25,english,5,4,french,2024-02-13 10:39:26.615494,False,2,445,sounds\french\audio/french_556.wav,"[[  0.          57.69742807]
 [  0.1         74.69192241]
 [  0.2        -92.88512431]
 [  0.25666667  27.11476112]]","[[0.         1.23910924]
 [0.1        0.49477788]
 [0.2        1.56323012]
 [0.25666667 1.7455964 ]]",0,0.103
8782735929,f,25,english,5,4,french,2024-02-13 10:39:26.615494,False,2,446,sounds\french\audio/french_106.wav,"[[  0.         -80.93311261]
 [  0.1          7.33604761]
 [  0.2         53.45287064]
 [  0.25666667 -26.77526802]]","[[0.         0.79978414]
 [0.1        0.87655026]
 [0.2        1.02362607]
 [0.25666667 1.25354946]]",1,0.053
8782735929,f,25,english,5,4,french,2024-02-13 10:39:26.615494,False,2,447,sounds\french\audio/french_865.wav,"[[  0.          50.32963137]
 [  0.1        -34.20059836]
 [  0.2         -1.26220982]
 [  0.25666667 -35.44054545]]","[[0.         0.72864737]
 [0.1        0.63562985]
 [0.2        0.61823994]
 [0.25666667 1.79442015]]",0,0.073
8782735929,f,25,english,5,4,french,2024-02-13 10:39:26.615494,False,2,448,sounds\french\audio/french_251.wav,"[[ 0.         24.13853868]
 [ 0.1        69.59392202]
 [ 0.2         5.2598313 ]
 [ 0.25666667 49.58604743]]","[[0.         0.84222584]
 [0.1        0.35569373]
 [0.2        1.18426262]
 [0.25666667 1.47594706]]",1,0.151
8782735929,f,25,english,5,4,french,2024-02-13 10:39:26.615494,False,2,449,sounds\french\audio/french_629.wav,"[[  0.          81.54997922]
 [  0.1        -25.83506989]
 [  0.2        -50.62902687]
 [  0.25666667 -69.1271608 ]]","[[0.         0.65130664]
 [0.1        0.18523019]
 [0.2        1.20696076]
 [0.25666667 0.57946161]]",0,0.102
8782735929,f,25,english,5,4,french,2024-02-13 10:39:26.615494,False,2,450,sounds\french\audio/french_540.wav,"[[  0.          64.41538276]
 [  0.1         17.02048616]
 [  0.2        -33.22379056]
 [  0.25666667   6.66749413]]","[[0.         0.51709462]
 [0.1        1.30376576]
 [0.2        0.40148031]
 [0.25666667 1.14865781]]",1,0.038
8782735929,f,25,english,5,4,french,2024-02-13 10:39:26.615494,False,2,451,sounds\french\audio/french_177.wav,"[[  0.         -69.89314337]
 [  0.1          8.10824913]
 [  0.2         41.02901981]
 [  0.25666667  -9.46888932]]","[[0.         1.41470617]
 [0.1        0.24806543]
 [0.2        1.01013957]
 [0.25666667 0.18165289]]",0,0.086
8782735929,f,25,english,5,4,french,2024-02-13 10:39:26.615494,False,2,452,sounds\french\audio/french_216.wav,"[[  0.          94.47877999]
 [  0.1        -35.64680956]
 [  0.2         -6.49582042]
 [  0.25666667  88.58272088]]","[[0.         1.14166801]
 [0.1        0.96477388]
 [0.2        1.30348701]
 [0.25666667 1.4092971 ]]",1,0.344
8782735929,f,25,english,5,4,french,2024-02-13 10:39:26.615494,False,2,453,sounds\french\audio/french_983.wav,"[[  0.         -14.13750987]
 [  0.1         89.20229744]
 [  0.2         38.93652685]
 [  0.25666667  37.63986889]]","[[0.         1.65765615]
 [0.1        0.32114998]
 [0.2        0.52368354]
 [0.25666667 1.60531686]]",0,0.112
8782735929,f,25,english,5,4,french,2024-02-13 10:39:26.615494,False,2,454,sounds\french\audio/french_242.wav,"[[ 0.00000000e+00  1.91317605e+01]
 [ 1.00000000e-01 -4.58995637e+01]
 [ 2.00000000e-01  1.60089686e-02]
 [ 2.56666667e-01  8.82940870e+01]]","[[0.         0.13091957]
 [0.1        1.80487076]
 [0.2        1.56599149]
 [0.25666667 1.35043951]]",1,0.378
8782735929,f,25,english,5,4,french,2024-02-13 10:39:26.615494,False,2,455,sounds\french\audio/french_537.wav,"[[ 0.         24.94182708]
 [ 0.1        44.89034985]
 [ 0.2        79.4977598 ]
 [ 0.25666667 43.46988515]]","[[0.         0.83905816]
 [0.1        0.4078644 ]
 [0.2        1.66123527]
 [0.25666667 0.90238518]]",0,0.042
8782735929,f,25,english,5,4,french,2024-02-13 10:39:26.615494,False,2,456,sounds\french\audio/french_983.wav,"[[  0.         -14.13750987]
 [  0.1         89.20229744]
 [  0.2         38.93652685]
 [  0.25666667  37.63986889]]","[[0.         1.65765615]
 [0.1        0.32114998]
 [0.2        0.52368354]
 [0.25666667 1.60531686]]",1,0.129
8782735929,f,25,english,5,4,french,2024-02-13 10:39:26.615494,False,2,457,sounds\french\audio/french_295.wav,"[[ 0.         98.71232228]
 [ 0.1        19.8777742 ]
 [ 0.2         2.02188034]
 [ 0.25666667 -4.73018768]]","[[0.         1.58912918]
 [0.1        0.8460381 ]
 [0.2        1.72839065]
 [0.25666667 1.75057888]]",0,0.277
8782735929,f,25,english,5,4,french,2024-02-13 10:39:26.615494,False,2,458,sounds\french\audio/french_604.wav,"[[  0.         -11.11210875]
 [  0.1        -13.90326971]
 [  0.2        -78.59226075]
 [  0.25666667  87.42620436]]","[[0.         1.64316359]
 [0.1        0.56968283]
 [0.2        1.3955722 ]
 [0.25666667 0.51982143]]",1,0.046
8782735929,f,25,english,5,4,french,2024-02-13 10:39:26.615494,False,2,459,sounds\french\audio/french_155.wav,"[[  0.         -70.22582879]
 [  0.1         -4.40112263]
 [  0.2         31.24717972]
 [  0.25666667 -33.70292804]]","[[0.         1.51870869]
 [0.1        0.92589592]
 [0.2        1.81286995]
 [0.25666667 0.86118474]]",0,0.11
8782735929,f,25,english,5,4,french,2024-02-13 10:39:26.615494,False,2,460,sounds\french\audio/french_131.wav,"[[  0.          55.95469812]
 [  0.1        -96.48122085]
 [  0.2        -45.26115565]
 [  0.25666667  97.10583427]]","[[0.         0.7326606 ]
 [0.1        0.77747938]
 [0.2        1.02132862]
 [0.25666667 0.34109041]]",1,0.134
8782735929,f,25,english,5,4,french,2024-02-13 10:39:26.615494,False,2,461,sounds\french\audio/french_679.wav,"[[  0.         -12.30272173]
 [  0.1        -25.8054218 ]
 [  0.2        -49.36641871]
 [  0.25666667   3.29240265]]","[[0.         0.22564891]
 [0.1        0.32954228]
 [0.2        0.69268874]
 [0.25666667 1.86334945]]",0,0.225
8782735929,f,25,english,5,4,french,2024-02-13 10:39:26.615494,False,2,462,sounds\french\audio/french_835.wav,"[[  0.          -1.43190356]
 [  0.1        -99.33286499]
 [  0.2         34.34373885]
 [  0.25666667  39.86329231]]","[[0.         0.4805844 ]
 [0.1        1.12822193]
 [0.2        1.41477947]
 [0.25666667 0.63497531]]",1,0.369
8782735929,f,25,english,5,4,french,2024-02-13 10:39:26.615494,False,2,463,sounds\french\audio/french_848.wav,"[[  0.         -60.99605007]
 [  0.1        -27.05939135]
 [  0.2        -10.58439289]
 [  0.25666667 -17.47548333]]","[[0.         1.01059702]
 [0.1        1.98581859]
 [0.2        0.30142011]
 [0.25666667 1.16939553]]",0,0.425
8782735929,f,25,english,5,4,french,2024-02-13 10:39:26.615494,False,2,464,sounds\french\audio/french_216.wav,"[[  0.          94.47877999]
 [  0.1        -35.64680956]
 [  0.2         -6.49582042]
 [  0.25666667  88.58272088]]","[[0.         1.14166801]
 [0.1        0.96477388]
 [0.2        1.30348701]
 [0.25666667 1.4092971 ]]",1,0.454
8782735929,f,25,english,5,4,french,2024-02-13 10:39:26.615494,False,2,465,sounds\french\audio/french_191.wav,"[[  0.          61.70033847]
 [  0.1        -19.77100541]
 [  0.2        -44.48193137]
 [  0.25666667 -92.19007218]]","[[0.         1.87867126]
 [0.1        0.40395676]
 [0.2        1.14362057]
 [0.25666667 1.68692384]]",1,0.534
8782735929,f,25,english,5,4,french,2024-02-13 10:39:26.615494,False,2,466,sounds\french\audio/french_391.wav,"[[  0.         -76.68975493]
 [  0.1        -61.92507962]
 [  0.2        -59.03609545]
 [  0.25666667  88.69049446]]","[[0.         1.01472424]
 [0.1        1.84772624]
 [0.2        1.36374408]
 [0.25666667 1.21538153]]",1,0.311
8782735929,f,25,english,5,4,french,2024-02-13 10:39:26.615494,False,2,467,sounds\french\audio/french_133.wav,"[[  0.         -94.78194954]
 [  0.1          8.44061072]
 [  0.2         55.81768563]
 [  0.25666667  73.94294787]]","[[0.         1.29113753]
 [0.1        0.84384968]
 [0.2        1.85990436]
 [0.25666667 1.64621091]]",1,0.007
8782735929,f,25,english,5,4,french,2024-02-13 10:39:26.615494,False,2,468,sounds\french\audio/french_909.wav,"[[  0.         -17.91805132]
 [  0.1        -79.7145309 ]
 [  0.2        -13.28374128]
 [  0.25666667  80.91359626]]","[[0.         1.11522258]
 [0.1        0.65372787]
 [0.2        0.18130759]
 [0.25666667 1.7666171 ]]",1,0.275
8782735929,f,25,english,5,4,french,2024-02-13 10:39:26.615494,False,2,469,sounds\french\audio/french_411.wav,"[[  0.          65.70741219]
 [  0.1          9.47903784]
 [  0.2         88.46874173]
 [  0.25666667 -33.05830924]]","[[0.         1.12073031]
 [0.1        1.20345695]
 [0.2        1.7567893 ]
 [0.25666667 0.68949127]]",1,0.417
8782735929,f,25,english,5,4,french,2024-02-13 10:39:26.615494,False,2,470,sounds\french\audio/french_27.wav,"[[  0.         -24.90567196]
 [  0.1        -76.22865867]
 [  0.2        -70.77946922]
 [  0.25666667 -40.13018173]]","[[0.         0.77746957]
 [0.1        0.36572894]
 [0.2        1.07248112]
 [0.25666667 1.35477464]]",0,0.321
8782735929,f,25,english,5,4,french,2024-02-13 10:39:26.615494,False,2,471,sounds\french\audio/french_910.wav,"[[  0.         -48.65293901]
 [  0.1         -4.89021115]
 [  0.2        -57.2651588 ]
 [  0.25666667 -57.53771148]]","[[0.         0.34246772]
 [0.1        1.03510625]
 [0.2        1.59317518]
 [0.25666667 0.91667414]]",0,0.048
8782735929,f,25,english,5,4,french,2024-02-13 10:39:26.615494,False,2,472,sounds\french\audio/french_855.wav,"[[ 0.          2.71159552]
 [ 0.1        66.05842931]
 [ 0.2        41.00995311]
 [ 0.25666667 98.2962498 ]]","[[0.         1.64624975]
 [0.1        0.54809415]
 [0.2        1.64541289]
 [0.25666667 1.22205238]]",0,0.482
8782735929,f,25,english,5,4,french,2024-02-13 10:39:26.615494,False,2,473,sounds\french\audio/french_5.wav,"[[  0.          -2.8714843 ]
 [  0.1        -50.9441672 ]
 [  0.2         56.21180826]
 [  0.25666667 -57.18619957]]","[[0.         1.07181682]
 [0.1        0.56733338]
 [0.2        0.26773361]
 [0.25666667 1.97613039]]",1,0.328
8782735929,f,25,english,5,4,french,2024-02-13 10:39:26.615494,False,2,474,sounds\french\audio/french_971.wav,"[[  0.          96.00351489]
 [  0.1        -55.9328558 ]
 [  0.2        -62.43027521]
 [  0.25666667  67.10785382]]","[[0.         1.9961872 ]
 [0.1        0.96234699]
 [0.2        1.29823686]
 [0.25666667 1.44437919]]",0,0.416
8782735929,f,25,english,5,4,french,2024-02-13 10:39:26.615494,False,2,475,sounds\french\audio/french_302.wav,"[[  0.           8.4067376 ]
 [  0.1        -29.32780789]
 [  0.2        -43.35590711]
 [  0.25666667 -44.50549756]]","[[0.         0.06791418]
 [0.1        1.46578571]
 [0.2        1.81098556]
 [0.25666667 1.40235265]]",0,0.216
8782735929,f,25,english,5,4,french,2024-02-13 10:39:26.615494,False,2,476,sounds\french\audio/french_890.wav,"[[  0.          17.48321345]
 [  0.1        -18.95749083]
 [  0.2          0.74707456]
 [  0.25666667  92.62024404]]","[[0.         1.85587598]
 [0.1        0.79262665]
 [0.2        0.19694232]
 [0.25666667 1.22282027]]",1,0.275
8782735929,f,25,english,5,4,french,2024-02-13 10:39:26.615494,False,2,477,sounds\french\audio/french_16.wav,"[[  0.          -0.6461067 ]
 [  0.1         90.1568776 ]
 [  0.2         64.8388413 ]
 [  0.25666667 -49.08803112]]","[[0.         1.33944457]
 [0.1        0.35137866]
 [0.2        1.61271584]
 [0.25666667 0.05305125]]",1,0.206
8782735929,f,25,english,5,4,french,2024-02-13 10:39:26.615494,False,2,478,sounds\french\audio/french_777.wav,"[[  0.           8.03786355]
 [  0.1        -25.18391206]
 [  0.2        -83.38753258]
 [  0.25666667  40.68339476]]","[[0.         1.59828936]
 [0.1        0.4858639 ]
 [0.2        1.25666852]
 [0.25666667 1.11090511]]",0,0.177
8782735929,f,25,english,5,4,french,2024-02-13 10:39:26.615494,False,2,479,sounds\french\audio/french_33.wav,"[[  0.          57.46883034]
 [  0.1        -37.75467747]
 [  0.2         37.26126111]
 [  0.25666667  30.73694303]]","[[0.         0.51774601]
 [0.1        0.34297047]
 [0.2        0.88429292]
 [0.25666667 0.45040489]]",1,0.463
8782735929,f,25,english,5,4,french,2024-02-13 10:39:26.615494,False,2,480,sounds\french\audio/french_19.wav,"[[  0.         -43.32613145]
 [  0.1        -51.04998213]
 [  0.2        -30.05832199]
 [  0.25666667 -62.89931607]]","[[0.         0.86768791]
 [0.1        0.12235363]
 [0.2        0.93205141]
 [0.25666667 0.68272422]]",0,0.196
8782735929,f,25,english,5,4,french,2024-02-13 10:39:26.615494,False,2,481,sounds\french\audio/french_123.wav,"[[ 0.         47.28842571]
 [ 0.1        40.8763752 ]
 [ 0.2        -0.29365354]
 [ 0.25666667 -9.49286286]]","[[0.         1.09614989]
 [0.1        1.93529177]
 [0.2        0.05812677]
 [0.25666667 0.68816992]]",1,0.015
8782735929,f,25,english,5,4,french,2024-02-13 10:39:26.615494,False,2,482,sounds\french\audio/french_39.wav,"[[  0.         -37.58690814]
 [  0.1         64.36969435]
 [  0.2        -16.17747505]
 [  0.25666667 -31.52468705]]","[[0.         0.69509593]
 [0.1        0.9899387 ]
 [0.2        1.54991446]
 [0.25666667 1.42558302]]",1,0.059
8782735929,f,25,english,5,4,french,2024-02-13 10:39:26.615494,False,2,483,sounds\french\audio/french_568.wav,"[[  0.         -18.10302265]
 [  0.1          9.93139794]
 [  0.2         91.46195775]
 [  0.25666667  56.10040773]]","[[0.         1.34189827]
 [0.1        1.47029794]
 [0.2        0.17269775]
 [0.25666667 1.22679594]]",1,0.519
8782735929,f,25,english,5,4,french,2024-02-13 10:39:26.615494,False,2,484,sounds\french\audio/french_419.wav,"[[  0.         -42.00575778]
 [  0.1        -35.26826913]
 [  0.2        -18.10946272]
 [  0.25666667  -2.55322937]]","[[0.         0.81351681]
 [0.1        1.62056968]
 [0.2        1.68465097]
 [0.25666667 1.07803679]]",1,0.36
8782735929,f,25,english,5,4,french,2024-02-13 10:39:26.615494,False,2,485,sounds\french\audio/french_934.wav,"[[  0.          -9.72159443]
 [  0.1        -11.38125641]
 [  0.2        -15.93762726]
 [  0.25666667 -19.962769  ]]","[[0.         1.08583672]
 [0.1        0.99463139]
 [0.2        1.46206623]
 [0.25666667 1.59629023]]",1,0.349
8782735929,f,25,english,5,4,french,2024-02-13 10:39:26.615494,False,2,486,sounds\french\audio/french_64.wav,"[[  0.          -2.85479512]
 [  0.1        -22.43053594]
 [  0.2         99.07991634]
 [  0.25666667  -6.95169827]]","[[0.         1.8205441 ]
 [0.1        0.65122302]
 [0.2        0.54405082]
 [0.25666667 0.02019369]]",1,0.035
8782735929,f,25,english,5,4,french,2024-02-13 10:39:26.615494,False,2,487,sounds\french\audio/french_272.wav,"[[  0.          50.55701535]
 [  0.1         63.46835537]
 [  0.2        -46.63250527]
 [  0.25666667  74.93577843]]","[[0.         1.0419248 ]
 [0.1        0.05024982]
 [0.2        0.3554473 ]
 [0.25666667 1.3845464 ]]",1,0.287
8782735929,f,25,english,5,4,french,2024-02-13 10:39:26.615494,False,2,488,sounds\french\audio/french_287.wav,"[[  0.          -6.24804435]
 [  0.1        -47.42967866]
 [  0.2        -83.16585562]
 [  0.25666667  77.49694817]]","[[0.         1.11596696]
 [0.1        0.08887129]
 [0.2        1.70974676]
 [0.25666667 0.42476907]]",0,0.51
8782735929,f,25,english,5,4,french,2024-02-13 10:39:26.615494,False,2,489,sounds\french\audio/french_548.wav,"[[ 0.          1.54236609]
 [ 0.1        42.93927178]
 [ 0.2        94.14256546]
 [ 0.25666667 78.31055202]]","[[0.         0.97335898]
 [0.1        0.92328993]
 [0.2        0.31229256]
 [0.25666667 0.51911246]]",1,0.196
8782735929,f,25,english,5,4,french,2024-02-13 10:39:26.615494,False,2,490,sounds\french\audio/french_95.wav,"[[ 0.         35.71270194]
 [ 0.1        34.21637588]
 [ 0.2        69.23850983]
 [ 0.25666667 -5.02213551]]","[[0.         1.05464779]
 [0.1        0.916907  ]
 [0.2        0.63861668]
 [0.25666667 0.96363956]]",0,0.081
8782735929,f,25,english,5,4,french,2024-02-13 10:39:26.615494,False,2,491,sounds\french\audio/french_356.wav,"[[  0.         -28.24477507]
 [  0.1        -36.63699676]
 [  0.2         67.9524461 ]
 [  0.25666667   8.53170414]]","[[0.         0.35227097]
 [0.1        1.16218152]
 [0.2        1.82395355]
 [0.25666667 1.63669257]]",1,0.013
8782735929,f,25,english,5,4,french,2024-02-13 10:39:26.615494,False,2,492,sounds\french\audio/french_876.wav,"[[  0.         -63.60663495]
 [  0.1        -33.069551  ]
 [  0.2         44.38072254]
 [  0.25666667   3.25210733]]","[[0.         1.31328738]
 [0.1        1.53761103]
 [0.2        1.15738415]
 [0.25666667 1.33428182]]",0,0.743
8782735929,f,25,english,5,4,french,2024-02-13 10:39:26.615494,False,2,493,sounds\french\audio/french_325.wav,"[[  0.          88.71142286]
 [  0.1        -56.3206586 ]
 [  0.2         41.53206129]
 [  0.25666667 -39.91784783]]","[[0.         0.52996958]
 [0.1        1.24996424]
 [0.2        1.51417943]
 [0.25666667 1.21569626]]",1,0.205
8782735929,f,25,english,5,4,french,2024-02-13 10:39:26.615494,False,2,494,sounds\french\audio/french_391.wav,"[[  0.         -76.68975493]
 [  0.1        -61.92507962]
 [  0.2        -59.03609545]
 [  0.25666667  88.69049446]]","[[0.         1.01472424]
 [0.1        1.84772624]
 [0.2        1.36374408]
 [0.25666667 1.21538153]]",1,0.105
8782735929,f,25,english,5,4,french,2024-02-13 10:39:26.615494,False,2,495,sounds\french\audio/french_79.wav,"[[  0.         -17.81057473]
 [  0.1        -79.49788956]
 [  0.2         21.64031361]
 [  0.25666667   9.8962074 ]]","[[0.         1.07647634]
 [0.1        0.19758175]
 [0.2        1.4893643 ]
 [0.25666667 1.60982877]]",1,0.046
8782735929,f,25,english,5,4,french,2024-02-13 10:39:26.615494,False,2,496,sounds\french\audio/french_561.wav,"[[  0.          43.72245453]
 [  0.1        -99.96065046]
 [  0.2        -79.74506532]
 [  0.25666667   3.19515671]]","[[0.         1.14403907]
 [0.1        0.22103922]
 [0.2        0.12690813]
 [0.25666667 1.47601923]]",1,0.239
8782735929,f,25,english,5,4,french,2024-02-13 10:39:26.615494,False,2,497,sounds\french\audio/french_715.wav,"[[  0.          89.89167485]
 [  0.1         47.15597215]
 [  0.2         44.59513653]
 [  0.25666667 -32.08567965]]","[[0.         1.90551341]
 [0.1        0.2376049 ]
 [0.2        0.03260857]
 [0.25666667 1.14470607]]",0,0.338
8782735929,f,25,english,5,4,french,2024-02-13 10:39:26.615494,False,2,498,sounds\french\audio/french_124.wav,"[[  0.         -40.67960973]
 [  0.1          1.84202377]
 [  0.2         31.56915939]
 [  0.25666667   9.71654757]]","[[0.         1.69845324]
 [0.1        0.10570995]
 [0.2        0.86198312]
 [0.25666667 1.20479065]]",1,0.033
8782735929,f,25,english,5,4,french,2024-02-13 10:39:26.615494,False,2,499,sounds\french\audio/french_43.wav,"[[  0.          -6.86336629]
 [  0.1          1.3862511 ]
 [  0.2        -46.66652787]
 [  0.25666667  99.62545591]]","[[0.         1.4879687 ]
 [0.1        1.50259819]
 [0.2        1.37505073]
 [0.25666667 0.7561706 ]]",1,0.245
8782735929,f,25,english,5,4,french,2024-02-13 10:39:26.615494,False,2,500,sounds\french\audio/french_412.wav,"[[  0.         -59.33534007]
 [  0.1        -79.1774496 ]
 [  0.2        -38.59435565]
 [  0.25666667  65.74010912]]","[[0.         1.02487397]
 [0.1        0.54283138]
 [0.2        0.86213444]
 [0.25666667 0.54314794]]",1,0.128
8782735929,f,25,english,5,4,french,2024-02-13 10:39:26.615494,False,2,501,sounds\french\audio/french_183.wav,"[[  0.         -70.39448934]
 [  0.1         53.65669982]
 [  0.2         -2.56135136]
 [  0.25666667  49.12124255]]","[[0.         1.64690622]
 [0.1        0.19500459]
 [0.2        1.70333754]
 [0.25666667 0.71175446]]",1,0.507
8782735929,f,25,english,5,4,french,2024-02-13 10:39:26.615494,False,2,502,sounds\french\audio/french_763.wav,"[[  0.         -96.72958763]
 [  0.1         95.66434095]
 [  0.2        -84.28875962]
 [  0.25666667 -41.37848175]]","[[0.         0.69845728]
 [0.1        1.4089076 ]
 [0.2        1.74428554]
 [0.25666667 0.12054272]]",0,0.271
