subj,sex,age,language,english,french,native_lang,date,practice,block,trial,stim,pitch,stretch,response,rt
8773808799,f,21,english,5,3,english,2024-02-01 10:28:30.826823,True,0,0,sounds\french\audio/french_114.wav,"[[ 0.         36.61172137]
 [ 0.1         1.16528437]
 [ 0.2        91.5106094 ]
 [ 0.25666667 23.38458366]]","[[0.         1.1665973 ]
 [0.1        0.29978092]
 [0.2        1.30847922]
 [0.25666667 1.1533172 ]]",1,2.645
8773808799,f,21,english,5,3,english,2024-02-01 10:28:30.826823,True,0,1,sounds\french\audio/french_80.wav,"[[  0.          -4.85614904]
 [  0.1        -36.95221558]
 [  0.2        -16.65007611]
 [  0.25666667  57.44018977]]","[[0.         0.67500586]
 [0.1        0.10692408]
 [0.2        1.27299782]
 [0.25666667 0.9780754 ]]",1,1.69
8773808799,f,21,english,5,3,english,2024-02-01 10:28:30.826823,True,0,2,sounds\french\audio/french_224.wav,"[[  0.          29.30439333]
 [  0.1        -18.8355858 ]
 [  0.2         53.95388402]
 [  0.25666667 -99.38068318]]","[[0.         0.07263044]
 [0.1        0.50126241]
 [0.2        0.66381289]
 [0.25666667 0.98911363]]",0,1.047
8773808799,f,21,english,5,3,english,2024-02-01 10:28:30.826823,False,1,3,sounds\french\audio/french_821.wav,"[[  0.          70.15336782]
 [  0.1         -1.11865535]
 [  0.2        -91.54006312]
 [  0.25666667  24.13643902]]","[[0.         1.4099425 ]
 [0.1        1.36643738]
 [0.2        0.06599991]
 [0.25666667 1.20854405]]",1,0.633
8773808799,f,21,english,5,3,english,2024-02-01 10:28:30.826823,False,1,4,sounds\french\audio/french_318.wav,"[[  0.          51.46520294]
 [  0.1         86.78866558]
 [  0.2        -10.27725715]
 [  0.25666667   9.68065634]]","[[0.         0.36120202]
 [0.1        0.00996795]
 [0.2        1.05940341]
 [0.25666667 1.37923943]]",0,0.697
8773808799,f,21,english,5,3,english,2024-02-01 10:28:30.826823,False,1,5,sounds\french\audio/french_983.wav,"[[  0.         -14.13750987]
 [  0.1         89.20229744]
 [  0.2         38.93652685]
 [  0.25666667  37.63986889]]","[[0.         1.65765615]
 [0.1        0.32114998]
 [0.2        0.52368354]
 [0.25666667 1.60531686]]",1,0.351
8773808799,f,21,english,5,3,english,2024-02-01 10:28:30.826823,False,1,6,sounds\french\audio/french_519.wav,"[[  0.          86.76456043]
 [  0.1          8.46145491]
 [  0.2        -48.6822419 ]
 [  0.25666667 -44.03350662]]","[[0.         1.09635868]
 [0.1        1.19136691]
 [0.2        1.7889624 ]
 [0.25666667 1.1754675 ]]",1,0.387
8773808799,f,21,english,5,3,english,2024-02-01 10:28:30.826823,False,1,7,sounds\french\audio/french_891.wav,"[[ 0.         36.15157251]
 [ 0.1         9.92087077]
 [ 0.2        64.79051962]
 [ 0.25666667 25.43576317]]","[[0.         0.11830574]
 [0.1        0.00778599]
 [0.2        0.40739404]
 [0.25666667 0.71071781]]",0,1.037
8773808799,f,21,english,5,3,english,2024-02-01 10:28:30.826823,False,1,8,sounds\french\audio/french_751.wav,"[[ 0.         43.14158788]
 [ 0.1        18.43858874]
 [ 0.2        79.49995567]
 [ 0.25666667 54.04463095]]","[[0.         0.5897858 ]
 [0.1        0.77618244]
 [0.2        1.33641446]
 [0.25666667 0.80537668]]",1,0.466
8773808799,f,21,english,5,3,english,2024-02-01 10:28:30.826823,False,1,9,sounds\french\audio/french_549.wav,"[[  0.          40.06296083]
 [  0.1        -25.7595798 ]
 [  0.2         45.79306888]
 [  0.25666667  27.44668145]]","[[0.         1.11554245]
 [0.1        1.21579497]
 [0.2        1.32867101]
 [0.25666667 0.7142841 ]]",1,0.508
8773808799,f,21,english,5,3,english,2024-02-01 10:28:30.826823,False,1,10,sounds\french\audio/french_1000.wav,"[[  0.         -14.94486739]
 [  0.1         -3.70752284]
 [  0.2        -14.04083749]
 [  0.25666667 -29.27941665]]","[[0.         0.60674079]
 [0.1        0.18450848]
 [0.2        1.64475948]
 [0.25666667 0.26397745]]",1,1.158
8773808799,f,21,english,5,3,english,2024-02-01 10:28:30.826823,False,1,11,sounds\french\audio/french_826.wav,"[[  0.         -33.86739367]
 [  0.1        -31.27966971]
 [  0.2         51.84533444]
 [  0.25666667 -81.13386792]]","[[0.         0.07066528]
 [0.1        0.90490109]
 [0.2        0.66906535]
 [0.25666667 0.4882988 ]]",0,0.455
8773808799,f,21,english,5,3,english,2024-02-01 10:28:30.826823,False,1,12,sounds\french\audio/french_904.wav,"[[  0.          -3.33486868]
 [  0.1        -72.00110742]
 [  0.2         32.54458222]
 [  0.25666667  13.13318907]]","[[0.         1.84649441]
 [0.1        1.91186975]
 [0.2        0.71589927]
 [0.25666667 0.21658524]]",1,0.303
8773808799,f,21,english,5,3,english,2024-02-01 10:28:30.826823,False,1,13,sounds\french\audio/french_467.wav,"[[  0.          26.36588123]
 [  0.1        -91.62831039]
 [  0.2         14.27679522]
 [  0.25666667 -77.75485007]]","[[0.         0.49078583]
 [0.1        1.37574102]
 [0.2        0.10009029]
 [0.25666667 1.32516535]]",1,0.882
8773808799,f,21,english,5,3,english,2024-02-01 10:28:30.826823,False,1,14,sounds\french\audio/french_54.wav,"[[ 0.         77.13223303]
 [ 0.1        -5.6152706 ]
 [ 0.2        22.05383838]
 [ 0.25666667 -9.52451309]]","[[0.         0.44302914]
 [0.1        0.26201868]
 [0.2        0.27892   ]
 [0.25666667 0.30908576]]",0,0.596
8773808799,f,21,english,5,3,english,2024-02-01 10:28:30.826823,False,1,15,sounds\french\audio/french_667.wav,"[[  0.         -87.23426609]
 [  0.1         53.54997778]
 [  0.2         57.34155937]
 [  0.25666667 -19.62963402]]","[[0.         0.52575342]
 [0.1        0.6882241 ]
 [0.2        0.15612922]
 [0.25666667 0.34657669]]",0,1.116
8773808799,f,21,english,5,3,english,2024-02-01 10:28:30.826823,False,1,16,sounds\french\audio/french_535.wav,"[[  0.         -81.47221285]
 [  0.1         42.68543716]
 [  0.2        -73.81682794]
 [  0.25666667 -85.27887702]]","[[0.         1.61446576]
 [0.1        1.13976105]
 [0.2        0.22032829]
 [0.25666667 0.61620659]]",1,0.466
8773808799,f,21,english,5,3,english,2024-02-01 10:28:30.826823,False,1,17,sounds\french\audio/french_448.wav,"[[  0.          31.66119151]
 [  0.1         20.17093967]
 [  0.2        -46.84568686]
 [  0.25666667  10.399138  ]]","[[0.         0.87276462]
 [0.1        1.08469616]
 [0.2        1.99629221]
 [0.25666667 0.44449425]]",1,0.599
8773808799,f,21,english,5,3,english,2024-02-01 10:28:30.826823,False,1,18,sounds\french\audio/french_251.wav,"[[ 0.         24.13853868]
 [ 0.1        69.59392202]
 [ 0.2         5.2598313 ]
 [ 0.25666667 49.58604743]]","[[0.         0.84222584]
 [0.1        0.35569373]
 [0.2        1.18426262]
 [0.25666667 1.47594706]]",0,0.83
8773808799,f,21,english,5,3,english,2024-02-01 10:28:30.826823,False,1,19,sounds\french\audio/french_593.wav,"[[  0.          28.63563643]
 [  0.1        -92.54588956]
 [  0.2         54.29574758]
 [  0.25666667 -51.0775076 ]]","[[0.         0.95899308]
 [0.1        1.11632192]
 [0.2        0.28179711]
 [0.25666667 1.92785686]]",1,0.415
8773808799,f,21,english,5,3,english,2024-02-01 10:28:30.826823,False,1,20,sounds\french\audio/french_733.wav,"[[  0.          96.30835656]
 [  0.1        -16.80147809]
 [  0.2         34.50045069]
 [  0.25666667  -6.11336577]]","[[0.         1.00234216]
 [0.1        0.65355169]
 [0.2        1.63394937]
 [0.25666667 0.15404628]]",0,0.463
8773808799,f,21,english,5,3,english,2024-02-01 10:28:30.826823,False,1,21,sounds\french\audio/french_523.wav,"[[  0.         -20.54401218]
 [  0.1        -64.61887171]
 [  0.2        -56.67652055]
 [  0.25666667 -29.90055738]]","[[0.         1.01178449]
 [0.1        1.79283511]
 [0.2        0.92711934]
 [0.25666667 1.0186138 ]]",1,0.331
8773808799,f,21,english,5,3,english,2024-02-01 10:28:30.826823,False,1,22,sounds\french\audio/french_759.wav,"[[  0.          43.66892012]
 [  0.1         28.75822808]
 [  0.2        -53.65094598]
 [  0.25666667 -79.66264825]]","[[0.         0.9017147 ]
 [0.1        1.01118462]
 [0.2        1.43326948]
 [0.25666667 0.32927354]]",0,1.74
8773808799,f,21,english,5,3,english,2024-02-01 10:28:30.826823,False,1,23,sounds\french\audio/french_40.wav,"[[  0.         -78.27349013]
 [  0.1        -11.45872421]
 [  0.2         54.77710365]
 [  0.25666667  77.61698443]]","[[0.         1.3593064 ]
 [0.1        0.13307668]
 [0.2        1.8527892 ]
 [0.25666667 1.82448351]]",0,0.668
8773808799,f,21,english,5,3,english,2024-02-01 10:28:30.826823,False,1,24,sounds\french\audio/french_224.wav,"[[  0.          29.30439333]
 [  0.1        -18.8355858 ]
 [  0.2         53.95388402]
 [  0.25666667 -99.38068318]]","[[0.         0.07263044]
 [0.1        0.50126241]
 [0.2        0.66381289]
 [0.25666667 0.98911363]]",0,0.6
8773808799,f,21,english,5,3,english,2024-02-01 10:28:30.826823,False,1,25,sounds\french\audio/french_9.wav,"[[ 0.         19.3207086 ]
 [ 0.1        55.1250277 ]
 [ 0.2        31.60633129]
 [ 0.25666667 31.4464946 ]]","[[0.         1.35934995]
 [0.1        1.31727385]
 [0.2        0.52824511]
 [0.25666667 1.75131645]]",1,0.345
8773808799,f,21,english,5,3,english,2024-02-01 10:28:30.826823,False,1,26,sounds\french\audio/french_434.wav,"[[  0.           7.9294609 ]
 [  0.1         36.47837772]
 [  0.2         71.3301905 ]
 [  0.25666667 -21.81717993]]","[[0.         1.64452419]
 [0.1        0.73911435]
 [0.2        0.53221197]
 [0.25666667 1.83629349]]",1,0.533
8773808799,f,21,english,5,3,english,2024-02-01 10:28:30.826823,False,1,27,sounds\french\audio/french_376.wav,"[[  0.         -29.78300729]
 [  0.1        -14.6608331 ]
 [  0.2         93.91149251]
 [  0.25666667  61.08695399]]","[[0.         1.32478843]
 [0.1        1.46487259]
 [0.2        1.42207254]
 [0.25666667 1.23206205]]",1,0.36
8773808799,f,21,english,5,3,english,2024-02-01 10:28:30.826823,False,1,28,sounds\french\audio/french_889.wav,"[[  0.         -11.44618348]
 [  0.1         14.52697714]
 [  0.2        -51.60315894]
 [  0.25666667  40.16126686]]","[[0.         1.60032155]
 [0.1        0.84860504]
 [0.2        1.67734449]
 [0.25666667 0.04411269]]",1,0.438
8773808799,f,21,english,5,3,english,2024-02-01 10:28:30.826823,False,1,29,sounds\french\audio/french_921.wav,"[[  0.          24.11125356]
 [  0.1         37.62729467]
 [  0.2        -94.55025244]
 [  0.25666667  10.27679313]]","[[0.         1.60122976]
 [0.1        0.45720022]
 [0.2        1.67775241]
 [0.25666667 0.96598245]]",1,0.289
8773808799,f,21,english,5,3,english,2024-02-01 10:28:30.826823,False,1,30,sounds\french\audio/french_495.wav,"[[  0.          93.48002859]
 [  0.1         99.142871  ]
 [  0.2        -33.98102163]
 [  0.25666667  38.68354094]]","[[0.         1.03648483]
 [0.1        1.23043948]
 [0.2        1.1332488 ]
 [0.25666667 0.62015381]]",1,0.286
8773808799,f,21,english,5,3,english,2024-02-01 10:28:30.826823,False,1,31,sounds\french\audio/french_15.wav,"[[  0.          75.10258226]
 [  0.1         91.64852869]
 [  0.2        -54.2483896 ]
 [  0.25666667 -67.82917504]]","[[0.         1.00702741]
 [0.1        0.72289983]
 [0.2        1.50363401]
 [0.25666667 0.97553874]]",1,0.299
8773808799,f,21,english,5,3,english,2024-02-01 10:28:30.826823,False,1,32,sounds\french\audio/french_368.wav,"[[  0.         -50.29275674]
 [  0.1        -46.19812301]
 [  0.2         11.95097834]
 [  0.25666667  56.55273669]]","[[0.         1.3762211 ]
 [0.1        0.86881993]
 [0.2        1.63580042]
 [0.25666667 0.08134077]]",1,0.31
8773808799,f,21,english,5,3,english,2024-02-01 10:28:30.826823,False,1,33,sounds\french\audio/french_263.wav,"[[  0.          25.02930943]
 [  0.1         77.59070044]
 [  0.2         61.13366196]
 [  0.25666667 -46.58539851]]","[[0.         0.29249845]
 [0.1        1.82268286]
 [0.2        0.69638669]
 [0.25666667 0.57279137]]",1,0.302
8773808799,f,21,english,5,3,english,2024-02-01 10:28:30.826823,False,1,34,sounds\french\audio/french_981.wav,"[[  0.          -1.54223553]
 [  0.1        -78.86121057]
 [  0.2        -33.48141771]
 [  0.25666667 -47.78773965]]","[[0.         0.66538198]
 [0.1        1.42802268]
 [0.2        0.92303184]
 [0.25666667 0.82545089]]",0,0.241
8773808799,f,21,english,5,3,english,2024-02-01 10:28:30.826823,False,1,35,sounds\french\audio/french_534.wav,"[[  0.          96.41776506]
 [  0.1        -53.52749338]
 [  0.2         51.10087415]
 [  0.25666667  27.39654188]]","[[0.         0.28463844]
 [0.1        1.69872517]
 [0.2        0.80798533]
 [0.25666667 1.79838566]]",0,0.265
8773808799,f,21,english,5,3,english,2024-02-01 10:28:30.826823,False,1,36,sounds\french\audio/french_584.wav,"[[  0.          69.79321503]
 [  0.1        -52.7276802 ]
 [  0.2        -55.3142281 ]
 [  0.25666667 -51.83811077]]","[[0.         1.17746001]
 [0.1        1.52318031]
 [0.2        1.91796719]
 [0.25666667 0.8668783 ]]",1,0.303
8773808799,f,21,english,5,3,english,2024-02-01 10:28:30.826823,False,1,37,sounds\french\audio/french_298.wav,"[[  0.          77.93003267]
 [  0.1        -23.8442355 ]
 [  0.2        -77.62110697]
 [  0.25666667 -25.23897767]]","[[0.         0.74693873]
 [0.1        1.94963825]
 [0.2        1.02670819]
 [0.25666667 0.18670197]]",1,0.282
8773808799,f,21,english,5,3,english,2024-02-01 10:28:30.826823,False,1,38,sounds\french\audio/french_650.wav,"[[  0.         -98.04674504]
 [  0.1        -80.1546697 ]
 [  0.2        -60.9727692 ]
 [  0.25666667  39.39299736]]","[[0.         0.50091073]
 [0.1        0.94744897]
 [0.2        0.76656919]
 [0.25666667 1.29747512]]",0,0.299
8773808799,f,21,english,5,3,english,2024-02-01 10:28:30.826823,False,1,39,sounds\french\audio/french_461.wav,"[[  0.          76.34817382]
 [  0.1          2.37579461]
 [  0.2        -59.90047781]
 [  0.25666667  20.08623444]]","[[0.         0.72953599]
 [0.1        1.5415695 ]
 [0.2        1.01078515]
 [0.25666667 1.02737445]]",1,0.281
8773808799,f,21,english,5,3,english,2024-02-01 10:28:30.826823,False,1,40,sounds\french\audio/french_50.wav,"[[  0.         -85.65055263]
 [  0.1         -8.41774185]
 [  0.2         31.4658541 ]
 [  0.25666667  98.77299977]]","[[0.         1.56155391]
 [0.1        0.5849625 ]
 [0.2        1.04346227]
 [0.25666667 0.72937699]]",1,0.205
8773808799,f,21,english,5,3,english,2024-02-01 10:28:30.826823,False,1,41,sounds\french\audio/french_882.wav,"[[  0.         -76.64131244]
 [  0.1        -39.91871486]
 [  0.2        -10.31613543]
 [  0.25666667  20.39966841]]","[[0.         0.67668261]
 [0.1        0.28498495]
 [0.2        0.59130788]
 [0.25666667 1.12904738]]",0,0.321
8773808799,f,21,english,5,3,english,2024-02-01 10:28:30.826823,False,1,42,sounds\french\audio/french_482.wav,"[[  0.          30.59556471]
 [  0.1        -28.15674373]
 [  0.2        -30.08163346]
 [  0.25666667  89.23902938]]","[[0.         1.3609553 ]
 [0.1        1.03507415]
 [0.2        1.60461159]
 [0.25666667 0.68082645]]",1,0.39
8773808799,f,21,english,5,3,english,2024-02-01 10:28:30.826823,False,1,43,sounds\french\audio/french_223.wav,"[[  0.           4.95143367]
 [  0.1         55.42619629]
 [  0.2         77.82995017]
 [  0.25666667 -85.84724551]]","[[0.         1.93703508]
 [0.1        0.30698411]
 [0.2        0.10644958]
 [0.25666667 0.25911965]]",1,0.356
8773808799,f,21,english,5,3,english,2024-02-01 10:28:30.826823,False,1,44,sounds\french\audio/french_294.wav,"[[  0.          18.73906337]
 [  0.1          4.75064209]
 [  0.2        -81.40088776]
 [  0.25666667 -89.40929498]]","[[0.         1.13845915]
 [0.1        1.03898668]
 [0.2        1.62818909]
 [0.25666667 0.49616963]]",1,0.424
8773808799,f,21,english,5,3,english,2024-02-01 10:28:30.826823,False,1,45,sounds\french\audio/french_923.wav,"[[  0.         -57.84523262]
 [  0.1        -15.65652506]
 [  0.2         37.84243464]
 [  0.25666667  15.41728704]]","[[0.         1.35677253]
 [0.1        1.1280373 ]
 [0.2        1.38752537]
 [0.25666667 1.42596606]]",1,0.284
8773808799,f,21,english,5,3,english,2024-02-01 10:28:30.826823,False,1,46,sounds\french\audio/french_885.wav,"[[  0.          33.82264354]
 [  0.1        -17.07734064]
 [  0.2        -15.93967404]
 [  0.25666667  58.67746901]]","[[0.         0.94046277]
 [0.1        0.79714646]
 [0.2        1.26873891]
 [0.25666667 1.69592015]]",1,0.182
8773808799,f,21,english,5,3,english,2024-02-01 10:28:30.826823,False,1,47,sounds\french\audio/french_666.wav,"[[  0.          51.58977068]
 [  0.1         81.806625  ]
 [  0.2         10.32462757]
 [  0.25666667 -51.25764779]]","[[0.         0.51416215]
 [0.1        0.1213722 ]
 [0.2        1.14435945]
 [0.25666667 1.68381456]]",0,0.268
8773808799,f,21,english,5,3,english,2024-02-01 10:28:30.826823,False,1,48,sounds\french\audio/french_398.wav,"[[  0.           6.24181165]
 [  0.1        -92.25652661]
 [  0.2        -10.16879246]
 [  0.25666667  42.06293659]]","[[0.         1.03823517]
 [0.1        1.54229831]
 [0.2        1.61201148]
 [0.25666667 1.50798312]]",1,0.194
8773808799,f,21,english,5,3,english,2024-02-01 10:28:30.826823,False,1,49,sounds\french\audio/french_687.wav,"[[  0.         -41.56393701]
 [  0.1         -5.27268445]
 [  0.2         58.5588678 ]
 [  0.25666667 -41.26863304]]","[[0.         1.23976021]
 [0.1        0.49715047]
 [0.2        0.70596761]
 [0.25666667 1.34000296]]",1,0.362
8773808799,f,21,english,5,3,english,2024-02-01 10:28:30.826823,False,1,50,sounds\french\audio/french_471.wav,"[[  0.          35.47460752]
 [  0.1        -49.00208302]
 [  0.2         47.17677121]
 [  0.25666667  64.34433074]]","[[0.         0.77553755]
 [0.1        1.38730058]
 [0.2        0.98156507]
 [0.25666667 0.66404961]]",0,0.264
8773808799,f,21,english,5,3,english,2024-02-01 10:28:30.826823,False,1,51,sounds\french\audio/french_949.wav,"[[  0.          29.18752906]
 [  0.1        -67.27756955]
 [  0.2         55.26419326]
 [  0.25666667  11.27327126]]","[[0.         0.08608659]
 [0.1        1.93613179]
 [0.2        0.81834021]
 [0.25666667 0.09029871]]",0,0.403
8773808799,f,21,english,5,3,english,2024-02-01 10:28:30.826823,False,1,52,sounds\french\audio/french_154.wav,"[[  0.         -35.77368222]
 [  0.1          5.93918526]
 [  0.2         36.13172948]
 [  0.25666667 -52.77395679]]","[[0.         0.10248514]
 [0.1        0.42084566]
 [0.2        1.29147589]
 [0.25666667 0.60791213]]",0,0.4
8773808799,f,21,english,5,3,english,2024-02-01 10:28:30.826823,False,1,53,sounds\french\audio/french_711.wav,"[[  0.          35.46622773]
 [  0.1         62.41897997]
 [  0.2        -12.16405894]
 [  0.25666667  23.8007589 ]]","[[0.         1.8142291 ]
 [0.1        1.39339975]
 [0.2        1.57822467]
 [0.25666667 1.63044315]]",1,0.19
8773808799,f,21,english,5,3,english,2024-02-01 10:28:30.826823,False,1,54,sounds\french\audio/french_301.wav,"[[ 0.         69.85248337]
 [ 0.1        -5.79297453]
 [ 0.2        45.5401504 ]
 [ 0.25666667 54.55962649]]","[[0.         0.52307933]
 [0.1        1.24080119]
 [0.2        0.43993349]
 [0.25666667 1.3035803 ]]",1,0.525
8773808799,f,21,english,5,3,english,2024-02-01 10:28:30.826823,False,1,55,sounds\french\audio/french_915.wav,"[[  0.         -64.10930236]
 [  0.1         -7.16601985]
 [  0.2        -76.9677693 ]
 [  0.25666667  64.27469246]]","[[0.         0.7615396 ]
 [0.1        1.77142655]
 [0.2        1.45350334]
 [0.25666667 1.62999495]]",1,0.445
8773808799,f,21,english,5,3,english,2024-02-01 10:28:30.826823,False,1,56,sounds\french\audio/french_738.wav,"[[  0.           9.63502306]
 [  0.1         23.45464863]
 [  0.2        -41.48525502]
 [  0.25666667  10.13311751]]","[[0.         1.8953007 ]
 [0.1        0.66483685]
 [0.2        0.56687756]
 [0.25666667 1.74946228]]",1,0.552
8773808799,f,21,english,5,3,english,2024-02-01 10:28:30.826823,False,1,57,sounds\french\audio/french_361.wav,"[[  0.         -18.04801315]
 [  0.1         93.73679052]
 [  0.2         42.88870655]
 [  0.25666667  45.1087167 ]]","[[0.         1.02641127]
 [0.1        0.21625505]
 [0.2        1.63254817]
 [0.25666667 0.1659632 ]]",0,0.265
8773808799,f,21,english,5,3,english,2024-02-01 10:28:30.826823,False,1,58,sounds\french\audio/french_710.wav,"[[  0.         -54.00258077]
 [  0.1         34.45486491]
 [  0.2         63.8215693 ]
 [  0.25666667  15.83931319]]","[[0.         0.87889336]
 [0.1        0.7692559 ]
 [0.2        0.4253567 ]
 [0.25666667 0.40649008]]",0,0.314
8773808799,f,21,english,5,3,english,2024-02-01 10:28:30.826823,False,1,59,sounds\french\audio/french_78.wav,"[[  0.         -36.45256911]
 [  0.1         52.80709263]
 [  0.2        -45.25624127]
 [  0.25666667  18.96418323]]","[[0.         0.98498246]
 [0.1        1.84515784]
 [0.2        1.50799972]
 [0.25666667 1.61920031]]",1,0.241
8773808799,f,21,english,5,3,english,2024-02-01 10:28:30.826823,False,1,60,sounds\french\audio/french_682.wav,"[[  0.         -16.33102186]
 [  0.1        -49.72009429]
 [  0.2        -23.39596266]
 [  0.25666667 -34.72439006]]","[[0.         0.79850708]
 [0.1        1.31273679]
 [0.2        1.51298147]
 [0.25666667 0.92861139]]",1,0.293
8773808799,f,21,english,5,3,english,2024-02-01 10:28:30.826823,False,1,61,sounds\french\audio/french_730.wav,"[[  0.          45.92676741]
 [  0.1        -44.36449205]
 [  0.2         -0.92451291]
 [  0.25666667  30.80646356]]","[[0.         0.18014666]
 [0.1        1.39371349]
 [0.2        1.11032992]
 [0.25666667 1.142585  ]]",0,0.193
8773808799,f,21,english,5,3,english,2024-02-01 10:28:30.826823,False,1,62,sounds\french\audio/french_618.wav,"[[  0.         -48.84080529]
 [  0.1         52.1949693 ]
 [  0.2          2.68255661]
 [  0.25666667 -32.43465806]]","[[0.         0.47316377]
 [0.1        0.45430598]
 [0.2        0.75800451]
 [0.25666667 0.99622678]]",0,0.332
8773808799,f,21,english,5,3,english,2024-02-01 10:28:30.826823,False,1,63,sounds\french\audio/french_25.wav,"[[  0.          46.82844357]
 [  0.1          5.52502331]
 [  0.2        -34.25373026]
 [  0.25666667 -52.44039001]]","[[0.         1.1493518 ]
 [0.1        1.41536953]
 [0.2        0.41949869]
 [0.25666667 0.5013656 ]]",1,0.338
8773808799,f,21,english,5,3,english,2024-02-01 10:28:30.826823,False,1,64,sounds\french\audio/french_659.wav,"[[ 0.         85.50464417]
 [ 0.1        65.46448613]
 [ 0.2        39.40171471]
 [ 0.25666667 -2.24011696]]","[[0.         1.33522586]
 [0.1        1.79413259]
 [0.2        1.57337642]
 [0.25666667 0.55895062]]",1,0.212
8773808799,f,21,english,5,3,english,2024-02-01 10:28:30.826823,False,1,65,sounds\french\audio/french_700.wav,"[[  0.          27.78595998]
 [  0.1        -29.96160528]
 [  0.2         60.6733782 ]
 [  0.25666667  39.12324738]]","[[0.         1.84943535]
 [0.1        0.52483958]
 [0.2        0.55672926]
 [0.25666667 0.96842636]]",1,0.299
8773808799,f,21,english,5,3,english,2024-02-01 10:28:30.826823,False,1,66,sounds\french\audio/french_395.wav,"[[  0.          53.54317287]
 [  0.1        -58.7899365 ]
 [  0.2        -16.29959602]
 [  0.25666667 -29.17949613]]","[[0.         1.78210887]
 [0.1        0.28539332]
 [0.2        1.44255764]
 [0.25666667 0.93749012]]",1,0.354
8773808799,f,21,english,5,3,english,2024-02-01 10:28:30.826823,False,1,67,sounds\french\audio/french_764.wav,"[[  0.          -8.95969579]
 [  0.1          5.11158076]
 [  0.2          3.7358826 ]
 [  0.25666667 -14.74224302]]","[[0.         0.46272501]
 [0.1        1.84250995]
 [0.2        0.71585727]
 [0.25666667 0.58101627]]",1,0.327
8773808799,f,21,english,5,3,english,2024-02-01 10:28:30.826823,False,1,68,sounds\french\audio/french_597.wav,"[[  0.          78.21673508]
 [  0.1         48.44931265]
 [  0.2         -9.21876948]
 [  0.25666667 -95.47680095]]","[[0.         0.32061172]
 [0.1        1.01687051]
 [0.2        0.22158162]
 [0.25666667 0.62073139]]",0,0.214
8773808799,f,21,english,5,3,english,2024-02-01 10:28:30.826823,False,1,69,sounds\french\audio/french_403.wav,"[[  0.         -74.59140771]
 [  0.1         29.14043257]
 [  0.2         37.28402081]
 [  0.25666667 -66.4238982 ]]","[[0.         1.12132674]
 [0.1        1.20077734]
 [0.2        0.75804668]
 [0.25666667 0.86443687]]",0,0.338
8773808799,f,21,english,5,3,english,2024-02-01 10:28:30.826823,False,1,70,sounds\french\audio/french_449.wav,"[[  0.          49.95404734]
 [  0.1        -42.73933853]
 [  0.2         16.44287486]
 [  0.25666667 -12.34539139]]","[[0.         0.88379096]
 [0.1        1.13878319]
 [0.2        0.43325684]
 [0.25666667 0.01727343]]",0,0.397
8773808799,f,21,english,5,3,english,2024-02-01 10:28:30.826823,False,1,71,sounds\french\audio/french_2.wav,"[[  0.         -28.21412584]
 [  0.1         66.62162467]
 [  0.2         16.24659996]
 [  0.25666667 -46.42897327]]","[[0.         1.58504822]
 [0.1        1.83034999]
 [0.2        0.31217517]
 [0.25666667 1.81400659]]",1,0.343
8773808799,f,21,english,5,3,english,2024-02-01 10:28:30.826823,False,1,72,sounds\french\audio/french_625.wav,"[[ 0.         79.19979266]
 [ 0.1        14.54258285]
 [ 0.2        86.07148008]
 [ 0.25666667 45.85831434]]","[[0.         0.47634137]
 [0.1        0.73497705]
 [0.2        0.05854955]
 [0.25666667 0.79046633]]",0,0.451
8773808799,f,21,english,5,3,english,2024-02-01 10:28:30.826823,False,1,73,sounds\french\audio/french_339.wav,"[[  0.          54.2761061 ]
 [  0.1         63.28603184]
 [  0.2        -39.09064926]
 [  0.25666667 -65.51257867]]","[[0.         1.89825103]
 [0.1        0.66946091]
 [0.2        1.06421907]
 [0.25666667 1.4091401 ]]",1,0.377
8773808799,f,21,english,5,3,english,2024-02-01 10:28:30.826823,False,1,74,sounds\french\audio/french_557.wav,"[[  0.          -4.17762648]
 [  0.1         91.9464138 ]
 [  0.2        -21.05895405]
 [  0.25666667  45.17146044]]","[[0.         0.38732741]
 [0.1        1.58225164]
 [0.2        1.02633772]
 [0.25666667 0.5187484 ]]",0,0.362
8773808799,f,21,english,5,3,english,2024-02-01 10:28:30.826823,False,1,75,sounds\french\audio/french_774.wav,"[[  0.         -35.29041546]
 [  0.1        -21.07774935]
 [  0.2        -42.95062976]
 [  0.25666667 -27.37747858]]","[[0.         0.24909556]
 [0.1        0.81236123]
 [0.2        0.84475887]
 [0.25666667 0.12641702]]",0,0.461
8773808799,f,21,english,5,3,english,2024-02-01 10:28:30.826823,False,1,76,sounds\french\audio/french_284.wav,"[[  0.           9.11616736]
 [  0.1          1.28278273]
 [  0.2         64.48623036]
 [  0.25666667 -18.83957989]]","[[0.         0.794635  ]
 [0.1        0.64071903]
 [0.2        0.85736223]
 [0.25666667 1.30798049]]",1,0.422
8773808799,f,21,english,5,3,english,2024-02-01 10:28:30.826823,False,1,77,sounds\french\audio/french_595.wav,"[[  0.         -73.15061419]
 [  0.1         67.23643261]
 [  0.2         29.33444659]
 [  0.25666667 -65.67909684]]","[[0.         1.40746522]
 [0.1        0.48150889]
 [0.2        0.65461581]
 [0.25666667 0.62395538]]",1,0.588
8773808799,f,21,english,5,3,english,2024-02-01 10:28:30.826823,False,1,78,sounds\french\audio/french_740.wav,"[[  0.         -63.22643447]
 [  0.1        -76.79793208]
 [  0.2        -90.89358737]
 [  0.25666667 -87.57687491]]","[[0.         1.41698272]
 [0.1        1.15791198]
 [0.2        1.97460827]
 [0.25666667 0.61281255]]",0,0.229
8773808799,f,21,english,5,3,english,2024-02-01 10:28:30.826823,False,1,79,sounds\french\audio/french_234.wav,"[[  0.          40.80444991]
 [  0.1        -12.8326651 ]
 [  0.2         35.77292413]
 [  0.25666667  70.48005605]]","[[0.         0.6735757 ]
 [0.1        0.4328315 ]
 [0.2        1.793606  ]
 [0.25666667 0.88572041]]",1,0.422
8773808799,f,21,english,5,3,english,2024-02-01 10:28:30.826823,False,1,80,sounds\french\audio/french_210.wav,"[[ 0.         68.99377403]
 [ 0.1        17.92188754]
 [ 0.2        87.00714336]
 [ 0.25666667 69.75485878]]","[[0.         1.59687847]
 [0.1        0.67113491]
 [0.2        1.30631186]
 [0.25666667 0.1897549 ]]",1,0.345
8773808799,f,21,english,5,3,english,2024-02-01 10:28:30.826823,False,1,81,sounds\french\audio/french_448.wav,"[[  0.          31.66119151]
 [  0.1         20.17093967]
 [  0.2        -46.84568686]
 [  0.25666667  10.399138  ]]","[[0.         0.87276462]
 [0.1        1.08469616]
 [0.2        1.99629221]
 [0.25666667 0.44449425]]",1,0.225
8773808799,f,21,english,5,3,english,2024-02-01 10:28:30.826823,False,1,82,sounds\french\audio/french_560.wav,"[[  0.         -42.00998938]
 [  0.1        -57.33016448]
 [  0.2         94.61210268]
 [  0.25666667 -53.14621565]]","[[0.         1.48749501]
 [0.1        0.25124208]
 [0.2        1.70870291]
 [0.25666667 0.91259566]]",0,0.141
8773808799,f,21,english,5,3,english,2024-02-01 10:28:30.826823,False,1,83,sounds\french\audio/french_349.wav,"[[  0.          73.89254537]
 [  0.1        -84.33493486]
 [  0.2         -3.2709249 ]
 [  0.25666667 -21.54511299]]","[[0.         0.17403551]
 [0.1        1.66487719]
 [0.2        1.53740634]
 [0.25666667 1.56834066]]",0,0.318
8773808799,f,21,english,5,3,english,2024-02-01 10:28:30.826823,False,1,84,sounds\french\audio/french_960.wav,"[[  0.         -21.44081237]
 [  0.1        -88.4923718 ]
 [  0.2         38.79957112]
 [  0.25666667 -94.67313386]]","[[0.         0.51475761]
 [0.1        1.11613408]
 [0.2        0.09358172]
 [0.25666667 1.96196729]]",0,0.559
8773808799,f,21,english,5,3,english,2024-02-01 10:28:30.826823,False,1,85,sounds\french\audio/french_137.wav,"[[  0.          20.21202866]
 [  0.1        -42.96009099]
 [  0.2         15.21981059]
 [  0.25666667 -16.40384708]]","[[0.         1.22191513]
 [0.1        0.44902196]
 [0.2        0.94630282]
 [0.25666667 1.1991754 ]]",0,0.645
8773808799,f,21,english,5,3,english,2024-02-01 10:28:30.826823,False,1,86,sounds\french\audio/french_939.wav,"[[  0.          26.75853805]
 [  0.1          6.19803181]
 [  0.2        -16.72335747]
 [  0.25666667  96.23810145]]","[[0.         1.87296773]
 [0.1        1.06061528]
 [0.2        1.33482008]
 [0.25666667 0.73381464]]",1,0.262
8773808799,f,21,english,5,3,english,2024-02-01 10:28:30.826823,False,1,87,sounds\french\audio/french_761.wav,"[[  0.         -26.32638144]
 [  0.1         78.13411122]
 [  0.2         -6.36477673]
 [  0.25666667 -77.19672863]]","[[0.         1.05429599]
 [0.1        0.90631559]
 [0.2        1.36732306]
 [0.25666667 0.83755281]]",1,0.226
8773808799,f,21,english,5,3,english,2024-02-01 10:28:30.826823,False,1,88,sounds\french\audio/french_317.wav,"[[  0.          16.10159391]
 [  0.1         -3.4784276 ]
 [  0.2        -59.35796464]
 [  0.25666667  -1.67752252]]","[[0.         1.00024107]
 [0.1        1.04292902]
 [0.2        1.9831422 ]
 [0.25666667 0.01532069]]",0,0.226
8773808799,f,21,english,5,3,english,2024-02-01 10:28:30.826823,False,1,89,sounds\french\audio/french_981.wav,"[[  0.          -1.54223553]
 [  0.1        -78.86121057]
 [  0.2        -33.48141771]
 [  0.25666667 -47.78773965]]","[[0.         0.66538198]
 [0.1        1.42802268]
 [0.2        0.92303184]
 [0.25666667 0.82545089]]",1,0.199
8773808799,f,21,english,5,3,english,2024-02-01 10:28:30.826823,False,1,90,sounds\french\audio/french_705.wav,"[[  0.         -31.52083019]
 [  0.1         93.24854214]
 [  0.2        -36.26217339]
 [  0.25666667  58.31905924]]","[[0.         1.71356233]
 [0.1        0.26324818]
 [0.2        0.66385994]
 [0.25666667 1.85027868]]",0,0.401
8773808799,f,21,english,5,3,english,2024-02-01 10:28:30.826823,False,1,91,sounds\french\audio/french_170.wav,"[[  0.          33.63406691]
 [  0.1        -66.14633185]
 [  0.2        -74.26701986]
 [  0.25666667  32.33295865]]","[[0.         1.37140183]
 [0.1        0.98919038]
 [0.2        1.38629831]
 [0.25666667 0.43392523]]",1,0.612
8773808799,f,21,english,5,3,english,2024-02-01 10:28:30.826823,False,1,92,sounds\french\audio/french_568.wav,"[[  0.         -18.10302265]
 [  0.1          9.93139794]
 [  0.2         91.46195775]
 [  0.25666667  56.10040773]]","[[0.         1.34189827]
 [0.1        1.47029794]
 [0.2        0.17269775]
 [0.25666667 1.22679594]]",0,0.221
8773808799,f,21,english,5,3,english,2024-02-01 10:28:30.826823,False,1,93,sounds\french\audio/french_883.wav,"[[  0.          79.42425648]
 [  0.1        -55.57656198]
 [  0.2        -42.3009185 ]
 [  0.25666667   9.11567641]]","[[0.         0.82987007]
 [0.1        1.06788753]
 [0.2        1.49414105]
 [0.25666667 1.30049822]]",1,0.436
8773808799,f,21,english,5,3,english,2024-02-01 10:28:30.826823,False,1,94,sounds\french\audio/french_493.wav,"[[  0.         -68.32294441]
 [  0.1        -10.78892258]
 [  0.2         91.72278204]
 [  0.25666667 -45.09260027]]","[[0.         0.52835731]
 [0.1        0.49612748]
 [0.2        1.46473376]
 [0.25666667 1.2872874 ]]",0,2.333
8773808799,f,21,english,5,3,english,2024-02-01 10:28:30.826823,False,1,95,sounds\french\audio/french_127.wav,"[[ 0.         56.99195339]
 [ 0.1        71.02339704]
 [ 0.2        72.81237495]
 [ 0.25666667 99.25740409]]","[[0.         1.23888103]
 [0.1        1.9853403 ]
 [0.2        0.22936254]
 [0.25666667 0.23690129]]",1,0.282
8773808799,f,21,english,5,3,english,2024-02-01 10:28:30.826823,False,1,96,sounds\french\audio/french_68.wav,"[[  0.          58.83829029]
 [  0.1         77.59339865]
 [  0.2        -73.88341881]
 [  0.25666667 -24.56901296]]","[[0.         1.80244508]
 [0.1        1.3442738 ]
 [0.2        1.16581557]
 [0.25666667 0.71132336]]",1,0.225
8773808799,f,21,english,5,3,english,2024-02-01 10:28:30.826823,False,1,97,sounds\french\audio/french_310.wav,"[[  0.         -83.78338178]
 [  0.1        -13.73891655]
 [  0.2         58.07821313]
 [  0.25666667  26.26954934]]","[[0.         0.11877442]
 [0.1        1.32851017]
 [0.2        0.76082745]
 [0.25666667 1.37378881]]",0,0.284
8773808799,f,21,english,5,3,english,2024-02-01 10:28:30.826823,False,1,98,sounds\french\audio/french_584.wav,"[[  0.          69.79321503]
 [  0.1        -52.7276802 ]
 [  0.2        -55.3142281 ]
 [  0.25666667 -51.83811077]]","[[0.         1.17746001]
 [0.1        1.52318031]
 [0.2        1.91796719]
 [0.25666667 0.8668783 ]]",1,0.259
8773808799,f,21,english,5,3,english,2024-02-01 10:28:30.826823,False,1,99,sounds\french\audio/french_296.wav,"[[  0.          93.71479572]
 [  0.1        -75.79046522]
 [  0.2        -87.29598303]
 [  0.25666667  31.73776098]]","[[0.         0.08926169]
 [0.1        1.27041306]
 [0.2        1.46433067]
 [0.25666667 0.42599999]]",0,0.451
8773808799,f,21,english,5,3,english,2024-02-01 10:28:30.826823,False,1,100,sounds\french\audio/french_466.wav,"[[  0.          73.58992944]
 [  0.1         63.97983353]
 [  0.2         36.10141743]
 [  0.25666667 -59.38235663]]","[[0.         1.41071494]
 [0.1        0.05598534]
 [0.2        1.99104708]
 [0.25666667 0.89990448]]",1,0.742
8773808799,f,21,english,5,3,english,2024-02-01 10:28:30.826823,False,1,101,sounds\french\audio/french_312.wav,"[[  0.         -19.98952993]
 [  0.1         50.70617954]
 [  0.2         80.27383631]
 [  0.25666667  31.55502425]]","[[0.         1.92157149]
 [0.1        0.53263035]
 [0.2        1.8452111 ]
 [0.25666667 1.73122835]]",1,0.489
8773808799,f,21,english,5,3,english,2024-02-01 10:28:30.826823,False,1,102,sounds\french\audio/french_354.wav,"[[  0.         -52.94558073]
 [  0.1         92.39955521]
 [  0.2        -42.31606849]
 [  0.25666667  97.06976377]]","[[0.         1.79880208]
 [0.1        1.0939287 ]
 [0.2        0.57130202]
 [0.25666667 1.82278353]]",0,0.208
8773808799,f,21,english,5,3,english,2024-02-01 10:28:30.826823,False,1,103,sounds\french\audio/french_17.wav,"[[ 0.         61.86852427]
 [ 0.1        14.81642836]
 [ 0.2        -8.48865215]
 [ 0.25666667 71.68336874]]","[[0.         1.05769551]
 [0.1        0.81667418]
 [0.2        0.51249479]
 [0.25666667 0.29939213]]",1,0.398
8773808799,f,21,english,5,3,english,2024-02-01 10:28:30.826823,False,1,104,sounds\french\audio/french_891.wav,"[[ 0.         36.15157251]
 [ 0.1         9.92087077]
 [ 0.2        64.79051962]
 [ 0.25666667 25.43576317]]","[[0.         0.11830574]
 [0.1        0.00778599]
 [0.2        0.40739404]
 [0.25666667 0.71071781]]",0,1.211
8773808799,f,21,english,5,3,english,2024-02-01 10:28:30.826823,False,1,105,sounds\french\audio/french_6.wav,"[[  0.          67.46153681]
 [  0.1        -88.84735091]
 [  0.2        -91.91919173]
 [  0.25666667  29.60258617]]","[[0.         1.53277947]
 [0.1        1.45938327]
 [0.2        0.73643418]
 [0.25666667 1.91810532]]",1,0.294
8773808799,f,21,english,5,3,english,2024-02-01 10:28:30.826823,False,1,106,sounds\french\audio/french_344.wav,"[[  0.          52.58849346]
 [  0.1        -22.3140036 ]
 [  0.2        -66.1637605 ]
 [  0.25666667 -23.8196401 ]]","[[0.         0.27482393]
 [0.1        0.23105003]
 [0.2        0.54206464]
 [0.25666667 1.18246439]]",0,0.695
8773808799,f,21,english,5,3,english,2024-02-01 10:28:30.826823,False,1,107,sounds\french\audio/french_295.wav,"[[ 0.         98.71232228]
 [ 0.1        19.8777742 ]
 [ 0.2         2.02188034]
 [ 0.25666667 -4.73018768]]","[[0.         1.58912918]
 [0.1        0.8460381 ]
 [0.2        1.72839065]
 [0.25666667 1.75057888]]",1,0.393
8773808799,f,21,english,5,3,english,2024-02-01 10:28:30.826823,False,1,108,sounds\french\audio/french_654.wav,"[[  0.           4.75004181]
 [  0.1        -26.31758413]
 [  0.2          5.97151275]
 [  0.25666667 -86.03507884]]","[[0.         0.71611878]
 [0.1        1.28432707]
 [0.2        0.58455266]
 [0.25666667 1.03676738]]",1,0.545
8773808799,f,21,english,5,3,english,2024-02-01 10:28:30.826823,False,1,109,sounds\french\audio/french_850.wav,"[[  0.         -88.87179188]
 [  0.1         15.70736636]
 [  0.2         67.7730952 ]
 [  0.25666667 -20.3872908 ]]","[[0.         0.91597825]
 [0.1        0.21425776]
 [0.2        1.52338939]
 [0.25666667 0.55241946]]",1,0.421
8773808799,f,21,english,5,3,english,2024-02-01 10:28:30.826823,False,1,110,sounds\french\audio/french_732.wav,"[[  0.         -82.9393053 ]
 [  0.1        -79.22735873]
 [  0.2        -67.09796721]
 [  0.25666667  35.15971491]]","[[0.         0.90840431]
 [0.1        0.47468339]
 [0.2        1.61768905]
 [0.25666667 1.44596926]]",0,0.274
8773808799,f,21,english,5,3,english,2024-02-01 10:28:30.826823,False,1,111,sounds\french\audio/french_520.wav,"[[  0.         -93.2931023 ]
 [  0.1         13.33088057]
 [  0.2        -27.94628904]
 [  0.25666667  -1.59677094]]","[[0.         0.41573501]
 [0.1        0.24185226]
 [0.2        0.74385359]
 [0.25666667 0.80521135]]",0,1.094
8773808799,f,21,english,5,3,english,2024-02-01 10:28:30.826823,False,1,112,sounds\french\audio/french_657.wav,"[[  0.          99.76716584]
 [  0.1         11.51898435]
 [  0.2        -43.45408234]
 [  0.25666667  22.46427071]]","[[0.         0.85695778]
 [0.1        1.00645436]
 [0.2        0.73989588]
 [0.25666667 1.57217431]]",1,0.372
8773808799,f,21,english,5,3,english,2024-02-01 10:28:30.826823,False,1,113,sounds\french\audio/french_727.wav,"[[  0.         -15.29396541]
 [  0.1        -26.29552155]
 [  0.2         79.97121571]
 [  0.25666667  55.89998316]]","[[0.         0.40840987]
 [0.1        0.3000398 ]
 [0.2        1.00640838]
 [0.25666667 1.06507384]]",0,1.615
8773808799,f,21,english,5,3,english,2024-02-01 10:28:30.826823,False,1,114,sounds\french\audio/french_932.wav,"[[  0.         -46.06723632]
 [  0.1         66.80974186]
 [  0.2         39.28685727]
 [  0.25666667 -66.26323275]]","[[0.         0.59994833]
 [0.1        1.29573715]
 [0.2        0.97302603]
 [0.25666667 1.65300799]]",0,0.421
8773808799,f,21,english,5,3,english,2024-02-01 10:28:30.826823,False,1,115,sounds\french\audio/french_396.wav,"[[  0.         -42.7744445 ]
 [  0.1          3.59774391]
 [  0.2        -86.41595133]
 [  0.25666667  76.20152203]]","[[0.         0.31798537]
 [0.1        0.67756986]
 [0.2        1.44355676]
 [0.25666667 1.44326023]]",1,0.232
8773808799,f,21,english,5,3,english,2024-02-01 10:28:30.826823,False,1,116,sounds\french\audio/french_977.wav,"[[  0.         -23.34946859]
 [  0.1        -74.17160997]
 [  0.2         31.43852713]
 [  0.25666667 -10.29160018]]","[[0.         1.58788712]
 [0.1        0.25032328]
 [0.2        0.90752219]
 [0.25666667 1.52460946]]",1,0.397
8773808799,f,21,english,5,3,english,2024-02-01 10:28:30.826823,False,1,117,sounds\french\audio/french_651.wav,"[[  0.         -39.76270633]
 [  0.1         98.43983978]
 [  0.2        -35.93188367]
 [  0.25666667 -13.56550518]]","[[0.         0.57054307]
 [0.1        0.47887101]
 [0.2        1.36476361]
 [0.25666667 1.70592369]]",0,0.73
8773808799,f,21,english,5,3,english,2024-02-01 10:28:30.826823,False,1,118,sounds\french\audio/french_32.wav,"[[  0.         -95.97477456]
 [  0.1        -25.31572866]
 [  0.2        -25.0492654 ]
 [  0.25666667 -74.56689772]]","[[0.         1.5242089 ]
 [0.1        0.2047991 ]
 [0.2        1.11388434]
 [0.25666667 1.18772321]]",1,0.766
8773808799,f,21,english,5,3,english,2024-02-01 10:28:30.826823,False,1,119,sounds\french\audio/french_640.wav,"[[  0.         -15.56807975]
 [  0.1         54.79262645]
 [  0.2        -80.20485071]
 [  0.25666667 -47.69326323]]","[[0.         1.93294171]
 [0.1        1.3982646 ]
 [0.2        1.35271381]
 [0.25666667 0.1240569 ]]",0,0.404
8773808799,f,21,english,5,3,english,2024-02-01 10:28:30.826823,False,1,120,sounds\french\audio/french_613.wav,"[[  0.         -39.45599103]
 [  0.1         37.73715393]
 [  0.2        -28.02237212]
 [  0.25666667 -24.74266242]]","[[0.         0.33894647]
 [0.1        0.28387009]
 [0.2        1.91952712]
 [0.25666667 0.2340562 ]]",0,0.712
8773808799,f,21,english,5,3,english,2024-02-01 10:28:30.826823,False,1,121,sounds\french\audio/french_398.wav,"[[  0.           6.24181165]
 [  0.1        -92.25652661]
 [  0.2        -10.16879246]
 [  0.25666667  42.06293659]]","[[0.         1.03823517]
 [0.1        1.54229831]
 [0.2        1.61201148]
 [0.25666667 1.50798312]]",1,0.349
8773808799,f,21,english,5,3,english,2024-02-01 10:28:30.826823,False,1,122,sounds\french\audio/french_95.wav,"[[ 0.         35.71270194]
 [ 0.1        34.21637588]
 [ 0.2        69.23850983]
 [ 0.25666667 -5.02213551]]","[[0.         1.05464779]
 [0.1        0.916907  ]
 [0.2        0.63861668]
 [0.25666667 0.96363956]]",1,0.351
8773808799,f,21,english,5,3,english,2024-02-01 10:28:30.826823,False,1,123,sounds\french\audio/french_675.wav,"[[  0.         -70.79994344]
 [  0.1         -7.59389362]
 [  0.2         -3.58790265]
 [  0.25666667 -30.70883091]]","[[0.         1.47729798]
 [0.1        0.30115563]
 [0.2        1.39440132]
 [0.25666667 1.61039035]]",1,0.617
8773808799,f,21,english,5,3,english,2024-02-01 10:28:30.826823,False,1,124,sounds\french\audio/french_945.wav,"[[  0.         -68.75533602]
 [  0.1        -70.31736245]
 [  0.2         30.11750803]
 [  0.25666667 -35.89247017]]","[[0.         0.74886616]
 [0.1        1.09629777]
 [0.2        0.8052417 ]
 [0.25666667 0.22664311]]",0,0.456
8773808799,f,21,english,5,3,english,2024-02-01 10:28:30.826823,False,1,125,sounds\french\audio/french_162.wav,"[[  0.         -20.03052962]
 [  0.1        -35.11860261]
 [  0.2         20.80868131]
 [  0.25666667  50.74802705]]","[[0.         1.70466969]
 [0.1        0.77666831]
 [0.2        1.88915568]
 [0.25666667 1.69994842]]",0,0.443
8773808799,f,21,english,5,3,english,2024-02-01 10:28:30.826823,False,1,126,sounds\french\audio/french_760.wav,"[[  0.         -33.74521786]
 [  0.1         38.89159258]
 [  0.2         64.82772984]
 [  0.25666667  15.52705732]]","[[0.         1.08104013]
 [0.1        0.90085836]
 [0.2        0.36080554]
 [0.25666667 0.08393315]]",1,0.351
8773808799,f,21,english,5,3,english,2024-02-01 10:28:30.826823,False,1,127,sounds\french\audio/french_787.wav,"[[  0.         -96.56930436]
 [  0.1        -14.18878177]
 [  0.2        -34.79884993]
 [  0.25666667 -70.75211023]]","[[0.         0.95025141]
 [0.1        1.10577547]
 [0.2        0.4132657 ]
 [0.25666667 0.64958401]]",0,0.571
8773808799,f,21,english,5,3,english,2024-02-01 10:28:30.826823,False,1,128,sounds\french\audio/french_21.wav,"[[  0.          54.83693262]
 [  0.1        -44.5884084 ]
 [  0.2        -75.20982548]
 [  0.25666667 -57.69855476]]","[[0.         0.05508037]
 [0.1        0.46211883]
 [0.2        1.96075125]
 [0.25666667 0.5365247 ]]",0,1.185
8773808799,f,21,english,5,3,english,2024-02-01 10:28:30.826823,False,1,129,sounds\french\audio/french_754.wav,"[[ 0.         11.6644261 ]
 [ 0.1         5.00985124]
 [ 0.2        23.99974903]
 [ 0.25666667 23.77807811]]","[[0.         0.15061695]
 [0.1        0.57469516]
 [0.2        0.45412791]
 [0.25666667 0.27591884]]",1,0.415
8773808799,f,21,english,5,3,english,2024-02-01 10:28:30.826823,False,1,130,sounds\french\audio/french_61.wav,"[[  0.          65.32887924]
 [  0.1         45.09641809]
 [  0.2        -37.75339878]
 [  0.25666667  87.5089899 ]]","[[0.         1.15653785]
 [0.1        1.72373813]
 [0.2        1.38726196]
 [0.25666667 0.41594812]]",1,0.257
8773808799,f,21,english,5,3,english,2024-02-01 10:28:30.826823,False,1,131,sounds\french\audio/french_697.wav,"[[  0.         -19.8565912 ]
 [  0.1        -16.18456076]
 [  0.2        -70.77550193]
 [  0.25666667 -81.21106402]]","[[0.         1.89587242]
 [0.1        0.49072185]
 [0.2        1.8362568 ]
 [0.25666667 0.50078837]]",1,0.347
8773808799,f,21,english,5,3,english,2024-02-01 10:28:30.826823,False,1,132,sounds\french\audio/french_458.wav,"[[  0.          13.7688173 ]
 [  0.1         19.53863665]
 [  0.2        -90.92797006]
 [  0.25666667  55.23452131]]","[[0.         1.1950835 ]
 [0.1        0.33129566]
 [0.2        0.65773392]
 [0.25666667 1.54778139]]",0,1.155
8773808799,f,21,english,5,3,english,2024-02-01 10:28:30.826823,False,1,133,sounds\french\audio/french_578.wav,"[[  0.          -7.38817871]
 [  0.1        -62.82402322]
 [  0.2        -74.03812343]
 [  0.25666667 -40.1929109 ]]","[[0.         1.21970749]
 [0.1        1.48191428]
 [0.2        0.32639168]
 [0.25666667 0.05147762]]",1,0.387
8773808799,f,21,english,5,3,english,2024-02-01 10:28:30.826823,False,1,134,sounds\french\audio/french_805.wav,"[[  0.          21.15897581]
 [  0.1        -84.51795283]
 [  0.2         72.20878309]
 [  0.25666667 -28.14016055]]","[[0.         1.3244225 ]
 [0.1        0.68750265]
 [0.2        0.56084624]
 [0.25666667 0.45412894]]",0,0.467
8773808799,f,21,english,5,3,english,2024-02-01 10:28:30.826823,False,1,135,sounds\french\audio/french_301.wav,"[[ 0.         69.85248337]
 [ 0.1        -5.79297453]
 [ 0.2        45.5401504 ]
 [ 0.25666667 54.55962649]]","[[0.         0.52307933]
 [0.1        1.24080119]
 [0.2        0.43993349]
 [0.25666667 1.3035803 ]]",0,0.695
8773808799,f,21,english,5,3,english,2024-02-01 10:28:30.826823,False,1,136,sounds\french\audio/french_888.wav,"[[  0.          -7.09076065]
 [  0.1         62.1549683 ]
 [  0.2        -14.42714579]
 [  0.25666667 -85.6987995 ]]","[[0.         0.01679895]
 [0.1        1.75942782]
 [0.2        0.28698877]
 [0.25666667 1.72009857]]",0,1.083
8773808799,f,21,english,5,3,english,2024-02-01 10:28:30.826823,False,1,137,sounds\french\audio/french_494.wav,"[[  0.         -13.98983301]
 [  0.1        -42.16987525]
 [  0.2         38.88383452]
 [  0.25666667  78.77057746]]","[[0.         1.71774812]
 [0.1        1.14165471]
 [0.2        0.86838156]
 [0.25666667 1.71181958]]",1,0.375
8773808799,f,21,english,5,3,english,2024-02-01 10:28:30.826823,False,1,138,sounds\french\audio/french_338.wav,"[[  0.         -59.42111132]
 [  0.1        -69.70478814]
 [  0.2        -12.60920347]
 [  0.25666667 -82.44797384]]","[[0.         1.60060286]
 [0.1        0.22517269]
 [0.2        1.52190999]
 [0.25666667 0.82265445]]",1,0.27
8773808799,f,21,english,5,3,english,2024-02-01 10:28:30.826823,False,1,139,sounds\french\audio/french_120.wav,"[[  0.          59.29212404]
 [  0.1          4.80411823]
 [  0.2         12.26509955]
 [  0.25666667 -79.44354783]]","[[0.         1.04724114]
 [0.1        0.97380182]
 [0.2        0.22521264]
 [0.25666667 0.8027629 ]]",1,0.316
8773808799,f,21,english,5,3,english,2024-02-01 10:28:30.826823,False,1,140,sounds\french\audio/french_128.wav,"[[ 0.         -0.75176629]
 [ 0.1        -3.23197706]
 [ 0.2        64.47029617]
 [ 0.25666667 94.12909321]]","[[0.         0.45078366]
 [0.1        0.83766587]
 [0.2        1.36622775]
 [0.25666667 1.47043343]]",1,0.333
8773808799,f,21,english,5,3,english,2024-02-01 10:28:30.826823,False,1,141,sounds\french\audio/french_458.wav,"[[  0.          13.7688173 ]
 [  0.1         19.53863665]
 [  0.2        -90.92797006]
 [  0.25666667  55.23452131]]","[[0.         1.1950835 ]
 [0.1        0.33129566]
 [0.2        0.65773392]
 [0.25666667 1.54778139]]",0,0.327
8773808799,f,21,english,5,3,english,2024-02-01 10:28:30.826823,False,1,142,sounds\french\audio/french_798.wav,"[[  0.          80.80013175]
 [  0.1          8.18850232]
 [  0.2        -10.54144101]
 [  0.25666667  26.86908184]]","[[0.         1.56222047]
 [0.1        1.67765441]
 [0.2        1.93747014]
 [0.25666667 1.76378238]]",1,0.258
8773808799,f,21,english,5,3,english,2024-02-01 10:28:30.826823,False,1,143,sounds\french\audio/french_635.wav,"[[  0.          33.90344979]
 [  0.1        -75.47627702]
 [  0.2         49.7914685 ]
 [  0.25666667  43.41419086]]","[[0.         1.89496442]
 [0.1        0.79794333]
 [0.2        1.70645199]
 [0.25666667 1.41022612]]",1,0.297
8773808799,f,21,english,5,3,english,2024-02-01 10:28:30.826823,False,1,144,sounds\french\audio/french_107.wav,"[[  0.          67.03881883]
 [  0.1         45.78296109]
 [  0.2        -43.22729876]
 [  0.25666667 -74.69599774]]","[[0.         1.87266913]
 [0.1        0.27229476]
 [0.2        1.08803063]
 [0.25666667 1.63601275]]",0,0.446
8773808799,f,21,english,5,3,english,2024-02-01 10:28:30.826823,False,1,145,sounds\french\audio/french_515.wav,"[[  0.          90.1787868 ]
 [  0.1         95.19464712]
 [  0.2        -71.09612906]
 [  0.25666667  86.48037909]]","[[0.         1.05169603]
 [0.1        0.16234368]
 [0.2        1.85560054]
 [0.25666667 0.23492468]]",1,0.308
8773808799,f,21,english,5,3,english,2024-02-01 10:28:30.826823,False,1,146,sounds\french\audio/french_885.wav,"[[  0.          33.82264354]
 [  0.1        -17.07734064]
 [  0.2        -15.93967404]
 [  0.25666667  58.67746901]]","[[0.         0.94046277]
 [0.1        0.79714646]
 [0.2        1.26873891]
 [0.25666667 1.69592015]]",0,0.935
8773808799,f,21,english,5,3,english,2024-02-01 10:28:30.826823,False,1,147,sounds\french\audio/french_930.wav,"[[  0.         -85.15004264]
 [  0.1        -51.05179236]
 [  0.2         60.60693854]
 [  0.25666667  60.89136328]]","[[0.         1.38463402]
 [0.1        1.37480081]
 [0.2        0.42262721]
 [0.25666667 1.58192794]]",1,0.66
8773808799,f,21,english,5,3,english,2024-02-01 10:28:30.826823,False,1,148,sounds\french\audio/french_706.wav,"[[  0.          53.91986852]
 [  0.1        -86.79287422]
 [  0.2        -18.13553248]
 [  0.25666667 -98.41078943]]","[[0.         0.595313  ]
 [0.1        0.19033695]
 [0.2        1.2444166 ]
 [0.25666667 0.51551453]]",0,0.419
8773808799,f,21,english,5,3,english,2024-02-01 10:28:30.826823,False,1,149,sounds\french\audio/french_638.wav,"[[  0.         -18.90498038]
 [  0.1        -28.86355513]
 [  0.2        -97.62198235]
 [  0.25666667  26.30993693]]","[[0.         0.47409532]
 [0.1        1.76910273]
 [0.2        0.72222374]
 [0.25666667 0.09803926]]",1,0.363
8773808799,f,21,english,5,3,english,2024-02-01 10:28:30.826823,False,1,150,sounds\french\audio/french_647.wav,"[[  0.         -41.18361869]
 [  0.1         11.48241437]
 [  0.2         60.38354651]
 [  0.25666667  15.78737628]]","[[0.         1.9224231 ]
 [0.1        1.96851625]
 [0.2        1.74064919]
 [0.25666667 1.76296374]]",1,0.238
8773808799,f,21,english,5,3,english,2024-02-01 10:28:30.826823,False,1,151,sounds\french\audio/french_605.wav,"[[  0.         -36.16596328]
 [  0.1        -79.4068097 ]
 [  0.2        -61.39154049]
 [  0.25666667  44.72298118]]","[[0.         1.67360444]
 [0.1        0.60127341]
 [0.2        0.37070459]
 [0.25666667 1.73994467]]",0,0.499
8773808799,f,21,english,5,3,english,2024-02-01 10:28:30.826823,False,1,152,sounds\french\audio/french_342.wav,"[[  0.         -84.22246184]
 [  0.1        -88.55202377]
 [  0.2         12.74462997]
 [  0.25666667 -73.67155113]]","[[0.         0.80111929]
 [0.1        0.92289162]
 [0.2        0.96187701]
 [0.25666667 0.57764427]]",1,0.607
8773808799,f,21,english,5,3,english,2024-02-01 10:28:30.826823,False,1,153,sounds\french\audio/french_45.wav,"[[  0.           6.51510613]
 [  0.1        -86.25018513]
 [  0.2        -60.46903131]
 [  0.25666667 -48.31089161]]","[[0.         0.83763225]
 [0.1        1.19709151]
 [0.2        0.87484565]
 [0.25666667 0.45414185]]",1,0.543
8773808799,f,21,english,5,3,english,2024-02-01 10:28:30.826823,False,1,154,sounds\french\audio/french_781.wav,"[[  0.          33.25938538]
 [  0.1        -13.90292419]
 [  0.2        -71.59350782]
 [  0.25666667  57.07291034]]","[[0.         1.27105286]
 [0.1        0.93357863]
 [0.2        1.0124146 ]
 [0.25666667 0.68511696]]",0,0.299
8773808799,f,21,english,5,3,english,2024-02-01 10:28:30.826823,False,1,155,sounds\french\audio/french_841.wav,"[[  0.         -39.25619305]
 [  0.1         99.64346723]
 [  0.2         76.90020667]
 [  0.25666667  40.01429738]]","[[0.         0.53587318]
 [0.1        0.26500163]
 [0.2        1.77796469]
 [0.25666667 0.75111943]]",1,0.435
8773808799,f,21,english,5,3,english,2024-02-01 10:28:30.826823,False,1,156,sounds\french\audio/french_195.wav,"[[  0.          -1.90342588]
 [  0.1         -8.12665825]
 [  0.2         -5.61431002]
 [  0.25666667 -66.29175925]]","[[0.         0.62941576]
 [0.1        1.90753939]
 [0.2        1.47732259]
 [0.25666667 0.68212586]]",1,0.396
8773808799,f,21,english,5,3,english,2024-02-01 10:28:30.826823,False,1,157,sounds\french\audio/french_779.wav,"[[  0.         -23.73686582]
 [  0.1         96.23962081]
 [  0.2         19.26430851]
 [  0.25666667 -72.92378626]]","[[0.         0.65858767]
 [0.1        1.55580865]
 [0.2        1.22244229]
 [0.25666667 1.83333034]]",1,0.397
8773808799,f,21,english,5,3,english,2024-02-01 10:28:30.826823,False,1,158,sounds\french\audio/french_993.wav,"[[  0.           3.12847982]
 [  0.1        -78.95304083]
 [  0.2        -13.84245357]
 [  0.25666667  66.66979397]]","[[0.         1.75015027]
 [0.1        0.83743251]
 [0.2        0.53594991]
 [0.25666667 1.46895698]]",0,0.676
8773808799,f,21,english,5,3,english,2024-02-01 10:28:30.826823,False,1,159,sounds\french\audio/french_169.wav,"[[  0.          14.47590961]
 [  0.1         38.07545665]
 [  0.2        -50.40298695]
 [  0.25666667  25.61467991]]","[[0.         1.38784349]
 [0.1        1.28983767]
 [0.2        0.58936297]
 [0.25666667 0.49151359]]",0,1.22
8773808799,f,21,english,5,3,english,2024-02-01 10:28:30.826823,False,1,160,sounds\french\audio/french_349.wav,"[[  0.          73.89254537]
 [  0.1        -84.33493486]
 [  0.2         -3.2709249 ]
 [  0.25666667 -21.54511299]]","[[0.         0.17403551]
 [0.1        1.66487719]
 [0.2        1.53740634]
 [0.25666667 1.56834066]]",1,1.268
8773808799,f,21,english,5,3,english,2024-02-01 10:28:30.826823,False,1,161,sounds\french\audio/french_763.wav,"[[  0.         -96.72958763]
 [  0.1         95.66434095]
 [  0.2        -84.28875962]
 [  0.25666667 -41.37848175]]","[[0.         0.69845728]
 [0.1        1.4089076 ]
 [0.2        1.74428554]
 [0.25666667 0.12054272]]",1,0.338
8773808799,f,21,english,5,3,english,2024-02-01 10:28:30.826823,False,1,162,sounds\french\audio/french_325.wav,"[[  0.          88.71142286]
 [  0.1        -56.3206586 ]
 [  0.2         41.53206129]
 [  0.25666667 -39.91784783]]","[[0.         0.52996958]
 [0.1        1.24996424]
 [0.2        1.51417943]
 [0.25666667 1.21569626]]",1,0.327
8773808799,f,21,english,5,3,english,2024-02-01 10:28:30.826823,False,1,163,sounds\french\audio/french_797.wav,"[[ 0.         10.83398763]
 [ 0.1        29.96867406]
 [ 0.2        64.14464291]
 [ 0.25666667 10.44882606]]","[[0.         1.35681854]
 [0.1        1.57636752]
 [0.2        0.81932008]
 [0.25666667 0.26521499]]",1,0.323
8773808799,f,21,english,5,3,english,2024-02-01 10:28:30.826823,False,1,164,sounds\french\audio/french_63.wav,"[[  0.         -81.8544396 ]
 [  0.1         15.35577337]
 [  0.2        -93.67975396]
 [  0.25666667   6.98256112]]","[[0.         0.29798693]
 [0.1        0.29415435]
 [0.2        1.48728433]
 [0.25666667 1.07216934]]",0,0.23
8773808799,f,21,english,5,3,english,2024-02-01 10:28:30.826823,False,1,165,sounds\french\audio/french_230.wav,"[[  0.         -41.35992563]
 [  0.1         43.67449439]
 [  0.2         25.98311508]
 [  0.25666667 -21.63443629]]","[[0.         1.74508263]
 [0.1        0.13993269]
 [0.2        0.94473259]
 [0.25666667 1.52757814]]",0,0.39
8773808799,f,21,english,5,3,english,2024-02-01 10:28:30.826823,False,1,166,sounds\french\audio/french_166.wav,"[[  0.         -13.71320418]
 [  0.1        -74.77814183]
 [  0.2         42.48534987]
 [  0.25666667 -48.97271451]]","[[0.         1.40282364]
 [0.1        0.51226478]
 [0.2        1.59981073]
 [0.25666667 1.00485648]]",1,0.419
8773808799,f,21,english,5,3,english,2024-02-01 10:28:30.826823,False,1,167,sounds\french\audio/french_83.wav,"[[ 0.         45.44740295]
 [ 0.1        42.82646372]
 [ 0.2        -9.21139132]
 [ 0.25666667 30.29486893]]","[[0.         0.80263788]
 [0.1        1.96742974]
 [0.2        0.40483772]
 [0.25666667 0.1024326 ]]",1,0.296
8773808799,f,21,english,5,3,english,2024-02-01 10:28:30.826823,False,1,168,sounds\french\audio/french_594.wav,"[[  0.         -77.17245549]
 [  0.1         -9.42910309]
 [  0.2         28.840902  ]
 [  0.25666667 -27.68960177]]","[[0.         1.803544  ]
 [0.1        1.0387293 ]
 [0.2        1.64762654]
 [0.25666667 0.23150428]]",1,0.34
8773808799,f,21,english,5,3,english,2024-02-01 10:28:30.826823,False,1,169,sounds\french\audio/french_387.wav,"[[  0.         -24.2271051 ]
 [  0.1        -69.58889879]
 [  0.2         21.02997226]
 [  0.25666667  58.82746302]]","[[0.         0.1957751 ]
 [0.1        0.86781049]
 [0.2        1.73501265]
 [0.25666667 1.75042849]]",0,0.384
8773808799,f,21,english,5,3,english,2024-02-01 10:28:30.826823,False,1,170,sounds\french\audio/french_762.wav,"[[  0.         -45.61990315]
 [  0.1        -38.16727298]
 [  0.2        -15.44626984]
 [  0.25666667 -31.31206952]]","[[0.         0.95776955]
 [0.1        0.16992331]
 [0.2        1.21301125]
 [0.25666667 0.49399223]]",0,1.108
8773808799,f,21,english,5,3,english,2024-02-01 10:28:30.826823,False,1,171,sounds\french\audio/french_262.wav,"[[  0.         -64.23156272]
 [  0.1        -18.68430003]
 [  0.2        -74.67542291]
 [  0.25666667  29.36963449]]","[[0.         0.64961321]
 [0.1        0.97192609]
 [0.2        0.40249154]
 [0.25666667 0.8696964 ]]",0,0.876
8773808799,f,21,english,5,3,english,2024-02-01 10:28:30.826823,False,1,172,sounds\french\audio/french_34.wav,"[[  0.         -97.24360174]
 [  0.1         62.38297295]
 [  0.2        -49.09622703]
 [  0.25666667 -40.35720841]]","[[0.         1.95744133]
 [0.1        1.24423752]
 [0.2        1.91649641]
 [0.25666667 1.03651442]]",1,0.223
8773808799,f,21,english,5,3,english,2024-02-01 10:28:30.826823,False,1,173,sounds\french\audio/french_230.wav,"[[  0.         -41.35992563]
 [  0.1         43.67449439]
 [  0.2         25.98311508]
 [  0.25666667 -21.63443629]]","[[0.         1.74508263]
 [0.1        0.13993269]
 [0.2        0.94473259]
 [0.25666667 1.52757814]]",0,0.897
8773808799,f,21,english,5,3,english,2024-02-01 10:28:30.826823,False,1,174,sounds\french\audio/french_234.wav,"[[  0.          40.80444991]
 [  0.1        -12.8326651 ]
 [  0.2         35.77292413]
 [  0.25666667  70.48005605]]","[[0.         0.6735757 ]
 [0.1        0.4328315 ]
 [0.2        1.793606  ]
 [0.25666667 0.88572041]]",0,0.663
8773808799,f,21,english,5,3,english,2024-02-01 10:28:30.826823,False,1,175,sounds\french\audio/french_497.wav,"[[  0.         -34.77858655]
 [  0.1        -52.52188589]
 [  0.2         81.6415951 ]
 [  0.25666667  23.98828418]]","[[0.         0.98641894]
 [0.1        1.48106735]
 [0.2        1.37619597]
 [0.25666667 1.87248846]]",1,0.261
8773808799,f,21,english,5,3,english,2024-02-01 10:28:30.826823,False,1,176,sounds\french\audio/french_476.wav,"[[  0.         -83.79523633]
 [  0.1         62.15522278]
 [  0.2        -62.9629606 ]
 [  0.25666667  29.80880048]]","[[0.         0.72975737]
 [0.1        1.65535888]
 [0.2        1.94146275]
 [0.25666667 1.32492406]]",1,0.241
8773808799,f,21,english,5,3,english,2024-02-01 10:28:30.826823,False,1,177,sounds\french\audio/french_734.wav,"[[  0.          24.54171911]
 [  0.1         62.00217695]
 [  0.2        -55.547606  ]
 [  0.25666667  25.07561383]]","[[0.         0.95806039]
 [0.1        1.43009574]
 [0.2        0.47319646]
 [0.25666667 0.83118698]]",1,0.367
8773808799,f,21,english,5,3,english,2024-02-01 10:28:30.826823,False,1,178,sounds\french\audio/french_280.wav,"[[  0.         -67.41100242]
 [  0.1         -0.65291527]
 [  0.2        -45.07946214]
 [  0.25666667 -37.24252155]]","[[0.         0.87165921]
 [0.1        0.40210454]
 [0.2        0.8560963 ]
 [0.25666667 1.09108247]]",0,0.696
8773808799,f,21,english,5,3,english,2024-02-01 10:28:30.826823,False,1,179,sounds\french\audio/french_462.wav,"[[  0.         -21.95394664]
 [  0.1         40.83343907]
 [  0.2        -14.27053038]
 [  0.25666667  85.20745493]]","[[0.         1.87011175]
 [0.1        1.54087482]
 [0.2        0.9591328 ]
 [0.25666667 0.45105527]]",1,0.232
8773808799,f,21,english,5,3,english,2024-02-01 10:28:30.826823,False,1,180,sounds\french\audio/french_61.wav,"[[  0.          65.32887924]
 [  0.1         45.09641809]
 [  0.2        -37.75339878]
 [  0.25666667  87.5089899 ]]","[[0.         1.15653785]
 [0.1        1.72373813]
 [0.2        1.38726196]
 [0.25666667 0.41594812]]",1,0.528
8773808799,f,21,english,5,3,english,2024-02-01 10:28:30.826823,False,1,181,sounds\french\audio/french_357.wav,"[[  0.         -39.34197693]
 [  0.1         71.15894406]
 [  0.2        -59.30154436]
 [  0.25666667  60.48174113]]","[[0.         1.60610182]
 [0.1        0.3952593 ]
 [0.2        0.60654741]
 [0.25666667 0.43480054]]",0,0.27
8773808799,f,21,english,5,3,english,2024-02-01 10:28:30.826823,False,1,182,sounds\french\audio/french_458.wav,"[[  0.          13.7688173 ]
 [  0.1         19.53863665]
 [  0.2        -90.92797006]
 [  0.25666667  55.23452131]]","[[0.         1.1950835 ]
 [0.1        0.33129566]
 [0.2        0.65773392]
 [0.25666667 1.54778139]]",0,0.727
8773808799,f,21,english,5,3,english,2024-02-01 10:28:30.826823,False,1,183,sounds\french\audio/french_263.wav,"[[  0.          25.02930943]
 [  0.1         77.59070044]
 [  0.2         61.13366196]
 [  0.25666667 -46.58539851]]","[[0.         0.29249845]
 [0.1        1.82268286]
 [0.2        0.69638669]
 [0.25666667 0.57279137]]",1,0.319
8773808799,f,21,english,5,3,english,2024-02-01 10:28:30.826823,False,1,184,sounds\french\audio/french_786.wav,"[[ 0.         46.81596915]
 [ 0.1        35.10066142]
 [ 0.2        15.54537814]
 [ 0.25666667 97.25347056]]","[[0.         0.36321177]
 [0.1        1.24415108]
 [0.2        1.19760647]
 [0.25666667 0.79076548]]",0,0.303
8773808799,f,21,english,5,3,english,2024-02-01 10:28:30.826823,False,1,185,sounds\french\audio/french_652.wav,"[[  0.          19.60271983]
 [  0.1        -55.33376602]
 [  0.2         42.10956493]
 [  0.25666667 -47.80028189]]","[[0.         1.92708098]
 [0.1        1.28238944]
 [0.2        0.03244996]
 [0.25666667 1.59505934]]",1,0.282
8773808799,f,21,english,5,3,english,2024-02-01 10:28:30.826823,False,1,186,sounds\french\audio/french_824.wav,"[[  0.          95.58094713]
 [  0.1        -47.05258515]
 [  0.2         43.18521816]
 [  0.25666667  -5.69582576]]","[[0.         1.84230129]
 [0.1        1.74244762]
 [0.2        1.04703492]
 [0.25666667 0.75358401]]",0,0.202
8773808799,f,21,english,5,3,english,2024-02-01 10:28:30.826823,False,1,187,sounds\french\audio/french_204.wav,"[[  0.         -28.36319627]
 [  0.1        -92.66891013]
 [  0.2         96.29592204]
 [  0.25666667 -46.81515004]]","[[0.         0.07789368]
 [0.1        0.00203791]
 [0.2        1.92374636]
 [0.25666667 0.97947469]]",1,2.935
8773808799,f,21,english,5,3,english,2024-02-01 10:28:30.826823,False,1,188,sounds\french\audio/french_371.wav,"[[  0.          31.80119749]
 [  0.1        -38.52135119]
 [  0.2          9.85895876]
 [  0.25666667  79.11511398]]","[[0.         0.65227963]
 [0.1        1.80763105]
 [0.2        1.44692227]
 [0.25666667 1.12716888]]",1,0.456
8773808799,f,21,english,5,3,english,2024-02-01 10:28:30.826823,False,1,189,sounds\french\audio/french_19.wav,"[[  0.         -43.32613145]
 [  0.1        -51.04998213]
 [  0.2        -30.05832199]
 [  0.25666667 -62.89931607]]","[[0.         0.86768791]
 [0.1        0.12235363]
 [0.2        0.93205141]
 [0.25666667 0.68272422]]",0,0.475
8773808799,f,21,english,5,3,english,2024-02-01 10:28:30.826823,False,1,190,sounds\french\audio/french_141.wav,"[[ 0.         88.60100695]
 [ 0.1        68.96819773]
 [ 0.2         1.7368606 ]
 [ 0.25666667 19.36556264]]","[[0.         0.97838459]
 [0.1        1.47503319]
 [0.2        1.40537453]
 [0.25666667 0.305772  ]]",0,0.886
8773808799,f,21,english,5,3,english,2024-02-01 10:28:30.826823,False,1,191,sounds\french\audio/french_742.wav,"[[  0.          70.50155873]
 [  0.1        -40.99625843]
 [  0.2          6.68379951]
 [  0.25666667 -76.31698705]]","[[0.         0.93659897]
 [0.1        1.14125333]
 [0.2        1.25957194]
 [0.25666667 0.86761951]]",1,0.268
8773808799,f,21,english,5,3,english,2024-02-01 10:28:30.826823,False,1,192,sounds\french\audio/french_68.wav,"[[  0.          58.83829029]
 [  0.1         77.59339865]
 [  0.2        -73.88341881]
 [  0.25666667 -24.56901296]]","[[0.         1.80244508]
 [0.1        1.3442738 ]
 [0.2        1.16581557]
 [0.25666667 0.71132336]]",1,0.211
8773808799,f,21,english,5,3,english,2024-02-01 10:28:30.826823,False,1,193,sounds\french\audio/french_698.wav,"[[  0.          77.87531809]
 [  0.1        -26.89699032]
 [  0.2        -54.93316964]
 [  0.25666667 -94.94644501]]","[[0.         1.86418809]
 [0.1        0.30357323]
 [0.2        1.97458381]
 [0.25666667 1.01877906]]",1,0.626
8773808799,f,21,english,5,3,english,2024-02-01 10:28:30.826823,False,1,194,sounds\french\audio/french_932.wav,"[[  0.         -46.06723632]
 [  0.1         66.80974186]
 [  0.2         39.28685727]
 [  0.25666667 -66.26323275]]","[[0.         0.59994833]
 [0.1        1.29573715]
 [0.2        0.97302603]
 [0.25666667 1.65300799]]",0,0.321
8773808799,f,21,english,5,3,english,2024-02-01 10:28:30.826823,False,1,195,sounds\french\audio/french_59.wav,"[[  0.          39.36273925]
 [  0.1        -72.05438318]
 [  0.2        -58.73379721]
 [  0.25666667 -71.89754194]]","[[0.         0.85213244]
 [0.1        0.54541244]
 [0.2        0.77028914]
 [0.25666667 0.84538443]]",0,0.47
8773808799,f,21,english,5,3,english,2024-02-01 10:28:30.826823,False,1,196,sounds\french\audio/french_563.wav,"[[  0.           1.48089244]
 [  0.1         19.03426996]
 [  0.2        -28.07832236]
 [  0.25666667  33.25369521]]","[[0.         0.83142925]
 [0.1        1.65727988]
 [0.2        1.36487064]
 [0.25666667 0.18463038]]",1,0.226
8773808799,f,21,english,5,3,english,2024-02-01 10:28:30.826823,False,1,197,sounds\french\audio/french_431.wav,"[[  0.         -54.98282588]
 [  0.1        -84.59035382]
 [  0.2        -24.91317649]
 [  0.25666667  11.58207854]]","[[0.         1.39465542]
 [0.1        1.77814632]
 [0.2        0.57412197]
 [0.25666667 1.85348509]]",1,0.238
8773808799,f,21,english,5,3,english,2024-02-01 10:28:30.826823,False,1,198,sounds\french\audio/french_134.wav,"[[  0.         -65.58132827]
 [  0.1        -89.82992505]
 [  0.2          9.99695038]
 [  0.25666667  24.50908123]]","[[0.         0.68669704]
 [0.1        1.50131287]
 [0.2        0.69598371]
 [0.25666667 1.57047358]]",0,0.273
8773808799,f,21,english,5,3,english,2024-02-01 10:28:30.826823,False,1,199,sounds\french\audio/french_389.wav,"[[  0.          69.62296415]
 [  0.1        -41.49433877]
 [  0.2        -65.025051  ]
 [  0.25666667  10.9117334 ]]","[[0.         1.67675408]
 [0.1        1.60540147]
 [0.2        0.45817867]
 [0.25666667 1.10562968]]",1,0.214
8773808799,f,21,english,5,3,english,2024-02-01 10:28:30.826823,False,1,200,sounds\french\audio/french_410.wav,"[[  0.         -57.70995681]
 [  0.1         48.77026686]
 [  0.2        -48.38648813]
 [  0.25666667  53.40375253]]","[[0.         0.42078672]
 [0.1        1.91428116]
 [0.2        0.69257086]
 [0.25666667 1.23009328]]",0,0.211
8773808799,f,21,english,5,3,english,2024-02-01 10:28:30.826823,False,1,201,sounds\french\audio/french_987.wav,"[[ 0.         29.59235099]
 [ 0.1        34.94187385]
 [ 0.2        50.69614072]
 [ 0.25666667 30.08512425]]","[[0.         0.62183529]
 [0.1        0.21370909]
 [0.2        0.33639435]
 [0.25666667 1.23768731]]",0,1.1
8773808799,f,21,english,5,3,english,2024-02-01 10:28:30.826823,False,1,202,sounds\french\audio/french_4.wav,"[[  0.          98.95945082]
 [  0.1         -3.3646243 ]
 [  0.2        -24.17143146]
 [  0.25666667  88.72564355]]","[[0.         0.64471479]
 [0.1        0.78588128]
 [0.2        0.06764648]
 [0.25666667 1.26067449]]",0,0.481
8773808799,f,21,english,5,3,english,2024-02-01 10:28:30.826823,False,1,203,sounds\french\audio/french_165.wav,"[[ 0.         34.81781775]
 [ 0.1        -0.63630456]
 [ 0.2        85.92593744]
 [ 0.25666667  7.56589877]]","[[0.         0.27086967]
 [0.1        1.42196963]
 [0.2        1.99513726]
 [0.25666667 0.37439059]]",1,0.366
8773808799,f,21,english,5,3,english,2024-02-01 10:28:30.826823,False,1,204,sounds\french\audio/french_665.wav,"[[  0.           1.77078633]
 [  0.1        -95.60257374]
 [  0.2        -26.21333041]
 [  0.25666667 -67.7705493 ]]","[[0.         0.29838278]
 [0.1        0.72198918]
 [0.2        0.91284695]
 [0.25666667 0.52625369]]",0,0.898
8773808799,f,21,english,5,3,english,2024-02-01 10:28:30.826823,False,1,205,sounds\french\audio/french_636.wav,"[[ 0.         79.1724471 ]
 [ 0.1        25.25700376]
 [ 0.2        72.37529148]
 [ 0.25666667 12.21946345]]","[[0.         0.8082817 ]
 [0.1        1.50975093]
 [0.2        0.99206968]
 [0.25666667 0.17038819]]",1,4.133
8773808799,f,21,english,5,3,english,2024-02-01 10:28:30.826823,False,1,206,sounds\french\audio/french_855.wav,"[[ 0.          2.71159552]
 [ 0.1        66.05842931]
 [ 0.2        41.00995311]
 [ 0.25666667 98.2962498 ]]","[[0.         1.64624975]
 [0.1        0.54809415]
 [0.2        1.64541289]
 [0.25666667 1.22205238]]",0,0.26
8773808799,f,21,english,5,3,english,2024-02-01 10:28:30.826823,False,1,207,sounds\french\audio/french_879.wav,"[[  0.         -48.96816685]
 [  0.1        -79.01398257]
 [  0.2        -55.9985187 ]
 [  0.25666667 -98.06504365]]","[[0.         1.19104759]
 [0.1        0.98306132]
 [0.2        0.68767433]
 [0.25666667 1.4115175 ]]",1,0.393
8773808799,f,21,english,5,3,english,2024-02-01 10:28:30.826823,False,1,208,sounds\french\audio/french_487.wav,"[[  0.          26.50580686]
 [  0.1        -34.14449754]
 [  0.2         66.18137857]
 [  0.25666667  -7.03677771]]","[[0.         1.63350644]
 [0.1        1.29368608]
 [0.2        0.20656395]
 [0.25666667 1.93991824]]",1,0.722
8773808799,f,21,english,5,3,english,2024-02-01 10:28:30.826823,False,1,209,sounds\french\audio/french_967.wav,"[[  0.          79.70451557]
 [  0.1        -96.60134716]
 [  0.2         12.1279289 ]
 [  0.25666667 -44.3997303 ]]","[[0.         1.26694721]
 [0.1        0.15349476]
 [0.2        0.99393875]
 [0.25666667 1.32782977]]",0,0.521
8773808799,f,21,english,5,3,english,2024-02-01 10:28:30.826823,False,1,210,sounds\french\audio/french_440.wav,"[[  0.         -59.81098651]
 [  0.1         55.41661021]
 [  0.2         43.77043266]
 [  0.25666667  -5.41632891]]","[[0.         0.93400427]
 [0.1        0.25641934]
 [0.2        0.61594081]
 [0.25666667 1.32329824]]",0,0.877
8773808799,f,21,english,5,3,english,2024-02-01 10:28:30.826823,False,1,211,sounds\french\audio/french_680.wav,"[[  0.         -51.31535201]
 [  0.1        -31.64171723]
 [  0.2         81.67923452]
 [  0.25666667  54.52860803]]","[[0.         1.24719536]
 [0.1        1.74184859]
 [0.2        0.78878625]
 [0.25666667 1.82878415]]",1,0.301
8773808799,f,21,english,5,3,english,2024-02-01 10:28:30.826823,False,1,212,sounds\french\audio/french_652.wav,"[[  0.          19.60271983]
 [  0.1        -55.33376602]
 [  0.2         42.10956493]
 [  0.25666667 -47.80028189]]","[[0.         1.92708098]
 [0.1        1.28238944]
 [0.2        0.03244996]
 [0.25666667 1.59505934]]",0,0.216
8773808799,f,21,english,5,3,english,2024-02-01 10:28:30.826823,False,1,213,sounds\french\audio/french_719.wav,"[[  0.          -0.39387326]
 [  0.1          1.52424656]
 [  0.2         34.63950895]
 [  0.25666667 -19.23986751]]","[[0.         0.47887204]
 [0.1        1.22874683]
 [0.2        0.97564384]
 [0.25666667 0.79252429]]",1,0.369
8773808799,f,21,english,5,3,english,2024-02-01 10:28:30.826823,False,1,214,sounds\french\audio/french_923.wav,"[[  0.         -57.84523262]
 [  0.1        -15.65652506]
 [  0.2         37.84243464]
 [  0.25666667  15.41728704]]","[[0.         1.35677253]
 [0.1        1.1280373 ]
 [0.2        1.38752537]
 [0.25666667 1.42596606]]",0,0.148
8773808799,f,21,english,5,3,english,2024-02-01 10:28:30.826823,False,1,215,sounds\french\audio/french_45.wav,"[[  0.           6.51510613]
 [  0.1        -86.25018513]
 [  0.2        -60.46903131]
 [  0.25666667 -48.31089161]]","[[0.         0.83763225]
 [0.1        1.19709151]
 [0.2        0.87484565]
 [0.25666667 0.45414185]]",0,0.714
8773808799,f,21,english,5,3,english,2024-02-01 10:28:30.826823,False,1,216,sounds\french\audio/french_152.wav,"[[  0.          -3.84179402]
 [  0.1         56.28738818]
 [  0.2        -25.33799013]
 [  0.25666667 -10.23447911]]","[[0.         0.21245747]
 [0.1        1.74384484]
 [0.2        1.40208126]
 [0.25666667 0.94312755]]",1,0.373
8773808799,f,21,english,5,3,english,2024-02-01 10:28:30.826823,False,1,217,sounds\french\audio/french_792.wav,"[[  0.         -30.95032355]
 [  0.1         73.05460755]
 [  0.2         -0.6809714 ]
 [  0.25666667  25.15150688]]","[[0.         0.5884638 ]
 [0.1        1.61732216]
 [0.2        1.33614238]
 [0.25666667 0.65397567]]",1,0.637
8773808799,f,21,english,5,3,english,2024-02-01 10:28:30.826823,False,1,218,sounds\french\audio/french_545.wav,"[[  0.         -11.63741059]
 [  0.1         -9.34763636]
 [  0.2        -52.50880558]
 [  0.25666667 -35.41027588]]","[[0.         1.28855558]
 [0.1        0.4133233 ]
 [0.2        1.98413737]
 [0.25666667 0.10366118]]",1,0.241
8773808799,f,21,english,5,3,english,2024-02-01 10:28:30.826823,False,1,219,sounds\french\audio/french_975.wav,"[[  0.         -26.92402708]
 [  0.1        -12.18779535]
 [  0.2        -49.74503626]
 [  0.25666667  48.08434321]]","[[0.         1.54282139]
 [0.1        0.57018571]
 [0.2        1.72772198]
 [0.25666667 1.83415107]]",0,0.078
8773808799,f,21,english,5,3,english,2024-02-01 10:28:30.826823,False,1,220,sounds\french\audio/french_140.wav,"[[  0.          88.20971648]
 [  0.1        -47.21457526]
 [  0.2        -33.13299566]
 [  0.25666667   6.89149494]]","[[0.         1.40468934]
 [0.1        0.07517377]
 [0.2        0.96987146]
 [0.25666667 0.45515396]]",0,0.232
8773808799,f,21,english,5,3,english,2024-02-01 10:28:30.826823,False,1,221,sounds\french\audio/french_896.wav,"[[  0.         -50.03367973]
 [  0.1         73.95849411]
 [  0.2         16.78858773]
 [  0.25666667 -49.02431976]]","[[0.         0.4350745 ]
 [0.1        1.7879982 ]
 [0.2        0.61207276]
 [0.25666667 0.35432813]]",1,0.27
8773808799,f,21,english,5,3,english,2024-02-01 10:28:30.826823,False,1,222,sounds\french\audio/french_533.wav,"[[  0.          16.04004141]
 [  0.1         56.74964814]
 [  0.2         94.00728235]
 [  0.25666667 -15.92685786]]","[[0.         1.94214745]
 [0.1        0.96958639]
 [0.2        1.49563925]
 [0.25666667 1.75047909]]",1,0.175
8773808799,f,21,english,5,3,english,2024-02-01 10:28:30.826823,False,1,223,sounds\french\audio/french_675.wav,"[[  0.         -70.79994344]
 [  0.1         -7.59389362]
 [  0.2         -3.58790265]
 [  0.25666667 -30.70883091]]","[[0.         1.47729798]
 [0.1        0.30115563]
 [0.2        1.39440132]
 [0.25666667 1.61039035]]",1,0.246
8773808799,f,21,english,5,3,english,2024-02-01 10:28:30.826823,False,1,224,sounds\french\audio/french_201.wav,"[[  0.           8.42387769]
 [  0.1          8.12168757]
 [  0.2        -23.47755607]
 [  0.25666667 -30.65193461]]","[[0.         1.26451206]
 [0.1        1.63493769]
 [0.2        1.48075017]
 [0.25666667 1.0984385 ]]",0,0.094
8773808799,f,21,english,5,3,english,2024-02-01 10:28:30.826823,False,1,225,sounds\french\audio/french_93.wav,"[[  0.          23.57211404]
 [  0.1        -16.15934767]
 [  0.2         25.54711871]
 [  0.25666667  65.09284613]]","[[0.         0.62732128]
 [0.1        0.10811818]
 [0.2        0.30787392]
 [0.25666667 1.57978374]]",0,0.51
8773808799,f,21,english,5,3,english,2024-02-01 10:28:30.826823,False,1,226,sounds\french\audio/french_299.wav,"[[  0.          12.52470623]
 [  0.1        -97.26544336]
 [  0.2        -80.62903972]
 [  0.25666667  73.47257664]]","[[0.         1.64482663]
 [0.1        1.84069115]
 [0.2        0.25110426]
 [0.25666667 1.45765737]]",1,0.232
8773808799,f,21,english,5,3,english,2024-02-01 10:28:30.826823,False,1,227,sounds\french\audio/french_492.wav,"[[  0.          26.23401792]
 [  0.1        -24.69700304]
 [  0.2         20.89476161]
 [  0.25666667  -5.21833306]]","[[0.         1.39276004]
 [0.1        1.17915575]
 [0.2        0.89700471]
 [0.25666667 0.44164607]]",1,0.235
8773808799,f,21,english,5,3,english,2024-02-01 10:28:30.826823,False,1,228,sounds\french\audio/french_955.wav,"[[ 0.         49.41572239]
 [ 0.1        75.37923123]
 [ 0.2         0.1370905 ]
 [ 0.25666667 22.03577701]]","[[0.         1.13440167]
 [0.1        1.49278765]
 [0.2        0.20624254]
 [0.25666667 0.01599226]]",1,0.339
8773808799,f,21,english,5,3,english,2024-02-01 10:28:30.826823,False,1,229,sounds\french\audio/french_836.wav,"[[ 0.         40.23641464]
 [ 0.1        53.79535187]
 [ 0.2        -4.0789246 ]
 [ 0.25666667  3.8536211 ]]","[[0.         0.42377088]
 [0.1        0.63943013]
 [0.2        1.19242466]
 [0.25666667 1.488673  ]]",0,0.265
8773808799,f,21,english,5,3,english,2024-02-01 10:28:30.826823,False,1,230,sounds\french\audio/french_806.wav,"[[  0.          97.26957313]
 [  0.1         79.44562669]
 [  0.2         79.77586719]
 [  0.25666667 -46.2684083 ]]","[[0.         1.48673004]
 [0.1        1.9967546 ]
 [0.2        0.9238106 ]
 [0.25666667 1.39755131]]",1,0.168
8773808799,f,21,english,5,3,english,2024-02-01 10:28:30.826823,False,1,231,sounds\french\audio/french_615.wav,"[[  0.         -99.04240885]
 [  0.1        -49.15643876]
 [  0.2        -66.91195639]
 [  0.25666667 -56.29346357]]","[[0.         1.08448469]
 [0.1        1.88363881]
 [0.2        1.28593097]
 [0.25666667 1.82136606]]",1,0.14
8773808799,f,21,english,5,3,english,2024-02-01 10:28:30.826823,False,1,232,sounds\french\audio/french_976.wav,"[[  0.         -70.02335232]
 [  0.1        -61.25816472]
 [  0.2         38.21349803]
 [  0.25666667  27.10323863]]","[[0.         0.30263581]
 [0.1        1.77513966]
 [0.2        0.48920434]
 [0.25666667 1.97348905]]",1,0.263
8773808799,f,21,english,5,3,english,2024-02-01 10:28:30.826823,False,1,233,sounds\french\audio/french_581.wav,"[[  0.         -12.19849528]
 [  0.1         96.23210286]
 [  0.2        -75.71717575]
 [  0.25666667  36.78246633]]","[[0.         0.7315947 ]
 [0.1        0.75639682]
 [0.2        0.47033606]
 [0.25666667 0.84951166]]",0,0.601
8773808799,f,21,english,5,3,english,2024-02-01 10:28:30.826823,False,1,234,sounds\french\audio/french_517.wav,"[[  0.          10.61669355]
 [  0.1        -49.88851761]
 [  0.2         47.72087598]
 [  0.25666667 -22.50236439]]","[[0.         0.19899019]
 [0.1        1.4553669 ]
 [0.2        1.48195648]
 [0.25666667 0.87629427]]",0,0.375
8773808799,f,21,english,5,3,english,2024-02-01 10:28:30.826823,False,1,235,sounds\french\audio/french_845.wav,"[[  0.          -4.24220541]
 [  0.1        -33.05758094]
 [  0.2        -22.8575131 ]
 [  0.25666667 -28.52835037]]","[[0.         1.81527349]
 [0.1        0.43145559]
 [0.2        1.45726833]
 [0.25666667 1.38023089]]",0,0.29
8773808799,f,21,english,5,3,english,2024-02-01 10:28:30.826823,False,1,236,sounds\french\audio/french_81.wav,"[[ 0.         43.03410676]
 [ 0.1        37.87573495]
 [ 0.2        -9.17332854]
 [ 0.25666667 10.13667473]]","[[0.         0.84411959]
 [0.1        1.10924478]
 [0.2        1.82652056]
 [0.25666667 1.52638082]]",0,0.571
8773808799,f,21,english,5,3,english,2024-02-01 10:28:30.826823,False,1,237,sounds\french\audio/french_990.wav,"[[  0.          31.68812365]
 [  0.1        -82.48323459]
 [  0.2         39.0525666 ]
 [  0.25666667 -59.77120272]]","[[0.         0.81704568]
 [0.1        1.80008391]
 [0.2        1.73012532]
 [0.25666667 0.71793452]]",0,0.671
8773808799,f,21,english,5,3,english,2024-02-01 10:28:30.826823,False,1,238,sounds\french\audio/french_642.wav,"[[  0.          94.74505174]
 [  0.1        -41.90916732]
 [  0.2        -70.07976965]
 [  0.25666667  42.72168091]]","[[0.         1.94145252]
 [0.1        1.43327494]
 [0.2        0.59817774]
 [0.25666667 1.11755549]]",1,0.831
8773808799,f,21,english,5,3,english,2024-02-01 10:28:30.826823,False,1,239,sounds\french\audio/french_798.wav,"[[  0.          80.80013175]
 [  0.1          8.18850232]
 [  0.2        -10.54144101]
 [  0.25666667  26.86908184]]","[[0.         1.56222047]
 [0.1        1.67765441]
 [0.2        1.93747014]
 [0.25666667 1.76378238]]",1,0.57
8773808799,f,21,english,5,3,english,2024-02-01 10:28:30.826823,False,1,240,sounds\french\audio/french_42.wav,"[[  0.         -62.21237173]
 [  0.1        -98.4992591 ]
 [  0.2         97.73183718]
 [  0.25666667 -56.73891221]]","[[0.         0.70589884]
 [0.1        0.40467669]
 [0.2        0.72488221]
 [0.25666667 0.44273829]]",0,0.981
8773808799,f,21,english,5,3,english,2024-02-01 10:28:30.826823,False,1,241,sounds\french\audio/french_926.wav,"[[  0.         -38.30420493]
 [  0.1        -97.26803886]
 [  0.2         55.3544282 ]
 [  0.25666667   8.78644418]]","[[0.         1.0266732 ]
 [0.1        0.03873156]
 [0.2        0.32593073]
 [0.25666667 0.80695306]]",0,0.625
8773808799,f,21,english,5,3,english,2024-02-01 10:28:30.826823,False,1,242,sounds\french\audio/french_575.wav,"[[  0.          32.80241223]
 [  0.1         11.70984026]
 [  0.2        -24.23897751]
 [  0.25666667   5.92669397]]","[[0.         0.38229386]
 [0.1        0.34252019]
 [0.2        1.12781483]
 [0.25666667 1.51292739]]",0,0.818
8773808799,f,21,english,5,3,english,2024-02-01 10:28:30.826823,False,1,243,sounds\french\audio/french_843.wav,"[[  0.          13.6803361 ]
 [  0.1         92.02668438]
 [  0.2        -93.52604538]
 [  0.25666667 -12.7136852 ]]","[[0.         0.65425976]
 [0.1        1.47814853]
 [0.2        0.78236369]
 [0.25666667 0.52413001]]",1,0.53
8773808799,f,21,english,5,3,english,2024-02-01 10:28:30.826823,False,1,244,sounds\french\audio/french_1000.wav,"[[  0.         -14.94486739]
 [  0.1         -3.70752284]
 [  0.2        -14.04083749]
 [  0.25666667 -29.27941665]]","[[0.         0.60674079]
 [0.1        0.18450848]
 [0.2        1.64475948]
 [0.25666667 0.26397745]]",1,0.457
8773808799,f,21,english,5,3,english,2024-02-01 10:28:30.826823,False,1,245,sounds\french\audio/french_29.wav,"[[ 0.         82.92052959]
 [ 0.1        96.5660735 ]
 [ 0.2        76.1539425 ]
 [ 0.25666667 -7.00195585]]","[[0.         1.65542147]
 [0.1        0.71189304]
 [0.2        0.4523944 ]
 [0.25666667 1.32757755]]",0,0.57
8773808799,f,21,english,5,3,english,2024-02-01 10:28:30.826823,False,1,246,sounds\french\audio/french_824.wav,"[[  0.          95.58094713]
 [  0.1        -47.05258515]
 [  0.2         43.18521816]
 [  0.25666667  -5.69582576]]","[[0.         1.84230129]
 [0.1        1.74244762]
 [0.2        1.04703492]
 [0.25666667 0.75358401]]",1,0.371
8773808799,f,21,english,5,3,english,2024-02-01 10:28:30.826823,False,1,247,sounds\french\audio/french_783.wav,"[[  0.          -1.39366148]
 [  0.1        -51.98505422]
 [  0.2        -59.48644931]
 [  0.25666667 -72.0894269 ]]","[[0.         1.02261841]
 [0.1        1.36670641]
 [0.2        1.36831513]
 [0.25666667 1.17814646]]",1,0.861
8773808799,f,21,english,5,3,english,2024-02-01 10:28:30.826823,False,1,248,sounds\french\audio/french_817.wav,"[[  0.          78.06162864]
 [  0.1          7.60258692]
 [  0.2        -72.81657303]
 [  0.25666667  58.9269084 ]]","[[0.         0.52442488]
 [0.1        1.548285  ]
 [0.2        0.10823364]
 [0.25666667 1.31415279]]",1,0.425
8773808799,f,21,english,5,3,english,2024-02-01 10:28:30.826823,False,1,249,sounds\french\audio/french_922.wav,"[[  0.          16.31592569]
 [  0.1         -2.28258737]
 [  0.2        -89.56675227]
 [  0.25666667  35.85711901]]","[[0.         1.06783245]
 [0.1        0.48563761]
 [0.2        1.02625397]
 [0.25666667 0.82092749]]",1,0.247
8773808799,f,21,english,5,3,english,2024-02-01 10:28:30.826823,False,1,250,sounds\french\audio/french_341.wav,"[[  0.          20.04332725]
 [  0.1        -82.29685822]
 [  0.2        -35.12302466]
 [  0.25666667  58.90486556]]","[[0.         1.4438644 ]
 [0.1        0.08336385]
 [0.2        0.04329086]
 [0.25666667 0.76896482]]",0,1.77
8773808799,f,21,english,5,3,english,2024-02-01 10:28:30.826823,False,1,251,sounds\french\audio/french_228.wav,"[[  0.         -13.78258648]
 [  0.1         27.88870681]
 [  0.2         -8.73674486]
 [  0.25666667 -13.88179653]]","[[0.         1.36655769]
 [0.1        1.56643938]
 [0.2        0.29403468]
 [0.25666667 0.32348249]]",1,0.433
8773808799,f,21,english,5,3,english,2024-02-01 10:28:30.826823,False,1,252,sounds\french\audio/french_538.wav,"[[  0.         -62.11881418]
 [  0.1        -49.1326041 ]
 [  0.2         11.48721962]
 [  0.25666667 -26.18142206]]","[[0.         0.72316351]
 [0.1        0.52652182]
 [0.2        0.30218135]
 [0.25666667 1.69243497]]",0,0.656
