subj,sex,age,language,english,french,native_lang,date,practice,block,trial,stim,pitch,stretch,response,rt
8731029739,f,22,english,5,3,english,2024-02-01 10:30:09.474161,False,2,253,sounds\french\audio/french_50.wav,"[[  0.         -85.65055263]
 [  0.1         -8.41774185]
 [  0.2         31.4658541 ]
 [  0.25666667  98.77299977]]","[[0.         1.56155391]
 [0.1        0.5849625 ]
 [0.2        1.04346227]
 [0.25666667 0.72937699]]",0,8.642
8731029739,f,22,english,5,3,english,2024-02-01 10:30:09.474161,False,2,254,sounds\french\audio/french_481.wav,"[[  0.         -44.05926666]
 [  0.1         85.82418432]
 [  0.2         87.54559417]
 [  0.25666667  50.04191005]]","[[0.         1.24899263]
 [0.1        1.22078865]
 [0.2        0.10859618]
 [0.25666667 0.19634609]]",1,1.272
8731029739,f,22,english,5,3,english,2024-02-01 10:30:09.474161,False,2,255,sounds\french\audio/french_25.wav,"[[  0.          46.82844357]
 [  0.1          5.52502331]
 [  0.2        -34.25373026]
 [  0.25666667 -52.44039001]]","[[0.         1.1493518 ]
 [0.1        1.41536953]
 [0.2        0.41949869]
 [0.25666667 0.5013656 ]]",0,1.585
8731029739,f,22,english,5,3,english,2024-02-01 10:30:09.474161,False,2,256,sounds\french\audio/french_409.wav,"[[  0.         -85.45925867]
 [  0.1        -75.83462931]
 [  0.2        -81.34632848]
 [  0.25666667  -4.23490283]]","[[0.         0.92391671]
 [0.1        0.55779761]
 [0.2        1.04156293]
 [0.25666667 0.8536223 ]]",1,1.417
8731029739,f,22,english,5,3,english,2024-02-01 10:30:09.474161,False,2,257,sounds\french\audio/french_721.wav,"[[ 0.         83.32262744]
 [ 0.1        53.43911967]
 [ 0.2        45.88272958]
 [ 0.25666667 34.59804534]]","[[0.         0.77898197]
 [0.1        1.2749748 ]
 [0.2        1.13618558]
 [0.25666667 1.96642304]]",1,6.179
8731029739,f,22,english,5,3,english,2024-02-01 10:30:09.474161,False,2,258,sounds\french\audio/french_512.wav,"[[  0.         -78.17864001]
 [  0.1          0.33316605]
 [  0.2        -88.66010948]
 [  0.25666667 -69.42732992]]","[[0.         1.53776746]
 [0.1        0.01358873]
 [0.2        0.2850161 ]
 [0.25666667 0.92419145]]",1,0.961
8731029739,f,22,english,5,3,english,2024-02-01 10:30:09.474161,False,2,259,sounds\french\audio/french_255.wav,"[[  0.         -34.51424568]
 [  0.1         78.41526515]
 [  0.2        -68.08036781]
 [  0.25666667  24.01405499]]","[[0.         1.48061101]
 [0.1        1.11576013]
 [0.2        0.98465822]
 [0.25666667 1.10721404]]",0,2.175
8731029739,f,22,english,5,3,english,2024-02-01 10:30:09.474161,False,2,260,sounds\french\audio/french_446.wav,"[[  0.         -77.26428063]
 [  0.1        -65.30305353]
 [  0.2        -57.58787345]
 [  0.25666667  16.67337698]]","[[0.         0.33935674]
 [0.1        1.45146817]
 [0.2        0.82478891]
 [0.25666667 1.36014186]]",0,0.552
8731029739,f,22,english,5,3,english,2024-02-01 10:30:09.474161,False,2,261,sounds\french\audio/french_576.wav,"[[  0.         -77.18723008]
 [  0.1         32.49939157]
 [  0.2        -11.29964886]
 [  0.25666667  24.65334735]]","[[0.         1.93193878]
 [0.1        0.06461953]
 [0.2        0.24702868]
 [0.25666667 1.68209329]]",1,0.999
8731029739,f,22,english,5,3,english,2024-02-01 10:30:09.474161,False,2,262,sounds\french\audio/french_389.wav,"[[  0.          69.62296415]
 [  0.1        -41.49433877]
 [  0.2        -65.025051  ]
 [  0.25666667  10.9117334 ]]","[[0.         1.67675408]
 [0.1        1.60540147]
 [0.2        0.45817867]
 [0.25666667 1.10562968]]",0,2.721
8731029739,f,22,english,5,3,english,2024-02-01 10:30:09.474161,False,2,263,sounds\french\audio/french_344.wav,"[[  0.          52.58849346]
 [  0.1        -22.3140036 ]
 [  0.2        -66.1637605 ]
 [  0.25666667 -23.8196401 ]]","[[0.         0.27482393]
 [0.1        0.23105003]
 [0.2        0.54206464]
 [0.25666667 1.18246439]]",1,0.509
8731029739,f,22,english,5,3,english,2024-02-01 10:30:09.474161,False,2,264,sounds\french\audio/french_300.wav,"[[  0.         -13.28568226]
 [  0.1         80.95964609]
 [  0.2         97.81212175]
 [  0.25666667  60.85112551]]","[[0.         1.4723541 ]
 [0.1        1.07308012]
 [0.2        1.14674573]
 [0.25666667 1.78656344]]",0,0.466
8731029739,f,22,english,5,3,english,2024-02-01 10:30:09.474161,False,2,265,sounds\french\audio/french_105.wav,"[[  0.         -23.09315354]
 [  0.1        -46.9361669 ]
 [  0.2         -8.58781729]
 [  0.25666667  56.68271074]]","[[0.         0.81757602]
 [0.1        0.98193048]
 [0.2        1.53786831]
 [0.25666667 0.84600103]]",0,1.238
8731029739,f,22,english,5,3,english,2024-02-01 10:30:09.474161,False,2,266,sounds\french\audio/french_853.wav,"[[  0.         -51.03576257]
 [  0.1         41.51658453]
 [  0.2        -92.89610403]
 [  0.25666667 -36.6460181 ]]","[[0.         1.07641583]
 [0.1        0.77538457]
 [0.2        0.19170679]
 [0.25666667 1.18241166]]",1,0.975
8731029739,f,22,english,5,3,english,2024-02-01 10:30:09.474161,False,2,267,sounds\french\audio/french_206.wav,"[[  0.          54.3984601 ]
 [  0.1         63.13301153]
 [  0.2         42.02994149]
 [  0.25666667 -16.37363905]]","[[0.         1.52634336]
 [0.1        0.52222794]
 [0.2        1.32066154]
 [0.25666667 0.63957267]]",0,0.486
8731029739,f,22,english,5,3,english,2024-02-01 10:30:09.474161,False,2,268,sounds\french\audio/french_895.wav,"[[  0.          52.32100115]
 [  0.1        -68.39097894]
 [  0.2         86.56169168]
 [  0.25666667 -55.69575084]]","[[0.         0.06001912]
 [0.1        0.92594104]
 [0.2        1.18275101]
 [0.25666667 0.90868208]]",0,0.743
8731029739,f,22,english,5,3,english,2024-02-01 10:30:09.474161,False,2,269,sounds\french\audio/french_136.wav,"[[  0.         -19.24670356]
 [  0.1        -19.07264886]
 [  0.2        -15.66011034]
 [  0.25666667 -21.38655245]]","[[0.         0.58320819]
 [0.1        1.75711633]
 [0.2        0.20485265]
 [0.25666667 0.63500763]]",1,0.373
8731029739,f,22,english,5,3,english,2024-02-01 10:30:09.474161,False,2,270,sounds\french\audio/french_41.wav,"[[  0.         -11.6612147 ]
 [  0.1         96.56624365]
 [  0.2         69.39294216]
 [  0.25666667 -30.30775932]]","[[0.         0.49328208]
 [0.1        1.84762861]
 [0.2        1.1434724 ]
 [0.25666667 1.13333186]]",0,0.473
8731029739,f,22,english,5,3,english,2024-02-01 10:30:09.474161,False,2,271,sounds\french\audio/french_709.wav,"[[  0.         -79.1228884 ]
 [  0.1        -27.45222572]
 [  0.2        -11.54770291]
 [  0.25666667 -99.06734201]]","[[0.         1.66046785]
 [0.1        0.50815509]
 [0.2        1.01994244]
 [0.25666667 1.8368488 ]]",0,0.666
8731029739,f,22,english,5,3,english,2024-02-01 10:30:09.474161,False,2,272,sounds\french\audio/french_255.wav,"[[  0.         -34.51424568]
 [  0.1         78.41526515]
 [  0.2        -68.08036781]
 [  0.25666667  24.01405499]]","[[0.         1.48061101]
 [0.1        1.11576013]
 [0.2        0.98465822]
 [0.25666667 1.10721404]]",0,2.769
8731029739,f,22,english,5,3,english,2024-02-01 10:30:09.474161,False,2,273,sounds\french\audio/french_212.wav,"[[  0.         -65.85125812]
 [  0.1          4.72891676]
 [  0.2         52.80654505]
 [  0.25666667  75.91927134]]","[[0.         0.99084671]
 [0.1        1.71951251]
 [0.2        1.56745001]
 [0.25666667 1.70119676]]",0,4.526
8731029739,f,22,english,5,3,english,2024-02-01 10:30:09.474161,False,2,274,sounds\french\audio/french_124.wav,"[[  0.         -40.67960973]
 [  0.1          1.84202377]
 [  0.2         31.56915939]
 [  0.25666667   9.71654757]]","[[0.         1.69845324]
 [0.1        0.10570995]
 [0.2        0.86198312]
 [0.25666667 1.20479065]]",0,1.241
8731029739,f,22,english,5,3,english,2024-02-01 10:30:09.474161,False,2,275,sounds\french\audio/french_868.wav,"[[  0.         -35.95288605]
 [  0.1        -17.44977395]
 [  0.2        -64.01864585]
 [  0.25666667  14.1526891 ]]","[[0.         1.76613711]
 [0.1        1.66440326]
 [0.2        0.72417379]
 [0.25666667 0.87347262]]",0,1.188
8731029739,f,22,english,5,3,english,2024-02-01 10:30:09.474161,False,2,276,sounds\french\audio/french_405.wav,"[[  0.          52.22885858]
 [  0.1         18.90294402]
 [  0.2        -84.01769715]
 [  0.25666667  95.02638452]]","[[0.         0.59532017]
 [0.1        0.31881138]
 [0.2        1.18035169]
 [0.25666667 0.2814716 ]]",0,0.691
8731029739,f,22,english,5,3,english,2024-02-01 10:30:09.474161,False,2,277,sounds\french\audio/french_420.wav,"[[  0.         -21.03631645]
 [  0.1         59.70125687]
 [  0.2         54.71539052]
 [  0.25666667  38.49486436]]","[[0.         1.00707818]
 [0.1        0.92270488]
 [0.2        1.69105963]
 [0.25666667 0.9671157 ]]",0,0.53
8731029739,f,22,english,5,3,english,2024-02-01 10:30:09.474161,False,2,278,sounds\french\audio/french_670.wav,"[[  0.         -38.80852857]
 [  0.1         -8.64332938]
 [  0.2        -55.35683075]
 [  0.25666667  17.57735741]]","[[0.         0.18324618]
 [0.1        0.81857347]
 [0.2        1.27404838]
 [0.25666667 1.12537981]]",1,0.92
8731029739,f,22,english,5,3,english,2024-02-01 10:30:09.474161,False,2,279,sounds\french\audio/french_366.wav,"[[  0.         -11.67543603]
 [  0.1        -73.020852  ]
 [  0.2        -53.53259577]
 [  0.25666667  19.02620798]]","[[0.         0.93730839]
 [0.1        0.54674712]
 [0.2        0.98192793]
 [0.25666667 0.14835446]]",0,0.923
8731029739,f,22,english,5,3,english,2024-02-01 10:30:09.474161,False,2,280,sounds\french\audio/french_59.wav,"[[  0.          39.36273925]
 [  0.1        -72.05438318]
 [  0.2        -58.73379721]
 [  0.25666667 -71.89754194]]","[[0.         0.85213244]
 [0.1        0.54541244]
 [0.2        0.77028914]
 [0.25666667 0.84538443]]",0,0.722
8731029739,f,22,english,5,3,english,2024-02-01 10:30:09.474161,False,2,281,sounds\french\audio/french_528.wav,"[[  0.          88.85530458]
 [  0.1        -87.19636625]
 [  0.2        -45.08147721]
 [  0.25666667  86.03081593]]","[[0.         1.69331748]
 [0.1        0.73621757]
 [0.2        0.82405603]
 [0.25666667 0.01123483]]",1,0.618
8731029739,f,22,english,5,3,english,2024-02-01 10:30:09.474161,False,2,282,sounds\french\audio/french_643.wav,"[[  0.          63.91458592]
 [  0.1        -87.79617997]
 [  0.2        -35.4412084 ]
 [  0.25666667  41.82610472]]","[[0.         0.06817761]
 [0.1        1.72915736]
 [0.2        1.06879305]
 [0.25666667 1.26220402]]",0,0.542
8731029739,f,22,english,5,3,english,2024-02-01 10:30:09.474161,False,2,283,sounds\french\audio/french_955.wav,"[[ 0.         49.41572239]
 [ 0.1        75.37923123]
 [ 0.2         0.1370905 ]
 [ 0.25666667 22.03577701]]","[[0.         1.13440167]
 [0.1        1.49278765]
 [0.2        0.20624254]
 [0.25666667 0.01599226]]",1,0.651
8731029739,f,22,english,5,3,english,2024-02-01 10:30:09.474161,False,2,284,sounds\french\audio/french_222.wav,"[[  0.         -98.35523197]
 [  0.1         61.03285987]
 [  0.2        -86.01422932]
 [  0.25666667  61.26386047]]","[[0.         0.13834953]
 [0.1        0.55930016]
 [0.2        0.40370114]
 [0.25666667 0.21495758]]",1,0.791
8731029739,f,22,english,5,3,english,2024-02-01 10:30:09.474161,False,2,285,sounds\french\audio/french_60.wav,"[[  0.         -40.9463495 ]
 [  0.1          8.65325309]
 [  0.2        -18.23980249]
 [  0.25666667 -34.79014982]]","[[0.         0.32779355]
 [0.1        0.55656076]
 [0.2        0.81322525]
 [0.25666667 0.57120985]]",0,0.952
8731029739,f,22,english,5,3,english,2024-02-01 10:30:09.474161,False,2,286,sounds\french\audio/french_782.wav,"[[  0.         -22.12019493]
 [  0.1          4.49416446]
 [  0.2         95.81757258]
 [  0.25666667  37.17912971]]","[[0.         0.33541309]
 [0.1        0.60665876]
 [0.2        0.65040298]
 [0.25666667 0.93901734]]",1,0.606
8731029739,f,22,english,5,3,english,2024-02-01 10:30:09.474161,False,2,287,sounds\french\audio/french_10.wav,"[[  0.          34.48773494]
 [  0.1         82.41652137]
 [  0.2        -51.47900312]
 [  0.25666667  70.4490668 ]]","[[0.         0.90390655]
 [0.1        1.13926368]
 [0.2        1.63497012]
 [0.25666667 0.74730693]]",0,0.526
8731029739,f,22,english,5,3,english,2024-02-01 10:30:09.474161,False,2,288,sounds\french\audio/french_802.wav,"[[  0.         -73.24347689]
 [  0.1         14.85977478]
 [  0.2        -45.72901481]
 [  0.25666667 -78.69015161]]","[[0.         0.39190156]
 [0.1        1.18064228]
 [0.2        1.4654249 ]
 [0.25666667 0.6030906 ]]",0,0.6
8731029739,f,22,english,5,3,english,2024-02-01 10:30:09.474161,False,2,289,sounds\french\audio/french_716.wav,"[[  0.          84.94340614]
 [  0.1        -26.42004262]
 [  0.2         43.13419589]
 [  0.25666667  70.01736472]]","[[0.         0.02480266]
 [0.1        1.84645248]
 [0.2        1.11902957]
 [0.25666667 1.71178302]]",1,1.368
8731029739,f,22,english,5,3,english,2024-02-01 10:30:09.474161,False,2,290,sounds\french\audio/french_284.wav,"[[  0.           9.11616736]
 [  0.1          1.28278273]
 [  0.2         64.48623036]
 [  0.25666667 -18.83957989]]","[[0.         0.794635  ]
 [0.1        0.64071903]
 [0.2        0.85736223]
 [0.25666667 1.30798049]]",0,1.139
8731029739,f,22,english,5,3,english,2024-02-01 10:30:09.474161,False,2,291,sounds\french\audio/french_743.wav,"[[  0.         -33.29442342]
 [  0.1         66.78729562]
 [  0.2         -0.09457626]
 [  0.25666667  -6.43111547]]","[[0.         0.17876133]
 [0.1        1.55990879]
 [0.2        1.00824872]
 [0.25666667 1.50563658]]",0,0.969
8731029739,f,22,english,5,3,english,2024-02-01 10:30:09.474161,False,2,292,sounds\french\audio/french_233.wav,"[[  0.         -74.05194232]
 [  0.1         45.77276391]
 [  0.2        -37.66213209]
 [  0.25666667 -32.85858595]]","[[0.         1.46941626]
 [0.1        0.63238632]
 [0.2        1.46686039]
 [0.25666667 1.82755258]]",0,0.601
8731029739,f,22,english,5,3,english,2024-02-01 10:30:09.474161,False,2,293,sounds\french\audio/french_350.wav,"[[  0.         -94.89147327]
 [  0.1        -69.96874844]
 [  0.2        -41.05008416]
 [  0.25666667  27.21030297]]","[[0.         1.34276454]
 [0.1        1.56346818]
 [0.2        0.76037532]
 [0.25666667 1.08356683]]",1,0.885
8731029739,f,22,english,5,3,english,2024-02-01 10:30:09.474161,False,2,294,sounds\french\audio/french_481.wav,"[[  0.         -44.05926666]
 [  0.1         85.82418432]
 [  0.2         87.54559417]
 [  0.25666667  50.04191005]]","[[0.         1.24899263]
 [0.1        1.22078865]
 [0.2        0.10859618]
 [0.25666667 0.19634609]]",0,0.781
8731029739,f,22,english,5,3,english,2024-02-01 10:30:09.474161,False,2,295,sounds\french\audio/french_920.wav,"[[  0.          98.83591172]
 [  0.1        -64.95643085]
 [  0.2          1.57326281]
 [  0.25666667 -25.63648329]]","[[0.         0.7646584 ]
 [0.1        1.02879579]
 [0.2        1.0684491 ]
 [0.25666667 0.89198175]]",0,0.601
8731029739,f,22,english,5,3,english,2024-02-01 10:30:09.474161,False,2,296,sounds\french\audio/french_316.wav,"[[  0.          71.43385859]
 [  0.1        -31.05932013]
 [  0.2          7.51523711]
 [  0.25666667 -46.68412198]]","[[0.         0.02011656]
 [0.1        1.43477753]
 [0.2        0.06852206]
 [0.25666667 1.51807936]]",0,3.944
8731029739,f,22,english,5,3,english,2024-02-01 10:30:09.474161,False,2,297,sounds\french\audio/french_550.wav,"[[  0.         -75.40042164]
 [  0.1          3.66999977]
 [  0.2        -80.45508953]
 [  0.25666667 -81.93938104]]","[[0.         1.22660115]
 [0.1        1.1302768 ]
 [0.2        0.71194131]
 [0.25666667 1.14992067]]",0,0.475
8731029739,f,22,english,5,3,english,2024-02-01 10:30:09.474161,False,2,298,sounds\french\audio/french_6.wav,"[[  0.          67.46153681]
 [  0.1        -88.84735091]
 [  0.2        -91.91919173]
 [  0.25666667  29.60258617]]","[[0.         1.53277947]
 [0.1        1.45938327]
 [0.2        0.73643418]
 [0.25666667 1.91810532]]",0,0.549
8731029739,f,22,english,5,3,english,2024-02-01 10:30:09.474161,False,2,299,sounds\french\audio/french_333.wav,"[[ 0.         10.14997655]
 [ 0.1        13.88697857]
 [ 0.2         3.86253466]
 [ 0.25666667 47.83568498]]","[[0.         0.96169616]
 [0.1        0.82290304]
 [0.2        0.18816998]
 [0.25666667 1.34102864]]",1,1.222
8731029739,f,22,english,5,3,english,2024-02-01 10:30:09.474161,False,2,300,sounds\french\audio/french_40.wav,"[[  0.         -78.27349013]
 [  0.1        -11.45872421]
 [  0.2         54.77710365]
 [  0.25666667  77.61698443]]","[[0.         1.3593064 ]
 [0.1        0.13307668]
 [0.2        1.8527892 ]
 [0.25666667 1.82448351]]",0,0.451
8731029739,f,22,english,5,3,english,2024-02-01 10:30:09.474161,False,2,301,sounds\french\audio/french_84.wav,"[[  0.         -54.85806939]
 [  0.1         52.61671493]
 [  0.2         -3.50081054]
 [  0.25666667 -40.76156086]]","[[0.         1.84853156]
 [0.1        1.627657  ]
 [0.2        1.36210905]
 [0.25666667 0.69575672]]",0,0.527
8731029739,f,22,english,5,3,english,2024-02-01 10:30:09.474161,False,2,302,sounds\french\audio/french_470.wav,"[[  0.          35.80891732]
 [  0.1        -69.45523052]
 [  0.2         14.95046841]
 [  0.25666667  17.64450191]]","[[0.         1.18984778]
 [0.1        0.95727089]
 [0.2        1.94704509]
 [0.25666667 1.37814226]]",0,1.94
8731029739,f,22,english,5,3,english,2024-02-01 10:30:09.474161,False,2,303,sounds\french\audio/french_476.wav,"[[  0.         -83.79523633]
 [  0.1         62.15522278]
 [  0.2        -62.9629606 ]
 [  0.25666667  29.80880048]]","[[0.         0.72975737]
 [0.1        1.65535888]
 [0.2        1.94146275]
 [0.25666667 1.32492406]]",0,2.924
8731029739,f,22,english,5,3,english,2024-02-01 10:30:09.474161,False,2,304,sounds\french\audio/french_906.wav,"[[  0.         -13.49448879]
 [  0.1         31.46373863]
 [  0.2        -49.02376816]
 [  0.25666667  26.58933429]]","[[0.         0.31236465]
 [0.1        1.12113229]
 [0.2        0.0749788 ]
 [0.25666667 0.8331551 ]]",1,0.881
8731029739,f,22,english,5,3,english,2024-02-01 10:30:09.474161,False,2,305,sounds\french\audio/french_674.wav,"[[  0.          36.8658398 ]
 [  0.1        -70.55199619]
 [  0.2         -3.70121723]
 [  0.25666667  30.12615154]]","[[0.         0.63817569]
 [0.1        1.9135219 ]
 [0.2        1.96782527]
 [0.25666667 0.86862342]]",0,0.229
8731029739,f,22,english,5,3,english,2024-02-01 10:30:09.474161,False,2,306,sounds\french\audio/french_289.wav,"[[  0.         -36.76000605]
 [  0.1         10.32506406]
 [  0.2        -63.16699613]
 [  0.25666667  44.4452875 ]]","[[0.         0.0295717 ]
 [0.1        0.30354321]
 [0.2        0.64873245]
 [0.25666667 1.33679234]]",1,0.873
8731029739,f,22,english,5,3,english,2024-02-01 10:30:09.474161,False,2,307,sounds\french\audio/french_665.wav,"[[  0.           1.77078633]
 [  0.1        -95.60257374]
 [  0.2        -26.21333041]
 [  0.25666667 -67.7705493 ]]","[[0.         0.29838278]
 [0.1        0.72198918]
 [0.2        0.91284695]
 [0.25666667 0.52625369]]",0,1.054
8731029739,f,22,english,5,3,english,2024-02-01 10:30:09.474161,False,2,308,sounds\french\audio/french_401.wav,"[[  0.         -70.28001137]
 [  0.1        -33.39817342]
 [  0.2         31.30905025]
 [  0.25666667  85.09993336]]","[[0.         0.55430578]
 [0.1        1.52055291]
 [0.2        1.05517946]
 [0.25666667 0.68126919]]",1,1.472
8731029739,f,22,english,5,3,english,2024-02-01 10:30:09.474161,False,2,309,sounds\french\audio/french_897.wav,"[[  0.          -2.62488743]
 [  0.1        -35.09835725]
 [  0.2         -7.90226738]
 [  0.25666667  34.22753828]]","[[0.         0.95618392]
 [0.1        0.97615626]
 [0.2        0.33556547]
 [0.25666667 0.12618193]]",0,0.738
8731029739,f,22,english,5,3,english,2024-02-01 10:30:09.474161,False,2,310,sounds\french\audio/french_903.wav,"[[  0.         -17.08871031]
 [  0.1         52.87150714]
 [  0.2        -46.35078868]
 [  0.25666667  67.27089244]]","[[0.         0.50691937]
 [0.1        1.06902364]
 [0.2        1.77440634]
 [0.25666667 0.5573406 ]]",0,0.592
8731029739,f,22,english,5,3,english,2024-02-01 10:30:09.474161,False,2,311,sounds\french\audio/french_13.wav,"[[  0.         -32.13252367]
 [  0.1         70.64746455]
 [  0.2        -67.50971173]
 [  0.25666667  94.74832862]]","[[0.         0.96861247]
 [0.1        0.7552715 ]
 [0.2        1.7097775 ]
 [0.25666667 1.62121013]]",0,2.279
8731029739,f,22,english,5,3,english,2024-02-01 10:30:09.474161,False,2,312,sounds\french\audio/french_834.wav,"[[  0.         -86.08965853]
 [  0.1         69.78931281]
 [  0.2        -42.1324214 ]
 [  0.25666667 -13.11810425]]","[[0.         1.35817583]
 [0.1        0.2902945 ]
 [0.2        0.84488429]
 [0.25666667 0.59655356]]",0,1.517
8731029739,f,22,english,5,3,english,2024-02-01 10:30:09.474161,False,2,313,sounds\french\audio/french_566.wav,"[[ 0.         64.79843522]
 [ 0.1        34.55507538]
 [ 0.2        88.9191899 ]
 [ 0.25666667 20.7211509 ]]","[[0.         1.40647024]
 [0.1        1.25726542]
 [0.2        0.22445964]
 [0.25666667 0.73474601]]",0,0.462
8731029739,f,22,english,5,3,english,2024-02-01 10:30:09.474161,False,2,314,sounds\french\audio/french_69.wav,"[[  0.         -60.6968374 ]
 [  0.1        -13.66133732]
 [  0.2        -49.05218158]
 [  0.25666667 -62.82393396]]","[[0.         1.40310832]
 [0.1        0.07324596]
 [0.2        0.92091935]
 [0.25666667 0.56730757]]",0,1.082
8731029739,f,22,english,5,3,english,2024-02-01 10:30:09.474161,False,2,315,sounds\french\audio/french_540.wav,"[[  0.          64.41538276]
 [  0.1         17.02048616]
 [  0.2        -33.22379056]
 [  0.25666667   6.66749413]]","[[0.         0.51709462]
 [0.1        1.30376576]
 [0.2        0.40148031]
 [0.25666667 1.14865781]]",1,1.787
8731029739,f,22,english,5,3,english,2024-02-01 10:30:09.474161,False,2,316,sounds\french\audio/french_399.wav,"[[ 0.         60.88638106]
 [ 0.1        69.51712014]
 [ 0.2        11.9354414 ]
 [ 0.25666667 71.82951649]]","[[0.         0.92905576]
 [0.1        1.13956386]
 [0.2        0.89341089]
 [0.25666667 1.81253855]]",0,0.566
8731029739,f,22,english,5,3,english,2024-02-01 10:30:09.474161,False,2,317,sounds\french\audio/french_955.wav,"[[ 0.         49.41572239]
 [ 0.1        75.37923123]
 [ 0.2         0.1370905 ]
 [ 0.25666667 22.03577701]]","[[0.         1.13440167]
 [0.1        1.49278765]
 [0.2        0.20624254]
 [0.25666667 0.01599226]]",0,0.596
8731029739,f,22,english,5,3,english,2024-02-01 10:30:09.474161,False,2,318,sounds\french\audio/french_521.wav,"[[  0.          11.04386286]
 [  0.1        -55.65083084]
 [  0.2         98.93037095]
 [  0.25666667  14.06437892]]","[[0.         1.73052604]
 [0.1        0.96564678]
 [0.2        1.35299162]
 [0.25666667 1.41353716]]",0,3.101
8731029739,f,22,english,5,3,english,2024-02-01 10:30:09.474161,False,2,319,sounds\french\audio/french_545.wav,"[[  0.         -11.63741059]
 [  0.1         -9.34763636]
 [  0.2        -52.50880558]
 [  0.25666667 -35.41027588]]","[[0.         1.28855558]
 [0.1        0.4133233 ]
 [0.2        1.98413737]
 [0.25666667 0.10366118]]",0,4.507
8731029739,f,22,english,5,3,english,2024-02-01 10:30:09.474161,False,2,320,sounds\french\audio/french_905.wav,"[[  0.          87.86620346]
 [  0.1         17.88859649]
 [  0.2         51.58456374]
 [  0.25666667 -98.76806622]]","[[0.         1.28585996]
 [0.1        0.57714405]
 [0.2        0.3219524 ]
 [0.25666667 1.69480445]]",0,4.141
8731029739,f,22,english,5,3,english,2024-02-01 10:30:09.474161,False,2,321,sounds\french\audio/french_963.wav,"[[ 0.         47.65214736]
 [ 0.1         6.38608236]
 [ 0.2        90.58649254]
 [ 0.25666667 -7.76898595]]","[[0.         0.44378955]
 [0.1        0.94107122]
 [0.2        1.48470349]
 [0.25666667 1.98203536]]",0,1.071
8731029739,f,22,english,5,3,english,2024-02-01 10:30:09.474161,False,2,322,sounds\french\audio/french_544.wav,"[[  0.         -53.15565046]
 [  0.1        -92.4791724 ]
 [  0.2         38.15839594]
 [  0.25666667  24.38113977]]","[[0.         1.35860228]
 [0.1        0.93453098]
 [0.2        0.5056151 ]
 [0.25666667 1.47508   ]]",0,0.574
8731029739,f,22,english,5,3,english,2024-02-01 10:30:09.474161,False,2,323,sounds\french\audio/french_869.wav,"[[  0.         -95.34423084]
 [  0.1         11.03315758]
 [  0.2          2.57990287]
 [  0.25666667  46.09103516]]","[[0.         1.39498671]
 [0.1        1.3153684 ]
 [0.2        1.42717997]
 [0.25666667 1.20642508]]",0,0.843
8731029739,f,22,english,5,3,english,2024-02-01 10:30:09.474161,False,2,324,sounds\french\audio/french_743.wav,"[[  0.         -33.29442342]
 [  0.1         66.78729562]
 [  0.2         -0.09457626]
 [  0.25666667  -6.43111547]]","[[0.         0.17876133]
 [0.1        1.55990879]
 [0.2        1.00824872]
 [0.25666667 1.50563658]]",1,2.585
8731029739,f,22,english,5,3,english,2024-02-01 10:30:09.474161,False,2,325,sounds\french\audio/french_383.wav,"[[  0.         -42.4544387 ]
 [  0.1        -90.68336638]
 [  0.2        -23.68224062]
 [  0.25666667 -19.21071009]]","[[0.         1.97405967]
 [0.1        0.7318817 ]
 [0.2        1.2439139 ]
 [0.25666667 0.24057374]]",0,0.576
8731029739,f,22,english,5,3,english,2024-02-01 10:30:09.474161,False,2,326,sounds\french\audio/french_477.wav,"[[  0.         -42.83355645]
 [  0.1        -62.82113547]
 [  0.2         87.24330329]
 [  0.25666667  51.53483355]]","[[0.         0.5966768 ]
 [0.1        0.86071515]
 [0.2        1.68377915]
 [0.25666667 1.05396705]]",0,2.183
8731029739,f,22,english,5,3,english,2024-02-01 10:30:09.474161,False,2,327,sounds\french\audio/french_427.wav,"[[  0.         -76.02138843]
 [  0.1        -79.3514541 ]
 [  0.2         33.13783193]
 [  0.25666667 -70.0412192 ]]","[[0.         1.52776537]
 [0.1        0.93213061]
 [0.2        1.10363763]
 [0.25666667 1.44956109]]",1,2.956
8731029739,f,22,english,5,3,english,2024-02-01 10:30:09.474161,False,2,328,sounds\french\audio/french_397.wav,"[[  0.         -13.81470081]
 [  0.1         50.38281738]
 [  0.2         50.22980228]
 [  0.25666667 -83.86271009]]","[[0.         1.26162917]
 [0.1        1.19612478]
 [0.2        1.02842354]
 [0.25666667 0.53389444]]",0,0.449
8731029739,f,22,english,5,3,english,2024-02-01 10:30:09.474161,False,2,329,sounds\french\audio/french_190.wav,"[[ 0.         69.06529403]
 [ 0.1        69.42395119]
 [ 0.2        67.79801708]
 [ 0.25666667 63.92857008]]","[[0.         1.3481685 ]
 [0.1        0.73404764]
 [0.2        1.27794388]
 [0.25666667 1.43465572]]",0,3.073
8731029739,f,22,english,5,3,english,2024-02-01 10:30:09.474161,False,2,330,sounds\french\audio/french_882.wav,"[[  0.         -76.64131244]
 [  0.1        -39.91871486]
 [  0.2        -10.31613543]
 [  0.25666667  20.39966841]]","[[0.         0.67668261]
 [0.1        0.28498495]
 [0.2        0.59130788]
 [0.25666667 1.12904738]]",1,0.837
8731029739,f,22,english,5,3,english,2024-02-01 10:30:09.474161,False,2,331,sounds\french\audio/french_891.wav,"[[ 0.         36.15157251]
 [ 0.1         9.92087077]
 [ 0.2        64.79051962]
 [ 0.25666667 25.43576317]]","[[0.         0.11830574]
 [0.1        0.00778599]
 [0.2        0.40739404]
 [0.25666667 0.71071781]]",1,1.03
8731029739,f,22,english,5,3,english,2024-02-01 10:30:09.474161,False,2,332,sounds\french\audio/french_886.wav,"[[  0.         -29.93146366]
 [  0.1        -19.22170842]
 [  0.2        -71.55320982]
 [  0.25666667 -23.6698032 ]]","[[0.         0.4543131 ]
 [0.1        1.74784503]
 [0.2        1.04864587]
 [0.25666667 1.15835862]]",0,0.752
8731029739,f,22,english,5,3,english,2024-02-01 10:30:09.474161,False,2,333,sounds\french\audio/french_969.wav,"[[  0.         -10.47620341]
 [  0.1         -9.05898311]
 [  0.2        -40.12378042]
 [  0.25666667   9.74664574]]","[[0.         0.56181474]
 [0.1        1.62172025]
 [0.2        1.31687422]
 [0.25666667 0.40962586]]",0,8.282
8731029739,f,22,english,5,3,english,2024-02-01 10:30:09.474161,False,2,334,sounds\french\audio/french_460.wav,"[[  0.         -46.82547924]
 [  0.1        -89.06595485]
 [  0.2        -15.88362663]
 [  0.25666667 -55.00298372]]","[[0.         0.18532774]
 [0.1        0.73005791]
 [0.2        0.27848928]
 [0.25666667 1.6971829 ]]",1,1.451
8731029739,f,22,english,5,3,english,2024-02-01 10:30:09.474161,False,2,335,sounds\french\audio/french_30.wav,"[[ 0.         76.62673318]
 [ 0.1        68.4553342 ]
 [ 0.2        55.51592845]
 [ 0.25666667 80.18190702]]","[[0.         0.98317975]
 [0.1        1.99903841]
 [0.2        1.19167606]
 [0.25666667 0.01328513]]",0,0.514
8731029739,f,22,english,5,3,english,2024-02-01 10:30:09.474161,False,2,336,sounds\french\audio/french_479.wav,"[[  0.         -77.56228832]
 [  0.1        -51.14246902]
 [  0.2         54.51803315]
 [  0.25666667  -8.31356421]]","[[0.         0.23971003]
 [0.1        1.41057828]
 [0.2        0.5803481 ]
 [0.25666667 0.39274068]]",1,1.085
8731029739,f,22,english,5,3,english,2024-02-01 10:30:09.474161,False,2,337,sounds\french\audio/french_108.wav,"[[  0.         -38.50953818]
 [  0.1         44.47590219]
 [  0.2         35.73303492]
 [  0.25666667 -90.35369633]]","[[0.         1.14488094]
 [0.1        1.3820118 ]
 [0.2        1.04224754]
 [0.25666667 1.51933791]]",0,0.538
8731029739,f,22,english,5,3,english,2024-02-01 10:30:09.474161,False,2,338,sounds\french\audio/french_204.wav,"[[  0.         -28.36319627]
 [  0.1        -92.66891013]
 [  0.2         96.29592204]
 [  0.25666667 -46.81515004]]","[[0.         0.07789368]
 [0.1        0.00203791]
 [0.2        1.92374636]
 [0.25666667 0.97947469]]",1,0.806
8731029739,f,22,english,5,3,english,2024-02-01 10:30:09.474161,False,2,339,sounds\french\audio/french_52.wav,"[[  0.          77.15950351]
 [  0.1         66.43146777]
 [  0.2         76.85444305]
 [  0.25666667 -69.48513432]]","[[0.         1.06345864]
 [0.1        1.73071791]
 [0.2        1.08790246]
 [0.25666667 0.32336701]]",0,0.397
8731029739,f,22,english,5,3,english,2024-02-01 10:30:09.474161,False,2,340,sounds\french\audio/french_899.wav,"[[  0.         -28.57126009]
 [  0.1         -0.09971188]
 [  0.2         21.79777269]
 [  0.25666667 -88.2290065 ]]","[[0.         0.27570035]
 [0.1        0.02539286]
 [0.2        0.56520269]
 [0.25666667 1.36421593]]",1,1.07
8731029739,f,22,english,5,3,english,2024-02-01 10:30:09.474161,False,2,341,sounds\french\audio/french_228.wav,"[[  0.         -13.78258648]
 [  0.1         27.88870681]
 [  0.2         -8.73674486]
 [  0.25666667 -13.88179653]]","[[0.         1.36655769]
 [0.1        1.56643938]
 [0.2        0.29403468]
 [0.25666667 0.32348249]]",0,0.5
8731029739,f,22,english,5,3,english,2024-02-01 10:30:09.474161,False,2,342,sounds\french\audio/french_837.wav,"[[  0.          12.86528577]
 [  0.1         80.83337189]
 [  0.2        -88.94110826]
 [  0.25666667  32.10555955]]","[[0.         1.70928146]
 [0.1        0.14925978]
 [0.2        0.83215091]
 [0.25666667 1.23671449]]",1,1.066
8731029739,f,22,english,5,3,english,2024-02-01 10:30:09.474161,False,2,343,sounds\french\audio/french_343.wav,"[[  0.         -21.71261116]
 [  0.1         63.21036052]
 [  0.2        -29.86802649]
 [  0.25666667  57.96835755]]","[[0.         1.74552957]
 [0.1        1.86769095]
 [0.2        0.55355845]
 [0.25666667 1.24725328]]",0,0.307
8731029739,f,22,english,5,3,english,2024-02-01 10:30:09.474161,False,2,344,sounds\french\audio/french_907.wav,"[[  0.           9.20754992]
 [  0.1        -39.82714958]
 [  0.2         91.774681  ]
 [  0.25666667 -60.10887287]]","[[0.         1.79705326]
 [0.1        0.37644661]
 [0.2        1.35697235]
 [0.25666667 0.87178456]]",0,5.156
8731029739,f,22,english,5,3,english,2024-02-01 10:30:09.474161,False,2,345,sounds\french\audio/french_733.wav,"[[  0.          96.30835656]
 [  0.1        -16.80147809]
 [  0.2         34.50045069]
 [  0.25666667  -6.11336577]]","[[0.         1.00234216]
 [0.1        0.65355169]
 [0.2        1.63394937]
 [0.25666667 0.15404628]]",0,0.78
8731029739,f,22,english,5,3,english,2024-02-01 10:30:09.474161,False,2,346,sounds\french\audio/french_944.wav,"[[  0.          -8.30121602]
 [  0.1         15.19990023]
 [  0.2        -34.54061483]
 [  0.25666667 -24.04483863]]","[[0.         1.41077405]
 [0.1        0.52690475]
 [0.2        0.23733031]
 [0.25666667 1.49354387]]",1,0.628
8731029739,f,22,english,5,3,english,2024-02-01 10:30:09.474161,False,2,347,sounds\french\audio/french_749.wav,"[[  0.          -6.52512876]
 [  0.1         66.04972296]
 [  0.2        -72.89621134]
 [  0.25666667 -46.82302434]]","[[0.         1.71102694]
 [0.1        0.07130547]
 [0.2        1.03709586]
 [0.25666667 1.99027801]]",0,1.249
8731029739,f,22,english,5,3,english,2024-02-01 10:30:09.474161,False,2,348,sounds\french\audio/french_441.wav,"[[  0.         -52.65918707]
 [  0.1        -61.65013116]
 [  0.2         34.26317373]
 [  0.25666667  30.98760828]]","[[0.         0.98643262]
 [0.1        1.35237654]
 [0.2        1.5364694 ]
 [0.25666667 1.29655121]]",0,0.315
8731029739,f,22,english,5,3,english,2024-02-01 10:30:09.474161,False,2,349,sounds\french\audio/french_776.wav,"[[  0.          -9.17095967]
 [  0.1        -70.57850226]
 [  0.2         63.21349252]
 [  0.25666667  59.47578694]]","[[0.         0.42962635]
 [0.1        1.70698124]
 [0.2        1.25010697]
 [0.25666667 1.52671833]]",0,1.01
8731029739,f,22,english,5,3,english,2024-02-01 10:30:09.474161,False,2,350,sounds\french\audio/french_724.wav,"[[  0.         -58.96674975]
 [  0.1        -95.33611412]
 [  0.2        -56.69004984]
 [  0.25666667 -50.97008283]]","[[0.         0.30578628]
 [0.1        0.57010607]
 [0.2        1.33615123]
 [0.25666667 1.59962144]]",0,2.822
8731029739,f,22,english,5,3,english,2024-02-01 10:30:09.474161,False,2,351,sounds\french\audio/french_459.wav,"[[  0.           4.79398058]
 [  0.1         85.90612859]
 [  0.2        -69.41023595]
 [  0.25666667 -22.07588814]]","[[0.         1.10654006]
 [0.1        1.2996969 ]
 [0.2        0.20520219]
 [0.25666667 1.17361701]]",1,0.955
8731029739,f,22,english,5,3,english,2024-02-01 10:30:09.474161,False,2,352,sounds\french\audio/french_624.wav,"[[  0.         -86.93028371]
 [  0.1        -96.54996815]
 [  0.2         92.34248117]
 [  0.25666667 -12.30629338]]","[[0.         1.16085897]
 [0.1        0.25570688]
 [0.2        0.21766843]
 [0.25666667 1.93131174]]",1,0.743
8731029739,f,22,english,5,3,english,2024-02-01 10:30:09.474161,False,2,353,sounds\french\audio/french_14.wav,"[[  0.          29.04259121]
 [  0.1        -13.93862831]
 [  0.2         -3.57455278]
 [  0.25666667  14.81088412]]","[[0.         1.27596418]
 [0.1        1.81664743]
 [0.2        1.61822265]
 [0.25666667 1.58848758]]",0,0.379
8731029739,f,22,english,5,3,english,2024-02-01 10:30:09.474161,False,2,354,sounds\french\audio/french_558.wav,"[[  0.         -24.56305845]
 [  0.1         18.75830467]
 [  0.2         -0.86444976]
 [  0.25666667 -67.61408917]]","[[0.         0.85912435]
 [0.1        1.74056956]
 [0.2        0.35762899]
 [0.25666667 1.29508782]]",1,1.403
8731029739,f,22,english,5,3,english,2024-02-01 10:30:09.474161,False,2,355,sounds\french\audio/french_873.wav,"[[  0.         -12.1574241 ]
 [  0.1        -18.24590524]
 [  0.2        -68.65561389]
 [  0.25666667 -45.4488766 ]]","[[0.         0.39218062]
 [0.1        1.88422008]
 [0.2        1.05802306]
 [0.25666667 0.58030918]]",0,0.464
8731029739,f,22,english,5,3,english,2024-02-01 10:30:09.474161,False,2,356,sounds\french\audio/french_963.wav,"[[ 0.         47.65214736]
 [ 0.1         6.38608236]
 [ 0.2        90.58649254]
 [ 0.25666667 -7.76898595]]","[[0.         0.44378955]
 [0.1        0.94107122]
 [0.2        1.48470349]
 [0.25666667 1.98203536]]",0,0.637
8731029739,f,22,english,5,3,english,2024-02-01 10:30:09.474161,False,2,357,sounds\french\audio/french_558.wav,"[[  0.         -24.56305845]
 [  0.1         18.75830467]
 [  0.2         -0.86444976]
 [  0.25666667 -67.61408917]]","[[0.         0.85912435]
 [0.1        1.74056956]
 [0.2        0.35762899]
 [0.25666667 1.29508782]]",1,0.475
8731029739,f,22,english,5,3,english,2024-02-01 10:30:09.474161,False,2,358,sounds\french\audio/french_768.wav,"[[ 0.         43.80393873]
 [ 0.1        23.97019037]
 [ 0.2        96.73627246]
 [ 0.25666667 86.69297093]]","[[0.         0.16736189]
 [0.1        0.82539527]
 [0.2        1.26581733]
 [0.25666667 1.40091334]]",0,1.172
8731029739,f,22,english,5,3,english,2024-02-01 10:30:09.474161,False,2,359,sounds\french\audio/french_544.wav,"[[  0.         -53.15565046]
 [  0.1        -92.4791724 ]
 [  0.2         38.15839594]
 [  0.25666667  24.38113977]]","[[0.         1.35860228]
 [0.1        0.93453098]
 [0.2        0.5056151 ]
 [0.25666667 1.47508   ]]",1,0.576
8731029739,f,22,english,5,3,english,2024-02-01 10:30:09.474161,False,2,360,sounds\french\audio/french_651.wav,"[[  0.         -39.76270633]
 [  0.1         98.43983978]
 [  0.2        -35.93188367]
 [  0.25666667 -13.56550518]]","[[0.         0.57054307]
 [0.1        0.47887101]
 [0.2        1.36476361]
 [0.25666667 1.70592369]]",0,1.501
8731029739,f,22,english,5,3,english,2024-02-01 10:30:09.474161,False,2,361,sounds\french\audio/french_133.wav,"[[  0.         -94.78194954]
 [  0.1          8.44061072]
 [  0.2         55.81768563]
 [  0.25666667  73.94294787]]","[[0.         1.29113753]
 [0.1        0.84384968]
 [0.2        1.85990436]
 [0.25666667 1.64621091]]",0,0.535
8731029739,f,22,english,5,3,english,2024-02-01 10:30:09.474161,False,2,362,sounds\french\audio/french_981.wav,"[[  0.          -1.54223553]
 [  0.1        -78.86121057]
 [  0.2        -33.48141771]
 [  0.25666667 -47.78773965]]","[[0.         0.66538198]
 [0.1        1.42802268]
 [0.2        0.92303184]
 [0.25666667 0.82545089]]",0,1.862
8731029739,f,22,english,5,3,english,2024-02-01 10:30:09.474161,False,2,363,sounds\french\audio/french_911.wav,"[[  0.          11.85203828]
 [  0.1        -24.36206963]
 [  0.2        -79.91713821]
 [  0.25666667 -65.93332008]]","[[0.         0.91676267]
 [0.1        0.3897793 ]
 [0.2        0.96594055]
 [0.25666667 1.97851167]]",0,1.182
8731029739,f,22,english,5,3,english,2024-02-01 10:30:09.474161,False,2,364,sounds\french\audio/french_115.wav,"[[  0.          79.30886426]
 [  0.1         38.64809671]
 [  0.2         24.58912206]
 [  0.25666667 -50.07125558]]","[[0.         0.55665137]
 [0.1        1.15526328]
 [0.2        1.92727625]
 [0.25666667 0.36414304]]",1,0.692
8731029739,f,22,english,5,3,english,2024-02-01 10:30:09.474161,False,2,365,sounds\french\audio/french_88.wav,"[[  0.          27.32194303]
 [  0.1        -96.72294389]
 [  0.2         60.26388925]
 [  0.25666667  24.13475024]]","[[0.         1.51306501]
 [0.1        1.24985366]
 [0.2        0.69332812]
 [0.25666667 1.39714954]]",0,1.108
8731029739,f,22,english,5,3,english,2024-02-01 10:30:09.474161,False,2,366,sounds\french\audio/french_507.wav,"[[  0.         -39.00130205]
 [  0.1          8.15448279]
 [  0.2        -39.88004764]
 [  0.25666667  66.54300966]]","[[0.         0.88980729]
 [0.1        1.12034654]
 [0.2        1.15006522]
 [0.25666667 1.10945683]]",0,2.185
8731029739,f,22,english,5,3,english,2024-02-01 10:30:09.474161,False,2,367,sounds\french\audio/french_561.wav,"[[  0.          43.72245453]
 [  0.1        -99.96065046]
 [  0.2        -79.74506532]
 [  0.25666667   3.19515671]]","[[0.         1.14403907]
 [0.1        0.22103922]
 [0.2        0.12690813]
 [0.25666667 1.47601923]]",1,0.762
8731029739,f,22,english,5,3,english,2024-02-01 10:30:09.474161,False,2,368,sounds\french\audio/french_118.wav,"[[  0.          26.93316006]
 [  0.1        -22.92967869]
 [  0.2        -61.93287208]
 [  0.25666667 -97.08418949]]","[[0.         1.47067426]
 [0.1        1.58231537]
 [0.2        1.01494319]
 [0.25666667 0.71977579]]",0,0.428
8731029739,f,22,english,5,3,english,2024-02-01 10:30:09.474161,False,2,369,sounds\french\audio/french_718.wav,"[[ 0.         60.10154263]
 [ 0.1        11.66591821]
 [ 0.2        18.23831634]
 [ 0.25666667 -0.86268038]]","[[0.         0.48894908]
 [0.1        1.65193902]
 [0.2        1.63024081]
 [0.25666667 0.33166429]]",0,0.526
8731029739,f,22,english,5,3,english,2024-02-01 10:30:09.474161,False,2,370,sounds\french\audio/french_258.wav,"[[  0.          49.87761594]
 [  0.1        -83.77774399]
 [  0.2         58.69904626]
 [  0.25666667 -57.68721695]]","[[0.         0.27922365]
 [0.1        1.89432374]
 [0.2        0.22934206]
 [0.25666667 0.35615934]]",0,0.547
8731029739,f,22,english,5,3,english,2024-02-01 10:30:09.474161,False,2,371,sounds\french\audio/french_362.wav,"[[  0.          -5.18125688]
 [  0.1        -33.24228679]
 [  0.2         13.99395474]
 [  0.25666667 -44.70505318]]","[[0.         1.66521149]
 [0.1        1.63330091]
 [0.2        0.18995652]
 [0.25666667 0.66219279]]",1,0.803
8731029739,f,22,english,5,3,english,2024-02-01 10:30:09.474161,False,2,372,sounds\french\audio/french_379.wav,"[[  0.          22.44752401]
 [  0.1         26.97339804]
 [  0.2         53.43729248]
 [  0.25666667 -63.2778902 ]]","[[0.         1.77059304]
 [0.1        0.69418911]
 [0.2        0.76703539]
 [0.25666667 0.57510346]]",0,0.467
8731029739,f,22,english,5,3,english,2024-02-01 10:30:09.474161,False,2,373,sounds\french\audio/french_346.wav,"[[  0.          -9.57888942]
 [  0.1         44.75165277]
 [  0.2        -77.92949754]
 [  0.25666667 -10.35911767]]","[[0.         1.97053356]
 [0.1        0.16189102]
 [0.2        0.34896721]
 [0.25666667 1.54776001]]",1,1.505
8731029739,f,22,english,5,3,english,2024-02-01 10:30:09.474161,False,2,374,sounds\french\audio/french_278.wav,"[[  0.           0.92058819]
 [  0.1        -11.12293645]
 [  0.2         51.74113392]
 [  0.25666667  59.96495371]]","[[0.         0.58166089]
 [0.1        0.6190237 ]
 [0.2        1.02661965]
 [0.25666667 0.89915078]]",0,0.474
8731029739,f,22,english,5,3,english,2024-02-01 10:30:09.474161,False,2,375,sounds\french\audio/french_741.wav,"[[  0.          52.99239945]
 [  0.1        -62.37721768]
 [  0.2         54.26195155]
 [  0.25666667   8.23350592]]","[[0.         1.20115282]
 [0.1        0.53106937]
 [0.2        1.91925029]
 [0.25666667 0.42380295]]",0,0.532
8731029739,f,22,english,5,3,english,2024-02-01 10:30:09.474161,False,2,376,sounds\french\audio/french_172.wav,"[[ 0.         48.7065843 ]
 [ 0.1        36.17213003]
 [ 0.2        22.16215467]
 [ 0.25666667  3.80373218]]","[[0.         1.72774852]
 [0.1        0.94223675]
 [0.2        1.06724209]
 [0.25666667 1.19623342]]",0,1.017
8731029739,f,22,english,5,3,english,2024-02-01 10:30:09.474161,False,2,377,sounds\french\audio/french_955.wav,"[[ 0.         49.41572239]
 [ 0.1        75.37923123]
 [ 0.2         0.1370905 ]
 [ 0.25666667 22.03577701]]","[[0.         1.13440167]
 [0.1        1.49278765]
 [0.2        0.20624254]
 [0.25666667 0.01599226]]",1,1.627
8731029739,f,22,english,5,3,english,2024-02-01 10:30:09.474161,False,2,378,sounds\french\audio/french_583.wav,"[[  0.          54.77106994]
 [  0.1        -91.79725644]
 [  0.2         19.12152033]
 [  0.25666667  80.05255959]]","[[0.         0.72700192]
 [0.1        1.43459804]
 [0.2        0.59283069]
 [0.25666667 1.58166394]]",0,0.342
8731029739,f,22,english,5,3,english,2024-02-01 10:30:09.474161,False,2,379,sounds\french\audio/french_62.wav,"[[  0.         -14.31975686]
 [  0.1         44.56193131]
 [  0.2        -86.7672378 ]
 [  0.25666667  88.73328565]]","[[0.         0.1654928 ]
 [0.1        0.95189119]
 [0.2        0.13775192]
 [0.25666667 1.69441392]]",1,1.405
8731029739,f,22,english,5,3,english,2024-02-01 10:30:09.474161,False,2,380,sounds\french\audio/french_384.wav,"[[ 0.         96.27107524]
 [ 0.1        31.19825585]
 [ 0.2        59.60884037]
 [ 0.25666667 90.96213602]]","[[0.         0.63462189]
 [0.1        1.63064356]
 [0.2        0.96291672]
 [0.25666667 1.24636593]]",0,0.273
8731029739,f,22,english,5,3,english,2024-02-01 10:30:09.474161,False,2,381,sounds\french\audio/french_970.wav,"[[  0.          45.66425393]
 [  0.1        -82.79761983]
 [  0.2         16.19264407]
 [  0.25666667  56.04070076]]","[[0.         0.15526341]
 [0.1        0.70533305]
 [0.2        1.08595816]
 [0.25666667 0.89955958]]",1,0.687
8731029739,f,22,english,5,3,english,2024-02-01 10:30:09.474161,False,2,382,sounds\french\audio/french_720.wav,"[[  0.         -84.90658582]
 [  0.1         42.34331668]
 [  0.2        -51.84568825]
 [  0.25666667  70.93496883]]","[[0.         1.45299565]
 [0.1        1.58494494]
 [0.2        1.67187292]
 [0.25666667 0.90000718]]",0,0.269
8731029739,f,22,english,5,3,english,2024-02-01 10:30:09.474161,False,2,383,sounds\french\audio/french_488.wav,"[[  0.          83.09023231]
 [  0.1         31.08155804]
 [  0.2         23.00603586]
 [  0.25666667 -14.42068905]]","[[0.         0.61404301]
 [0.1        1.79467821]
 [0.2        0.24163263]
 [0.25666667 1.80620701]]",1,1.907
8731029739,f,22,english,5,3,english,2024-02-01 10:30:09.474161,False,2,384,sounds\french\audio/french_488.wav,"[[  0.          83.09023231]
 [  0.1         31.08155804]
 [  0.2         23.00603586]
 [  0.25666667 -14.42068905]]","[[0.         0.61404301]
 [0.1        1.79467821]
 [0.2        0.24163263]
 [0.25666667 1.80620701]]",0,0.713
8731029739,f,22,english,5,3,english,2024-02-01 10:30:09.474161,False,2,385,sounds\french\audio/french_160.wav,"[[  0.          94.580754  ]
 [  0.1        -77.59057929]
 [  0.2         49.28871101]
 [  0.25666667  54.34008904]]","[[0.         1.48632924]
 [0.1        0.83284567]
 [0.2        1.32543638]
 [0.25666667 1.18016963]]",0,0.617
8731029739,f,22,english,5,3,english,2024-02-01 10:30:09.474161,False,2,386,sounds\french\audio/french_30.wav,"[[ 0.         76.62673318]
 [ 0.1        68.4553342 ]
 [ 0.2        55.51592845]
 [ 0.25666667 80.18190702]]","[[0.         0.98317975]
 [0.1        1.99903841]
 [0.2        1.19167606]
 [0.25666667 0.01328513]]",0,0.371
8731029739,f,22,english,5,3,english,2024-02-01 10:30:09.474161,False,2,387,sounds\french\audio/french_757.wav,"[[  0.          -5.26413125]
 [  0.1         38.836188  ]
 [  0.2        -78.24448509]
 [  0.25666667  87.29383111]]","[[0.         0.41150667]
 [0.1        1.11153135]
 [0.2        1.45974829]
 [0.25666667 0.22730951]]",0,0.732
8731029739,f,22,english,5,3,english,2024-02-01 10:30:09.474161,False,2,388,sounds\french\audio/french_816.wav,"[[  0.         -39.39804621]
 [  0.1         14.23792488]
 [  0.2        -84.08825282]
 [  0.25666667 -46.46940665]]","[[0.         1.26291691]
 [0.1        1.60181117]
 [0.2        0.57012939]
 [0.25666667 1.06315664]]",0,2.99
8731029739,f,22,english,5,3,english,2024-02-01 10:30:09.474161,False,2,389,sounds\french\audio/french_131.wav,"[[  0.          55.95469812]
 [  0.1        -96.48122085]
 [  0.2        -45.26115565]
 [  0.25666667  97.10583427]]","[[0.         0.7326606 ]
 [0.1        0.77747938]
 [0.2        1.02132862]
 [0.25666667 0.34109041]]",0,0.393
8731029739,f,22,english,5,3,english,2024-02-01 10:30:09.474161,False,2,390,sounds\french\audio/french_784.wav,"[[  0.         -39.52347826]
 [  0.1        -77.42465605]
 [  0.2          4.05747108]
 [  0.25666667  56.71695408]]","[[0.         1.29179639]
 [0.1        1.30882922]
 [0.2        1.87909974]
 [0.25666667 1.07202912]]",0,0.34
8731029739,f,22,english,5,3,english,2024-02-01 10:30:09.474161,False,2,391,sounds\french\audio/french_84.wav,"[[  0.         -54.85806939]
 [  0.1         52.61671493]
 [  0.2         -3.50081054]
 [  0.25666667 -40.76156086]]","[[0.         1.84853156]
 [0.1        1.627657  ]
 [0.2        1.36210905]
 [0.25666667 0.69575672]]",0,0.319
8731029739,f,22,english,5,3,english,2024-02-01 10:30:09.474161,False,2,392,sounds\french\audio/french_469.wav,"[[  0.          66.71351684]
 [  0.1        -62.03219977]
 [  0.2          3.50074433]
 [  0.25666667  58.03584826]]","[[0.         0.70736983]
 [0.1        0.37939516]
 [0.2        0.65236   ]
 [0.25666667 0.94960182]]",0,0.863
8731029739,f,22,english,5,3,english,2024-02-01 10:30:09.474161,False,2,393,sounds\french\audio/french_316.wav,"[[  0.          71.43385859]
 [  0.1        -31.05932013]
 [  0.2          7.51523711]
 [  0.25666667 -46.68412198]]","[[0.         0.02011656]
 [0.1        1.43477753]
 [0.2        0.06852206]
 [0.25666667 1.51807936]]",0,0.86
8731029739,f,22,english,5,3,english,2024-02-01 10:30:09.474161,False,2,394,sounds\french\audio/french_416.wav,"[[  0.          27.68943274]
 [  0.1        -10.10461599]
 [  0.2         24.64183683]
 [  0.25666667  96.08137129]]","[[0.         1.77963231]
 [0.1        1.68240888]
 [0.2        1.38997073]
 [0.25666667 0.64151937]]",0,1.342
8731029739,f,22,english,5,3,english,2024-02-01 10:30:09.474161,False,2,395,sounds\french\audio/french_41.wav,"[[  0.         -11.6612147 ]
 [  0.1         96.56624365]
 [  0.2         69.39294216]
 [  0.25666667 -30.30775932]]","[[0.         0.49328208]
 [0.1        1.84762861]
 [0.2        1.1434724 ]
 [0.25666667 1.13333186]]",0,0.524
8731029739,f,22,english,5,3,english,2024-02-01 10:30:09.474161,False,2,396,sounds\french\audio/french_714.wav,"[[  0.          77.35355583]
 [  0.1        -16.5812175 ]
 [  0.2        -79.42314022]
 [  0.25666667  64.71981705]]","[[0.         0.35690042]
 [0.1        0.7400083 ]
 [0.2        1.17849399]
 [0.25666667 1.38365213]]",0,0.502
8731029739,f,22,english,5,3,english,2024-02-01 10:30:09.474161,False,2,397,sounds\french\audio/french_145.wav,"[[  0.          45.95226671]
 [  0.1        -66.66601381]
 [  0.2        -89.77596615]
 [  0.25666667   8.03115864]]","[[0.         0.38136586]
 [0.1        1.38589502]
 [0.2        0.43712509]
 [0.25666667 1.92826262]]",0,0.46
8731029739,f,22,english,5,3,english,2024-02-01 10:30:09.474161,False,2,398,sounds\french\audio/french_658.wav,"[[  0.         -96.64822149]
 [  0.1         49.0828934 ]
 [  0.2         12.17217875]
 [  0.25666667  21.40759607]]","[[0.         1.39139244]
 [0.1        0.52881355]
 [0.2        0.81868418]
 [0.25666667 0.56425508]]",0,0.426
8731029739,f,22,english,5,3,english,2024-02-01 10:30:09.474161,False,2,399,sounds\french\audio/french_134.wav,"[[  0.         -65.58132827]
 [  0.1        -89.82992505]
 [  0.2          9.99695038]
 [  0.25666667  24.50908123]]","[[0.         0.68669704]
 [0.1        1.50131287]
 [0.2        0.69598371]
 [0.25666667 1.57047358]]",1,1.153
8731029739,f,22,english,5,3,english,2024-02-01 10:30:09.474161,False,2,400,sounds\french\audio/french_173.wav,"[[  0.         -85.34625679]
 [  0.1         19.71799215]
 [  0.2        -84.96079432]
 [  0.25666667 -20.27996547]]","[[0.         1.0505287 ]
 [0.1        1.50206547]
 [0.2        1.53807785]
 [0.25666667 1.54027091]]",0,0.578
8731029739,f,22,english,5,3,english,2024-02-01 10:30:09.474161,False,2,401,sounds\french\audio/french_225.wav,"[[  0.          29.07754255]
 [  0.1         99.63110947]
 [  0.2        -11.85966914]
 [  0.25666667 -24.94738594]]","[[0.         1.10473325]
 [0.1        0.86614983]
 [0.2        1.10071   ]
 [0.25666667 1.32437332]]",1,0.563
8731029739,f,22,english,5,3,english,2024-02-01 10:30:09.474161,False,2,402,sounds\french\audio/french_756.wav,"[[  0.          35.62001521]
 [  0.1         29.8199127 ]
 [  0.2         -2.36977437]
 [  0.25666667 -73.14220453]]","[[0.         0.86430693]
 [0.1        1.17673467]
 [0.2        1.63370718]
 [0.25666667 1.98740672]]",0,0.232
8731029739,f,22,english,5,3,english,2024-02-01 10:30:09.474161,False,2,403,sounds\french\audio/french_907.wav,"[[  0.           9.20754992]
 [  0.1        -39.82714958]
 [  0.2         91.774681  ]
 [  0.25666667 -60.10887287]]","[[0.         1.79705326]
 [0.1        0.37644661]
 [0.2        1.35697235]
 [0.25666667 0.87178456]]",0,1.184
8731029739,f,22,english,5,3,english,2024-02-01 10:30:09.474161,False,2,404,sounds\french\audio/french_857.wav,"[[  0.          40.93487779]
 [  0.1        -17.75235864]
 [  0.2         39.31370365]
 [  0.25666667 -10.04228362]]","[[0.         1.95936394]
 [0.1        1.43648621]
 [0.2        1.12127335]
 [0.25666667 0.40363044]]",0,0.431
8731029739,f,22,english,5,3,english,2024-02-01 10:30:09.474161,False,2,405,sounds\french\audio/french_13.wav,"[[  0.         -32.13252367]
 [  0.1         70.64746455]
 [  0.2        -67.50971173]
 [  0.25666667  94.74832862]]","[[0.         0.96861247]
 [0.1        0.7552715 ]
 [0.2        1.7097775 ]
 [0.25666667 1.62121013]]",1,1.089
8731029739,f,22,english,5,3,english,2024-02-01 10:30:09.474161,False,2,406,sounds\french\audio/french_177.wav,"[[  0.         -69.89314337]
 [  0.1          8.10824913]
 [  0.2         41.02901981]
 [  0.25666667  -9.46888932]]","[[0.         1.41470617]
 [0.1        0.24806543]
 [0.2        1.01013957]
 [0.25666667 0.18165289]]",0,1.21
8731029739,f,22,english,5,3,english,2024-02-01 10:30:09.474161,False,2,407,sounds\french\audio/french_989.wav,"[[  0.           9.12508282]
 [  0.1        -26.45358769]
 [  0.2        -51.08796106]
 [  0.25666667 -22.70445117]]","[[0.         1.4573698 ]
 [0.1        0.87656303]
 [0.2        0.58961018]
 [0.25666667 1.46090447]]",1,2.65
8731029739,f,22,english,5,3,english,2024-02-01 10:30:09.474161,False,2,408,sounds\french\audio/french_662.wav,"[[ 0.         69.59464859]
 [ 0.1        92.96629611]
 [ 0.2        83.22574806]
 [ 0.25666667 59.78978888]]","[[0.         0.59800434]
 [0.1        0.25880336]
 [0.2        0.52365302]
 [0.25666667 1.67953256]]",1,0.617
8731029739,f,22,english,5,3,english,2024-02-01 10:30:09.474161,False,2,409,sounds\french\audio/french_920.wav,"[[  0.          98.83591172]
 [  0.1        -64.95643085]
 [  0.2          1.57326281]
 [  0.25666667 -25.63648329]]","[[0.         0.7646584 ]
 [0.1        1.02879579]
 [0.2        1.0684491 ]
 [0.25666667 0.89198175]]",0,0.74
8731029739,f,22,english,5,3,english,2024-02-01 10:30:09.474161,False,2,410,sounds\french\audio/french_467.wav,"[[  0.          26.36588123]
 [  0.1        -91.62831039]
 [  0.2         14.27679522]
 [  0.25666667 -77.75485007]]","[[0.         0.49078583]
 [0.1        1.37574102]
 [0.2        0.10009029]
 [0.25666667 1.32516535]]",0,3.81
8731029739,f,22,english,5,3,english,2024-02-01 10:30:09.474161,False,2,411,sounds\french\audio/french_30.wav,"[[ 0.         76.62673318]
 [ 0.1        68.4553342 ]
 [ 0.2        55.51592845]
 [ 0.25666667 80.18190702]]","[[0.         0.98317975]
 [0.1        1.99903841]
 [0.2        1.19167606]
 [0.25666667 0.01328513]]",1,0.878
8731029739,f,22,english,5,3,english,2024-02-01 10:30:09.474161,False,2,412,sounds\french\audio/french_857.wav,"[[  0.          40.93487779]
 [  0.1        -17.75235864]
 [  0.2         39.31370365]
 [  0.25666667 -10.04228362]]","[[0.         1.95936394]
 [0.1        1.43648621]
 [0.2        1.12127335]
 [0.25666667 0.40363044]]",0,0.792
8731029739,f,22,english,5,3,english,2024-02-01 10:30:09.474161,False,2,413,sounds\french\audio/french_468.wav,"[[  0.          62.98081683]
 [  0.1        -56.79667237]
 [  0.2         16.07172023]
 [  0.25666667  67.64788087]]","[[0.         0.39126421]
 [0.1        1.86845908]
 [0.2        0.61680923]
 [0.25666667 0.75086704]]",1,0.702
8731029739,f,22,english,5,3,english,2024-02-01 10:30:09.474161,False,2,414,sounds\french\audio/french_676.wav,"[[  0.          77.51634327]
 [  0.1        -98.7950763 ]
 [  0.2        -10.44477989]
 [  0.25666667   3.71960258]]","[[0.         0.52312795]
 [0.1        0.58996043]
 [0.2        1.89966038]
 [0.25666667 0.61903343]]",0,9.917
8731029739,f,22,english,5,3,english,2024-02-01 10:30:09.474161,False,2,415,sounds\french\audio/french_160.wav,"[[  0.          94.580754  ]
 [  0.1        -77.59057929]
 [  0.2         49.28871101]
 [  0.25666667  54.34008904]]","[[0.         1.48632924]
 [0.1        0.83284567]
 [0.2        1.32543638]
 [0.25666667 1.18016963]]",0,2.921
8731029739,f,22,english,5,3,english,2024-02-01 10:30:09.474161,False,2,416,sounds\french\audio/french_623.wav,"[[  0.          39.03330695]
 [  0.1         53.03253456]
 [  0.2        -58.78521604]
 [  0.25666667  58.72042033]]","[[0.         1.53300878]
 [0.1        0.64917122]
 [0.2        0.12116027]
 [0.25666667 1.19887121]]",1,0.591
8731029739,f,22,english,5,3,english,2024-02-01 10:30:09.474161,False,2,417,sounds\french\audio/french_732.wav,"[[  0.         -82.9393053 ]
 [  0.1        -79.22735873]
 [  0.2        -67.09796721]
 [  0.25666667  35.15971491]]","[[0.         0.90840431]
 [0.1        0.47468339]
 [0.2        1.61768905]
 [0.25666667 1.44596926]]",0,0.524
8731029739,f,22,english,5,3,english,2024-02-01 10:30:09.474161,False,2,418,sounds\french\audio/french_814.wav,"[[  0.          83.0056253 ]
 [  0.1        -71.4586846 ]
 [  0.2         12.63844789]
 [  0.25666667  12.39326704]]","[[0.         1.4499936 ]
 [0.1        0.77595229]
 [0.2        0.21302651]
 [0.25666667 0.16177964]]",1,0.567
8731029739,f,22,english,5,3,english,2024-02-01 10:30:09.474161,False,2,419,sounds\french\audio/french_146.wav,"[[  0.           2.88911392]
 [  0.1         20.34035446]
 [  0.2        -17.47138226]
 [  0.25666667 -15.1567399 ]]","[[0.         0.44051244]
 [0.1        0.76269488]
 [0.2        0.12643706]
 [0.25666667 0.55905625]]",1,0.719
8731029739,f,22,english,5,3,english,2024-02-01 10:30:09.474161,False,2,420,sounds\french\audio/french_378.wav,"[[ 0.         74.25757507]
 [ 0.1        69.54270197]
 [ 0.2        91.83328043]
 [ 0.25666667 65.12199987]]","[[0.         1.44636003]
 [0.1        0.18429149]
 [0.2        0.75177649]
 [0.25666667 0.49263706]]",0,1.024
8731029739,f,22,english,5,3,english,2024-02-01 10:30:09.474161,False,2,421,sounds\french\audio/french_848.wav,"[[  0.         -60.99605007]
 [  0.1        -27.05939135]
 [  0.2        -10.58439289]
 [  0.25666667 -17.47548333]]","[[0.         1.01059702]
 [0.1        1.98581859]
 [0.2        0.30142011]
 [0.25666667 1.16939553]]",0,0.283
8731029739,f,22,english,5,3,english,2024-02-01 10:30:09.474161,False,2,422,sounds\french\audio/french_696.wav,"[[  0.          39.34258856]
 [  0.1         16.85699936]
 [  0.2        -58.01570434]
 [  0.25666667 -91.70212518]]","[[0.         1.15492287]
 [0.1        0.81118798]
 [0.2        0.43841119]
 [0.25666667 1.32812972]]",0,3.619
8731029739,f,22,english,5,3,english,2024-02-01 10:30:09.474161,False,2,423,sounds\french\audio/french_112.wav,"[[  0.         -70.30580716]
 [  0.1         33.64373442]
 [  0.2         26.55830463]
 [  0.25666667  46.16769785]]","[[0.         0.18088618]
 [0.1        1.43869791]
 [0.2        0.89230346]
 [0.25666667 0.14009493]]",0,4.779
8731029739,f,22,english,5,3,english,2024-02-01 10:30:09.474161,False,2,424,sounds\french\audio/french_300.wav,"[[  0.         -13.28568226]
 [  0.1         80.95964609]
 [  0.2         97.81212175]
 [  0.25666667  60.85112551]]","[[0.         1.4723541 ]
 [0.1        1.07308012]
 [0.2        1.14674573]
 [0.25666667 1.78656344]]",0,0.248
8731029739,f,22,english,5,3,english,2024-02-01 10:30:09.474161,False,2,425,sounds\french\audio/french_800.wav,"[[  0.          43.61588251]
 [  0.1        -17.8471941 ]
 [  0.2        -10.2363333 ]
 [  0.25666667 -85.1878963 ]]","[[0.         1.33995655]
 [0.1        0.26774995]
 [0.2        0.87274599]
 [0.25666667 0.37568781]]",1,0.564
8731029739,f,22,english,5,3,english,2024-02-01 10:30:09.474161,False,2,426,sounds\french\audio/french_599.wav,"[[  0.          67.35107794]
 [  0.1        -80.59112066]
 [  0.2          8.51369184]
 [  0.25666667  74.29539318]]","[[0.         1.27225877]
 [0.1        1.42607556]
 [0.2        0.27008032]
 [0.25666667 0.36016313]]",0,0.3
8731029739,f,22,english,5,3,english,2024-02-01 10:30:09.474161,False,2,427,sounds\french\audio/french_932.wav,"[[  0.         -46.06723632]
 [  0.1         66.80974186]
 [  0.2         39.28685727]
 [  0.25666667 -66.26323275]]","[[0.         0.59994833]
 [0.1        1.29573715]
 [0.2        0.97302603]
 [0.25666667 1.65300799]]",0,0.266
8731029739,f,22,english,5,3,english,2024-02-01 10:30:09.474161,False,2,428,sounds\french\audio/french_817.wav,"[[  0.          78.06162864]
 [  0.1          7.60258692]
 [  0.2        -72.81657303]
 [  0.25666667  58.9269084 ]]","[[0.         0.52442488]
 [0.1        1.548285  ]
 [0.2        0.10823364]
 [0.25666667 1.31415279]]",0,0.36
8731029739,f,22,english,5,3,english,2024-02-01 10:30:09.474161,False,2,429,sounds\french\audio/french_297.wav,"[[ 0.         66.56614261]
 [ 0.1        -3.32812159]
 [ 0.2        85.62103424]
 [ 0.25666667 92.99895728]]","[[0.         0.35086225]
 [0.1        1.7876007 ]
 [0.2        0.63077709]
 [0.25666667 0.65985351]]",0,0.453
8731029739,f,22,english,5,3,english,2024-02-01 10:30:09.474161,False,2,430,sounds\french\audio/french_902.wav,"[[  0.          27.03523978]
 [  0.1        -67.54213764]
 [  0.2         21.7683879 ]
 [  0.25666667 -96.90742585]]","[[0.         0.1459181 ]
 [0.1        1.3453624 ]
 [0.2        1.83277685]
 [0.25666667 0.52631336]]",0,0.524
8731029739,f,22,english,5,3,english,2024-02-01 10:30:09.474161,False,2,431,sounds\french\audio/french_422.wav,"[[ 0.         84.96144948]
 [ 0.1        -4.96569357]
 [ 0.2         9.38898655]
 [ 0.25666667 -4.34292742]]","[[0.         0.57918651]
 [0.1        1.20973004]
 [0.2        0.40935242]
 [0.25666667 0.41859168]]",0,0.454
8731029739,f,22,english,5,3,english,2024-02-01 10:30:09.474161,False,2,432,sounds\french\audio/french_245.wav,"[[  0.         -61.74573417]
 [  0.1         71.88692077]
 [  0.2        -28.60272728]
 [  0.25666667  -6.96353839]]","[[0.         0.99313774]
 [0.1        1.19752892]
 [0.2        1.585112  ]
 [0.25666667 1.16753586]]",0,0.381
8731029739,f,22,english,5,3,english,2024-02-01 10:30:09.474161,False,2,433,sounds\french\audio/french_740.wav,"[[  0.         -63.22643447]
 [  0.1        -76.79793208]
 [  0.2        -90.89358737]
 [  0.25666667 -87.57687491]]","[[0.         1.41698272]
 [0.1        1.15791198]
 [0.2        1.97460827]
 [0.25666667 0.61281255]]",0,0.481
8731029739,f,22,english,5,3,english,2024-02-01 10:30:09.474161,False,2,434,sounds\french\audio/french_657.wav,"[[  0.          99.76716584]
 [  0.1         11.51898435]
 [  0.2        -43.45408234]
 [  0.25666667  22.46427071]]","[[0.         0.85695778]
 [0.1        1.00645436]
 [0.2        0.73989588]
 [0.25666667 1.57217431]]",0,0.771
8731029739,f,22,english,5,3,english,2024-02-01 10:30:09.474161,False,2,435,sounds\french\audio/french_992.wav,"[[ 0.         88.64163737]
 [ 0.1        46.51622821]
 [ 0.2        89.40723484]
 [ 0.25666667 -7.16948766]]","[[0.         1.670281  ]
 [0.1        0.7447474 ]
 [0.2        0.87778012]
 [0.25666667 1.06303204]]",0,1.331
8731029739,f,22,english,5,3,english,2024-02-01 10:30:09.474161,False,2,436,sounds\french\audio/french_377.wav,"[[  0.          99.29202042]
 [  0.1         26.86177352]
 [  0.2        -57.22110681]
 [  0.25666667  67.5545455 ]]","[[0.         1.14982617]
 [0.1        1.68513437]
 [0.2        0.38363532]
 [0.25666667 0.68728301]]",0,0.525
8731029739,f,22,english,5,3,english,2024-02-01 10:30:09.474161,False,2,437,sounds\french\audio/french_817.wav,"[[  0.          78.06162864]
 [  0.1          7.60258692]
 [  0.2        -72.81657303]
 [  0.25666667  58.9269084 ]]","[[0.         0.52442488]
 [0.1        1.548285  ]
 [0.2        0.10823364]
 [0.25666667 1.31415279]]",0,0.508
8731029739,f,22,english,5,3,english,2024-02-01 10:30:09.474161,False,2,438,sounds\french\audio/french_73.wav,"[[  0.          79.91377479]
 [  0.1         21.44914026]
 [  0.2         94.23892751]
 [  0.25666667 -26.36168046]]","[[0.         0.94290919]
 [0.1        0.58511712]
 [0.2        1.07660977]
 [0.25666667 0.0399298 ]]",0,0.431
8731029739,f,22,english,5,3,english,2024-02-01 10:30:09.474161,False,2,439,sounds\french\audio/french_472.wav,"[[  0.          -9.46806957]
 [  0.1         45.81973918]
 [  0.2        -32.95266456]
 [  0.25666667 -10.56557549]]","[[0.         0.85855516]
 [0.1        1.60383991]
 [0.2        0.80244772]
 [0.25666667 1.48234138]]",0,0.421
8731029739,f,22,english,5,3,english,2024-02-01 10:30:09.474161,False,2,440,sounds\french\audio/french_382.wav,"[[  0.         -28.76508335]
 [  0.1         37.36249056]
 [  0.2         12.02014155]
 [  0.25666667 -78.65251684]]","[[0.         1.75225743]
 [0.1        1.09069334]
 [0.2        1.36067751]
 [0.25666667 0.9131152 ]]",0,1.17
8731029739,f,22,english,5,3,english,2024-02-01 10:30:09.474161,False,2,441,sounds\french\audio/french_206.wav,"[[  0.          54.3984601 ]
 [  0.1         63.13301153]
 [  0.2         42.02994149]
 [  0.25666667 -16.37363905]]","[[0.         1.52634336]
 [0.1        0.52222794]
 [0.2        1.32066154]
 [0.25666667 0.63957267]]",0,0.616
8731029739,f,22,english,5,3,english,2024-02-01 10:30:09.474161,False,2,442,sounds\french\audio/french_254.wav,"[[  0.         -80.26287383]
 [  0.1        -40.33934554]
 [  0.2         63.1875163 ]
 [  0.25666667  55.87543548]]","[[0.         0.610966  ]
 [0.1        1.74213191]
 [0.2        0.92287848]
 [0.25666667 0.4746978 ]]",0,0.604
8731029739,f,22,english,5,3,english,2024-02-01 10:30:09.474161,False,2,443,sounds\french\audio/french_166.wav,"[[  0.         -13.71320418]
 [  0.1        -74.77814183]
 [  0.2         42.48534987]
 [  0.25666667 -48.97271451]]","[[0.         1.40282364]
 [0.1        0.51226478]
 [0.2        1.59981073]
 [0.25666667 1.00485648]]",0,1.182
8731029739,f,22,english,5,3,english,2024-02-01 10:30:09.474161,False,2,444,sounds\french\audio/french_348.wav,"[[  0.          68.47734878]
 [  0.1         54.05190865]
 [  0.2          0.19125453]
 [  0.25666667 -34.65909089]]","[[0.         1.61227716]
 [0.1        0.93770463]
 [0.2        1.53689085]
 [0.25666667 1.17337711]]",0,1.706
8731029739,f,22,english,5,3,english,2024-02-01 10:30:09.474161,False,2,445,sounds\french\audio/french_362.wav,"[[  0.          -5.18125688]
 [  0.1        -33.24228679]
 [  0.2         13.99395474]
 [  0.25666667 -44.70505318]]","[[0.         1.66521149]
 [0.1        1.63330091]
 [0.2        0.18995652]
 [0.25666667 0.66219279]]",1,1.48
8731029739,f,22,english,5,3,english,2024-02-01 10:30:09.474161,False,2,446,sounds\french\audio/french_380.wav,"[[  0.          24.49292531]
 [  0.1        -93.89933718]
 [  0.2        -85.93529796]
 [  0.25666667  58.85582409]]","[[0.         0.14533116]
 [0.1        1.07880785]
 [0.2        1.01737492]
 [0.25666667 1.87499145]]",0,0.444
8731029739,f,22,english,5,3,english,2024-02-01 10:30:09.474161,False,2,447,sounds\french\audio/french_369.wav,"[[  0.           6.84974499]
 [  0.1         61.60531042]
 [  0.2         34.70817747]
 [  0.25666667 -13.14208541]]","[[0.         1.45229952]
 [0.1        0.56068962]
 [0.2        0.98283966]
 [0.25666667 1.24311155]]",0,2.045
8731029739,f,22,english,5,3,english,2024-02-01 10:30:09.474161,False,2,448,sounds\french\audio/french_468.wav,"[[  0.          62.98081683]
 [  0.1        -56.79667237]
 [  0.2         16.07172023]
 [  0.25666667  67.64788087]]","[[0.         0.39126421]
 [0.1        1.86845908]
 [0.2        0.61680923]
 [0.25666667 0.75086704]]",0,5.528
8731029739,f,22,english,5,3,english,2024-02-01 10:30:09.474161,False,2,449,sounds\french\audio/french_944.wav,"[[  0.          -8.30121602]
 [  0.1         15.19990023]
 [  0.2        -34.54061483]
 [  0.25666667 -24.04483863]]","[[0.         1.41077405]
 [0.1        0.52690475]
 [0.2        0.23733031]
 [0.25666667 1.49354387]]",1,1.325
8731029739,f,22,english,5,3,english,2024-02-01 10:30:09.474161,False,2,450,sounds\french\audio/french_682.wav,"[[  0.         -16.33102186]
 [  0.1        -49.72009429]
 [  0.2        -23.39596266]
 [  0.25666667 -34.72439006]]","[[0.         0.79850708]
 [0.1        1.31273679]
 [0.2        1.51298147]
 [0.25666667 0.92861139]]",0,0.321
8731029739,f,22,english,5,3,english,2024-02-01 10:30:09.474161,False,2,451,sounds\french\audio/french_746.wav,"[[  0.         -21.92593336]
 [  0.1        -33.34916741]
 [  0.2         -5.0291103 ]
 [  0.25666667 -67.6368859 ]]","[[0.         0.5521476 ]
 [0.1        1.58954792]
 [0.2        0.89586439]
 [0.25666667 0.35939035]]",0,1.104
8731029739,f,22,english,5,3,english,2024-02-01 10:30:09.474161,False,2,452,sounds\french\audio/french_790.wav,"[[  0.         -78.0899986 ]
 [  0.1        -13.38999599]
 [  0.2        -59.88967217]
 [  0.25666667  34.06701256]]","[[0.         0.03777082]
 [0.1        1.54425687]
 [0.2        0.07634696]
 [0.25666667 1.62279479]]",1,0.585
8731029739,f,22,english,5,3,english,2024-02-01 10:30:09.474161,False,2,453,sounds\french\audio/french_646.wav,"[[  0.          98.47808426]
 [  0.1         98.7741611 ]
 [  0.2        -51.76092723]
 [  0.25666667  53.55118827]]","[[0.         1.66300853]
 [0.1        0.58876545]
 [0.2        0.47940067]
 [0.25666667 0.48942216]]",0,1.252
8731029739,f,22,english,5,3,english,2024-02-01 10:30:09.474161,False,2,454,sounds\french\audio/french_317.wav,"[[  0.          16.10159391]
 [  0.1         -3.4784276 ]
 [  0.2        -59.35796464]
 [  0.25666667  -1.67752252]]","[[0.         1.00024107]
 [0.1        1.04292902]
 [0.2        1.9831422 ]
 [0.25666667 0.01532069]]",0,0.562
8731029739,f,22,english,5,3,english,2024-02-01 10:30:09.474161,False,2,455,sounds\french\audio/french_860.wav,"[[ 0.         33.37389434]
 [ 0.1        66.22312498]
 [ 0.2        -4.57961146]
 [ 0.25666667 50.69207221]]","[[0.         1.87718004]
 [0.1        1.50950791]
 [0.2        0.09437067]
 [0.25666667 1.19183747]]",1,1.142
8731029739,f,22,english,5,3,english,2024-02-01 10:30:09.474161,False,2,456,sounds\french\audio/french_431.wav,"[[  0.         -54.98282588]
 [  0.1        -84.59035382]
 [  0.2        -24.91317649]
 [  0.25666667  11.58207854]]","[[0.         1.39465542]
 [0.1        1.77814632]
 [0.2        0.57412197]
 [0.25666667 1.85348509]]",0,0.995
8731029739,f,22,english,5,3,english,2024-02-01 10:30:09.474161,False,2,457,sounds\french\audio/french_781.wav,"[[  0.          33.25938538]
 [  0.1        -13.90292419]
 [  0.2        -71.59350782]
 [  0.25666667  57.07291034]]","[[0.         1.27105286]
 [0.1        0.93357863]
 [0.2        1.0124146 ]
 [0.25666667 0.68511696]]",0,0.949
8731029739,f,22,english,5,3,english,2024-02-01 10:30:09.474161,False,2,458,sounds\french\audio/french_57.wav,"[[  0.           5.04798132]
 [  0.1         34.86476391]
 [  0.2          8.76450083]
 [  0.25666667 -66.01533982]]","[[0.         0.30893924]
 [0.1        1.37192861]
 [0.2        1.2366194 ]
 [0.25666667 1.17459784]]",0,1.64
8731029739,f,22,english,5,3,english,2024-02-01 10:30:09.474161,False,2,459,sounds\french\audio/french_575.wav,"[[  0.          32.80241223]
 [  0.1         11.70984026]
 [  0.2        -24.23897751]
 [  0.25666667   5.92669397]]","[[0.         0.38229386]
 [0.1        0.34252019]
 [0.2        1.12781483]
 [0.25666667 1.51292739]]",0,0.979
8731029739,f,22,english,5,3,english,2024-02-01 10:30:09.474161,False,2,460,sounds\french\audio/french_945.wav,"[[  0.         -68.75533602]
 [  0.1        -70.31736245]
 [  0.2         30.11750803]
 [  0.25666667 -35.89247017]]","[[0.         0.74886616]
 [0.1        1.09629777]
 [0.2        0.8052417 ]
 [0.25666667 0.22664311]]",0,7.619
8731029739,f,22,english,5,3,english,2024-02-01 10:30:09.474161,False,2,461,sounds\french\audio/french_919.wav,"[[  0.         -50.18617417]
 [  0.1        -24.76321709]
 [  0.2        -27.90521194]
 [  0.25666667  55.47311868]]","[[0.         1.92623259]
 [0.1        1.20800331]
 [0.2        0.01078602]
 [0.25666667 0.27796628]]",0,6.017
8731029739,f,22,english,5,3,english,2024-02-01 10:30:09.474161,False,2,462,sounds\french\audio/french_307.wav,"[[  0.           1.2534749 ]
 [  0.1         79.3326992 ]
 [  0.2         24.93038066]
 [  0.25666667 -37.26133342]]","[[0.         1.28672407]
 [0.1        0.47718292]
 [0.2        1.37451018]
 [0.25666667 1.21026525]]",0,2.653
8731029739,f,22,english,5,3,english,2024-02-01 10:30:09.474161,False,2,463,sounds\french\audio/french_836.wav,"[[ 0.         40.23641464]
 [ 0.1        53.79535187]
 [ 0.2        -4.0789246 ]
 [ 0.25666667  3.8536211 ]]","[[0.         0.42377088]
 [0.1        0.63943013]
 [0.2        1.19242466]
 [0.25666667 1.488673  ]]",0,0.699
8731029739,f,22,english,5,3,english,2024-02-01 10:30:09.474161,False,2,464,sounds\french\audio/french_331.wav,"[[  0.         -65.4197333 ]
 [  0.1        -42.63112693]
 [  0.2        -74.29271092]
 [  0.25666667 -22.37665177]]","[[0.         1.29365297]
 [0.1        1.19213918]
 [0.2        0.93002313]
 [0.25666667 1.59897964]]",0,0.994
8731029739,f,22,english,5,3,english,2024-02-01 10:30:09.474161,False,2,465,sounds\french\audio/french_4.wav,"[[  0.          98.95945082]
 [  0.1         -3.3646243 ]
 [  0.2        -24.17143146]
 [  0.25666667  88.72564355]]","[[0.         0.64471479]
 [0.1        0.78588128]
 [0.2        0.06764648]
 [0.25666667 1.26067449]]",1,1.608
8731029739,f,22,english,5,3,english,2024-02-01 10:30:09.474161,False,2,466,sounds\french\audio/french_983.wav,"[[  0.         -14.13750987]
 [  0.1         89.20229744]
 [  0.2         38.93652685]
 [  0.25666667  37.63986889]]","[[0.         1.65765615]
 [0.1        0.32114998]
 [0.2        0.52368354]
 [0.25666667 1.60531686]]",0,1.114
8731029739,f,22,english,5,3,english,2024-02-01 10:30:09.474161,False,2,467,sounds\french\audio/french_861.wav,"[[  0.         -47.60379447]
 [  0.1          8.05593032]
 [  0.2        -18.27545885]
 [  0.25666667  49.68481265]]","[[0.         1.17561317]
 [0.1        0.12143354]
 [0.2        0.42948795]
 [0.25666667 0.3832977 ]]",1,0.764
8731029739,f,22,english,5,3,english,2024-02-01 10:30:09.474161,False,2,468,sounds\french\audio/french_665.wav,"[[  0.           1.77078633]
 [  0.1        -95.60257374]
 [  0.2        -26.21333041]
 [  0.25666667 -67.7705493 ]]","[[0.         0.29838278]
 [0.1        0.72198918]
 [0.2        0.91284695]
 [0.25666667 0.52625369]]",0,1.302
8731029739,f,22,english,5,3,english,2024-02-01 10:30:09.474161,False,2,469,sounds\french\audio/french_857.wav,"[[  0.          40.93487779]
 [  0.1        -17.75235864]
 [  0.2         39.31370365]
 [  0.25666667 -10.04228362]]","[[0.         1.95936394]
 [0.1        1.43648621]
 [0.2        1.12127335]
 [0.25666667 0.40363044]]",0,0.525
8731029739,f,22,english,5,3,english,2024-02-01 10:30:09.474161,False,2,470,sounds\french\audio/french_660.wav,"[[  0.         -75.02051955]
 [  0.1        -36.41679043]
 [  0.2        -45.60366398]
 [  0.25666667  13.07838485]]","[[0.         0.75293762]
 [0.1        0.97452375]
 [0.2        1.88941483]
 [0.25666667 0.53297117]]",0,0.569
8731029739,f,22,english,5,3,english,2024-02-01 10:30:09.474161,False,2,471,sounds\french\audio/french_570.wav,"[[  0.         -73.07970403]
 [  0.1        -29.06072458]
 [  0.2        -25.44054287]
 [  0.25666667  96.93308839]]","[[0.         1.97071113]
 [0.1        1.64236312]
 [0.2        0.27343611]
 [0.25666667 1.31029171]]",0,0.338
8731029739,f,22,english,5,3,english,2024-02-01 10:30:09.474161,False,2,472,sounds\french\audio/french_329.wav,"[[  0.          14.6954169 ]
 [  0.1        -60.61079034]
 [  0.2        -27.52715396]
 [  0.25666667 -71.65343532]]","[[0.         0.80369944]
 [0.1        1.40829285]
 [0.2        0.22971006]
 [0.25666667 0.37653007]]",0,0.654
8731029739,f,22,english,5,3,english,2024-02-01 10:30:09.474161,False,2,473,sounds\french\audio/french_980.wav,"[[  0.         -38.7537279 ]
 [  0.1         12.31277697]
 [  0.2          6.50697833]
 [  0.25666667 -34.92912415]]","[[0.         0.7061587 ]
 [0.1        1.27161124]
 [0.2        0.8921187 ]
 [0.25666667 1.97802528]]",0,0.628
8731029739,f,22,english,5,3,english,2024-02-01 10:30:09.474161,False,2,474,sounds\french\audio/french_264.wav,"[[  0.         -17.29134877]
 [  0.1        -10.91480705]
 [  0.2        -52.17023247]
 [  0.25666667 -37.31404804]]","[[0.         0.96448196]
 [0.1        1.52626855]
 [0.2        1.44831705]
 [0.25666667 1.66094276]]",0,1.842
8731029739,f,22,english,5,3,english,2024-02-01 10:30:09.474161,False,2,475,sounds\french\audio/french_663.wav,"[[  0.           9.26283991]
 [  0.1          8.63416543]
 [  0.2        -94.49816933]
 [  0.25666667 -21.43071833]]","[[0.         1.50228176]
 [0.1        0.75616041]
 [0.2        0.98085129]
 [0.25666667 1.35574544]]",0,0.608
8731029739,f,22,english,5,3,english,2024-02-01 10:30:09.474161,False,2,476,sounds\french\audio/french_929.wav,"[[ 0.         -0.81023728]
 [ 0.1        49.23140571]
 [ 0.2        -9.18427249]
 [ 0.25666667  2.49300226]]","[[0.         1.80594317]
 [0.1        0.75886247]
 [0.2        0.13714517]
 [0.25666667 0.57622003]]",1,0.724
8731029739,f,22,english,5,3,english,2024-02-01 10:30:09.474161,False,2,477,sounds\french\audio/french_643.wav,"[[  0.          63.91458592]
 [  0.1        -87.79617997]
 [  0.2        -35.4412084 ]
 [  0.25666667  41.82610472]]","[[0.         0.06817761]
 [0.1        1.72915736]
 [0.2        1.06879305]
 [0.25666667 1.26220402]]",1,3.023
8731029739,f,22,english,5,3,english,2024-02-01 10:30:09.474161,False,2,478,sounds\french\audio/french_842.wav,"[[  0.          74.80920959]
 [  0.1        -40.95587484]
 [  0.2         40.36105872]
 [  0.25666667 -80.22764814]]","[[0.         0.40194032]
 [0.1        0.66729024]
 [0.2        0.3355789 ]
 [0.25666667 0.97335266]]",1,1.217
8731029739,f,22,english,5,3,english,2024-02-01 10:30:09.474161,False,2,479,sounds\french\audio/french_608.wav,"[[  0.         -21.93815625]
 [  0.1         68.35071967]
 [  0.2        -10.44332041]
 [  0.25666667 -49.43801065]]","[[0.         0.80217517]
 [0.1        1.13802751]
 [0.2        0.09203458]
 [0.25666667 0.18129022]]",1,3.357
8731029739,f,22,english,5,3,english,2024-02-01 10:30:09.474161,False,2,480,sounds\french\audio/french_421.wav,"[[  0.          97.07315942]
 [  0.1        -83.39673754]
 [  0.2         82.21564407]
 [  0.25666667  -4.22049535]]","[[0.         0.55056447]
 [0.1        1.15764891]
 [0.2        0.98396665]
 [0.25666667 0.77781273]]",0,0.304
8731029739,f,22,english,5,3,english,2024-02-01 10:30:09.474161,False,2,481,sounds\french\audio/french_306.wav,"[[  0.          22.4772117 ]
 [  0.1        -23.30683659]
 [  0.2        -85.44667034]
 [  0.25666667 -79.47374411]]","[[0.         0.91979461]
 [0.1        1.83006101]
 [0.2        1.25602607]
 [0.25666667 0.84497865]]",0,0.69
8731029739,f,22,english,5,3,english,2024-02-01 10:30:09.474161,False,2,482,sounds\french\audio/french_751.wav,"[[ 0.         43.14158788]
 [ 0.1        18.43858874]
 [ 0.2        79.49995567]
 [ 0.25666667 54.04463095]]","[[0.         0.5897858 ]
 [0.1        0.77618244]
 [0.2        1.33641446]
 [0.25666667 0.80537668]]",0,1.053
8731029739,f,22,english,5,3,english,2024-02-01 10:30:09.474161,False,2,483,sounds\french\audio/french_589.wav,"[[  0.         -25.33744833]
 [  0.1        -46.00092507]
 [  0.2        -35.85501424]
 [  0.25666667  61.35269907]]","[[0.         1.20649344]
 [0.1        0.60898863]
 [0.2        0.34188975]
 [0.25666667 1.06172305]]",0,1.544
8731029739,f,22,english,5,3,english,2024-02-01 10:30:09.474161,False,2,484,sounds\french\audio/french_341.wav,"[[  0.          20.04332725]
 [  0.1        -82.29685822]
 [  0.2        -35.12302466]
 [  0.25666667  58.90486556]]","[[0.         1.4438644 ]
 [0.1        0.08336385]
 [0.2        0.04329086]
 [0.25666667 0.76896482]]",0,1.786
8731029739,f,22,english,5,3,english,2024-02-01 10:30:09.474161,False,2,485,sounds\french\audio/french_720.wav,"[[  0.         -84.90658582]
 [  0.1         42.34331668]
 [  0.2        -51.84568825]
 [  0.25666667  70.93496883]]","[[0.         1.45299565]
 [0.1        1.58494494]
 [0.2        1.67187292]
 [0.25666667 0.90000718]]",0,0.763
8731029739,f,22,english,5,3,english,2024-02-01 10:30:09.474161,False,2,486,sounds\french\audio/french_289.wav,"[[  0.         -36.76000605]
 [  0.1         10.32506406]
 [  0.2        -63.16699613]
 [  0.25666667  44.4452875 ]]","[[0.         0.0295717 ]
 [0.1        0.30354321]
 [0.2        0.64873245]
 [0.25666667 1.33679234]]",0,1.185
8731029739,f,22,english,5,3,english,2024-02-01 10:30:09.474161,False,2,487,sounds\french\audio/french_870.wav,"[[ 0.         93.84124937]
 [ 0.1        28.95893835]
 [ 0.2        47.67512023]
 [ 0.25666667 -4.48390189]]","[[0.         1.21813626]
 [0.1        0.388995  ]
 [0.2        1.25544279]
 [0.25666667 0.09184868]]",0,1.224
8731029739,f,22,english,5,3,english,2024-02-01 10:30:09.474161,False,2,488,sounds\french\audio/french_302.wav,"[[  0.           8.4067376 ]
 [  0.1        -29.32780789]
 [  0.2        -43.35590711]
 [  0.25666667 -44.50549756]]","[[0.         0.06791418]
 [0.1        1.46578571]
 [0.2        1.81098556]
 [0.25666667 1.40235265]]",1,0.957
8731029739,f,22,english,5,3,english,2024-02-01 10:30:09.474161,False,2,489,sounds\french\audio/french_97.wav,"[[  0.         -26.25195718]
 [  0.1         46.36733761]
 [  0.2        -70.05850246]
 [  0.25666667 -12.16166803]]","[[0.         1.78322942]
 [0.1        0.61428926]
 [0.2        0.23760427]
 [0.25666667 0.84541126]]",0,0.505
8731029739,f,22,english,5,3,english,2024-02-01 10:30:09.474161,False,2,490,sounds\french\audio/french_342.wav,"[[  0.         -84.22246184]
 [  0.1        -88.55202377]
 [  0.2         12.74462997]
 [  0.25666667 -73.67155113]]","[[0.         0.80111929]
 [0.1        0.92289162]
 [0.2        0.96187701]
 [0.25666667 0.57764427]]",0,0.523
8731029739,f,22,english,5,3,english,2024-02-01 10:30:09.474161,False,2,491,sounds\french\audio/french_662.wav,"[[ 0.         69.59464859]
 [ 0.1        92.96629611]
 [ 0.2        83.22574806]
 [ 0.25666667 59.78978888]]","[[0.         0.59800434]
 [0.1        0.25880336]
 [0.2        0.52365302]
 [0.25666667 1.67953256]]",0,0.688
8731029739,f,22,english,5,3,english,2024-02-01 10:30:09.474161,False,2,492,sounds\french\audio/french_72.wav,"[[  0.          87.98067932]
 [  0.1        -81.71579554]
 [  0.2         90.50171836]
 [  0.25666667 -62.13003885]]","[[0.         1.39679477]
 [0.1        1.50716855]
 [0.2        0.40298903]
 [0.25666667 0.67217346]]",0,0.727
8731029739,f,22,english,5,3,english,2024-02-01 10:30:09.474161,False,2,493,sounds\french\audio/french_272.wav,"[[  0.          50.55701535]
 [  0.1         63.46835537]
 [  0.2        -46.63250527]
 [  0.25666667  74.93577843]]","[[0.         1.0419248 ]
 [0.1        0.05024982]
 [0.2        0.3554473 ]
 [0.25666667 1.3845464 ]]",1,0.463
8731029739,f,22,english,5,3,english,2024-02-01 10:30:09.474161,False,2,494,sounds\french\audio/french_976.wav,"[[  0.         -70.02335232]
 [  0.1        -61.25816472]
 [  0.2         38.21349803]
 [  0.25666667  27.10323863]]","[[0.         0.30263581]
 [0.1        1.77513966]
 [0.2        0.48920434]
 [0.25666667 1.97348905]]",0,0.301
8731029739,f,22,english,5,3,english,2024-02-01 10:30:09.474161,False,2,495,sounds\french\audio/french_354.wav,"[[  0.         -52.94558073]
 [  0.1         92.39955521]
 [  0.2        -42.31606849]
 [  0.25666667  97.06976377]]","[[0.         1.79880208]
 [0.1        1.0939287 ]
 [0.2        0.57130202]
 [0.25666667 1.82278353]]",1,1.908
8731029739,f,22,english,5,3,english,2024-02-01 10:30:09.474161,False,2,496,sounds\french\audio/french_907.wav,"[[  0.           9.20754992]
 [  0.1        -39.82714958]
 [  0.2         91.774681  ]
 [  0.25666667 -60.10887287]]","[[0.         1.79705326]
 [0.1        0.37644661]
 [0.2        1.35697235]
 [0.25666667 0.87178456]]",0,0.373
8731029739,f,22,english,5,3,english,2024-02-01 10:30:09.474161,False,2,497,sounds\french\audio/french_986.wav,"[[  0.         -69.96795985]
 [  0.1        -65.30377544]
 [  0.2         27.38987225]
 [  0.25666667 -55.80740264]]","[[0.         1.93285955]
 [0.1        1.55838575]
 [0.2        0.12645153]
 [0.25666667 0.78072242]]",1,0.79
8731029739,f,22,english,5,3,english,2024-02-01 10:30:09.474161,False,2,498,sounds\french\audio/french_370.wav,"[[  0.         -31.30279389]
 [  0.1         96.47349065]
 [  0.2         23.18843017]
 [  0.25666667  81.62933181]]","[[0.         1.88170435]
 [0.1        0.75067332]
 [0.2        1.06279648]
 [0.25666667 0.58974769]]",0,0.586
8731029739,f,22,english,5,3,english,2024-02-01 10:30:09.474161,False,2,499,sounds\french\audio/french_478.wav,"[[  0.          83.43470999]
 [  0.1         -2.90020724]
 [  0.2          3.04122674]
 [  0.25666667 -16.94968741]]","[[0.         1.59134243]
 [0.1        1.87737404]
 [0.2        1.09323353]
 [0.25666667 0.48225636]]",1,0.557
8731029739,f,22,english,5,3,english,2024-02-01 10:30:09.474161,False,2,500,sounds\french\audio/french_89.wav,"[[  0.         -79.59355323]
 [  0.1        -86.9945706 ]
 [  0.2         81.38410409]
 [  0.25666667 -11.31628481]]","[[0.         1.69180454]
 [0.1        1.08047967]
 [0.2        1.92177075]
 [0.25666667 1.93759104]]",0,0.237
8731029739,f,22,english,5,3,english,2024-02-01 10:30:09.474161,False,2,501,sounds\french\audio/french_549.wav,"[[  0.          40.06296083]
 [  0.1        -25.7595798 ]
 [  0.2         45.79306888]
 [  0.25666667  27.44668145]]","[[0.         1.11554245]
 [0.1        1.21579497]
 [0.2        1.32867101]
 [0.25666667 0.7142841 ]]",0,1.209
8731029739,f,22,english,5,3,english,2024-02-01 10:30:09.474161,False,2,502,sounds\french\audio/french_718.wav,"[[ 0.         60.10154263]
 [ 0.1        11.66591821]
 [ 0.2        18.23831634]
 [ 0.25666667 -0.86268038]]","[[0.         0.48894908]
 [0.1        1.65193902]
 [0.2        1.63024081]
 [0.25666667 0.33166429]]",0,0.617
