subj,sex,age,language,english,french,native_lang,date,practice,block,trial,stim,pitch,stretch,response,rt
5,m,38,english,5,3,english,2024-02-13 17:59:28.521938,True,0,0,sounds\french\audio/french_815.wav,"[[  0.         -30.97778369]
 [  0.1        -10.3506413 ]
 [  0.2         61.86726268]
 [  0.25666667 -32.12586702]]","[[0.         1.45421986]
 [0.1        0.28044698]
 [0.2        1.88309962]
 [0.25666667 1.86356454]]",0,6.697
5,m,38,english,5,3,english,2024-02-13 17:59:28.521938,True,0,1,sounds\french\audio/french_47.wav,"[[  0.          85.02614504]
 [  0.1         79.4123752 ]
 [  0.2         52.99117024]
 [  0.25666667 -70.6267891 ]]","[[0.         1.30132326]
 [0.1        0.75427136]
 [0.2        0.35196824]
 [0.25666667 0.96175292]]",0,4.997
5,m,38,english,5,3,english,2024-02-13 17:59:28.521938,True,0,2,sounds\french\audio/french_37.wav,"[[  0.          74.40318054]
 [  0.1          1.61071593]
 [  0.2        -60.86815184]
 [  0.25666667  35.44737922]]","[[0.         1.78030803]
 [0.1        1.06555703]
 [0.2        0.67417333]
 [0.25666667 1.14925698]]",0,0.936
5,m,38,english,5,3,english,2024-02-13 17:59:28.521938,False,1,3,sounds\french\audio/french_389.wav,"[[  0.          69.62296415]
 [  0.1        -41.49433877]
 [  0.2        -65.025051  ]
 [  0.25666667  10.9117334 ]]","[[0.         1.67675408]
 [0.1        1.60540147]
 [0.2        0.45817867]
 [0.25666667 1.10562968]]",0,0.865
5,m,38,english,5,3,english,2024-02-13 17:59:28.521938,False,1,4,sounds\french\audio/french_814.wav,"[[  0.          83.0056253 ]
 [  0.1        -71.4586846 ]
 [  0.2         12.63844789]
 [  0.25666667  12.39326704]]","[[0.         1.4499936 ]
 [0.1        0.77595229]
 [0.2        0.21302651]
 [0.25666667 0.16177964]]",0,0.96
5,m,38,english,5,3,english,2024-02-13 17:59:28.521938,False,1,5,sounds\french\audio/french_507.wav,"[[  0.         -39.00130205]
 [  0.1          8.15448279]
 [  0.2        -39.88004764]
 [  0.25666667  66.54300966]]","[[0.         0.88980729]
 [0.1        1.12034654]
 [0.2        1.15006522]
 [0.25666667 1.10945683]]",1,1.063
5,m,38,english,5,3,english,2024-02-13 17:59:28.521938,False,1,6,sounds\french\audio/french_589.wav,"[[  0.         -25.33744833]
 [  0.1        -46.00092507]
 [  0.2        -35.85501424]
 [  0.25666667  61.35269907]]","[[0.         1.20649344]
 [0.1        0.60898863]
 [0.2        0.34188975]
 [0.25666667 1.06172305]]",0,1.424
5,m,38,english,5,3,english,2024-02-13 17:59:28.521938,False,1,7,sounds\french\audio/french_613.wav,"[[  0.         -39.45599103]
 [  0.1         37.73715393]
 [  0.2        -28.02237212]
 [  0.25666667 -24.74266242]]","[[0.         0.33894647]
 [0.1        0.28387009]
 [0.2        1.91952712]
 [0.25666667 0.2340562 ]]",1,0.79
5,m,38,english,5,3,english,2024-02-13 17:59:28.521938,False,1,8,sounds\french\audio/french_793.wav,"[[  0.          24.81509803]
 [  0.1        -63.66512484]
 [  0.2        -35.07665133]
 [  0.25666667  -2.30327069]]","[[0.         0.12690374]
 [0.1        0.60816637]
 [0.2        0.42682998]
 [0.25666667 0.74050477]]",0,2.481
5,m,38,english,5,3,english,2024-02-13 17:59:28.521938,False,1,9,sounds\french\audio/french_471.wav,"[[  0.          35.47460752]
 [  0.1        -49.00208302]
 [  0.2         47.17677121]
 [  0.25666667  64.34433074]]","[[0.         0.77553755]
 [0.1        1.38730058]
 [0.2        0.98156507]
 [0.25666667 0.66404961]]",1,1.042
5,m,38,english,5,3,english,2024-02-13 17:59:28.521938,False,1,10,sounds\french\audio/french_322.wav,"[[  0.          11.21723197]
 [  0.1         71.99064207]
 [  0.2        -70.2949895 ]
 [  0.25666667 -90.37135255]]","[[0.         0.46669198]
 [0.1        0.00506582]
 [0.2        0.23170645]
 [0.25666667 0.39597554]]",1,0.785
5,m,38,english,5,3,english,2024-02-13 17:59:28.521938,False,1,11,sounds\french\audio/french_538.wav,"[[  0.         -62.11881418]
 [  0.1        -49.1326041 ]
 [  0.2         11.48721962]
 [  0.25666667 -26.18142206]]","[[0.         0.72316351]
 [0.1        0.52652182]
 [0.2        0.30218135]
 [0.25666667 1.69243497]]",1,0.839
5,m,38,english,5,3,english,2024-02-13 17:59:28.521938,False,1,12,sounds\french\audio/french_890.wav,"[[  0.          17.48321345]
 [  0.1        -18.95749083]
 [  0.2          0.74707456]
 [  0.25666667  92.62024404]]","[[0.         1.85587598]
 [0.1        0.79262665]
 [0.2        0.19694232]
 [0.25666667 1.22282027]]",0,0.727
5,m,38,english,5,3,english,2024-02-13 17:59:28.521938,False,1,13,sounds\french\audio/french_150.wav,"[[  0.           8.70975457]
 [  0.1        -27.10460474]
 [  0.2        -81.59186784]
 [  0.25666667 -72.54184128]]","[[0.         0.6151883 ]
 [0.1        1.35739255]
 [0.2        1.42530839]
 [0.25666667 0.64697028]]",1,1.149
5,m,38,english,5,3,english,2024-02-13 17:59:28.521938,False,1,14,sounds\french\audio/french_415.wav,"[[  0.         -78.44301617]
 [  0.1         84.17180311]
 [  0.2         32.05176365]
 [  0.25666667   1.79049447]]","[[0.         1.61962555]
 [0.1        0.78674907]
 [0.2        0.83302444]
 [0.25666667 0.85177262]]",1,0.88
5,m,38,english,5,3,english,2024-02-13 17:59:28.521938,False,1,15,sounds\french\audio/french_797.wav,"[[ 0.         10.83398763]
 [ 0.1        29.96867406]
 [ 0.2        64.14464291]
 [ 0.25666667 10.44882606]]","[[0.         1.35681854]
 [0.1        1.57636752]
 [0.2        0.81932008]
 [0.25666667 0.26521499]]",1,0.854
5,m,38,english,5,3,english,2024-02-13 17:59:28.521938,False,1,16,sounds\french\audio/french_636.wav,"[[ 0.         79.1724471 ]
 [ 0.1        25.25700376]
 [ 0.2        72.37529148]
 [ 0.25666667 12.21946345]]","[[0.         0.8082817 ]
 [0.1        1.50975093]
 [0.2        0.99206968]
 [0.25666667 0.17038819]]",1,0.493
5,m,38,english,5,3,english,2024-02-13 17:59:28.521938,False,1,17,sounds\french\audio/french_926.wav,"[[  0.         -38.30420493]
 [  0.1        -97.26803886]
 [  0.2         55.3544282 ]
 [  0.25666667   8.78644418]]","[[0.         1.0266732 ]
 [0.1        0.03873156]
 [0.2        0.32593073]
 [0.25666667 0.80695306]]",1,0.998
5,m,38,english,5,3,english,2024-02-13 17:59:28.521938,False,1,18,sounds\french\audio/french_102.wav,"[[  0.         -35.05732124]
 [  0.1        -31.3998515 ]
 [  0.2         50.13452687]
 [  0.25666667  -7.4892707 ]]","[[0.         0.80503012]
 [0.1        0.92419399]
 [0.2        0.90539345]
 [0.25666667 1.70363197]]",1,0.541
5,m,38,english,5,3,english,2024-02-13 17:59:28.521938,False,1,19,sounds\french\audio/french_13.wav,"[[  0.         -32.13252367]
 [  0.1         70.64746455]
 [  0.2        -67.50971173]
 [  0.25666667  94.74832862]]","[[0.         0.96861247]
 [0.1        0.7552715 ]
 [0.2        1.7097775 ]
 [0.25666667 1.62121013]]",1,0.407
5,m,38,english,5,3,english,2024-02-13 17:59:28.521938,False,1,20,sounds\french\audio/french_608.wav,"[[  0.         -21.93815625]
 [  0.1         68.35071967]
 [  0.2        -10.44332041]
 [  0.25666667 -49.43801065]]","[[0.         0.80217517]
 [0.1        1.13802751]
 [0.2        0.09203458]
 [0.25666667 0.18129022]]",0,0.606
5,m,38,english,5,3,english,2024-02-13 17:59:28.521938,False,1,21,sounds\french\audio/french_237.wav,"[[  0.          -1.09426196]
 [  0.1        -48.49856075]
 [  0.2         36.42993093]
 [  0.25666667 -47.65767162]]","[[0.         0.40664609]
 [0.1        0.23529618]
 [0.2        0.05363011]
 [0.25666667 1.34950367]]",0,0.553
5,m,38,english,5,3,english,2024-02-13 17:59:28.521938,False,1,22,sounds\french\audio/french_935.wav,"[[  0.         -44.99349069]
 [  0.1        -36.99771552]
 [  0.2         73.94933819]
 [  0.25666667  99.03349287]]","[[0.         1.17032266]
 [0.1        1.41237049]
 [0.2        0.72245199]
 [0.25666667 1.64210213]]",1,0.284
5,m,38,english,5,3,english,2024-02-13 17:59:28.521938,False,1,23,sounds\french\audio/french_337.wav,"[[  0.         -97.64468947]
 [  0.1        -70.83087303]
 [  0.2        -48.67995381]
 [  0.25666667 -82.84031791]]","[[0.         0.15620351]
 [0.1        1.65716961]
 [0.2        0.82507575]
 [0.25666667 0.89595203]]",1,0.375
5,m,38,english,5,3,english,2024-02-13 17:59:28.521938,False,1,24,sounds\french\audio/french_1.wav,"[[  0.          91.87409443]
 [  0.1        -48.89112434]
 [  0.2         27.67932603]
 [  0.25666667  13.64945055]]","[[0.         0.51984737]
 [0.1        0.07214845]
 [0.2        1.75660136]
 [0.25666667 0.58315139]]",0,0.414
5,m,38,english,5,3,english,2024-02-13 17:59:28.521938,False,1,25,sounds\french\audio/french_919.wav,"[[  0.         -50.18617417]
 [  0.1        -24.76321709]
 [  0.2        -27.90521194]
 [  0.25666667  55.47311868]]","[[0.         1.92623259]
 [0.1        1.20800331]
 [0.2        0.01078602]
 [0.25666667 0.27796628]]",1,0.389
5,m,38,english,5,3,english,2024-02-13 17:59:28.521938,False,1,26,sounds\french\audio/french_421.wav,"[[  0.          97.07315942]
 [  0.1        -83.39673754]
 [  0.2         82.21564407]
 [  0.25666667  -4.22049535]]","[[0.         0.55056447]
 [0.1        1.15764891]
 [0.2        0.98396665]
 [0.25666667 0.77781273]]",0,1.697
5,m,38,english,5,3,english,2024-02-13 17:59:28.521938,False,1,27,sounds\french\audio/french_676.wav,"[[  0.          77.51634327]
 [  0.1        -98.7950763 ]
 [  0.2        -10.44477989]
 [  0.25666667   3.71960258]]","[[0.         0.52312795]
 [0.1        0.58996043]
 [0.2        1.89966038]
 [0.25666667 0.61903343]]",1,0.601
5,m,38,english,5,3,english,2024-02-13 17:59:28.521938,False,1,28,sounds\french\audio/french_380.wav,"[[  0.          24.49292531]
 [  0.1        -93.89933718]
 [  0.2        -85.93529796]
 [  0.25666667  58.85582409]]","[[0.         0.14533116]
 [0.1        1.07880785]
 [0.2        1.01737492]
 [0.25666667 1.87499145]]",1,0.695
5,m,38,english,5,3,english,2024-02-13 17:59:28.521938,False,1,29,sounds\french\audio/french_983.wav,"[[  0.         -14.13750987]
 [  0.1         89.20229744]
 [  0.2         38.93652685]
 [  0.25666667  37.63986889]]","[[0.         1.65765615]
 [0.1        0.32114998]
 [0.2        0.52368354]
 [0.25666667 1.60531686]]",0,0.678
5,m,38,english,5,3,english,2024-02-13 17:59:28.521938,False,1,30,sounds\french\audio/french_1000.wav,"[[  0.         -14.94486739]
 [  0.1         -3.70752284]
 [  0.2        -14.04083749]
 [  0.25666667 -29.27941665]]","[[0.         0.60674079]
 [0.1        0.18450848]
 [0.2        1.64475948]
 [0.25666667 0.26397745]]",0,0.536
5,m,38,english,5,3,english,2024-02-13 17:59:28.521938,False,1,31,sounds\french\audio/french_641.wav,"[[  0.         -92.89939655]
 [  0.1         80.14352585]
 [  0.2         74.03041043]
 [  0.25666667  18.97683281]]","[[0.         0.72916007]
 [0.1        1.01323436]
 [0.2        0.998205  ]
 [0.25666667 0.30086371]]",1,1.474
5,m,38,english,5,3,english,2024-02-13 17:59:28.521938,False,1,32,sounds\french\audio/french_359.wav,"[[  0.           4.86221528]
 [  0.1         41.19609007]
 [  0.2         55.98013436]
 [  0.25666667 -59.88256532]]","[[0.         1.66863127]
 [0.1        0.25992168]
 [0.2        1.95186144]
 [0.25666667 1.64110453]]",1,0.405
5,m,38,english,5,3,english,2024-02-13 17:59:28.521938,False,1,33,sounds\french\audio/french_746.wav,"[[  0.         -21.92593336]
 [  0.1        -33.34916741]
 [  0.2         -5.0291103 ]
 [  0.25666667 -67.6368859 ]]","[[0.         0.5521476 ]
 [0.1        1.58954792]
 [0.2        0.89586439]
 [0.25666667 0.35939035]]",0,0.482
5,m,38,english,5,3,english,2024-02-13 17:59:28.521938,False,1,34,sounds\french\audio/french_749.wav,"[[  0.          -6.52512876]
 [  0.1         66.04972296]
 [  0.2        -72.89621134]
 [  0.25666667 -46.82302434]]","[[0.         1.71102694]
 [0.1        0.07130547]
 [0.2        1.03709586]
 [0.25666667 1.99027801]]",0,0.56
5,m,38,english,5,3,english,2024-02-13 17:59:28.521938,False,1,35,sounds\french\audio/french_118.wav,"[[  0.          26.93316006]
 [  0.1        -22.92967869]
 [  0.2        -61.93287208]
 [  0.25666667 -97.08418949]]","[[0.         1.47067426]
 [0.1        1.58231537]
 [0.2        1.01494319]
 [0.25666667 0.71977579]]",0,1.486
5,m,38,english,5,3,english,2024-02-13 17:59:28.521938,False,1,36,sounds\french\audio/french_414.wav,"[[  0.         -53.65137821]
 [  0.1         61.14227183]
 [  0.2        -13.28017505]
 [  0.25666667  99.20914295]]","[[0.         1.15122316]
 [0.1        1.54420741]
 [0.2        1.48861563]
 [0.25666667 0.34805763]]",1,3.503
5,m,38,english,5,3,english,2024-02-13 17:59:28.521938,False,1,37,sounds\french\audio/french_84.wav,"[[  0.         -54.85806939]
 [  0.1         52.61671493]
 [  0.2         -3.50081054]
 [  0.25666667 -40.76156086]]","[[0.         1.84853156]
 [0.1        1.627657  ]
 [0.2        1.36210905]
 [0.25666667 0.69575672]]",1,0.729
5,m,38,english,5,3,english,2024-02-13 17:59:28.521938,False,1,38,sounds\french\audio/french_299.wav,"[[  0.          12.52470623]
 [  0.1        -97.26544336]
 [  0.2        -80.62903972]
 [  0.25666667  73.47257664]]","[[0.         1.64482663]
 [0.1        1.84069115]
 [0.2        0.25110426]
 [0.25666667 1.45765737]]",1,0.26
5,m,38,english,5,3,english,2024-02-13 17:59:28.521938,False,1,39,sounds\french\audio/french_521.wav,"[[  0.          11.04386286]
 [  0.1        -55.65083084]
 [  0.2         98.93037095]
 [  0.25666667  14.06437892]]","[[0.         1.73052604]
 [0.1        0.96564678]
 [0.2        1.35299162]
 [0.25666667 1.41353716]]",0,1.149
5,m,38,english,5,3,english,2024-02-13 17:59:28.521938,False,1,40,sounds\french\audio/french_685.wav,"[[  0.         -62.74714371]
 [  0.1         48.52467862]
 [  0.2          4.749694  ]
 [  0.25666667  88.03032973]]","[[0.         1.57330944]
 [0.1        1.34151114]
 [0.2        0.18097188]
 [0.25666667 0.30113467]]",0,0.978
5,m,38,english,5,3,english,2024-02-13 17:59:28.521938,False,1,41,sounds\french\audio/french_674.wav,"[[  0.          36.8658398 ]
 [  0.1        -70.55199619]
 [  0.2         -3.70121723]
 [  0.25666667  30.12615154]]","[[0.         0.63817569]
 [0.1        1.9135219 ]
 [0.2        1.96782527]
 [0.25666667 0.86862342]]",1,0.481
5,m,38,english,5,3,english,2024-02-13 17:59:28.521938,False,1,42,sounds\french\audio/french_569.wav,"[[  0.          14.0156596 ]
 [  0.1         85.00283799]
 [  0.2        -53.61423207]
 [  0.25666667 -38.88478833]]","[[0.         1.29627558]
 [0.1        1.08637511]
 [0.2        1.60007367]
 [0.25666667 0.57872623]]",0,0.871
5,m,38,english,5,3,english,2024-02-13 17:59:28.521938,False,1,43,sounds\french\audio/french_754.wav,"[[ 0.         11.6644261 ]
 [ 0.1         5.00985124]
 [ 0.2        23.99974903]
 [ 0.25666667 23.77807811]]","[[0.         0.15061695]
 [0.1        0.57469516]
 [0.2        0.45412791]
 [0.25666667 0.27591884]]",0,0.695
5,m,38,english,5,3,english,2024-02-13 17:59:28.521938,False,1,44,sounds\french\audio/french_942.wav,"[[  0.         -53.20970077]
 [  0.1        -81.68739914]
 [  0.2         39.47129185]
 [  0.25666667 -77.13084916]]","[[0.         1.55725844]
 [0.1        1.2093944 ]
 [0.2        0.05517711]
 [0.25666667 1.56672295]]",0,0.821
5,m,38,english,5,3,english,2024-02-13 17:59:28.521938,False,1,45,sounds\french\audio/french_507.wav,"[[  0.         -39.00130205]
 [  0.1          8.15448279]
 [  0.2        -39.88004764]
 [  0.25666667  66.54300966]]","[[0.         0.88980729]
 [0.1        1.12034654]
 [0.2        1.15006522]
 [0.25666667 1.10945683]]",1,0.602
5,m,38,english,5,3,english,2024-02-13 17:59:28.521938,False,1,46,sounds\french\audio/french_366.wav,"[[  0.         -11.67543603]
 [  0.1        -73.020852  ]
 [  0.2        -53.53259577]
 [  0.25666667  19.02620798]]","[[0.         0.93730839]
 [0.1        0.54674712]
 [0.2        0.98192793]
 [0.25666667 0.14835446]]",0,0.625
5,m,38,english,5,3,english,2024-02-13 17:59:28.521938,False,1,47,sounds\french\audio/french_626.wav,"[[  0.         -93.35692854]
 [  0.1         98.43225428]
 [  0.2        -65.0946996 ]
 [  0.25666667  62.51553639]]","[[0.         1.28523942]
 [0.1        0.26610399]
 [0.2        0.08304138]
 [0.25666667 1.47830697]]",0,0.728
5,m,38,english,5,3,english,2024-02-13 17:59:28.521938,False,1,48,sounds\french\audio/french_263.wav,"[[  0.          25.02930943]
 [  0.1         77.59070044]
 [  0.2         61.13366196]
 [  0.25666667 -46.58539851]]","[[0.         0.29249845]
 [0.1        1.82268286]
 [0.2        0.69638669]
 [0.25666667 0.57279137]]",0,1.007
5,m,38,english,5,3,english,2024-02-13 17:59:28.521938,False,1,49,sounds\french\audio/french_791.wav,"[[  0.         -81.64215326]
 [  0.1         84.74526907]
 [  0.2        -10.10354349]
 [  0.25666667 -10.14583619]]","[[0.         0.09493453]
 [0.1        0.0053506 ]
 [0.2        1.61132934]
 [0.25666667 1.39802197]]",0,0.659
5,m,38,english,5,3,english,2024-02-13 17:59:28.521938,False,1,50,sounds\french\audio/french_891.wav,"[[ 0.         36.15157251]
 [ 0.1         9.92087077]
 [ 0.2        64.79051962]
 [ 0.25666667 25.43576317]]","[[0.         0.11830574]
 [0.1        0.00778599]
 [0.2        0.40739404]
 [0.25666667 0.71071781]]",1,0.663
5,m,38,english,5,3,english,2024-02-13 17:59:28.521938,False,1,51,sounds\french\audio/french_585.wav,"[[  0.          55.40756654]
 [  0.1        -99.68924549]
 [  0.2        -52.13930441]
 [  0.25666667 -49.42840454]]","[[0.         1.79357949]
 [0.1        1.94389706]
 [0.2        0.70685753]
 [0.25666667 0.08344351]]",1,0.589
5,m,38,english,5,3,english,2024-02-13 17:59:28.521938,False,1,52,sounds\french\audio/french_305.wav,"[[  0.         -54.69953739]
 [  0.1        -55.57420142]
 [  0.2         69.52625069]
 [  0.25666667 -71.2713804 ]]","[[0.         0.89911595]
 [0.1        0.95414013]
 [0.2        1.47998422]
 [0.25666667 1.78847242]]",0,0.413
5,m,38,english,5,3,english,2024-02-13 17:59:28.521938,False,1,53,sounds\french\audio/french_638.wav,"[[  0.         -18.90498038]
 [  0.1        -28.86355513]
 [  0.2        -97.62198235]
 [  0.25666667  26.30993693]]","[[0.         0.47409532]
 [0.1        1.76910273]
 [0.2        0.72222374]
 [0.25666667 0.09803926]]",0,0.523
5,m,38,english,5,3,english,2024-02-13 17:59:28.521938,False,1,54,sounds\french\audio/french_570.wav,"[[  0.         -73.07970403]
 [  0.1        -29.06072458]
 [  0.2        -25.44054287]
 [  0.25666667  96.93308839]]","[[0.         1.97071113]
 [0.1        1.64236312]
 [0.2        0.27343611]
 [0.25666667 1.31029171]]",1,0.426
5,m,38,english,5,3,english,2024-02-13 17:59:28.521938,False,1,55,sounds\french\audio/french_962.wav,"[[  0.         -23.88621243]
 [  0.1         -2.32674089]
 [  0.2         99.5739753 ]
 [  0.25666667 -60.89946795]]","[[0.         0.58686494]
 [0.1        1.96763724]
 [0.2        0.1339284 ]
 [0.25666667 0.14371278]]",0,0.392
5,m,38,english,5,3,english,2024-02-13 17:59:28.521938,False,1,56,sounds\french\audio/french_391.wav,"[[  0.         -76.68975493]
 [  0.1        -61.92507962]
 [  0.2        -59.03609545]
 [  0.25666667  88.69049446]]","[[0.         1.01472424]
 [0.1        1.84772624]
 [0.2        1.36374408]
 [0.25666667 1.21538153]]",1,0.32
5,m,38,english,5,3,english,2024-02-13 17:59:28.521938,False,1,57,sounds\french\audio/french_363.wav,"[[  0.          53.04818478]
 [  0.1         68.67010762]
 [  0.2        -91.11205335]
 [  0.25666667 -38.9131055 ]]","[[0.         0.48026107]
 [0.1        1.94302888]
 [0.2        0.36511891]
 [0.25666667 1.6181542 ]]",0,0.417
5,m,38,english,5,3,english,2024-02-13 17:59:28.521938,False,1,58,sounds\french\audio/french_668.wav,"[[  0.          44.4696917 ]
 [  0.1         63.48880943]
 [  0.2         96.50351719]
 [  0.25666667 -38.26923088]]","[[0.         0.61167569]
 [0.1        0.96933631]
 [0.2        1.39779359]
 [0.25666667 1.779663  ]]",0,1.308
5,m,38,english,5,3,english,2024-02-13 17:59:28.521938,False,1,59,sounds\french\audio/french_128.wav,"[[ 0.         -0.75176629]
 [ 0.1        -3.23197706]
 [ 0.2        64.47029617]
 [ 0.25666667 94.12909321]]","[[0.         0.45078366]
 [0.1        0.83766587]
 [0.2        1.36622775]
 [0.25666667 1.47043343]]",0,0.69
5,m,38,english,5,3,english,2024-02-13 17:59:28.521938,False,1,60,sounds\french\audio/french_918.wav,"[[  0.          73.93932449]
 [  0.1        -96.38016005]
 [  0.2         52.71903464]
 [  0.25666667  71.89996729]]","[[0.         1.12285198]
 [0.1        0.52569443]
 [0.2        1.01384132]
 [0.25666667 0.74683012]]",0,2.743
5,m,38,english,5,3,english,2024-02-13 17:59:28.521938,False,1,61,sounds\french\audio/french_235.wav,"[[  0.         -56.36701875]
 [  0.1        -33.99236587]
 [  0.2          5.32608114]
 [  0.25666667 -55.46298983]]","[[0.         1.31563667]
 [0.1        1.74570455]
 [0.2        1.41652928]
 [0.25666667 0.87975081]]",0,0.401
5,m,38,english,5,3,english,2024-02-13 17:59:28.521938,False,1,62,sounds\french\audio/french_916.wav,"[[  0.         -87.80939928]
 [  0.1         68.91902004]
 [  0.2         20.82551071]
 [  0.25666667 -10.41164891]]","[[0.         0.07100827]
 [0.1        0.08308916]
 [0.2        0.48942561]
 [0.25666667 0.67278955]]",0,0.583
5,m,38,english,5,3,english,2024-02-13 17:59:28.521938,False,1,63,sounds\french\audio/french_271.wav,"[[  0.         -86.49285917]
 [  0.1         54.15727338]
 [  0.2        -55.0986676 ]
 [  0.25666667   7.9559813 ]]","[[0.         1.06522616]
 [0.1        1.2372135 ]
 [0.2        1.00925168]
 [0.25666667 0.76785851]]",0,0.398
5,m,38,english,5,3,english,2024-02-13 17:59:28.521938,False,1,64,sounds\french\audio/french_306.wav,"[[  0.          22.4772117 ]
 [  0.1        -23.30683659]
 [  0.2        -85.44667034]
 [  0.25666667 -79.47374411]]","[[0.         0.91979461]
 [0.1        1.83006101]
 [0.2        1.25602607]
 [0.25666667 0.84497865]]",1,0.475
5,m,38,english,5,3,english,2024-02-13 17:59:28.521938,False,1,65,sounds\french\audio/french_696.wav,"[[  0.          39.34258856]
 [  0.1         16.85699936]
 [  0.2        -58.01570434]
 [  0.25666667 -91.70212518]]","[[0.         1.15492287]
 [0.1        0.81118798]
 [0.2        0.43841119]
 [0.25666667 1.32812972]]",0,0.592
5,m,38,english,5,3,english,2024-02-13 17:59:28.521938,False,1,66,sounds\french\audio/french_625.wav,"[[ 0.         79.19979266]
 [ 0.1        14.54258285]
 [ 0.2        86.07148008]
 [ 0.25666667 45.85831434]]","[[0.         0.47634137]
 [0.1        0.73497705]
 [0.2        0.05854955]
 [0.25666667 0.79046633]]",0,0.644
5,m,38,english,5,3,english,2024-02-13 17:59:28.521938,False,1,67,sounds\french\audio/french_642.wav,"[[  0.          94.74505174]
 [  0.1        -41.90916732]
 [  0.2        -70.07976965]
 [  0.25666667  42.72168091]]","[[0.         1.94145252]
 [0.1        1.43327494]
 [0.2        0.59817774]
 [0.25666667 1.11755549]]",1,0.669
5,m,38,english,5,3,english,2024-02-13 17:59:28.521938,False,1,68,sounds\french\audio/french_736.wav,"[[  0.         -58.2057669 ]
 [  0.1         67.4754916 ]
 [  0.2         92.18157431]
 [  0.25666667  88.23593553]]","[[0.         1.39182764]
 [0.1        0.85405242]
 [0.2        1.06665121]
 [0.25666667 0.29553719]]",0,0.489
5,m,38,english,5,3,english,2024-02-13 17:59:28.521938,False,1,69,sounds\french\audio/french_599.wav,"[[  0.          67.35107794]
 [  0.1        -80.59112066]
 [  0.2          8.51369184]
 [  0.25666667  74.29539318]]","[[0.         1.27225877]
 [0.1        1.42607556]
 [0.2        0.27008032]
 [0.25666667 0.36016313]]",0,1.529
5,m,38,english,5,3,english,2024-02-13 17:59:28.521938,False,1,70,sounds\french\audio/french_299.wav,"[[  0.          12.52470623]
 [  0.1        -97.26544336]
 [  0.2        -80.62903972]
 [  0.25666667  73.47257664]]","[[0.         1.64482663]
 [0.1        1.84069115]
 [0.2        0.25110426]
 [0.25666667 1.45765737]]",0,7.965
5,m,38,english,5,3,english,2024-02-13 17:59:28.521938,False,1,71,sounds\french\audio/french_128.wav,"[[ 0.         -0.75176629]
 [ 0.1        -3.23197706]
 [ 0.2        64.47029617]
 [ 0.25666667 94.12909321]]","[[0.         0.45078366]
 [0.1        0.83766587]
 [0.2        1.36622775]
 [0.25666667 1.47043343]]",1,1.298
5,m,38,english,5,3,english,2024-02-13 17:59:28.521938,False,1,72,sounds\french\audio/french_855.wav,"[[ 0.          2.71159552]
 [ 0.1        66.05842931]
 [ 0.2        41.00995311]
 [ 0.25666667 98.2962498 ]]","[[0.         1.64624975]
 [0.1        0.54809415]
 [0.2        1.64541289]
 [0.25666667 1.22205238]]",1,5.469
5,m,38,english,5,3,english,2024-02-13 17:59:28.521938,False,1,73,sounds\french\audio/french_15.wav,"[[  0.          75.10258226]
 [  0.1         91.64852869]
 [  0.2        -54.2483896 ]
 [  0.25666667 -67.82917504]]","[[0.         1.00702741]
 [0.1        0.72289983]
 [0.2        1.50363401]
 [0.25666667 0.97553874]]",1,0.781
5,m,38,english,5,3,english,2024-02-13 17:59:28.521938,False,1,74,sounds\french\audio/french_708.wav,"[[  0.          77.88438146]
 [  0.1        -89.66132416]
 [  0.2         66.08375885]
 [  0.25666667 -39.93161414]]","[[0.         0.30850898]
 [0.1        1.49064351]
 [0.2        1.28629193]
 [0.25666667 1.01533724]]",0,4.008
5,m,38,english,5,3,english,2024-02-13 17:59:28.521938,False,1,75,sounds\french\audio/french_120.wav,"[[  0.          59.29212404]
 [  0.1          4.80411823]
 [  0.2         12.26509955]
 [  0.25666667 -79.44354783]]","[[0.         1.04724114]
 [0.1        0.97380182]
 [0.2        0.22521264]
 [0.25666667 0.8027629 ]]",0,0.675
5,m,38,english,5,3,english,2024-02-13 17:59:28.521938,False,1,76,sounds\french\audio/french_249.wav,"[[  0.         -14.62389142]
 [  0.1         82.35169727]
 [  0.2        -37.79288698]
 [  0.25666667 -94.5306765 ]]","[[0.         0.54824935]
 [0.1        0.81625332]
 [0.2        0.28914805]
 [0.25666667 0.43241605]]",0,0.982
5,m,38,english,5,3,english,2024-02-13 17:59:28.521938,False,1,77,sounds\french\audio/french_977.wav,"[[  0.         -23.34946859]
 [  0.1        -74.17160997]
 [  0.2         31.43852713]
 [  0.25666667 -10.29160018]]","[[0.         1.58788712]
 [0.1        0.25032328]
 [0.2        0.90752219]
 [0.25666667 1.52460946]]",1,0.948
5,m,38,english,5,3,english,2024-02-13 17:59:28.521938,False,1,78,sounds\french\audio/french_486.wav,"[[  0.         -65.13732965]
 [  0.1        -93.57114331]
 [  0.2        -51.69797787]
 [  0.25666667  -3.30938414]]","[[0.         0.7755652 ]
 [0.1        0.9577819 ]
 [0.2        0.68553835]
 [0.25666667 0.55056833]]",0,0.361
5,m,38,english,5,3,english,2024-02-13 17:59:28.521938,False,1,79,sounds\french\audio/french_689.wav,"[[  0.         -76.83712438]
 [  0.1         64.54047654]
 [  0.2         42.91011154]
 [  0.25666667 -94.73892594]]","[[0.         1.91162084]
 [0.1        0.68488006]
 [0.2        0.17067082]
 [0.25666667 1.05586556]]",0,0.524
5,m,38,english,5,3,english,2024-02-13 17:59:28.521938,False,1,80,sounds\french\audio/french_339.wav,"[[  0.          54.2761061 ]
 [  0.1         63.28603184]
 [  0.2        -39.09064926]
 [  0.25666667 -65.51257867]]","[[0.         1.89825103]
 [0.1        0.66946091]
 [0.2        1.06421907]
 [0.25666667 1.4091401 ]]",0,0.482
5,m,38,english,5,3,english,2024-02-13 17:59:28.521938,False,1,81,sounds\french\audio/french_567.wav,"[[ 0.         27.43626477]
 [ 0.1        41.78362701]
 [ 0.2        54.76706712]
 [ 0.25666667 32.83264266]]","[[0.         1.24283832]
 [0.1        1.94246111]
 [0.2        1.04642714]
 [0.25666667 0.77358904]]",0,0.476
5,m,38,english,5,3,english,2024-02-13 17:59:28.521938,False,1,82,sounds\french\audio/french_32.wav,"[[  0.         -95.97477456]
 [  0.1        -25.31572866]
 [  0.2        -25.0492654 ]
 [  0.25666667 -74.56689772]]","[[0.         1.5242089 ]
 [0.1        0.2047991 ]
 [0.2        1.11388434]
 [0.25666667 1.18772321]]",1,3.728
5,m,38,english,5,3,english,2024-02-13 17:59:28.521938,False,1,83,sounds\french\audio/french_720.wav,"[[  0.         -84.90658582]
 [  0.1         42.34331668]
 [  0.2        -51.84568825]
 [  0.25666667  70.93496883]]","[[0.         1.45299565]
 [0.1        1.58494494]
 [0.2        1.67187292]
 [0.25666667 0.90000718]]",1,0.395
5,m,38,english,5,3,english,2024-02-13 17:59:28.521938,False,1,84,sounds\french\audio/french_352.wav,"[[ 0.         74.68489003]
 [ 0.1        96.39949195]
 [ 0.2        90.64764472]
 [ 0.25666667 65.55341103]]","[[0.         0.29948735]
 [0.1        0.51724136]
 [0.2        1.48158799]
 [0.25666667 0.97952247]]",0,0.348
5,m,38,english,5,3,english,2024-02-13 17:59:28.521938,False,1,85,sounds\french\audio/french_157.wav,"[[  0.          -6.6246598 ]
 [  0.1         49.95824353]
 [  0.2         50.90371108]
 [  0.25666667 -96.22740321]]","[[0.         1.79360699]
 [0.1        1.27582672]
 [0.2        1.55422844]
 [0.25666667 0.51380788]]",1,4.148
5,m,38,english,5,3,english,2024-02-13 17:59:28.521938,False,1,86,sounds\french\audio/french_41.wav,"[[  0.         -11.6612147 ]
 [  0.1         96.56624365]
 [  0.2         69.39294216]
 [  0.25666667 -30.30775932]]","[[0.         0.49328208]
 [0.1        1.84762861]
 [0.2        1.1434724 ]
 [0.25666667 1.13333186]]",0,1.364
5,m,38,english,5,3,english,2024-02-13 17:59:28.521938,False,1,87,sounds\french\audio/french_503.wav,"[[  0.         -70.57406247]
 [  0.1        -50.28029143]
 [  0.2         -1.92788211]
 [  0.25666667  82.92590596]]","[[0.         0.43346158]
 [0.1        1.6767429 ]
 [0.2        0.59100625]
 [0.25666667 1.4727109 ]]",0,0.564
5,m,38,english,5,3,english,2024-02-13 17:59:28.521938,False,1,88,sounds\french\audio/french_371.wav,"[[  0.          31.80119749]
 [  0.1        -38.52135119]
 [  0.2          9.85895876]
 [  0.25666667  79.11511398]]","[[0.         0.65227963]
 [0.1        1.80763105]
 [0.2        1.44692227]
 [0.25666667 1.12716888]]",1,5.985
5,m,38,english,5,3,english,2024-02-13 17:59:28.521938,False,1,89,sounds\french\audio/french_219.wav,"[[  0.         -98.78648146]
 [  0.1        -54.51672601]
 [  0.2         75.82451993]
 [  0.25666667  42.52821499]]","[[0.         1.35832625]
 [0.1        0.9105506 ]
 [0.2        0.22027405]
 [0.25666667 1.53742188]]",0,0.514
5,m,38,english,5,3,english,2024-02-13 17:59:28.521938,False,1,90,sounds\french\audio/french_373.wav,"[[  0.          27.88559689]
 [  0.1         61.41244142]
 [  0.2         37.97273047]
 [  0.25666667 -82.72738113]]","[[0.         1.35161412]
 [0.1        1.00997609]
 [0.2        1.87297461]
 [0.25666667 0.97441242]]",0,1.419
5,m,38,english,5,3,english,2024-02-13 17:59:28.521938,False,1,91,sounds\french\audio/french_396.wav,"[[  0.         -42.7744445 ]
 [  0.1          3.59774391]
 [  0.2        -86.41595133]
 [  0.25666667  76.20152203]]","[[0.         0.31798537]
 [0.1        0.67756986]
 [0.2        1.44355676]
 [0.25666667 1.44326023]]",0,0.741
5,m,38,english,5,3,english,2024-02-13 17:59:28.521938,False,1,92,sounds\french\audio/french_132.wav,"[[  0.          55.7159221 ]
 [  0.1         96.01047895]
 [  0.2        -30.71931346]
 [  0.25666667  34.53763016]]","[[0.         0.1336911 ]
 [0.1        1.63690434]
 [0.2        0.7825174 ]
 [0.25666667 1.49477333]]",0,0.417
5,m,38,english,5,3,english,2024-02-13 17:59:28.521938,False,1,93,sounds\french\audio/french_674.wav,"[[  0.          36.8658398 ]
 [  0.1        -70.55199619]
 [  0.2         -3.70121723]
 [  0.25666667  30.12615154]]","[[0.         0.63817569]
 [0.1        1.9135219 ]
 [0.2        1.96782527]
 [0.25666667 0.86862342]]",1,0.221
5,m,38,english,5,3,english,2024-02-13 17:59:28.521938,False,1,94,sounds\french\audio/french_896.wav,"[[  0.         -50.03367973]
 [  0.1         73.95849411]
 [  0.2         16.78858773]
 [  0.25666667 -49.02431976]]","[[0.         0.4350745 ]
 [0.1        1.7879982 ]
 [0.2        0.61207276]
 [0.25666667 0.35432813]]",0,0.487
5,m,38,english,5,3,english,2024-02-13 17:59:28.521938,False,1,95,sounds\french\audio/french_480.wav,"[[  0.          60.74421865]
 [  0.1        -29.59792655]
 [  0.2         62.18386975]
 [  0.25666667 -29.20855136]]","[[0.         1.29752088]
 [0.1        1.96700759]
 [0.2        1.69632814]
 [0.25666667 1.65374165]]",1,0.497
5,m,38,english,5,3,english,2024-02-13 17:59:28.521938,False,1,96,sounds\french\audio/french_246.wav,"[[  0.         -61.30298939]
 [  0.1         15.83987086]
 [  0.2         80.17394669]
 [  0.25666667 -81.65507189]]","[[0.         1.31566238]
 [0.1        1.23869052]
 [0.2        1.57286335]
 [0.25666667 0.07583844]]",1,0.461
5,m,38,english,5,3,english,2024-02-13 17:59:28.521938,False,1,97,sounds\french\audio/french_85.wav,"[[  0.           8.05629124]
 [  0.1        -30.28403137]
 [  0.2        -73.3047666 ]
 [  0.25666667  49.81841991]]","[[0.         0.15740805]
 [0.1        1.38994818]
 [0.2        0.58823714]
 [0.25666667 0.54603307]]",0,0.454
5,m,38,english,5,3,english,2024-02-13 17:59:28.521938,False,1,98,sounds\french\audio/french_952.wav,"[[  0.          89.6944408 ]
 [  0.1         29.6191185 ]
 [  0.2         82.60414553]
 [  0.25666667 -20.57336344]]","[[0.         1.65049473]
 [0.1        0.9962644 ]
 [0.2        0.25471402]
 [0.25666667 0.85149117]]",0,0.506
5,m,38,english,5,3,english,2024-02-13 17:59:28.521938,False,1,99,sounds\french\audio/french_465.wav,"[[  0.          75.74191185]
 [  0.1        -78.40057178]
 [  0.2        -12.36406326]
 [  0.25666667 -26.5706303 ]]","[[0.         0.24775687]
 [0.1        0.61634124]
 [0.2        1.57309013]
 [0.25666667 0.56284004]]",1,0.765
5,m,38,english,5,3,english,2024-02-13 17:59:28.521938,False,1,100,sounds\french\audio/french_309.wav,"[[  0.         -43.78964232]
 [  0.1         78.2069368 ]
 [  0.2        -31.15110399]
 [  0.25666667 -73.94684578]]","[[0.         0.29425556]
 [0.1        1.94220297]
 [0.2        1.27018493]
 [0.25666667 1.0788176 ]]",0,0.477
5,m,38,english,5,3,english,2024-02-13 17:59:28.521938,False,1,101,sounds\french\audio/french_779.wav,"[[  0.         -23.73686582]
 [  0.1         96.23962081]
 [  0.2         19.26430851]
 [  0.25666667 -72.92378626]]","[[0.         0.65858767]
 [0.1        1.55580865]
 [0.2        1.22244229]
 [0.25666667 1.83333034]]",1,0.755
5,m,38,english,5,3,english,2024-02-13 17:59:28.521938,False,1,102,sounds\french\audio/french_433.wav,"[[  0.         -17.50255462]
 [  0.1         46.48307521]
 [  0.2         39.12417732]
 [  0.25666667 -52.98872919]]","[[0.         1.12652369]
 [0.1        1.78874207]
 [0.2        0.52833996]
 [0.25666667 0.52335447]]",0,0.479
5,m,38,english,5,3,english,2024-02-13 17:59:28.521938,False,1,103,sounds\french\audio/french_463.wav,"[[  0.         -19.30652055]
 [  0.1         40.7979064 ]
 [  0.2         73.8964325 ]
 [  0.25666667 -55.7146218 ]]","[[0.         0.66062429]
 [0.1        1.38698103]
 [0.2        0.77621561]
 [0.25666667 0.65457598]]",0,0.4
5,m,38,english,5,3,english,2024-02-13 17:59:28.521938,False,1,104,sounds\french\audio/french_624.wav,"[[  0.         -86.93028371]
 [  0.1        -96.54996815]
 [  0.2         92.34248117]
 [  0.25666667 -12.30629338]]","[[0.         1.16085897]
 [0.1        0.25570688]
 [0.2        0.21766843]
 [0.25666667 1.93131174]]",1,0.789
5,m,38,english,5,3,english,2024-02-13 17:59:28.521938,False,1,105,sounds\french\audio/french_535.wav,"[[  0.         -81.47221285]
 [  0.1         42.68543716]
 [  0.2        -73.81682794]
 [  0.25666667 -85.27887702]]","[[0.         1.61446576]
 [0.1        1.13976105]
 [0.2        0.22032829]
 [0.25666667 0.61620659]]",0,0.519
5,m,38,english,5,3,english,2024-02-13 17:59:28.521938,False,1,106,sounds\french\audio/french_537.wav,"[[ 0.         24.94182708]
 [ 0.1        44.89034985]
 [ 0.2        79.4977598 ]
 [ 0.25666667 43.46988515]]","[[0.         0.83905816]
 [0.1        0.4078644 ]
 [0.2        1.66123527]
 [0.25666667 0.90238518]]",0,1.431
5,m,38,english,5,3,english,2024-02-13 17:59:28.521938,False,1,107,sounds\french\audio/french_167.wav,"[[  0.          35.64973643]
 [  0.1         44.83065125]
 [  0.2         -2.88275541]
 [  0.25666667 -92.53521205]]","[[0.         1.28189169]
 [0.1        1.79221575]
 [0.2        1.75452965]
 [0.25666667 1.25057705]]",1,0.446
5,m,38,english,5,3,english,2024-02-13 17:59:28.521938,False,1,108,sounds\french\audio/french_706.wav,"[[  0.          53.91986852]
 [  0.1        -86.79287422]
 [  0.2        -18.13553248]
 [  0.25666667 -98.41078943]]","[[0.         0.595313  ]
 [0.1        0.19033695]
 [0.2        1.2444166 ]
 [0.25666667 0.51551453]]",0,0.516
5,m,38,english,5,3,english,2024-02-13 17:59:28.521938,False,1,109,sounds\french\audio/french_430.wav,"[[  0.         -57.26862172]
 [  0.1         63.88036448]
 [  0.2        -87.83585054]
 [  0.25666667 -58.79211397]]","[[0.         0.12656802]
 [0.1        1.52184386]
 [0.2        1.10266765]
 [0.25666667 1.86011067]]",1,0.574
5,m,38,english,5,3,english,2024-02-13 17:59:28.521938,False,1,110,sounds\french\audio/french_992.wav,"[[ 0.         88.64163737]
 [ 0.1        46.51622821]
 [ 0.2        89.40723484]
 [ 0.25666667 -7.16948766]]","[[0.         1.670281  ]
 [0.1        0.7447474 ]
 [0.2        0.87778012]
 [0.25666667 1.06303204]]",0,0.443
5,m,38,english,5,3,english,2024-02-13 17:59:28.521938,False,1,111,sounds\french\audio/french_233.wav,"[[  0.         -74.05194232]
 [  0.1         45.77276391]
 [  0.2        -37.66213209]
 [  0.25666667 -32.85858595]]","[[0.         1.46941626]
 [0.1        0.63238632]
 [0.2        1.46686039]
 [0.25666667 1.82755258]]",0,0.735
5,m,38,english,5,3,english,2024-02-13 17:59:28.521938,False,1,112,sounds\french\audio/french_510.wav,"[[  0.         -82.87799208]
 [  0.1         65.34741866]
 [  0.2        -27.05880307]
 [  0.25666667  51.91290048]]","[[0.         0.24901575]
 [0.1        0.57837344]
 [0.2        0.73430832]
 [0.25666667 0.23551409]]",0,3.732
5,m,38,english,5,3,english,2024-02-13 17:59:28.521938,False,1,113,sounds\french\audio/french_243.wav,"[[  0.          94.15218044]
 [  0.1         77.54642038]
 [  0.2        -54.61145872]
 [  0.25666667 -22.57869657]]","[[0.         0.53955239]
 [0.1        1.33237065]
 [0.2        1.76705621]
 [0.25666667 1.15577178]]",1,0.907
5,m,38,english,5,3,english,2024-02-13 17:59:28.521938,False,1,114,sounds\french\audio/french_7.wav,"[[  0.         -71.02833311]
 [  0.1        -12.38691322]
 [  0.2        -62.8930846 ]
 [  0.25666667  27.53159518]]","[[0.         1.79953402]
 [0.1        1.89065694]
 [0.2        0.59849277]
 [0.25666667 0.94237915]]",0,0.317
5,m,38,english,5,3,english,2024-02-13 17:59:28.521938,False,1,115,sounds\french\audio/french_171.wav,"[[ 0.         13.3023016 ]
 [ 0.1        25.29505215]
 [ 0.2        -4.58061697]
 [ 0.25666667 34.76288366]]","[[0.         1.00497926]
 [0.1        0.58011724]
 [0.2        1.99843941]
 [0.25666667 1.29013512]]",0,1.919
5,m,38,english,5,3,english,2024-02-13 17:59:28.521938,False,1,116,sounds\french\audio/french_911.wav,"[[  0.          11.85203828]
 [  0.1        -24.36206963]
 [  0.2        -79.91713821]
 [  0.25666667 -65.93332008]]","[[0.         0.91676267]
 [0.1        0.3897793 ]
 [0.2        0.96594055]
 [0.25666667 1.97851167]]",0,0.384
5,m,38,english,5,3,english,2024-02-13 17:59:28.521938,False,1,117,sounds\french\audio/french_291.wav,"[[  0.         -84.80785011]
 [  0.1        -36.68987184]
 [  0.2        -96.57368066]
 [  0.25666667 -53.58057918]]","[[0.         0.63456403]
 [0.1        1.00353926]
 [0.2        1.89833315]
 [0.25666667 1.00269885]]",1,0.553
5,m,38,english,5,3,english,2024-02-13 17:59:28.521938,False,1,118,sounds\french\audio/french_808.wav,"[[  0.         -62.09526538]
 [  0.1         21.23234707]
 [  0.2        -93.15759374]
 [  0.25666667 -35.4638748 ]]","[[0.         1.28254738]
 [0.1        0.50843795]
 [0.2        0.88416038]
 [0.25666667 1.60061847]]",0,0.404
5,m,38,english,5,3,english,2024-02-13 17:59:28.521938,False,1,119,sounds\french\audio/french_742.wav,"[[  0.          70.50155873]
 [  0.1        -40.99625843]
 [  0.2          6.68379951]
 [  0.25666667 -76.31698705]]","[[0.         0.93659897]
 [0.1        1.14125333]
 [0.2        1.25957194]
 [0.25666667 0.86761951]]",1,7.393
5,m,38,english,5,3,english,2024-02-13 17:59:28.521938,False,1,120,sounds\french\audio/french_198.wav,"[[  0.          72.51067349]
 [  0.1         26.15359829]
 [  0.2        -38.06500424]
 [  0.25666667 -63.59150526]]","[[0.         0.65547069]
 [0.1        0.30610144]
 [0.2        0.27462822]
 [0.25666667 1.37790723]]",0,1.166
5,m,38,english,5,3,english,2024-02-13 17:59:28.521938,False,1,121,sounds\french\audio/french_101.wav,"[[  0.           2.45558497]
 [  0.1        -89.46857105]
 [  0.2         26.84471845]
 [  0.25666667 -40.2942876 ]]","[[0.         0.33272101]
 [0.1        1.30167387]
 [0.2        0.45771198]
 [0.25666667 1.30875705]]",0,4.699
5,m,38,english,5,3,english,2024-02-13 17:59:28.521938,False,1,122,sounds\french\audio/french_246.wav,"[[  0.         -61.30298939]
 [  0.1         15.83987086]
 [  0.2         80.17394669]
 [  0.25666667 -81.65507189]]","[[0.         1.31566238]
 [0.1        1.23869052]
 [0.2        1.57286335]
 [0.25666667 0.07583844]]",1,0.521
5,m,38,english,5,3,english,2024-02-13 17:59:28.521938,False,1,123,sounds\french\audio/french_483.wav,"[[ 0.         97.94153635]
 [ 0.1        11.27160269]
 [ 0.2        92.4188156 ]
 [ 0.25666667 46.65552131]]","[[0.         0.77689604]
 [0.1        0.07842581]
 [0.2        1.30147174]
 [0.25666667 0.73281584]]",0,0.409
5,m,38,english,5,3,english,2024-02-13 17:59:28.521938,False,1,124,sounds\french\audio/french_315.wav,"[[ 0.00000000e+00  8.45751695e+01]
 [ 1.00000000e-01 -5.49339599e+01]
 [ 2.00000000e-01 -2.04659381e+01]
 [ 2.56666667e-01  4.97627412e-02]]","[[0.         1.39276289]
 [0.1        0.42909402]
 [0.2        1.80166787]
 [0.25666667 1.01422067]]",1,1.021
5,m,38,english,5,3,english,2024-02-13 17:59:28.521938,False,1,125,sounds\french\audio/french_92.wav,"[[  0.          59.20081487]
 [  0.1         95.6548793 ]
 [  0.2        -36.19224385]
 [  0.25666667  68.24894855]]","[[0.         1.21926368]
 [0.1        1.56053314]
 [0.2        1.38632022]
 [0.25666667 1.29084252]]",1,0.258
5,m,38,english,5,3,english,2024-02-13 17:59:28.521938,False,1,126,sounds\french\audio/french_315.wav,"[[ 0.00000000e+00  8.45751695e+01]
 [ 1.00000000e-01 -5.49339599e+01]
 [ 2.00000000e-01 -2.04659381e+01]
 [ 2.56666667e-01  4.97627412e-02]]","[[0.         1.39276289]
 [0.1        0.42909402]
 [0.2        1.80166787]
 [0.25666667 1.01422067]]",0,0.824
5,m,38,english,5,3,english,2024-02-13 17:59:28.521938,False,1,127,sounds\french\audio/french_518.wav,"[[  0.          30.08897808]
 [  0.1        -42.00678694]
 [  0.2         47.99304417]
 [  0.25666667 -21.59585354]]","[[0.         1.28002377]
 [0.1        0.31881796]
 [0.2        0.271149  ]
 [0.25666667 1.06182133]]",0,0.397
5,m,38,english,5,3,english,2024-02-13 17:59:28.521938,False,1,128,sounds\french\audio/french_845.wav,"[[  0.          -4.24220541]
 [  0.1        -33.05758094]
 [  0.2        -22.8575131 ]
 [  0.25666667 -28.52835037]]","[[0.         1.81527349]
 [0.1        0.43145559]
 [0.2        1.45726833]
 [0.25666667 1.38023089]]",1,0.663
5,m,38,english,5,3,english,2024-02-13 17:59:28.521938,False,1,129,sounds\french\audio/french_233.wav,"[[  0.         -74.05194232]
 [  0.1         45.77276391]
 [  0.2        -37.66213209]
 [  0.25666667 -32.85858595]]","[[0.         1.46941626]
 [0.1        0.63238632]
 [0.2        1.46686039]
 [0.25666667 1.82755258]]",0,0.36
5,m,38,english,5,3,english,2024-02-13 17:59:28.521938,False,1,130,sounds\french\audio/french_950.wav,"[[ 0.          6.46729125]
 [ 0.1        89.94723115]
 [ 0.2        33.92654299]
 [ 0.25666667  4.68690548]]","[[0.         1.1492664 ]
 [0.1        1.37343317]
 [0.2        1.07181876]
 [0.25666667 0.13073982]]",1,1.599
5,m,38,english,5,3,english,2024-02-13 17:59:28.521938,False,1,131,sounds\french\audio/french_983.wav,"[[  0.         -14.13750987]
 [  0.1         89.20229744]
 [  0.2         38.93652685]
 [  0.25666667  37.63986889]]","[[0.         1.65765615]
 [0.1        0.32114998]
 [0.2        0.52368354]
 [0.25666667 1.60531686]]",0,0.512
5,m,38,english,5,3,english,2024-02-13 17:59:28.521938,False,1,132,sounds\french\audio/french_15.wav,"[[  0.          75.10258226]
 [  0.1         91.64852869]
 [  0.2        -54.2483896 ]
 [  0.25666667 -67.82917504]]","[[0.         1.00702741]
 [0.1        0.72289983]
 [0.2        1.50363401]
 [0.25666667 0.97553874]]",0,5.321
5,m,38,english,5,3,english,2024-02-13 17:59:28.521938,False,1,133,sounds\french\audio/french_297.wav,"[[ 0.         66.56614261]
 [ 0.1        -3.32812159]
 [ 0.2        85.62103424]
 [ 0.25666667 92.99895728]]","[[0.         0.35086225]
 [0.1        1.7876007 ]
 [0.2        0.63077709]
 [0.25666667 0.65985351]]",0,0.729
5,m,38,english,5,3,english,2024-02-13 17:59:28.521938,False,1,134,sounds\french\audio/french_499.wav,"[[  0.          24.28229917]
 [  0.1        -90.85236303]
 [  0.2        -60.29957953]
 [  0.25666667  91.79807534]]","[[0.         0.76159538]
 [0.1        0.50536641]
 [0.2        0.99158085]
 [0.25666667 1.05465089]]",0,0.564
5,m,38,english,5,3,english,2024-02-13 17:59:28.521938,False,1,135,sounds\french\audio/french_518.wav,"[[  0.          30.08897808]
 [  0.1        -42.00678694]
 [  0.2         47.99304417]
 [  0.25666667 -21.59585354]]","[[0.         1.28002377]
 [0.1        0.31881796]
 [0.2        0.271149  ]
 [0.25666667 1.06182133]]",0,0.509
5,m,38,english,5,3,english,2024-02-13 17:59:28.521938,False,1,136,sounds\french\audio/french_766.wav,"[[ 0.         91.85829661]
 [ 0.1        29.32583948]
 [ 0.2        71.77245069]
 [ 0.25666667 28.53871253]]","[[0.         0.12079341]
 [0.1        0.61287095]
 [0.2        1.071897  ]
 [0.25666667 0.29005596]]",0,0.363
5,m,38,english,5,3,english,2024-02-13 17:59:28.521938,False,1,137,sounds\french\audio/french_327.wav,"[[  0.          75.01862194]
 [  0.1        -83.8502905 ]
 [  0.2         63.63621512]
 [  0.25666667 -22.5018405 ]]","[[0.         1.26930687]
 [0.1        1.47688931]
 [0.2        1.339502  ]
 [0.25666667 0.76786237]]",1,0.161
5,m,38,english,5,3,english,2024-02-13 17:59:28.521938,False,1,138,sounds\french\audio/french_254.wav,"[[  0.         -80.26287383]
 [  0.1        -40.33934554]
 [  0.2         63.1875163 ]
 [  0.25666667  55.87543548]]","[[0.         0.610966  ]
 [0.1        1.74213191]
 [0.2        0.92287848]
 [0.25666667 0.4746978 ]]",1,1.12
5,m,38,english,5,3,english,2024-02-13 17:59:28.521938,False,1,139,sounds\french\audio/french_183.wav,"[[  0.         -70.39448934]
 [  0.1         53.65669982]
 [  0.2         -2.56135136]
 [  0.25666667  49.12124255]]","[[0.         1.64690622]
 [0.1        0.19500459]
 [0.2        1.70333754]
 [0.25666667 0.71175446]]",1,0.476
5,m,38,english,5,3,english,2024-02-13 17:59:28.521938,False,1,140,sounds\french\audio/french_576.wav,"[[  0.         -77.18723008]
 [  0.1         32.49939157]
 [  0.2        -11.29964886]
 [  0.25666667  24.65334735]]","[[0.         1.93193878]
 [0.1        0.06461953]
 [0.2        0.24702868]
 [0.25666667 1.68209329]]",0,0.475
5,m,38,english,5,3,english,2024-02-13 17:59:28.521938,False,1,141,sounds\french\audio/french_992.wav,"[[ 0.         88.64163737]
 [ 0.1        46.51622821]
 [ 0.2        89.40723484]
 [ 0.25666667 -7.16948766]]","[[0.         1.670281  ]
 [0.1        0.7447474 ]
 [0.2        0.87778012]
 [0.25666667 1.06303204]]",0,1.201
5,m,38,english,5,3,english,2024-02-13 17:59:28.521938,False,1,142,sounds\french\audio/french_226.wav,"[[  0.          85.32452385]
 [  0.1        -25.06918931]
 [  0.2        -17.89357971]
 [  0.25666667  45.31971501]]","[[0.         1.68909252]
 [0.1        0.17046025]
 [0.2        0.61029189]
 [0.25666667 0.53544367]]",0,0.387
5,m,38,english,5,3,english,2024-02-13 17:59:28.521938,False,1,143,sounds\french\audio/french_498.wav,"[[  0.           4.68377609]
 [  0.1        -15.28708952]
 [  0.2         12.01036293]
 [  0.25666667   2.49690218]]","[[0.         1.22559932]
 [0.1        1.70630703]
 [0.2        0.54123502]
 [0.25666667 0.39602685]]",1,0.446
5,m,38,english,5,3,english,2024-02-13 17:59:28.521938,False,1,144,sounds\french\audio/french_614.wav,"[[ 0.         13.55245103]
 [ 0.1        56.56377999]
 [ 0.2        18.28165036]
 [ 0.25666667 42.87971424]]","[[0.         0.76920018]
 [0.1        1.46632319]
 [0.2        0.77890927]
 [0.25666667 1.0073418 ]]",1,0.601
5,m,38,english,5,3,english,2024-02-13 17:59:28.521938,False,1,145,sounds\french\audio/french_932.wav,"[[  0.         -46.06723632]
 [  0.1         66.80974186]
 [  0.2         39.28685727]
 [  0.25666667 -66.26323275]]","[[0.         0.59994833]
 [0.1        1.29573715]
 [0.2        0.97302603]
 [0.25666667 1.65300799]]",1,1.683
5,m,38,english,5,3,english,2024-02-13 17:59:28.521938,False,1,146,sounds\french\audio/french_690.wav,"[[  0.          79.01312907]
 [  0.1        -50.63616883]
 [  0.2         19.49439666]
 [  0.25666667 -20.64233715]]","[[0.         1.49686193]
 [0.1        0.92741038]
 [0.2        0.30770403]
 [0.25666667 0.53460579]]",0,0.543
5,m,38,english,5,3,english,2024-02-13 17:59:28.521938,False,1,147,sounds\french\audio/french_370.wav,"[[  0.         -31.30279389]
 [  0.1         96.47349065]
 [  0.2         23.18843017]
 [  0.25666667  81.62933181]]","[[0.         1.88170435]
 [0.1        0.75067332]
 [0.2        1.06279648]
 [0.25666667 0.58974769]]",0,0.644
5,m,38,english,5,3,english,2024-02-13 17:59:28.521938,False,1,148,sounds\french\audio/french_468.wav,"[[  0.          62.98081683]
 [  0.1        -56.79667237]
 [  0.2         16.07172023]
 [  0.25666667  67.64788087]]","[[0.         0.39126421]
 [0.1        1.86845908]
 [0.2        0.61680923]
 [0.25666667 0.75086704]]",1,0.458
5,m,38,english,5,3,english,2024-02-13 17:59:28.521938,False,1,149,sounds\french\audio/french_38.wav,"[[  0.          -0.72741882]
 [  0.1         17.06804162]
 [  0.2        -90.47269694]
 [  0.25666667 -46.03968341]]","[[0.         1.73508679]
 [0.1        1.04827054]
 [0.2        0.06966066]
 [0.25666667 1.13213122]]",0,1.034
5,m,38,english,5,3,english,2024-02-13 17:59:28.521938,False,1,150,sounds\french\audio/french_99.wav,"[[ 0.         82.47343156]
 [ 0.1        79.23143861]
 [ 0.2        34.81001375]
 [ 0.25666667 28.26612214]]","[[0.         0.8791919 ]
 [0.1        0.93561146]
 [0.2        1.15477002]
 [0.25666667 0.77336938]]",0,0.617
5,m,38,english,5,3,english,2024-02-13 17:59:28.521938,False,1,151,sounds\french\audio/french_947.wav,"[[  0.         -44.48466948]
 [  0.1         21.49635037]
 [  0.2         52.91188767]
 [  0.25666667  23.38430508]]","[[0.         0.06372519]
 [0.1        0.1513717 ]
 [0.2        1.07040488]
 [0.25666667 1.60411559]]",0,0.358
5,m,38,english,5,3,english,2024-02-13 17:59:28.521938,False,1,152,sounds\french\audio/french_397.wav,"[[  0.         -13.81470081]
 [  0.1         50.38281738]
 [  0.2         50.22980228]
 [  0.25666667 -83.86271009]]","[[0.         1.26162917]
 [0.1        1.19612478]
 [0.2        1.02842354]
 [0.25666667 0.53389444]]",1,0.816
5,m,38,english,5,3,english,2024-02-13 17:59:28.521938,False,1,153,sounds\french\audio/french_698.wav,"[[  0.          77.87531809]
 [  0.1        -26.89699032]
 [  0.2        -54.93316964]
 [  0.25666667 -94.94644501]]","[[0.         1.86418809]
 [0.1        0.30357323]
 [0.2        1.97458381]
 [0.25666667 1.01877906]]",0,5.532
5,m,38,english,5,3,english,2024-02-13 17:59:28.521938,False,1,154,sounds\french\audio/french_536.wav,"[[  0.          68.67423581]
 [  0.1        -41.0053329 ]
 [  0.2         83.63020031]
 [  0.25666667  91.23175369]]","[[0.         1.72386473]
 [0.1        0.5365144 ]
 [0.2        1.03248729]
 [0.25666667 0.91736707]]",1,1.164
5,m,38,english,5,3,english,2024-02-13 17:59:28.521938,False,1,155,sounds\french\audio/french_164.wav,"[[  0.         -18.17175111]
 [  0.1         76.91542059]
 [  0.2        -44.02896165]
 [  0.25666667 -52.20678857]]","[[0.         1.54231832]
 [0.1        0.85273823]
 [0.2        1.08595521]
 [0.25666667 1.30612675]]",0,1.731
5,m,38,english,5,3,english,2024-02-13 17:59:28.521938,False,1,156,sounds\french\audio/french_459.wav,"[[  0.           4.79398058]
 [  0.1         85.90612859]
 [  0.2        -69.41023595]
 [  0.25666667 -22.07588814]]","[[0.         1.10654006]
 [0.1        1.2996969 ]
 [0.2        0.20520219]
 [0.25666667 1.17361701]]",0,0.787
5,m,38,english,5,3,english,2024-02-13 17:59:28.521938,False,1,157,sounds\french\audio/french_218.wav,"[[  0.          50.58163299]
 [  0.1        -62.47432707]
 [  0.2        -11.24403131]
 [  0.25666667 -76.23808147]]","[[0.         1.39700525]
 [0.1        0.24728847]
 [0.2        1.10420939]
 [0.25666667 0.34157158]]",0,0.79
5,m,38,english,5,3,english,2024-02-13 17:59:28.521938,False,1,158,sounds\french\audio/french_207.wav,"[[ 0.         15.24625839]
 [ 0.1        68.60229744]
 [ 0.2        51.04898438]
 [ 0.25666667  8.99799409]]","[[0.         0.95120839]
 [0.1        1.50295804]
 [0.2        0.44335537]
 [0.25666667 1.65047569]]",1,4.099
5,m,38,english,5,3,english,2024-02-13 17:59:28.521938,False,1,159,sounds\french\audio/french_333.wav,"[[ 0.         10.14997655]
 [ 0.1        13.88697857]
 [ 0.2         3.86253466]
 [ 0.25666667 47.83568498]]","[[0.         0.96169616]
 [0.1        0.82290304]
 [0.2        0.18816998]
 [0.25666667 1.34102864]]",0,1.924
5,m,38,english,5,3,english,2024-02-13 17:59:28.521938,False,1,160,sounds\french\audio/french_323.wav,"[[ 0.         32.98542524]
 [ 0.1        23.31860642]
 [ 0.2        85.24347173]
 [ 0.25666667 17.19160257]]","[[0.         1.64001987]
 [0.1        0.049539  ]
 [0.2        1.32093022]
 [0.25666667 0.33485384]]",0,0.788
5,m,38,english,5,3,english,2024-02-13 17:59:28.521938,False,1,161,sounds\french\audio/french_943.wav,"[[  0.          27.08075724]
 [  0.1         11.89706259]
 [  0.2        -68.36208072]
 [  0.25666667  93.65942771]]","[[0.         1.18472309]
 [0.1        0.18520331]
 [0.2        0.55970606]
 [0.25666667 0.63383354]]",0,1.203
5,m,38,english,5,3,english,2024-02-13 17:59:28.521938,False,1,162,sounds\french\audio/french_963.wav,"[[ 0.         47.65214736]
 [ 0.1         6.38608236]
 [ 0.2        90.58649254]
 [ 0.25666667 -7.76898595]]","[[0.         0.44378955]
 [0.1        0.94107122]
 [0.2        1.48470349]
 [0.25666667 1.98203536]]",1,0.333
5,m,38,english,5,3,english,2024-02-13 17:59:28.521938,False,1,163,sounds\french\audio/french_548.wav,"[[ 0.          1.54236609]
 [ 0.1        42.93927178]
 [ 0.2        94.14256546]
 [ 0.25666667 78.31055202]]","[[0.         0.97335898]
 [0.1        0.92328993]
 [0.2        0.31229256]
 [0.25666667 0.51911246]]",1,0.751
5,m,38,english,5,3,english,2024-02-13 17:59:28.521938,False,1,164,sounds\french\audio/french_973.wav,"[[  0.         -99.0384004 ]
 [  0.1         40.13117567]
 [  0.2         49.54188212]
 [  0.25666667  89.60941169]]","[[0.         1.64247416]
 [0.1        0.98090528]
 [0.2        1.75566355]
 [0.25666667 0.64442147]]",1,0.933
5,m,38,english,5,3,english,2024-02-13 17:59:28.521938,False,1,165,sounds\french\audio/french_357.wav,"[[  0.         -39.34197693]
 [  0.1         71.15894406]
 [  0.2        -59.30154436]
 [  0.25666667  60.48174113]]","[[0.         1.60610182]
 [0.1        0.3952593 ]
 [0.2        0.60654741]
 [0.25666667 0.43480054]]",0,0.44
5,m,38,english,5,3,english,2024-02-13 17:59:28.521938,False,1,166,sounds\french\audio/french_930.wav,"[[  0.         -85.15004264]
 [  0.1        -51.05179236]
 [  0.2         60.60693854]
 [  0.25666667  60.89136328]]","[[0.         1.38463402]
 [0.1        1.37480081]
 [0.2        0.42262721]
 [0.25666667 1.58192794]]",1,0.432
5,m,38,english,5,3,english,2024-02-13 17:59:28.521938,False,1,167,sounds\french\audio/french_527.wav,"[[  0.          97.81644093]
 [  0.1         68.05004199]
 [  0.2        -44.05597581]
 [  0.25666667  40.91945638]]","[[0.         0.09503525]
 [0.1        0.33267387]
 [0.2        1.51053464]
 [0.25666667 1.37458991]]",0,1.702
5,m,38,english,5,3,english,2024-02-13 17:59:28.521938,False,1,168,sounds\french\audio/french_806.wav,"[[  0.          97.26957313]
 [  0.1         79.44562669]
 [  0.2         79.77586719]
 [  0.25666667 -46.2684083 ]]","[[0.         1.48673004]
 [0.1        1.9967546 ]
 [0.2        0.9238106 ]
 [0.25666667 1.39755131]]",1,0.219
5,m,38,english,5,3,english,2024-02-13 17:59:28.521938,False,1,169,sounds\french\audio/french_602.wav,"[[ 0.         88.5156033 ]
 [ 0.1        50.37840389]
 [ 0.2        41.99983627]
 [ 0.25666667 11.33520808]]","[[0.         1.15034926]
 [0.1        0.70361943]
 [0.2        1.85629911]
 [0.25666667 0.32194213]]",1,0.28
5,m,38,english,5,3,english,2024-02-13 17:59:28.521938,False,1,170,sounds\french\audio/french_144.wav,"[[  0.          54.7439873 ]
 [  0.1        -90.40840953]
 [  0.2        -23.8496949 ]
 [  0.25666667   9.69074846]]","[[0.         1.65699933]
 [0.1        0.10946834]
 [0.2        0.63660565]
 [0.25666667 0.31092992]]",0,0.551
5,m,38,english,5,3,english,2024-02-13 17:59:28.521938,False,1,171,sounds\french\audio/french_216.wav,"[[  0.          94.47877999]
 [  0.1        -35.64680956]
 [  0.2         -6.49582042]
 [  0.25666667  88.58272088]]","[[0.         1.14166801]
 [0.1        0.96477388]
 [0.2        1.30348701]
 [0.25666667 1.4092971 ]]",1,0.41
5,m,38,english,5,3,english,2024-02-13 17:59:28.521938,False,1,172,sounds\french\audio/french_278.wav,"[[  0.           0.92058819]
 [  0.1        -11.12293645]
 [  0.2         51.74113392]
 [  0.25666667  59.96495371]]","[[0.         0.58166089]
 [0.1        0.6190237 ]
 [0.2        1.02661965]
 [0.25666667 0.89915078]]",0,0.32
5,m,38,english,5,3,english,2024-02-13 17:59:28.521938,False,1,173,sounds\french\audio/french_171.wav,"[[ 0.         13.3023016 ]
 [ 0.1        25.29505215]
 [ 0.2        -4.58061697]
 [ 0.25666667 34.76288366]]","[[0.         1.00497926]
 [0.1        0.58011724]
 [0.2        1.99843941]
 [0.25666667 1.29013512]]",1,0.492
5,m,38,english,5,3,english,2024-02-13 17:59:28.521938,False,1,174,sounds\french\audio/french_527.wav,"[[  0.          97.81644093]
 [  0.1         68.05004199]
 [  0.2        -44.05597581]
 [  0.25666667  40.91945638]]","[[0.         0.09503525]
 [0.1        0.33267387]
 [0.2        1.51053464]
 [0.25666667 1.37458991]]",0,0.627
5,m,38,english,5,3,english,2024-02-13 17:59:28.521938,False,1,175,sounds\french\audio/french_127.wav,"[[ 0.         56.99195339]
 [ 0.1        71.02339704]
 [ 0.2        72.81237495]
 [ 0.25666667 99.25740409]]","[[0.         1.23888103]
 [0.1        1.9853403 ]
 [0.2        0.22936254]
 [0.25666667 0.23690129]]",1,0.255
5,m,38,english,5,3,english,2024-02-13 17:59:28.521938,False,1,176,sounds\french\audio/french_440.wav,"[[  0.         -59.81098651]
 [  0.1         55.41661021]
 [  0.2         43.77043266]
 [  0.25666667  -5.41632891]]","[[0.         0.93400427]
 [0.1        0.25641934]
 [0.2        0.61594081]
 [0.25666667 1.32329824]]",0,0.319
5,m,38,english,5,3,english,2024-02-13 17:59:28.521938,False,1,177,sounds\french\audio/french_681.wav,"[[  0.         -28.020652  ]
 [  0.1         -7.04160788]
 [  0.2         53.5795515 ]
 [  0.25666667 -33.12503676]]","[[0.         0.15084138]
 [0.1        1.22079629]
 [0.2        1.97804896]
 [0.25666667 0.44897499]]",1,0.34
5,m,38,english,5,3,english,2024-02-13 17:59:28.521938,False,1,178,sounds\french\audio/french_84.wav,"[[  0.         -54.85806939]
 [  0.1         52.61671493]
 [  0.2         -3.50081054]
 [  0.25666667 -40.76156086]]","[[0.         1.84853156]
 [0.1        1.627657  ]
 [0.2        1.36210905]
 [0.25666667 0.69575672]]",0,1.09
5,m,38,english,5,3,english,2024-02-13 17:59:28.521938,False,1,179,sounds\french\audio/french_932.wav,"[[  0.         -46.06723632]
 [  0.1         66.80974186]
 [  0.2         39.28685727]
 [  0.25666667 -66.26323275]]","[[0.         0.59994833]
 [0.1        1.29573715]
 [0.2        0.97302603]
 [0.25666667 1.65300799]]",0,0.976
5,m,38,english,5,3,english,2024-02-13 17:59:28.521938,False,1,180,sounds\french\audio/french_119.wav,"[[  0.           9.8100641 ]
 [  0.1         19.57169954]
 [  0.2         -1.41265712]
 [  0.25666667 -78.33165967]]","[[0.         0.76259974]
 [0.1        1.49190063]
 [0.2        0.43709034]
 [0.25666667 1.93463996]]",0,0.665
5,m,38,english,5,3,english,2024-02-13 17:59:28.521938,False,1,181,sounds\french\audio/french_878.wav,"[[  0.         -11.41587957]
 [  0.1        -52.86145621]
 [  0.2         10.56905128]
 [  0.25666667  87.23323491]]","[[0.         1.5495917 ]
 [0.1        0.92573348]
 [0.2        0.71371417]
 [0.25666667 0.72785239]]",0,1.273
5,m,38,english,5,3,english,2024-02-13 17:59:28.521938,False,1,182,sounds\french\audio/french_220.wav,"[[  0.          99.39862809]
 [  0.1        -16.44954754]
 [  0.2        -73.93109837]
 [  0.25666667 -37.75571533]]","[[0.         1.95391084]
 [0.1        1.60430152]
 [0.2        1.1953066 ]
 [0.25666667 0.34699919]]",1,0.523
5,m,38,english,5,3,english,2024-02-13 17:59:28.521938,False,1,183,sounds\french\audio/french_767.wav,"[[  0.          91.79298807]
 [  0.1        -10.9319541 ]
 [  0.2        -18.13246944]
 [  0.25666667  -6.11346908]]","[[0.         1.15796888]
 [0.1        0.37743288]
 [0.2        1.06132115]
 [0.25666667 0.41668969]]",0,0.675
5,m,38,english,5,3,english,2024-02-13 17:59:28.521938,False,1,184,sounds\french\audio/french_724.wav,"[[  0.         -58.96674975]
 [  0.1        -95.33611412]
 [  0.2        -56.69004984]
 [  0.25666667 -50.97008283]]","[[0.         0.30578628]
 [0.1        0.57010607]
 [0.2        1.33615123]
 [0.25666667 1.59962144]]",0,0.705
5,m,38,english,5,3,english,2024-02-13 17:59:28.521938,False,1,185,sounds\french\audio/french_373.wav,"[[  0.          27.88559689]
 [  0.1         61.41244142]
 [  0.2         37.97273047]
 [  0.25666667 -82.72738113]]","[[0.         1.35161412]
 [0.1        1.00997609]
 [0.2        1.87297461]
 [0.25666667 0.97441242]]",1,8.983
5,m,38,english,5,3,english,2024-02-13 17:59:28.521938,False,1,186,sounds\french\audio/french_286.wav,"[[  0.         -12.75776796]
 [  0.1         37.83162005]
 [  0.2        -73.99987606]
 [  0.25666667 -99.59641202]]","[[0.         0.7334837 ]
 [0.1        0.13945261]
 [0.2        0.89700821]
 [0.25666667 0.06192005]]",0,0.456
5,m,38,english,5,3,english,2024-02-13 17:59:28.521938,False,1,187,sounds\french\audio/french_844.wav,"[[  0.          29.77319266]
 [  0.1         -6.65775534]
 [  0.2         88.70188171]
 [  0.25666667 -96.32304745]]","[[0.         0.89130203]
 [0.1        0.41170989]
 [0.2        0.96705276]
 [0.25666667 0.58258054]]",0,0.748
5,m,38,english,5,3,english,2024-02-13 17:59:28.521938,False,1,188,sounds\french\audio/french_669.wav,"[[0.00000000e+00 7.85638242e-02]
 [1.00000000e-01 6.42084207e+00]
 [2.00000000e-01 8.43922519e+01]
 [2.56666667e-01 1.87399725e+00]]","[[0.         1.32851713]
 [0.1        1.65603836]
 [0.2        1.32676382]
 [0.25666667 0.80161972]]",1,0.511
5,m,38,english,5,3,english,2024-02-13 17:59:28.521938,False,1,189,sounds\french\audio/french_932.wav,"[[  0.         -46.06723632]
 [  0.1         66.80974186]
 [  0.2         39.28685727]
 [  0.25666667 -66.26323275]]","[[0.         0.59994833]
 [0.1        1.29573715]
 [0.2        0.97302603]
 [0.25666667 1.65300799]]",1,0.746
5,m,38,english,5,3,english,2024-02-13 17:59:28.521938,False,1,190,sounds\french\audio/french_976.wav,"[[  0.         -70.02335232]
 [  0.1        -61.25816472]
 [  0.2         38.21349803]
 [  0.25666667  27.10323863]]","[[0.         0.30263581]
 [0.1        1.77513966]
 [0.2        0.48920434]
 [0.25666667 1.97348905]]",1,0.481
5,m,38,english,5,3,english,2024-02-13 17:59:28.521938,False,1,191,sounds\french\audio/french_548.wav,"[[ 0.          1.54236609]
 [ 0.1        42.93927178]
 [ 0.2        94.14256546]
 [ 0.25666667 78.31055202]]","[[0.         0.97335898]
 [0.1        0.92328993]
 [0.2        0.31229256]
 [0.25666667 0.51911246]]",0,0.371
5,m,38,english,5,3,english,2024-02-13 17:59:28.521938,False,1,192,sounds\french\audio/french_835.wav,"[[  0.          -1.43190356]
 [  0.1        -99.33286499]
 [  0.2         34.34373885]
 [  0.25666667  39.86329231]]","[[0.         0.4805844 ]
 [0.1        1.12822193]
 [0.2        1.41477947]
 [0.25666667 0.63497531]]",0,0.897
5,m,38,english,5,3,english,2024-02-13 17:59:28.521938,False,1,193,sounds\french\audio/french_881.wav,"[[  0.         -25.82648211]
 [  0.1         13.08751975]
 [  0.2        -84.06590477]
 [  0.25666667 -28.7935441 ]]","[[0.         0.15296837]
 [0.1        1.42149925]
 [0.2        1.29281362]
 [0.25666667 1.41538706]]",1,0.528
5,m,38,english,5,3,english,2024-02-13 17:59:28.521938,False,1,194,sounds\french\audio/french_719.wav,"[[  0.          -0.39387326]
 [  0.1          1.52424656]
 [  0.2         34.63950895]
 [  0.25666667 -19.23986751]]","[[0.         0.47887204]
 [0.1        1.22874683]
 [0.2        0.97564384]
 [0.25666667 0.79252429]]",0,0.871
5,m,38,english,5,3,english,2024-02-13 17:59:28.521938,False,1,195,sounds\french\audio/french_500.wav,"[[  0.         -64.77507575]
 [  0.1         -6.64685947]
 [  0.2        -63.06704172]
 [  0.25666667  -2.53403127]]","[[0.         1.1238598 ]
 [0.1        1.28070421]
 [0.2        0.36817987]
 [0.25666667 0.89472864]]",1,0.984
5,m,38,english,5,3,english,2024-02-13 17:59:28.521938,False,1,196,sounds\french\audio/french_864.wav,"[[ 0.         27.21382842]
 [ 0.1        -8.96687562]
 [ 0.2        47.01768167]
 [ 0.25666667 98.93956807]]","[[0.         1.35032716]
 [0.1        1.41041806]
 [0.2        0.47669103]
 [0.25666667 1.26265942]]",1,0.513
5,m,38,english,5,3,english,2024-02-13 17:59:28.521938,False,1,197,sounds\french\audio/french_904.wav,"[[  0.          -3.33486868]
 [  0.1        -72.00110742]
 [  0.2         32.54458222]
 [  0.25666667  13.13318907]]","[[0.         1.84649441]
 [0.1        1.91186975]
 [0.2        0.71589927]
 [0.25666667 0.21658524]]",1,0.346
5,m,38,english,5,3,english,2024-02-13 17:59:28.521938,False,1,198,sounds\french\audio/french_662.wav,"[[ 0.         69.59464859]
 [ 0.1        92.96629611]
 [ 0.2        83.22574806]
 [ 0.25666667 59.78978888]]","[[0.         0.59800434]
 [0.1        0.25880336]
 [0.2        0.52365302]
 [0.25666667 1.67953256]]",0,0.358
5,m,38,english,5,3,english,2024-02-13 17:59:28.521938,False,1,199,sounds\french\audio/french_789.wav,"[[  0.          16.13130467]
 [  0.1        -53.51301261]
 [  0.2         91.10833978]
 [  0.25666667   9.61415248]]","[[0.         1.41580253]
 [0.1        1.63533644]
 [0.2        0.42839577]
 [0.25666667 0.64971622]]",1,0.194
5,m,38,english,5,3,english,2024-02-13 17:59:28.521938,False,1,200,sounds\french\audio/french_329.wav,"[[  0.          14.6954169 ]
 [  0.1        -60.61079034]
 [  0.2        -27.52715396]
 [  0.25666667 -71.65343532]]","[[0.         0.80369944]
 [0.1        1.40829285]
 [0.2        0.22971006]
 [0.25666667 0.37653007]]",1,0.438
5,m,38,english,5,3,english,2024-02-13 17:59:28.521938,False,1,201,sounds\french\audio/french_345.wav,"[[  0.         -15.34440167]
 [  0.1         10.78758757]
 [  0.2        -99.05600522]
 [  0.25666667  -6.99010662]]","[[0.         0.71900559]
 [0.1        1.22956467]
 [0.2        1.71608101]
 [0.25666667 1.92257683]]",1,0.345
5,m,38,english,5,3,english,2024-02-13 17:59:28.521938,False,1,202,sounds\french\audio/french_664.wav,"[[  0.          -2.08032019]
 [  0.1        -67.02716902]
 [  0.2         95.17650789]
 [  0.25666667 -41.34718039]]","[[0.         1.43741932]
 [0.1        1.07099048]
 [0.2        1.92774669]
 [0.25666667 0.70027683]]",1,0.485
5,m,38,english,5,3,english,2024-02-13 17:59:28.521938,False,1,203,sounds\french\audio/french_313.wav,"[[  0.          50.15458506]
 [  0.1          2.46815661]
 [  0.2         44.14025365]
 [  0.25666667 -56.8276357 ]]","[[0.         0.55380102]
 [0.1        0.88494107]
 [0.2        0.65214702]
 [0.25666667 0.5616472 ]]",0,0.712
5,m,38,english,5,3,english,2024-02-13 17:59:28.521938,False,1,204,sounds\french\audio/french_843.wav,"[[  0.          13.6803361 ]
 [  0.1         92.02668438]
 [  0.2        -93.52604538]
 [  0.25666667 -12.7136852 ]]","[[0.         0.65425976]
 [0.1        1.47814853]
 [0.2        0.78236369]
 [0.25666667 0.52413001]]",1,0.468
5,m,38,english,5,3,english,2024-02-13 17:59:28.521938,False,1,205,sounds\french\audio/french_195.wav,"[[  0.          -1.90342588]
 [  0.1         -8.12665825]
 [  0.2         -5.61431002]
 [  0.25666667 -66.29175925]]","[[0.         0.62941576]
 [0.1        1.90753939]
 [0.2        1.47732259]
 [0.25666667 0.68212586]]",1,0.555
5,m,38,english,5,3,english,2024-02-13 17:59:28.521938,False,1,206,sounds\french\audio/french_635.wav,"[[  0.          33.90344979]
 [  0.1        -75.47627702]
 [  0.2         49.7914685 ]
 [  0.25666667  43.41419086]]","[[0.         1.89496442]
 [0.1        0.79794333]
 [0.2        1.70645199]
 [0.25666667 1.41022612]]",1,0.411
5,m,38,english,5,3,english,2024-02-13 17:59:28.521938,False,1,207,sounds\french\audio/french_395.wav,"[[  0.          53.54317287]
 [  0.1        -58.7899365 ]
 [  0.2        -16.29959602]
 [  0.25666667 -29.17949613]]","[[0.         1.78210887]
 [0.1        0.28539332]
 [0.2        1.44255764]
 [0.25666667 0.93749012]]",0,0.387
5,m,38,english,5,3,english,2024-02-13 17:59:28.521938,False,1,208,sounds\french\audio/french_983.wav,"[[  0.         -14.13750987]
 [  0.1         89.20229744]
 [  0.2         38.93652685]
 [  0.25666667  37.63986889]]","[[0.         1.65765615]
 [0.1        0.32114998]
 [0.2        0.52368354]
 [0.25666667 1.60531686]]",0,0.775
5,m,38,english,5,3,english,2024-02-13 17:59:28.521938,False,1,209,sounds\french\audio/french_997.wav,"[[ 0.         70.02211451]
 [ 0.1        69.24362731]
 [ 0.2        73.007848  ]
 [ 0.25666667 83.15376715]]","[[0.         0.23520638]
 [0.1        0.40856699]
 [0.2        1.59962624]
 [0.25666667 0.8906701 ]]",0,0.875
5,m,38,english,5,3,english,2024-02-13 17:59:28.521938,False,1,210,sounds\french\audio/french_324.wav,"[[  0.          19.03085887]
 [  0.1         67.89064078]
 [  0.2        -77.83323733]
 [  0.25666667 -13.49414868]]","[[0.         0.73874118]
 [0.1        0.03678538]
 [0.2        0.54818629]
 [0.25666667 1.04853797]]",0,0.488
5,m,38,english,5,3,english,2024-02-13 17:59:28.521938,False,1,211,sounds\french\audio/french_509.wav,"[[  0.          98.86127545]
 [  0.1        -58.47415861]
 [  0.2         23.95425933]
 [  0.25666667  74.34097669]]","[[0.         0.38470371]
 [0.1        0.77077576]
 [0.2        1.30836253]
 [0.25666667 1.2187589 ]]",1,0.789
5,m,38,english,5,3,english,2024-02-13 17:59:28.521938,False,1,212,sounds\french\audio/french_140.wav,"[[  0.          88.20971648]
 [  0.1        -47.21457526]
 [  0.2        -33.13299566]
 [  0.25666667   6.89149494]]","[[0.         1.40468934]
 [0.1        0.07517377]
 [0.2        0.96987146]
 [0.25666667 0.45515396]]",0,0.447
5,m,38,english,5,3,english,2024-02-13 17:59:28.521938,False,1,213,sounds\french\audio/french_759.wav,"[[  0.          43.66892012]
 [  0.1         28.75822808]
 [  0.2        -53.65094598]
 [  0.25666667 -79.66264825]]","[[0.         0.9017147 ]
 [0.1        1.01118462]
 [0.2        1.43326948]
 [0.25666667 0.32927354]]",1,4.445
5,m,38,english,5,3,english,2024-02-13 17:59:28.521938,False,1,214,sounds\french\audio/french_866.wav,"[[  0.         -60.69074585]
 [  0.1        -41.67968152]
 [  0.2         -8.99838874]
 [  0.25666667  40.83736488]]","[[0.         1.64484001]
 [0.1        0.19415831]
 [0.2        1.20864699]
 [0.25666667 0.81730442]]",1,4.651
5,m,38,english,5,3,english,2024-02-13 17:59:28.521938,False,1,215,sounds\french\audio/french_65.wav,"[[  0.         -17.53877645]
 [  0.1         77.85789868]
 [  0.2         16.40180032]
 [  0.25666667  56.20856175]]","[[0.         1.80859796]
 [0.1        1.24255314]
 [0.2        1.28894604]
 [0.25666667 0.80043142]]",1,0.342
5,m,38,english,5,3,english,2024-02-13 17:59:28.521938,False,1,216,sounds\french\audio/french_119.wav,"[[  0.           9.8100641 ]
 [  0.1         19.57169954]
 [  0.2         -1.41265712]
 [  0.25666667 -78.33165967]]","[[0.         0.76259974]
 [0.1        1.49190063]
 [0.2        0.43709034]
 [0.25666667 1.93463996]]",0,0.468
5,m,38,english,5,3,english,2024-02-13 17:59:28.521938,False,1,217,sounds\french\audio/french_774.wav,"[[  0.         -35.29041546]
 [  0.1        -21.07774935]
 [  0.2        -42.95062976]
 [  0.25666667 -27.37747858]]","[[0.         0.24909556]
 [0.1        0.81236123]
 [0.2        0.84475887]
 [0.25666667 0.12641702]]",0,0.269
5,m,38,english,5,3,english,2024-02-13 17:59:28.521938,False,1,218,sounds\french\audio/french_390.wav,"[[  0.          13.63716389]
 [  0.1        -61.62928039]
 [  0.2         89.99724903]
 [  0.25666667 -99.60285567]]","[[0.         0.73987932]
 [0.1        1.19791102]
 [0.2        0.30500022]
 [0.25666667 1.08417724]]",0,0.356
5,m,38,english,5,3,english,2024-02-13 17:59:28.521938,False,1,219,sounds\french\audio/french_662.wav,"[[ 0.         69.59464859]
 [ 0.1        92.96629611]
 [ 0.2        83.22574806]
 [ 0.25666667 59.78978888]]","[[0.         0.59800434]
 [0.1        0.25880336]
 [0.2        0.52365302]
 [0.25666667 1.67953256]]",0,0.443
5,m,38,english,5,3,english,2024-02-13 17:59:28.521938,False,1,220,sounds\french\audio/french_472.wav,"[[  0.          -9.46806957]
 [  0.1         45.81973918]
 [  0.2        -32.95266456]
 [  0.25666667 -10.56557549]]","[[0.         0.85855516]
 [0.1        1.60383991]
 [0.2        0.80244772]
 [0.25666667 1.48234138]]",1,0.505
5,m,38,english,5,3,english,2024-02-13 17:59:28.521938,False,1,221,sounds\french\audio/french_715.wav,"[[  0.          89.89167485]
 [  0.1         47.15597215]
 [  0.2         44.59513653]
 [  0.25666667 -32.08567965]]","[[0.         1.90551341]
 [0.1        0.2376049 ]
 [0.2        0.03260857]
 [0.25666667 1.14470607]]",0,0.461
5,m,38,english,5,3,english,2024-02-13 17:59:28.521938,False,1,222,sounds\french\audio/french_684.wav,"[[  0.          48.27990123]
 [  0.1          7.94375198]
 [  0.2          8.02227037]
 [  0.25666667 -51.87380122]]","[[0.         1.19178247]
 [0.1        1.19295899]
 [0.2        0.65877552]
 [0.25666667 1.73612438]]",1,0.273
5,m,38,english,5,3,english,2024-02-13 17:59:28.521938,False,1,223,sounds\french\audio/french_927.wav,"[[  0.         -10.52890049]
 [  0.1        -14.60087289]
 [  0.2        -23.19620382]
 [  0.25666667  -4.91748489]]","[[0.         0.60201579]
 [0.1        1.35124195]
 [0.2        0.97713268]
 [0.25666667 0.83956459]]",1,0.887
5,m,38,english,5,3,english,2024-02-13 17:59:28.521938,False,1,224,sounds\french\audio/french_107.wav,"[[  0.          67.03881883]
 [  0.1         45.78296109]
 [  0.2        -43.22729876]
 [  0.25666667 -74.69599774]]","[[0.         1.87266913]
 [0.1        0.27229476]
 [0.2        1.08803063]
 [0.25666667 1.63601275]]",0,0.373
5,m,38,english,5,3,english,2024-02-13 17:59:28.521938,False,1,225,sounds\french\audio/french_456.wav,"[[  0.         -27.91969988]
 [  0.1         -6.9905469 ]
 [  0.2          7.34213132]
 [  0.25666667 -16.30576404]]","[[0.         0.874098  ]
 [0.1        0.40632282]
 [0.2        0.88508218]
 [0.25666667 1.43350061]]",0,0.345
5,m,38,english,5,3,english,2024-02-13 17:59:28.521938,False,1,226,sounds\french\audio/french_686.wav,"[[ 0.         20.49516986]
 [ 0.1        27.4040505 ]
 [ 0.2        31.96095965]
 [ 0.25666667 61.08066052]]","[[0.         1.86861476]
 [0.1        1.87689714]
 [0.2        0.80940067]
 [0.25666667 0.04075967]]",1,1.721
5,m,38,english,5,3,english,2024-02-13 17:59:28.521938,False,1,227,sounds\french\audio/french_600.wav,"[[  0.          29.66563504]
 [  0.1         -8.64659381]
 [  0.2        -34.77347642]
 [  0.25666667 -62.75040759]]","[[0.         0.34173365]
 [0.1        0.28144694]
 [0.2        1.5541161 ]
 [0.25666667 1.60255421]]",0,0.439
5,m,38,english,5,3,english,2024-02-13 17:59:28.521938,False,1,228,sounds\french\audio/french_256.wav,"[[ 0.         34.00641445]
 [ 0.1        78.12380502]
 [ 0.2        84.97245465]
 [ 0.25666667 29.4187394 ]]","[[0.         1.19838094]
 [0.1        0.9412232 ]
 [0.2        1.34630265]
 [0.25666667 1.86077871]]",1,0.803
5,m,38,english,5,3,english,2024-02-13 17:59:28.521938,False,1,229,sounds\french\audio/french_486.wav,"[[  0.         -65.13732965]
 [  0.1        -93.57114331]
 [  0.2        -51.69797787]
 [  0.25666667  -3.30938414]]","[[0.         0.7755652 ]
 [0.1        0.9577819 ]
 [0.2        0.68553835]
 [0.25666667 0.55056833]]",0,0.867
5,m,38,english,5,3,english,2024-02-13 17:59:28.521938,False,1,230,sounds\french\audio/french_267.wav,"[[  0.         -65.51042118]
 [  0.1         15.6710232 ]
 [  0.2        -16.59501764]
 [  0.25666667  49.75287867]]","[[0.         0.47900721]
 [0.1        1.08471332]
 [0.2        0.49268798]
 [0.25666667 1.54023863]]",0,1.982
5,m,38,english,5,3,english,2024-02-13 17:59:28.521938,False,1,231,sounds\french\audio/french_885.wav,"[[  0.          33.82264354]
 [  0.1        -17.07734064]
 [  0.2        -15.93967404]
 [  0.25666667  58.67746901]]","[[0.         0.94046277]
 [0.1        0.79714646]
 [0.2        1.26873891]
 [0.25666667 1.69592015]]",1,2.835
5,m,38,english,5,3,english,2024-02-13 17:59:28.521938,False,1,232,sounds\french\audio/french_816.wav,"[[  0.         -39.39804621]
 [  0.1         14.23792488]
 [  0.2        -84.08825282]
 [  0.25666667 -46.46940665]]","[[0.         1.26291691]
 [0.1        1.60181117]
 [0.2        0.57012939]
 [0.25666667 1.06315664]]",0,0.716
5,m,38,english,5,3,english,2024-02-13 17:59:28.521938,False,1,233,sounds\french\audio/french_815.wav,"[[  0.         -30.97778369]
 [  0.1        -10.3506413 ]
 [  0.2         61.86726268]
 [  0.25666667 -32.12586702]]","[[0.         1.45421986]
 [0.1        0.28044698]
 [0.2        1.88309962]
 [0.25666667 1.86356454]]",1,0.263
5,m,38,english,5,3,english,2024-02-13 17:59:28.521938,False,1,234,sounds\french\audio/french_20.wav,"[[  0.         -78.24291845]
 [  0.1        -38.50442353]
 [  0.2          8.39731749]
 [  0.25666667 -43.87764948]]","[[0.         1.07200279]
 [0.1        1.52694999]
 [0.2        0.86133356]
 [0.25666667 0.74788424]]",0,3.526
5,m,38,english,5,3,english,2024-02-13 17:59:28.521938,False,1,235,sounds\french\audio/french_856.wav,"[[  0.         -64.45291012]
 [  0.1         51.16318907]
 [  0.2         51.97117103]
 [  0.25666667  78.82524423]]","[[0.         0.77997639]
 [0.1        0.05317495]
 [0.2        0.19638347]
 [0.25666667 1.64847488]]",0,0.438
5,m,38,english,5,3,english,2024-02-13 17:59:28.521938,False,1,236,sounds\french\audio/french_449.wav,"[[  0.          49.95404734]
 [  0.1        -42.73933853]
 [  0.2         16.44287486]
 [  0.25666667 -12.34539139]]","[[0.         0.88379096]
 [0.1        1.13878319]
 [0.2        0.43325684]
 [0.25666667 0.01727343]]",0,4.294
5,m,38,english,5,3,english,2024-02-13 17:59:28.521938,False,1,237,sounds\french\audio/french_501.wav,"[[  0.         -56.11865097]
 [  0.1         -7.09029516]
 [  0.2        -36.29429224]
 [  0.25666667 -11.40231031]]","[[0.         1.37224371]
 [0.1        0.68301448]
 [0.2        0.41531668]
 [0.25666667 0.4885534 ]]",0,0.416
5,m,38,english,5,3,english,2024-02-13 17:59:28.521938,False,1,238,sounds\french\audio/french_481.wav,"[[  0.         -44.05926666]
 [  0.1         85.82418432]
 [  0.2         87.54559417]
 [  0.25666667  50.04191005]]","[[0.         1.24899263]
 [0.1        1.22078865]
 [0.2        0.10859618]
 [0.25666667 0.19634609]]",0,0.644
5,m,38,english,5,3,english,2024-02-13 17:59:28.521938,False,1,239,sounds\french\audio/french_587.wav,"[[  0.         -75.34784911]
 [  0.1         20.53880501]
 [  0.2        -66.82934855]
 [  0.25666667   0.42354047]]","[[0.         1.71069253]
 [0.1        1.37718063]
 [0.2        1.47865121]
 [0.25666667 1.29460257]]",1,1.255
5,m,38,english,5,3,english,2024-02-13 17:59:28.521938,False,1,240,sounds\french\audio/french_589.wav,"[[  0.         -25.33744833]
 [  0.1        -46.00092507]
 [  0.2        -35.85501424]
 [  0.25666667  61.35269907]]","[[0.         1.20649344]
 [0.1        0.60898863]
 [0.2        0.34188975]
 [0.25666667 1.06172305]]",0,0.389
5,m,38,english,5,3,english,2024-02-13 17:59:28.521938,False,1,241,sounds\french\audio/french_680.wav,"[[  0.         -51.31535201]
 [  0.1        -31.64171723]
 [  0.2         81.67923452]
 [  0.25666667  54.52860803]]","[[0.         1.24719536]
 [0.1        1.74184859]
 [0.2        0.78878625]
 [0.25666667 1.82878415]]",1,0.368
5,m,38,english,5,3,english,2024-02-13 17:59:28.521938,False,1,242,sounds\french\audio/french_284.wav,"[[  0.           9.11616736]
 [  0.1          1.28278273]
 [  0.2         64.48623036]
 [  0.25666667 -18.83957989]]","[[0.         0.794635  ]
 [0.1        0.64071903]
 [0.2        0.85736223]
 [0.25666667 1.30798049]]",0,0.642
5,m,38,english,5,3,english,2024-02-13 17:59:28.521938,False,1,243,sounds\french\audio/french_84.wav,"[[  0.         -54.85806939]
 [  0.1         52.61671493]
 [  0.2         -3.50081054]
 [  0.25666667 -40.76156086]]","[[0.         1.84853156]
 [0.1        1.627657  ]
 [0.2        1.36210905]
 [0.25666667 0.69575672]]",1,0.333
5,m,38,english,5,3,english,2024-02-13 17:59:28.521938,False,1,244,sounds\french\audio/french_694.wav,"[[  0.          17.77218449]
 [  0.1         99.46599521]
 [  0.2        -15.42512366]
 [  0.25666667 -86.21441247]]","[[0.         1.83585748]
 [0.1        0.80026037]
 [0.2        1.77531791]
 [0.25666667 1.07868716]]",1,5.423
5,m,38,english,5,3,english,2024-02-13 17:59:28.521938,False,1,245,sounds\french\audio/french_236.wav,"[[ 0.         25.84118528]
 [ 0.1        -8.91572412]
 [ 0.2        11.24728016]
 [ 0.25666667 27.02911702]]","[[0.         0.50094641]
 [0.1        0.84977658]
 [0.2        1.88634356]
 [0.25666667 1.9832527 ]]",1,0.409
5,m,38,english,5,3,english,2024-02-13 17:59:28.521938,False,1,246,sounds\french\audio/french_23.wav,"[[  0.          60.31001525]
 [  0.1        -66.5420171 ]
 [  0.2         63.07925381]
 [  0.25666667 -69.51509132]]","[[0.         1.86606536]
 [0.1        0.5728784 ]
 [0.2        0.71513043]
 [0.25666667 1.52612213]]",0,0.23
5,m,38,english,5,3,english,2024-02-13 17:59:28.521938,False,1,247,sounds\french\audio/french_377.wav,"[[  0.          99.29202042]
 [  0.1         26.86177352]
 [  0.2        -57.22110681]
 [  0.25666667  67.5545455 ]]","[[0.         1.14982617]
 [0.1        1.68513437]
 [0.2        0.38363532]
 [0.25666667 0.68728301]]",1,0.472
5,m,38,english,5,3,english,2024-02-13 17:59:28.521938,False,1,248,sounds\french\audio/french_483.wav,"[[ 0.         97.94153635]
 [ 0.1        11.27160269]
 [ 0.2        92.4188156 ]
 [ 0.25666667 46.65552131]]","[[0.         0.77689604]
 [0.1        0.07842581]
 [0.2        1.30147174]
 [0.25666667 0.73281584]]",0,0.525
5,m,38,english,5,3,english,2024-02-13 17:59:28.521938,False,1,249,sounds\french\audio/french_513.wav,"[[  0.          84.63539274]
 [  0.1         36.6114333 ]
 [  0.2         14.49628471]
 [  0.25666667 -17.17346171]]","[[0.         1.68726635]
 [0.1        0.88690679]
 [0.2        0.37350839]
 [0.25666667 1.74122924]]",1,1.044
5,m,38,english,5,3,english,2024-02-13 17:59:28.521938,False,1,250,sounds\french\audio/french_582.wav,"[[  0.           1.47980053]
 [  0.1        -89.13888063]
 [  0.2          1.45566029]
 [  0.25666667 -76.25724372]]","[[0.         0.83350323]
 [0.1        1.99658076]
 [0.2        0.72464724]
 [0.25666667 1.09622387]]",1,0.653
5,m,38,english,5,3,english,2024-02-13 17:59:28.521938,False,1,251,sounds\french\audio/french_897.wav,"[[  0.          -2.62488743]
 [  0.1        -35.09835725]
 [  0.2         -7.90226738]
 [  0.25666667  34.22753828]]","[[0.         0.95618392]
 [0.1        0.97615626]
 [0.2        0.33556547]
 [0.25666667 0.12618193]]",0,0.265
5,m,38,english,5,3,english,2024-02-13 17:59:28.521938,False,1,252,sounds\french\audio/french_937.wav,"[[  0.          27.89553513]
 [  0.1        -51.2753628 ]
 [  0.2        -75.08991272]
 [  0.25666667 -24.40434042]]","[[0.         1.9323197 ]
 [0.1        1.67315664]
 [0.2        1.14592467]
 [0.25666667 1.81837395]]",1,0.136
5,m,38,english,5,3,english,2024-02-13 17:59:28.521938,False,1,253,sounds\french\audio/french_266.wav,"[[  0.          58.27883453]
 [  0.1        -28.04411439]
 [  0.2        -38.46127027]
 [  0.25666667 -84.67234247]]","[[0.         0.79886668]
 [0.1        1.49488383]
 [0.2        0.15170522]
 [0.25666667 1.57053192]]",1,0.7
5,m,38,english,5,3,english,2024-02-13 17:59:28.521938,False,1,254,sounds\french\audio/french_387.wav,"[[  0.         -24.2271051 ]
 [  0.1        -69.58889879]
 [  0.2         21.02997226]
 [  0.25666667  58.82746302]]","[[0.         0.1957751 ]
 [0.1        0.86781049]
 [0.2        1.73501265]
 [0.25666667 1.75042849]]",1,0.593
5,m,38,english,5,3,english,2024-02-13 17:59:28.521938,False,1,255,sounds\french\audio/french_980.wav,"[[  0.         -38.7537279 ]
 [  0.1         12.31277697]
 [  0.2          6.50697833]
 [  0.25666667 -34.92912415]]","[[0.         0.7061587 ]
 [0.1        1.27161124]
 [0.2        0.8921187 ]
 [0.25666667 1.97802528]]",1,3.901
5,m,38,english,5,3,english,2024-02-13 17:59:28.521938,False,1,256,sounds\french\audio/french_656.wav,"[[  0.         -58.27241095]
 [  0.1          5.28471923]
 [  0.2         -0.12743408]
 [  0.25666667  84.54596147]]","[[0.         0.65184251]
 [0.1        0.59376501]
 [0.2        1.90668759]
 [0.25666667 1.25760212]]",1,0.522
5,m,38,english,5,3,english,2024-02-13 17:59:28.521938,False,1,257,sounds\french\audio/french_377.wav,"[[  0.          99.29202042]
 [  0.1         26.86177352]
 [  0.2        -57.22110681]
 [  0.25666667  67.5545455 ]]","[[0.         1.14982617]
 [0.1        1.68513437]
 [0.2        0.38363532]
 [0.25666667 0.68728301]]",1,0.43
5,m,38,english,5,3,english,2024-02-13 17:59:28.521938,False,1,258,sounds\french\audio/french_120.wav,"[[  0.          59.29212404]
 [  0.1          4.80411823]
 [  0.2         12.26509955]
 [  0.25666667 -79.44354783]]","[[0.         1.04724114]
 [0.1        0.97380182]
 [0.2        0.22521264]
 [0.25666667 0.8027629 ]]",0,0.426
5,m,38,english,5,3,english,2024-02-13 17:59:28.521938,False,1,259,sounds\french\audio/french_219.wav,"[[  0.         -98.78648146]
 [  0.1        -54.51672601]
 [  0.2         75.82451993]
 [  0.25666667  42.52821499]]","[[0.         1.35832625]
 [0.1        0.9105506 ]
 [0.2        0.22027405]
 [0.25666667 1.53742188]]",1,2.549
5,m,38,english,5,3,english,2024-02-13 17:59:28.521938,False,1,260,sounds\french\audio/french_899.wav,"[[  0.         -28.57126009]
 [  0.1         -0.09971188]
 [  0.2         21.79777269]
 [  0.25666667 -88.2290065 ]]","[[0.         0.27570035]
 [0.1        0.02539286]
 [0.2        0.56520269]
 [0.25666667 1.36421593]]",0,0.673
5,m,38,english,5,3,english,2024-02-13 17:59:28.521938,False,1,261,sounds\french\audio/french_437.wav,"[[  0.          59.70067771]
 [  0.1         78.61233767]
 [  0.2         76.18154157]
 [  0.25666667 -54.28538078]]","[[0.         0.22659206]
 [0.1        0.85429053]
 [0.2        1.36297282]
 [0.25666667 1.46039745]]",1,0.371
5,m,38,english,5,3,english,2024-02-13 17:59:28.521938,False,1,262,sounds\french\audio/french_370.wav,"[[  0.         -31.30279389]
 [  0.1         96.47349065]
 [  0.2         23.18843017]
 [  0.25666667  81.62933181]]","[[0.         1.88170435]
 [0.1        0.75067332]
 [0.2        1.06279648]
 [0.25666667 0.58974769]]",1,0.406
5,m,38,english,5,3,english,2024-02-13 17:59:28.521938,False,1,263,sounds\french\audio/french_376.wav,"[[  0.         -29.78300729]
 [  0.1        -14.6608331 ]
 [  0.2         93.91149251]
 [  0.25666667  61.08695399]]","[[0.         1.32478843]
 [0.1        1.46487259]
 [0.2        1.42207254]
 [0.25666667 1.23206205]]",1,0.347
5,m,38,english,5,3,english,2024-02-13 17:59:28.521938,False,1,264,sounds\french\audio/french_724.wav,"[[  0.         -58.96674975]
 [  0.1        -95.33611412]
 [  0.2        -56.69004984]
 [  0.25666667 -50.97008283]]","[[0.         0.30578628]
 [0.1        0.57010607]
 [0.2        1.33615123]
 [0.25666667 1.59962144]]",0,0.539
5,m,38,english,5,3,english,2024-02-13 17:59:28.521938,False,1,265,sounds\french\audio/french_808.wav,"[[  0.         -62.09526538]
 [  0.1         21.23234707]
 [  0.2        -93.15759374]
 [  0.25666667 -35.4638748 ]]","[[0.         1.28254738]
 [0.1        0.50843795]
 [0.2        0.88416038]
 [0.25666667 1.60061847]]",0,0.575
5,m,38,english,5,3,english,2024-02-13 17:59:28.521938,False,1,266,sounds\french\audio/french_93.wav,"[[  0.          23.57211404]
 [  0.1        -16.15934767]
 [  0.2         25.54711871]
 [  0.25666667  65.09284613]]","[[0.         0.62732128]
 [0.1        0.10811818]
 [0.2        0.30787392]
 [0.25666667 1.57978374]]",0,0.425
5,m,38,english,5,3,english,2024-02-13 17:59:28.521938,False,1,267,sounds\french\audio/french_667.wav,"[[  0.         -87.23426609]
 [  0.1         53.54997778]
 [  0.2         57.34155937]
 [  0.25666667 -19.62963402]]","[[0.         0.52575342]
 [0.1        0.6882241 ]
 [0.2        0.15612922]
 [0.25666667 0.34657669]]",0,0.299
5,m,38,english,5,3,english,2024-02-13 17:59:28.521938,False,1,268,sounds\french\audio/french_896.wav,"[[  0.         -50.03367973]
 [  0.1         73.95849411]
 [  0.2         16.78858773]
 [  0.25666667 -49.02431976]]","[[0.         0.4350745 ]
 [0.1        1.7879982 ]
 [0.2        0.61207276]
 [0.25666667 0.35432813]]",1,0.23
5,m,38,english,5,3,english,2024-02-13 17:59:28.521938,False,1,269,sounds\french\audio/french_461.wav,"[[  0.          76.34817382]
 [  0.1          2.37579461]
 [  0.2        -59.90047781]
 [  0.25666667  20.08623444]]","[[0.         0.72953599]
 [0.1        1.5415695 ]
 [0.2        1.01078515]
 [0.25666667 1.02737445]]",1,0.346
5,m,38,english,5,3,english,2024-02-13 17:59:28.521938,False,1,270,sounds\french\audio/french_996.wav,"[[  0.         -93.3315932 ]
 [  0.1        -68.78176083]
 [  0.2          3.00266898]
 [  0.25666667  26.12825604]]","[[0.         0.70155752]
 [0.1        0.82176857]
 [0.2        1.58504857]
 [0.25666667 1.65873812]]",1,0.379
5,m,38,english,5,3,english,2024-02-13 17:59:28.521938,False,1,271,sounds\french\audio/french_262.wav,"[[  0.         -64.23156272]
 [  0.1        -18.68430003]
 [  0.2        -74.67542291]
 [  0.25666667  29.36963449]]","[[0.         0.64961321]
 [0.1        0.97192609]
 [0.2        0.40249154]
 [0.25666667 0.8696964 ]]",0,0.726
5,m,38,english,5,3,english,2024-02-13 17:59:28.521938,False,1,272,sounds\french\audio/french_867.wav,"[[  0.         -56.83459408]
 [  0.1        -43.30462201]
 [  0.2        -57.08778715]
 [  0.25666667  26.25433727]]","[[0.         0.56298114]
 [0.1        1.09173708]
 [0.2        1.10722732]
 [0.25666667 0.48299304]]",1,0.507
5,m,38,english,5,3,english,2024-02-13 17:59:28.521938,False,1,273,sounds\french\audio/french_824.wav,"[[  0.          95.58094713]
 [  0.1        -47.05258515]
 [  0.2         43.18521816]
 [  0.25666667  -5.69582576]]","[[0.         1.84230129]
 [0.1        1.74244762]
 [0.2        1.04703492]
 [0.25666667 0.75358401]]",0,0.276
5,m,38,english,5,3,english,2024-02-13 17:59:28.521938,False,1,274,sounds\french\audio/french_207.wav,"[[ 0.         15.24625839]
 [ 0.1        68.60229744]
 [ 0.2        51.04898438]
 [ 0.25666667  8.99799409]]","[[0.         0.95120839]
 [0.1        1.50295804]
 [0.2        0.44335537]
 [0.25666667 1.65047569]]",1,0.817
5,m,38,english,5,3,english,2024-02-13 17:59:28.521938,False,1,275,sounds\french\audio/french_782.wav,"[[  0.         -22.12019493]
 [  0.1          4.49416446]
 [  0.2         95.81757258]
 [  0.25666667  37.17912971]]","[[0.         0.33541309]
 [0.1        0.60665876]
 [0.2        0.65040298]
 [0.25666667 0.93901734]]",0,0.361
5,m,38,english,5,3,english,2024-02-13 17:59:28.521938,False,1,276,sounds\french\audio/french_791.wav,"[[  0.         -81.64215326]
 [  0.1         84.74526907]
 [  0.2        -10.10354349]
 [  0.25666667 -10.14583619]]","[[0.         0.09493453]
 [0.1        0.0053506 ]
 [0.2        1.61132934]
 [0.25666667 1.39802197]]",0,0.616
5,m,38,english,5,3,english,2024-02-13 17:59:28.521938,False,1,277,sounds\french\audio/french_818.wav,"[[  0.         -26.74770248]
 [  0.1        -33.54864391]
 [  0.2        -23.72939517]
 [  0.25666667  53.93300908]]","[[0.         1.09674102]
 [0.1        0.98606035]
 [0.2        1.86933067]
 [0.25666667 0.6204836 ]]",1,0.446
5,m,38,english,5,3,english,2024-02-13 17:59:28.521938,False,1,278,sounds\french\audio/french_217.wav,"[[ 0.         -8.63904718]
 [ 0.1        71.12460489]
 [ 0.2        81.48384407]
 [ 0.25666667 64.01477431]]","[[0.         0.91131932]
 [0.1        1.66035555]
 [0.2        0.95248702]
 [0.25666667 0.54451157]]",1,0.242
5,m,38,english,5,3,english,2024-02-13 17:59:28.521938,False,1,279,sounds\french\audio/french_705.wav,"[[  0.         -31.52083019]
 [  0.1         93.24854214]
 [  0.2        -36.26217339]
 [  0.25666667  58.31905924]]","[[0.         1.71356233]
 [0.1        0.26324818]
 [0.2        0.66385994]
 [0.25666667 1.85027868]]",0,0.356
5,m,38,english,5,3,english,2024-02-13 17:59:28.521938,False,1,280,sounds\french\audio/french_51.wav,"[[  0.          47.2980437 ]
 [  0.1        -20.71065167]
 [  0.2        -59.15578969]
 [  0.25666667  47.97190204]]","[[0.         1.21993379]
 [0.1        0.59290242]
 [0.2        0.43795747]
 [0.25666667 1.09780803]]",1,1.808
5,m,38,english,5,3,english,2024-02-13 17:59:28.521938,False,1,281,sounds\french\audio/french_440.wav,"[[  0.         -59.81098651]
 [  0.1         55.41661021]
 [  0.2         43.77043266]
 [  0.25666667  -5.41632891]]","[[0.         0.93400427]
 [0.1        0.25641934]
 [0.2        0.61594081]
 [0.25666667 1.32329824]]",0,0.479
5,m,38,english,5,3,english,2024-02-13 17:59:28.521938,False,1,282,sounds\french\audio/french_193.wav,"[[  0.         -28.32639357]
 [  0.1        -28.26139456]
 [  0.2        -57.21870996]
 [  0.25666667 -51.4120543 ]]","[[0.         1.40536398]
 [0.1        0.96467568]
 [0.2        1.12687293]
 [0.25666667 0.49094377]]",1,0.3
5,m,38,english,5,3,english,2024-02-13 17:59:28.521938,False,1,283,sounds\french\audio/french_378.wav,"[[ 0.         74.25757507]
 [ 0.1        69.54270197]
 [ 0.2        91.83328043]
 [ 0.25666667 65.12199987]]","[[0.         1.44636003]
 [0.1        0.18429149]
 [0.2        0.75177649]
 [0.25666667 0.49263706]]",0,0.557
5,m,38,english,5,3,english,2024-02-13 17:59:28.521938,False,1,284,sounds\french\audio/french_219.wav,"[[  0.         -98.78648146]
 [  0.1        -54.51672601]
 [  0.2         75.82451993]
 [  0.25666667  42.52821499]]","[[0.         1.35832625]
 [0.1        0.9105506 ]
 [0.2        0.22027405]
 [0.25666667 1.53742188]]",1,0.496
5,m,38,english,5,3,english,2024-02-13 17:59:28.521938,False,1,285,sounds\french\audio/french_566.wav,"[[ 0.         64.79843522]
 [ 0.1        34.55507538]
 [ 0.2        88.9191899 ]
 [ 0.25666667 20.7211509 ]]","[[0.         1.40647024]
 [0.1        1.25726542]
 [0.2        0.22445964]
 [0.25666667 0.73474601]]",0,0.289
5,m,38,english,5,3,english,2024-02-13 17:59:28.521938,False,1,286,sounds\french\audio/french_872.wav,"[[  0.          85.31192626]
 [  0.1        -62.96284321]
 [  0.2         93.26127986]
 [  0.25666667  48.13314647]]","[[0.         1.27180188]
 [0.1        0.82867252]
 [0.2        1.69740624]
 [0.25666667 0.31258738]]",1,0.508
5,m,38,english,5,3,english,2024-02-13 17:59:28.521938,False,1,287,sounds\french\audio/french_780.wav,"[[  0.         -26.4428256 ]
 [  0.1         71.38381251]
 [  0.2         23.58434052]
 [  0.25666667 -77.81567576]]","[[0.         1.10618342]
 [0.1        1.00150251]
 [0.2        0.69699056]
 [0.25666667 1.24957366]]",0,3.437
5,m,38,english,5,3,english,2024-02-13 17:59:28.521938,False,1,288,sounds\french\audio/french_942.wav,"[[  0.         -53.20970077]
 [  0.1        -81.68739914]
 [  0.2         39.47129185]
 [  0.25666667 -77.13084916]]","[[0.         1.55725844]
 [0.1        1.2093944 ]
 [0.2        0.05517711]
 [0.25666667 1.56672295]]",0,0.518
5,m,38,english,5,3,english,2024-02-13 17:59:28.521938,False,1,289,sounds\french\audio/french_994.wav,"[[  0.         -39.66278541]
 [  0.1         66.70535545]
 [  0.2        -87.43703712]
 [  0.25666667 -41.83233866]]","[[0.         0.39681658]
 [0.1        1.6498105 ]
 [0.2        1.48803434]
 [0.25666667 1.54058484]]",1,0.323
5,m,38,english,5,3,english,2024-02-13 17:59:28.521938,False,1,290,sounds\french\audio/french_697.wav,"[[  0.         -19.8565912 ]
 [  0.1        -16.18456076]
 [  0.2        -70.77550193]
 [  0.25666667 -81.21106402]]","[[0.         1.89587242]
 [0.1        0.49072185]
 [0.2        1.8362568 ]
 [0.25666667 0.50078837]]",1,0.495
5,m,38,english,5,3,english,2024-02-13 17:59:28.521938,False,1,291,sounds\french\audio/french_912.wav,"[[  0.          -0.0923206 ]
 [  0.1        -62.03539144]
 [  0.2          9.48123132]
 [  0.25666667 -88.73464781]]","[[0.         1.34654061]
 [0.1        1.69101872]
 [0.2        1.27014765]
 [0.25666667 0.10640649]]",1,0.255
5,m,38,english,5,3,english,2024-02-13 17:59:28.521938,False,1,292,sounds\french\audio/french_977.wav,"[[  0.         -23.34946859]
 [  0.1        -74.17160997]
 [  0.2         31.43852713]
 [  0.25666667 -10.29160018]]","[[0.         1.58788712]
 [0.1        0.25032328]
 [0.2        0.90752219]
 [0.25666667 1.52460946]]",0,0.415
5,m,38,english,5,3,english,2024-02-13 17:59:28.521938,False,1,293,sounds\french\audio/french_548.wav,"[[ 0.          1.54236609]
 [ 0.1        42.93927178]
 [ 0.2        94.14256546]
 [ 0.25666667 78.31055202]]","[[0.         0.97335898]
 [0.1        0.92328993]
 [0.2        0.31229256]
 [0.25666667 0.51911246]]",0,0.57
5,m,38,english,5,3,english,2024-02-13 17:59:28.521938,False,1,294,sounds\french\audio/french_129.wav,"[[  0.          13.25855459]
 [  0.1        -92.03942204]
 [  0.2         62.50888813]
 [  0.25666667  39.35321197]]","[[0.         0.8608045 ]
 [0.1        1.75332116]
 [0.2        0.44840231]
 [0.25666667 1.56291845]]",1,0.407
5,m,38,english,5,3,english,2024-02-13 17:59:28.521938,False,1,295,sounds\french\audio/french_922.wav,"[[  0.          16.31592569]
 [  0.1         -2.28258737]
 [  0.2        -89.56675227]
 [  0.25666667  35.85711901]]","[[0.         1.06783245]
 [0.1        0.48563761]
 [0.2        1.02625397]
 [0.25666667 0.82092749]]",0,0.819
5,m,38,english,5,3,english,2024-02-13 17:59:28.521938,False,1,296,sounds\french\audio/french_409.wav,"[[  0.         -85.45925867]
 [  0.1        -75.83462931]
 [  0.2        -81.34632848]
 [  0.25666667  -4.23490283]]","[[0.         0.92391671]
 [0.1        0.55779761]
 [0.2        1.04156293]
 [0.25666667 0.8536223 ]]",1,0.632
5,m,38,english,5,3,english,2024-02-13 17:59:28.521938,False,1,297,sounds\french\audio/french_677.wav,"[[  0.         -14.76179085]
 [  0.1        -96.15101895]
 [  0.2         48.20621423]
 [  0.25666667  23.33985038]]","[[0.         0.10277679]
 [0.1        0.35083798]
 [0.2        0.65953763]
 [0.25666667 0.76581679]]",0,0.962
5,m,38,english,5,3,english,2024-02-13 17:59:28.521938,False,1,298,sounds\french\audio/french_753.wav,"[[  0.         -59.12708259]
 [  0.1        -84.15149344]
 [  0.2        -30.31197396]
 [  0.25666667 -23.11550189]]","[[0.         1.15236918]
 [0.1        1.24278656]
 [0.2        0.56738218]
 [0.25666667 0.65045955]]",1,0.447
5,m,38,english,5,3,english,2024-02-13 17:59:28.521938,False,1,299,sounds\french\audio/french_346.wav,"[[  0.          -9.57888942]
 [  0.1         44.75165277]
 [  0.2        -77.92949754]
 [  0.25666667 -10.35911767]]","[[0.         1.97053356]
 [0.1        0.16189102]
 [0.2        0.34896721]
 [0.25666667 1.54776001]]",0,0.638
5,m,38,english,5,3,english,2024-02-13 17:59:28.521938,False,1,300,sounds\french\audio/french_560.wav,"[[  0.         -42.00998938]
 [  0.1        -57.33016448]
 [  0.2         94.61210268]
 [  0.25666667 -53.14621565]]","[[0.         1.48749501]
 [0.1        0.25124208]
 [0.2        1.70870291]
 [0.25666667 0.91259566]]",0,1.273
5,m,38,english,5,3,english,2024-02-13 17:59:28.521938,False,1,301,sounds\french\audio/french_570.wav,"[[  0.         -73.07970403]
 [  0.1        -29.06072458]
 [  0.2        -25.44054287]
 [  0.25666667  96.93308839]]","[[0.         1.97071113]
 [0.1        1.64236312]
 [0.2        0.27343611]
 [0.25666667 1.31029171]]",1,0.255
5,m,38,english,5,3,english,2024-02-13 17:59:28.521938,False,1,302,sounds\french\audio/french_375.wav,"[[  0.          25.91972282]
 [  0.1        -60.98407933]
 [  0.2        -55.02276561]
 [  0.25666667  50.70039074]]","[[0.         0.89929791]
 [0.1        0.6101435 ]
 [0.2        1.65353502]
 [0.25666667 0.66964756]]",0,0.553
