subj,sex,age,language,english,french,native_lang,date,practice,block,trial,stim,pitch,stretch,response,rt
2,f,31,english,5,3,english,2024-02-07 14:23:06.611782,True,0,0,sounds\french\audio/french_900.wav,"[[  0.         -40.26137712]
 [  0.1        -58.52959628]
 [  0.2         -9.02711279]
 [  0.25666667 -16.09488558]]","[[0.         1.52095516]
 [0.1        0.45545329]
 [0.2        1.45244251]
 [0.25666667 1.49180456]]",1,39.757
2,f,31,english,5,3,english,2024-02-07 14:23:06.611782,True,0,1,sounds\french\audio/french_518.wav,"[[  0.          30.08897808]
 [  0.1        -42.00678694]
 [  0.2         47.99304417]
 [  0.25666667 -21.59585354]]","[[0.         1.28002377]
 [0.1        0.31881796]
 [0.2        0.271149  ]
 [0.25666667 1.06182133]]",0,1.119
2,f,31,english,5,3,english,2024-02-07 14:23:06.611782,True,0,2,sounds\french\audio/french_185.wav,"[[  0.          61.04894301]
 [  0.1          4.55457692]
 [  0.2         51.77529612]
 [  0.25666667 -22.06501589]]","[[0.         1.56575395]
 [0.1        1.97883698]
 [0.2        1.92093932]
 [0.25666667 0.68389876]]",1,8.73
2,f,31,english,5,3,english,2024-02-07 14:23:06.611782,False,1,3,sounds\french\audio/french_247.wav,"[[  0.          31.18827639]
 [  0.1         28.69447174]
 [  0.2        -68.83088208]
 [  0.25666667  44.69710936]]","[[0.         0.50646138]
 [0.1        0.63180121]
 [0.2        1.73165753]
 [0.25666667 1.77415142]]",1,1.244
2,f,31,english,5,3,english,2024-02-07 14:23:06.611782,False,1,4,sounds\french\audio/french_649.wav,"[[  0.         -26.84796804]
 [  0.1         90.50092835]
 [  0.2        -42.32642697]
 [  0.25666667  -6.05454316]]","[[0.         0.38564107]
 [0.1        0.07645681]
 [0.2        0.18898029]
 [0.25666667 0.88659006]]",0,1.113
2,f,31,english,5,3,english,2024-02-07 14:23:06.611782,False,1,5,sounds\french\audio/french_276.wav,"[[  0.         -30.59490391]
 [  0.1         35.14119383]
 [  0.2        -47.54137466]
 [  0.25666667 -36.46330553]]","[[0.         1.59191255]
 [0.1        1.08920427]
 [0.2        1.15204711]
 [0.25666667 0.56107217]]",1,3.46
2,f,31,english,5,3,english,2024-02-07 14:23:06.611782,False,1,6,sounds\french\audio/french_175.wav,"[[  0.         -66.64800697]
 [  0.1         55.8136762 ]
 [  0.2         13.86880033]
 [  0.25666667  79.77573594]]","[[0.         0.89831181]
 [0.1        1.16054297]
 [0.2        0.04267506]
 [0.25666667 1.48091244]]",0,0.472
2,f,31,english,5,3,english,2024-02-07 14:23:06.611782,False,1,7,sounds\french\audio/french_553.wav,"[[  0.          -1.38146628]
 [  0.1        -34.28745567]
 [  0.2          6.87532462]
 [  0.25666667  90.98690029]]","[[0.         0.44011383]
 [0.1        1.14829302]
 [0.2        1.07508961]
 [0.25666667 0.10252166]]",0,1.456
2,f,31,english,5,3,english,2024-02-07 14:23:06.611782,False,1,8,sounds\french\audio/french_199.wav,"[[  0.         -60.03977098]
 [  0.1          7.3213083 ]
 [  0.2        -32.97621994]
 [  0.25666667  90.87482197]]","[[0.         1.87963745]
 [0.1        1.19076365]
 [0.2        1.00205813]
 [0.25666667 1.05600478]]",0,1.424
2,f,31,english,5,3,english,2024-02-07 14:23:06.611782,False,1,9,sounds\french\audio/french_51.wav,"[[  0.          47.2980437 ]
 [  0.1        -20.71065167]
 [  0.2        -59.15578969]
 [  0.25666667  47.97190204]]","[[0.         1.21993379]
 [0.1        0.59290242]
 [0.2        0.43795747]
 [0.25666667 1.09780803]]",1,0.776
2,f,31,english,5,3,english,2024-02-07 14:23:06.611782,False,1,10,sounds\french\audio/french_863.wav,"[[ 0.         30.03534105]
 [ 0.1        70.10019967]
 [ 0.2        38.31171189]
 [ 0.25666667 76.0150774 ]]","[[0.         0.49205925]
 [0.1        1.5612805 ]
 [0.2        1.70745742]
 [0.25666667 0.79908683]]",0,2.05
2,f,31,english,5,3,english,2024-02-07 14:23:06.611782,False,1,11,sounds\french\audio/french_83.wav,"[[ 0.         45.44740295]
 [ 0.1        42.82646372]
 [ 0.2        -9.21139132]
 [ 0.25666667 30.29486893]]","[[0.         0.80263788]
 [0.1        1.96742974]
 [0.2        0.40483772]
 [0.25666667 0.1024326 ]]",0,0.847
2,f,31,english,5,3,english,2024-02-07 14:23:06.611782,False,1,12,sounds\french\audio/french_202.wav,"[[  0.          13.54970771]
 [  0.1         96.46591802]
 [  0.2         96.13650215]
 [  0.25666667 -35.2772524 ]]","[[0.         0.17477243]
 [0.1        0.30528336]
 [0.2        0.41819952]
 [0.25666667 1.86493567]]",0,1.719
2,f,31,english,5,3,english,2024-02-07 14:23:06.611782,False,1,13,sounds\french\audio/french_323.wav,"[[ 0.         32.98542524]
 [ 0.1        23.31860642]
 [ 0.2        85.24347173]
 [ 0.25666667 17.19160257]]","[[0.         1.64001987]
 [0.1        0.049539  ]
 [0.2        1.32093022]
 [0.25666667 0.33485384]]",0,0.824
2,f,31,english,5,3,english,2024-02-07 14:23:06.611782,False,1,14,sounds\french\audio/french_30.wav,"[[ 0.         76.62673318]
 [ 0.1        68.4553342 ]
 [ 0.2        55.51592845]
 [ 0.25666667 80.18190702]]","[[0.         0.98317975]
 [0.1        1.99903841]
 [0.2        1.19167606]
 [0.25666667 0.01328513]]",1,0.325
2,f,31,english,5,3,english,2024-02-07 14:23:06.611782,False,1,15,sounds\french\audio/french_759.wav,"[[  0.          43.66892012]
 [  0.1         28.75822808]
 [  0.2        -53.65094598]
 [  0.25666667 -79.66264825]]","[[0.         0.9017147 ]
 [0.1        1.01118462]
 [0.2        1.43326948]
 [0.25666667 0.32927354]]",0,1.131
2,f,31,english,5,3,english,2024-02-07 14:23:06.611782,False,1,16,sounds\french\audio/french_6.wav,"[[  0.          67.46153681]
 [  0.1        -88.84735091]
 [  0.2        -91.91919173]
 [  0.25666667  29.60258617]]","[[0.         1.53277947]
 [0.1        1.45938327]
 [0.2        0.73643418]
 [0.25666667 1.91810532]]",1,0.376
2,f,31,english,5,3,english,2024-02-07 14:23:06.611782,False,1,17,sounds\french\audio/french_780.wav,"[[  0.         -26.4428256 ]
 [  0.1         71.38381251]
 [  0.2         23.58434052]
 [  0.25666667 -77.81567576]]","[[0.         1.10618342]
 [0.1        1.00150251]
 [0.2        0.69699056]
 [0.25666667 1.24957366]]",0,0.523
2,f,31,english,5,3,english,2024-02-07 14:23:06.611782,False,1,18,sounds\french\audio/french_940.wav,"[[  0.          60.64207397]
 [  0.1        -16.07257124]
 [  0.2        -38.93693506]
 [  0.25666667 -22.19838027]]","[[0.         1.38818271]
 [0.1        1.64047706]
 [0.2        1.31963125]
 [0.25666667 1.73227719]]",1,0.267
2,f,31,english,5,3,english,2024-02-07 14:23:06.611782,False,1,19,sounds\french\audio/french_577.wav,"[[  0.         -34.34323574]
 [  0.1         42.3591335 ]
 [  0.2        -17.66243752]
 [  0.25666667 -25.14969583]]","[[0.         0.85646341]
 [0.1        0.14355807]
 [0.2        0.33082023]
 [0.25666667 0.85136365]]",0,0.697
2,f,31,english,5,3,english,2024-02-07 14:23:06.611782,False,1,20,sounds\french\audio/french_671.wav,"[[  0.         -43.02390558]
 [  0.1         13.89093856]
 [  0.2          3.48608914]
 [  0.25666667 -98.36263583]]","[[0.         0.93196934]
 [0.1        1.15314194]
 [0.2        0.54353121]
 [0.25666667 1.08598707]]",0,1.802
2,f,31,english,5,3,english,2024-02-07 14:23:06.611782,False,1,21,sounds\french\audio/french_495.wav,"[[  0.          93.48002859]
 [  0.1         99.142871  ]
 [  0.2        -33.98102163]
 [  0.25666667  38.68354094]]","[[0.         1.03648483]
 [0.1        1.23043948]
 [0.2        1.1332488 ]
 [0.25666667 0.62015381]]",0,0.651
2,f,31,english,5,3,english,2024-02-07 14:23:06.611782,False,1,22,sounds\french\audio/french_228.wav,"[[  0.         -13.78258648]
 [  0.1         27.88870681]
 [  0.2         -8.73674486]
 [  0.25666667 -13.88179653]]","[[0.         1.36655769]
 [0.1        1.56643938]
 [0.2        0.29403468]
 [0.25666667 0.32348249]]",1,0.273
2,f,31,english,5,3,english,2024-02-07 14:23:06.611782,False,1,23,sounds\french\audio/french_3.wav,"[[  0.         -14.61439924]
 [  0.1         31.18450832]
 [  0.2         25.79538703]
 [  0.25666667  -0.91933426]]","[[0.         1.57160784]
 [0.1        1.95729533]
 [0.2        1.5259075 ]
 [0.25666667 1.3870147 ]]",1,0.105
2,f,31,english,5,3,english,2024-02-07 14:23:06.611782,False,1,24,sounds\french\audio/french_132.wav,"[[  0.          55.7159221 ]
 [  0.1         96.01047895]
 [  0.2        -30.71931346]
 [  0.25666667  34.53763016]]","[[0.         0.1336911 ]
 [0.1        1.63690434]
 [0.2        0.7825174 ]
 [0.25666667 1.49477333]]",0,0.41
2,f,31,english,5,3,english,2024-02-07 14:23:06.611782,False,1,25,sounds\french\audio/french_417.wav,"[[  0.         -52.68130191]
 [  0.1         73.91368418]
 [  0.2          7.73324389]
 [  0.25666667  92.88066518]]","[[0.         1.49469738]
 [0.1        1.06358835]
 [0.2        1.12421265]
 [0.25666667 0.65436219]]",1,0.479
2,f,31,english,5,3,english,2024-02-07 14:23:06.611782,False,1,26,sounds\french\audio/french_885.wav,"[[  0.          33.82264354]
 [  0.1        -17.07734064]
 [  0.2        -15.93967404]
 [  0.25666667  58.67746901]]","[[0.         0.94046277]
 [0.1        0.79714646]
 [0.2        1.26873891]
 [0.25666667 1.69592015]]",0,0.596
2,f,31,english,5,3,english,2024-02-07 14:23:06.611782,False,1,27,sounds\french\audio/french_20.wav,"[[  0.         -78.24291845]
 [  0.1        -38.50442353]
 [  0.2          8.39731749]
 [  0.25666667 -43.87764948]]","[[0.         1.07200279]
 [0.1        1.52694999]
 [0.2        0.86133356]
 [0.25666667 0.74788424]]",1,0.358
2,f,31,english,5,3,english,2024-02-07 14:23:06.611782,False,1,28,sounds\french\audio/french_259.wav,"[[  0.          34.42813613]
 [  0.1         10.6054277 ]
 [  0.2        -13.69189805]
 [  0.25666667 -89.62004192]]","[[0.         0.3045902 ]
 [0.1        0.51228763]
 [0.2        1.00650156]
 [0.25666667 1.73437165]]",0,0.262
2,f,31,english,5,3,english,2024-02-07 14:23:06.611782,False,1,29,sounds\french\audio/french_1000.wav,"[[  0.         -14.94486739]
 [  0.1         -3.70752284]
 [  0.2        -14.04083749]
 [  0.25666667 -29.27941665]]","[[0.         0.60674079]
 [0.1        0.18450848]
 [0.2        1.64475948]
 [0.25666667 0.26397745]]",0,0.451
2,f,31,english,5,3,english,2024-02-07 14:23:06.611782,False,1,30,sounds\french\audio/french_99.wav,"[[ 0.         82.47343156]
 [ 0.1        79.23143861]
 [ 0.2        34.81001375]
 [ 0.25666667 28.26612214]]","[[0.         0.8791919 ]
 [0.1        0.93561146]
 [0.2        1.15477002]
 [0.25666667 0.77336938]]",0,0.738
2,f,31,english,5,3,english,2024-02-07 14:23:06.611782,False,1,31,sounds\french\audio/french_162.wav,"[[  0.         -20.03052962]
 [  0.1        -35.11860261]
 [  0.2         20.80868131]
 [  0.25666667  50.74802705]]","[[0.         1.70466969]
 [0.1        0.77666831]
 [0.2        1.88915568]
 [0.25666667 1.69994842]]",1,0.162
2,f,31,english,5,3,english,2024-02-07 14:23:06.611782,False,1,32,sounds\french\audio/french_340.wav,"[[  0.         -77.74428769]
 [  0.1        -23.36816436]
 [  0.2        -44.47255335]
 [  0.25666667 -51.35474548]]","[[0.         1.5012345 ]
 [0.1        1.72338521]
 [0.2        0.55046319]
 [0.25666667 0.98182936]]",1,0.755
2,f,31,english,5,3,english,2024-02-07 14:23:06.611782,False,1,33,sounds\french\audio/french_266.wav,"[[  0.          58.27883453]
 [  0.1        -28.04411439]
 [  0.2        -38.46127027]
 [  0.25666667 -84.67234247]]","[[0.         0.79886668]
 [0.1        1.49488383]
 [0.2        0.15170522]
 [0.25666667 1.57053192]]",0,0.148
2,f,31,english,5,3,english,2024-02-07 14:23:06.611782,False,1,34,sounds\french\audio/french_611.wav,"[[  0.         -21.77805362]
 [  0.1        -45.2722057 ]
 [  0.2         67.02777506]
 [  0.25666667 -75.35716628]]","[[0.         0.549449  ]
 [0.1        0.20224538]
 [0.2        1.0051208 ]
 [0.25666667 1.31223223]]",0,0.436
2,f,31,english,5,3,english,2024-02-07 14:23:06.611782,False,1,35,sounds\french\audio/french_39.wav,"[[  0.         -37.58690814]
 [  0.1         64.36969435]
 [  0.2        -16.17747505]
 [  0.25666667 -31.52468705]]","[[0.         0.69509593]
 [0.1        0.9899387 ]
 [0.2        1.54991446]
 [0.25666667 1.42558302]]",1,2.258
2,f,31,english,5,3,english,2024-02-07 14:23:06.611782,False,1,36,sounds\french\audio/french_55.wav,"[[  0.          54.29815268]
 [  0.1         66.77804826]
 [  0.2        -38.71051383]
 [  0.25666667   0.30980485]]","[[0.         1.84925003]
 [0.1        1.2451745 ]
 [0.2        1.48535221]
 [0.25666667 1.20016501]]",1,0.208
2,f,31,english,5,3,english,2024-02-07 14:23:06.611782,False,1,37,sounds\french\audio/french_974.wav,"[[  0.         -56.73984936]
 [  0.1         32.58414802]
 [  0.2        -45.44939314]
 [  0.25666667 -96.65983196]]","[[0.         0.20875225]
 [0.1        0.25167591]
 [0.2        1.19458688]
 [0.25666667 0.25310381]]",0,0.696
2,f,31,english,5,3,english,2024-02-07 14:23:06.611782,False,1,38,sounds\french\audio/french_57.wav,"[[  0.           5.04798132]
 [  0.1         34.86476391]
 [  0.2          8.76450083]
 [  0.25666667 -66.01533982]]","[[0.         0.30893924]
 [0.1        1.37192861]
 [0.2        1.2366194 ]
 [0.25666667 1.17459784]]",0,1.669
2,f,31,english,5,3,english,2024-02-07 14:23:06.611782,False,1,39,sounds\french\audio/french_766.wav,"[[ 0.         91.85829661]
 [ 0.1        29.32583948]
 [ 0.2        71.77245069]
 [ 0.25666667 28.53871253]]","[[0.         0.12079341]
 [0.1        0.61287095]
 [0.2        1.071897  ]
 [0.25666667 0.29005596]]",0,0.472
2,f,31,english,5,3,english,2024-02-07 14:23:06.611782,False,1,40,sounds\french\audio/french_729.wav,"[[  0.          53.20588085]
 [  0.1         89.42375323]
 [  0.2        -13.37040397]
 [  0.25666667 -26.89484255]]","[[0.         1.49423138]
 [0.1        0.2074599 ]
 [0.2        1.07839331]
 [0.25666667 0.61183567]]",0,2.627
2,f,31,english,5,3,english,2024-02-07 14:23:06.611782,False,1,41,sounds\french\audio/french_637.wav,"[[ 0.         35.81604326]
 [ 0.1        -3.18432816]
 [ 0.2        50.06715701]
 [ 0.25666667 13.82838787]]","[[0.         0.01301393]
 [0.1        0.82513299]
 [0.2        0.10233849]
 [0.25666667 0.87921638]]",0,1.167
2,f,31,english,5,3,english,2024-02-07 14:23:06.611782,False,1,42,sounds\french\audio/french_331.wav,"[[  0.         -65.4197333 ]
 [  0.1        -42.63112693]
 [  0.2        -74.29271092]
 [  0.25666667 -22.37665177]]","[[0.         1.29365297]
 [0.1        1.19213918]
 [0.2        0.93002313]
 [0.25666667 1.59897964]]",1,0.199
2,f,31,english,5,3,english,2024-02-07 14:23:06.611782,False,1,43,sounds\french\audio/french_467.wav,"[[  0.          26.36588123]
 [  0.1        -91.62831039]
 [  0.2         14.27679522]
 [  0.25666667 -77.75485007]]","[[0.         0.49078583]
 [0.1        1.37574102]
 [0.2        0.10009029]
 [0.25666667 1.32516535]]",1,0.225
2,f,31,english,5,3,english,2024-02-07 14:23:06.611782,False,1,44,sounds\french\audio/french_721.wav,"[[ 0.         83.32262744]
 [ 0.1        53.43911967]
 [ 0.2        45.88272958]
 [ 0.25666667 34.59804534]]","[[0.         0.77898197]
 [0.1        1.2749748 ]
 [0.2        1.13618558]
 [0.25666667 1.96642304]]",0,2.73
2,f,31,english,5,3,english,2024-02-07 14:23:06.611782,False,1,45,sounds\french\audio/french_903.wav,"[[  0.         -17.08871031]
 [  0.1         52.87150714]
 [  0.2        -46.35078868]
 [  0.25666667  67.27089244]]","[[0.         0.50691937]
 [0.1        1.06902364]
 [0.2        1.77440634]
 [0.25666667 0.5573406 ]]",1,0.178
2,f,31,english,5,3,english,2024-02-07 14:23:06.611782,False,1,46,sounds\french\audio/french_921.wav,"[[  0.          24.11125356]
 [  0.1         37.62729467]
 [  0.2        -94.55025244]
 [  0.25666667  10.27679313]]","[[0.         1.60122976]
 [0.1        0.45720022]
 [0.2        1.67775241]
 [0.25666667 0.96598245]]",1,0.157
2,f,31,english,5,3,english,2024-02-07 14:23:06.611782,False,1,47,sounds\french\audio/french_544.wav,"[[  0.         -53.15565046]
 [  0.1        -92.4791724 ]
 [  0.2         38.15839594]
 [  0.25666667  24.38113977]]","[[0.         1.35860228]
 [0.1        0.93453098]
 [0.2        0.5056151 ]
 [0.25666667 1.47508   ]]",1,0.175
2,f,31,english,5,3,english,2024-02-07 14:23:06.611782,False,1,48,sounds\french\audio/french_339.wav,"[[  0.          54.2761061 ]
 [  0.1         63.28603184]
 [  0.2        -39.09064926]
 [  0.25666667 -65.51257867]]","[[0.         1.89825103]
 [0.1        0.66946091]
 [0.2        1.06421907]
 [0.25666667 1.4091401 ]]",1,0.772
2,f,31,english,5,3,english,2024-02-07 14:23:06.611782,False,1,49,sounds\french\audio/french_162.wav,"[[  0.         -20.03052962]
 [  0.1        -35.11860261]
 [  0.2         20.80868131]
 [  0.25666667  50.74802705]]","[[0.         1.70466969]
 [0.1        0.77666831]
 [0.2        1.88915568]
 [0.25666667 1.69994842]]",1,1.316
2,f,31,english,5,3,english,2024-02-07 14:23:06.611782,False,1,50,sounds\french\audio/french_977.wav,"[[  0.         -23.34946859]
 [  0.1        -74.17160997]
 [  0.2         31.43852713]
 [  0.25666667 -10.29160018]]","[[0.         1.58788712]
 [0.1        0.25032328]
 [0.2        0.90752219]
 [0.25666667 1.52460946]]",0,0.17
2,f,31,english,5,3,english,2024-02-07 14:23:06.611782,False,1,51,sounds\french\audio/french_581.wav,"[[  0.         -12.19849528]
 [  0.1         96.23210286]
 [  0.2        -75.71717575]
 [  0.25666667  36.78246633]]","[[0.         0.7315947 ]
 [0.1        0.75639682]
 [0.2        0.47033606]
 [0.25666667 0.84951166]]",0,0.219
2,f,31,english,5,3,english,2024-02-07 14:23:06.611782,False,1,52,sounds\french\audio/french_922.wav,"[[  0.          16.31592569]
 [  0.1         -2.28258737]
 [  0.2        -89.56675227]
 [  0.25666667  35.85711901]]","[[0.         1.06783245]
 [0.1        0.48563761]
 [0.2        1.02625397]
 [0.25666667 0.82092749]]",0,0.615
2,f,31,english,5,3,english,2024-02-07 14:23:06.611782,False,1,53,sounds\french\audio/french_417.wav,"[[  0.         -52.68130191]
 [  0.1         73.91368418]
 [  0.2          7.73324389]
 [  0.25666667  92.88066518]]","[[0.         1.49469738]
 [0.1        1.06358835]
 [0.2        1.12421265]
 [0.25666667 0.65436219]]",1,0.089
2,f,31,english,5,3,english,2024-02-07 14:23:06.611782,False,1,54,sounds\french\audio/french_219.wav,"[[  0.         -98.78648146]
 [  0.1        -54.51672601]
 [  0.2         75.82451993]
 [  0.25666667  42.52821499]]","[[0.         1.35832625]
 [0.1        0.9105506 ]
 [0.2        0.22027405]
 [0.25666667 1.53742188]]",1,0.192
2,f,31,english,5,3,english,2024-02-07 14:23:06.611782,False,1,55,sounds\french\audio/french_977.wav,"[[  0.         -23.34946859]
 [  0.1        -74.17160997]
 [  0.2         31.43852713]
 [  0.25666667 -10.29160018]]","[[0.         1.58788712]
 [0.1        0.25032328]
 [0.2        0.90752219]
 [0.25666667 1.52460946]]",1,0.472
2,f,31,english,5,3,english,2024-02-07 14:23:06.611782,False,1,56,sounds\french\audio/french_315.wav,"[[ 0.00000000e+00  8.45751695e+01]
 [ 1.00000000e-01 -5.49339599e+01]
 [ 2.00000000e-01 -2.04659381e+01]
 [ 2.56666667e-01  4.97627412e-02]]","[[0.         1.39276289]
 [0.1        0.42909402]
 [0.2        1.80166787]
 [0.25666667 1.01422067]]",0,1.366
2,f,31,english,5,3,english,2024-02-07 14:23:06.611782,False,1,57,sounds\french\audio/french_289.wav,"[[  0.         -36.76000605]
 [  0.1         10.32506406]
 [  0.2        -63.16699613]
 [  0.25666667  44.4452875 ]]","[[0.         0.0295717 ]
 [0.1        0.30354321]
 [0.2        0.64873245]
 [0.25666667 1.33679234]]",0,0.964
2,f,31,english,5,3,english,2024-02-07 14:23:06.611782,False,1,58,sounds\french\audio/french_138.wav,"[[  0.          52.19266886]
 [  0.1        -20.87110469]
 [  0.2        -63.85285305]
 [  0.25666667  35.09837538]]","[[0.         1.6075583 ]
 [0.1        1.57175316]
 [0.2        0.73019834]
 [0.25666667 0.12473077]]",0,1.194
2,f,31,english,5,3,english,2024-02-07 14:23:06.611782,False,1,59,sounds\french\audio/french_1.wav,"[[  0.          91.87409443]
 [  0.1        -48.89112434]
 [  0.2         27.67932603]
 [  0.25666667  13.64945055]]","[[0.         0.51984737]
 [0.1        0.07214845]
 [0.2        1.75660136]
 [0.25666667 0.58315139]]",0,0.804
2,f,31,english,5,3,english,2024-02-07 14:23:06.611782,False,1,60,sounds\french\audio/french_619.wav,"[[  0.         -58.15289928]
 [  0.1         30.86987971]
 [  0.2         96.84221096]
 [  0.25666667  69.41225319]]","[[0.         0.63115023]
 [0.1        0.12868397]
 [0.2        0.73139592]
 [0.25666667 1.17738103]]",0,1.051
2,f,31,english,5,3,english,2024-02-07 14:23:06.611782,False,1,61,sounds\french\audio/french_690.wav,"[[  0.          79.01312907]
 [  0.1        -50.63616883]
 [  0.2         19.49439666]
 [  0.25666667 -20.64233715]]","[[0.         1.49686193]
 [0.1        0.92741038]
 [0.2        0.30770403]
 [0.25666667 0.53460579]]",1,0.548
2,f,31,english,5,3,english,2024-02-07 14:23:06.611782,False,1,62,sounds\french\audio/french_138.wav,"[[  0.          52.19266886]
 [  0.1        -20.87110469]
 [  0.2        -63.85285305]
 [  0.25666667  35.09837538]]","[[0.         1.6075583 ]
 [0.1        1.57175316]
 [0.2        0.73019834]
 [0.25666667 0.12473077]]",1,0.321
2,f,31,english,5,3,english,2024-02-07 14:23:06.611782,False,1,63,sounds\french\audio/french_23.wav,"[[  0.          60.31001525]
 [  0.1        -66.5420171 ]
 [  0.2         63.07925381]
 [  0.25666667 -69.51509132]]","[[0.         1.86606536]
 [0.1        0.5728784 ]
 [0.2        0.71513043]
 [0.25666667 1.52612213]]",1,0.19
2,f,31,english,5,3,english,2024-02-07 14:23:06.611782,False,1,64,sounds\french\audio/french_782.wav,"[[  0.         -22.12019493]
 [  0.1          4.49416446]
 [  0.2         95.81757258]
 [  0.25666667  37.17912971]]","[[0.         0.33541309]
 [0.1        0.60665876]
 [0.2        0.65040298]
 [0.25666667 0.93901734]]",0,0.656
2,f,31,english,5,3,english,2024-02-07 14:23:06.611782,False,1,65,sounds\french\audio/french_180.wav,"[[ 0.         51.39712435]
 [ 0.1         1.53552767]
 [ 0.2        26.54664149]
 [ 0.25666667 87.56909972]]","[[0.         0.88084927]
 [0.1        1.20367685]
 [0.2        0.46174189]
 [0.25666667 1.40614512]]",0,1.072
2,f,31,english,5,3,english,2024-02-07 14:23:06.611782,False,1,66,sounds\french\audio/french_67.wav,"[[  0.         -85.58948589]
 [  0.1         13.09838054]
 [  0.2        -56.56906679]
 [  0.25666667  57.4599261 ]]","[[0.         0.63200809]
 [0.1        1.95867716]
 [0.2        0.48937635]
 [0.25666667 1.24156625]]",1,0.192
2,f,31,english,5,3,english,2024-02-07 14:23:06.611782,False,1,67,sounds\french\audio/french_11.wav,"[[  0.         -27.01625533]
 [  0.1         30.5454192 ]
 [  0.2        -10.3355652 ]
 [  0.25666667  -1.40658107]]","[[0.         0.65463853]
 [0.1        0.82547758]
 [0.2        1.18020414]
 [0.25666667 0.75245655]]",1,2.535
2,f,31,english,5,3,english,2024-02-07 14:23:06.611782,False,1,68,sounds\french\audio/french_320.wav,"[[  0.         -12.08882056]
 [  0.1        -69.15560276]
 [  0.2         33.30000548]
 [  0.25666667 -65.44816773]]","[[0.         1.76987467]
 [0.1        1.70079501]
 [0.2        0.4524157 ]
 [0.25666667 0.78128465]]",1,0.307
2,f,31,english,5,3,english,2024-02-07 14:23:06.611782,False,1,69,sounds\french\audio/french_322.wav,"[[  0.          11.21723197]
 [  0.1         71.99064207]
 [  0.2        -70.2949895 ]
 [  0.25666667 -90.37135255]]","[[0.         0.46669198]
 [0.1        0.00506582]
 [0.2        0.23170645]
 [0.25666667 0.39597554]]",0,1.198
2,f,31,english,5,3,english,2024-02-07 14:23:06.611782,False,1,70,sounds\french\audio/french_663.wav,"[[  0.           9.26283991]
 [  0.1          8.63416543]
 [  0.2        -94.49816933]
 [  0.25666667 -21.43071833]]","[[0.         1.50228176]
 [0.1        0.75616041]
 [0.2        0.98085129]
 [0.25666667 1.35574544]]",0,1.204
2,f,31,english,5,3,english,2024-02-07 14:23:06.611782,False,1,71,sounds\french\audio/french_347.wav,"[[  0.         -50.57249908]
 [  0.1         -0.96259157]
 [  0.2         56.28626554]
 [  0.25666667  46.89576118]]","[[0.         1.7558536 ]
 [0.1        0.42717605]
 [0.2        1.32943016]
 [0.25666667 0.4771217 ]]",0,0.556
2,f,31,english,5,3,english,2024-02-07 14:23:06.611782,False,1,72,sounds\french\audio/french_119.wav,"[[  0.           9.8100641 ]
 [  0.1         19.57169954]
 [  0.2         -1.41265712]
 [  0.25666667 -78.33165967]]","[[0.         0.76259974]
 [0.1        1.49190063]
 [0.2        0.43709034]
 [0.25666667 1.93463996]]",0,1.495
2,f,31,english,5,3,english,2024-02-07 14:23:06.611782,False,1,73,sounds\french\audio/french_625.wav,"[[ 0.         79.19979266]
 [ 0.1        14.54258285]
 [ 0.2        86.07148008]
 [ 0.25666667 45.85831434]]","[[0.         0.47634137]
 [0.1        0.73497705]
 [0.2        0.05854955]
 [0.25666667 0.79046633]]",0,1.149
2,f,31,english,5,3,english,2024-02-07 14:23:06.611782,False,1,74,sounds\french\audio/french_11.wav,"[[  0.         -27.01625533]
 [  0.1         30.5454192 ]
 [  0.2        -10.3355652 ]
 [  0.25666667  -1.40658107]]","[[0.         0.65463853]
 [0.1        0.82547758]
 [0.2        1.18020414]
 [0.25666667 0.75245655]]",0,0.876
2,f,31,english,5,3,english,2024-02-07 14:23:06.611782,False,1,75,sounds\french\audio/french_897.wav,"[[  0.          -2.62488743]
 [  0.1        -35.09835725]
 [  0.2         -7.90226738]
 [  0.25666667  34.22753828]]","[[0.         0.95618392]
 [0.1        0.97615626]
 [0.2        0.33556547]
 [0.25666667 0.12618193]]",1,4.09
2,f,31,english,5,3,english,2024-02-07 14:23:06.611782,False,1,76,sounds\french\audio/french_878.wav,"[[  0.         -11.41587957]
 [  0.1        -52.86145621]
 [  0.2         10.56905128]
 [  0.25666667  87.23323491]]","[[0.         1.5495917 ]
 [0.1        0.92573348]
 [0.2        0.71371417]
 [0.25666667 0.72785239]]",1,0.147
2,f,31,english,5,3,english,2024-02-07 14:23:06.611782,False,1,77,sounds\french\audio/french_712.wav,"[[  0.          -3.12485416]
 [  0.1        -57.65062989]
 [  0.2        -16.00980978]
 [  0.25666667  99.38372731]]","[[0.         1.03174297]
 [0.1        0.08357112]
 [0.2        0.04422576]
 [0.25666667 1.3735066 ]]",0,1.037
2,f,31,english,5,3,english,2024-02-07 14:23:06.611782,False,1,78,sounds\french\audio/french_191.wav,"[[  0.          61.70033847]
 [  0.1        -19.77100541]
 [  0.2        -44.48193137]
 [  0.25666667 -92.19007218]]","[[0.         1.87867126]
 [0.1        0.40395676]
 [0.2        1.14362057]
 [0.25666667 1.68692384]]",1,0.541
2,f,31,english,5,3,english,2024-02-07 14:23:06.611782,False,1,79,sounds\french\audio/french_800.wav,"[[  0.          43.61588251]
 [  0.1        -17.8471941 ]
 [  0.2        -10.2363333 ]
 [  0.25666667 -85.1878963 ]]","[[0.         1.33995655]
 [0.1        0.26774995]
 [0.2        0.87274599]
 [0.25666667 0.37568781]]",0,0.723
2,f,31,english,5,3,english,2024-02-07 14:23:06.611782,False,1,80,sounds\french\audio/french_649.wav,"[[  0.         -26.84796804]
 [  0.1         90.50092835]
 [  0.2        -42.32642697]
 [  0.25666667  -6.05454316]]","[[0.         0.38564107]
 [0.1        0.07645681]
 [0.2        0.18898029]
 [0.25666667 0.88659006]]",0,0.61
2,f,31,english,5,3,english,2024-02-07 14:23:06.611782,False,1,81,sounds\french\audio/french_588.wav,"[[  0.           5.6059992 ]
 [  0.1         -3.58339119]
 [  0.2        -47.44163498]
 [  0.25666667  15.68204657]]","[[0.         1.40293782]
 [0.1        1.60743551]
 [0.2        0.8250453 ]
 [0.25666667 1.87203226]]",1,0.87
2,f,31,english,5,3,english,2024-02-07 14:23:06.611782,False,1,82,sounds\french\audio/french_72.wav,"[[  0.          87.98067932]
 [  0.1        -81.71579554]
 [  0.2         90.50171836]
 [  0.25666667 -62.13003885]]","[[0.         1.39679477]
 [0.1        1.50716855]
 [0.2        0.40298903]
 [0.25666667 0.67217346]]",1,1.739
2,f,31,english,5,3,english,2024-02-07 14:23:06.611782,False,1,83,sounds\french\audio/french_702.wav,"[[  0.         -53.8337347 ]
 [  0.1         13.17722269]
 [  0.2        -63.63948694]
 [  0.25666667  -7.77006894]]","[[0.         0.65995653]
 [0.1        1.48591365]
 [0.2        1.16262137]
 [0.25666667 1.49403865]]",1,0.417
2,f,31,english,5,3,english,2024-02-07 14:23:06.611782,False,1,84,sounds\french\audio/french_188.wav,"[[  0.          49.6210254 ]
 [  0.1        -51.2490581 ]
 [  0.2         40.00177065]
 [  0.25666667  -3.28540475]]","[[0.         1.07409835]
 [0.1        0.05018037]
 [0.2        1.57813661]
 [0.25666667 0.4516863 ]]",0,1.331
2,f,31,english,5,3,english,2024-02-07 14:23:06.611782,False,1,85,sounds\french\audio/french_178.wav,"[[ 0.         26.38045069]
 [ 0.1        54.67313893]
 [ 0.2        58.86585948]
 [ 0.25666667  8.14592544]]","[[0.         1.33493468]
 [0.1        1.2022917 ]
 [0.2        1.32810738]
 [0.25666667 0.94030025]]",1,0.222
2,f,31,english,5,3,english,2024-02-07 14:23:06.611782,False,1,86,sounds\french\audio/french_104.wav,"[[  0.         -10.23090517]
 [  0.1         92.61712743]
 [  0.2          0.22426759]
 [  0.25666667  32.30673442]]","[[0.         1.0322013 ]
 [0.1        0.84344174]
 [0.2        1.03962656]
 [0.25666667 1.9472426 ]]",0,1.179
2,f,31,english,5,3,english,2024-02-07 14:23:06.611782,False,1,87,sounds\french\audio/french_657.wav,"[[  0.          99.76716584]
 [  0.1         11.51898435]
 [  0.2        -43.45408234]
 [  0.25666667  22.46427071]]","[[0.         0.85695778]
 [0.1        1.00645436]
 [0.2        0.73989588]
 [0.25666667 1.57217431]]",0,0.415
2,f,31,english,5,3,english,2024-02-07 14:23:06.611782,False,1,88,sounds\french\audio/french_352.wav,"[[ 0.         74.68489003]
 [ 0.1        96.39949195]
 [ 0.2        90.64764472]
 [ 0.25666667 65.55341103]]","[[0.         0.29948735]
 [0.1        0.51724136]
 [0.2        1.48158799]
 [0.25666667 0.97952247]]",0,0.33
2,f,31,english,5,3,english,2024-02-07 14:23:06.611782,False,1,89,sounds\french\audio/french_413.wav,"[[  0.         -15.90568805]
 [  0.1         76.04965913]
 [  0.2         55.08996682]
 [  0.25666667  17.39731584]]","[[0.         0.35618922]
 [0.1        1.72047272]
 [0.2        1.40872317]
 [0.25666667 1.8089724 ]]",0,1.121
2,f,31,english,5,3,english,2024-02-07 14:23:06.611782,False,1,90,sounds\french\audio/french_153.wav,"[[  0.          47.87386837]
 [  0.1          7.07648522]
 [  0.2         20.87760624]
 [  0.25666667 -54.47130494]]","[[0.         0.75426526]
 [0.1        1.23801955]
 [0.2        0.38230121]
 [0.25666667 0.58190832]]",1,1.227
2,f,31,english,5,3,english,2024-02-07 14:23:06.611782,False,1,91,sounds\french\audio/french_984.wav,"[[  0.         -47.91850728]
 [  0.1         26.54192822]
 [  0.2         31.46018772]
 [  0.25666667  54.61358492]]","[[0.         0.65620753]
 [0.1        0.71747565]
 [0.2        1.52452255]
 [0.25666667 1.85839607]]",0,0.732
2,f,31,english,5,3,english,2024-02-07 14:23:06.611782,False,1,92,sounds\french\audio/french_96.wav,"[[  0.         -35.67204937]
 [  0.1        -14.5967046 ]
 [  0.2         23.77171322]
 [  0.25666667 -43.45086892]]","[[0.         1.29614461]
 [0.1        0.74963508]
 [0.2        0.96397917]
 [0.25666667 0.69619931]]",1,0.63
2,f,31,english,5,3,english,2024-02-07 14:23:06.611782,False,1,93,sounds\french\audio/french_715.wav,"[[  0.          89.89167485]
 [  0.1         47.15597215]
 [  0.2         44.59513653]
 [  0.25666667 -32.08567965]]","[[0.         1.90551341]
 [0.1        0.2376049 ]
 [0.2        0.03260857]
 [0.25666667 1.14470607]]",1,1.61
2,f,31,english,5,3,english,2024-02-07 14:23:06.611782,False,1,94,sounds\french\audio/french_117.wav,"[[ 0.          6.74214439]
 [ 0.1         3.15736066]
 [ 0.2        10.42128043]
 [ 0.25666667 89.20041031]]","[[0.         0.42718416]
 [0.1        1.82203077]
 [0.2        0.49696174]
 [0.25666667 0.34350523]]",1,0.664
2,f,31,english,5,3,english,2024-02-07 14:23:06.611782,False,1,95,sounds\french\audio/french_604.wav,"[[  0.         -11.11210875]
 [  0.1        -13.90326971]
 [  0.2        -78.59226075]
 [  0.25666667  87.42620436]]","[[0.         1.64316359]
 [0.1        0.56968283]
 [0.2        1.3955722 ]
 [0.25666667 0.51982143]]",1,2.515
2,f,31,english,5,3,english,2024-02-07 14:23:06.611782,False,1,96,sounds\french\audio/french_962.wav,"[[  0.         -23.88621243]
 [  0.1         -2.32674089]
 [  0.2         99.5739753 ]
 [  0.25666667 -60.89946795]]","[[0.         0.58686494]
 [0.1        1.96763724]
 [0.2        0.1339284 ]
 [0.25666667 0.14371278]]",0,2.699
2,f,31,english,5,3,english,2024-02-07 14:23:06.611782,False,1,97,sounds\french\audio/french_925.wav,"[[  0.         -30.51780923]
 [  0.1         35.11933452]
 [  0.2        -97.7648117 ]
 [  0.25666667 -62.39495561]]","[[0.         1.09841649]
 [0.1        0.05099013]
 [0.2        1.83429048]
 [0.25666667 1.66107303]]",0,1.54
2,f,31,english,5,3,english,2024-02-07 14:23:06.611782,False,1,98,sounds\french\audio/french_159.wav,"[[  0.         -35.81772681]
 [  0.1        -81.24007344]
 [  0.2        -76.66667718]
 [  0.25666667 -12.73742482]]","[[0.         1.09204322]
 [0.1        1.04236488]
 [0.2        0.27370424]
 [0.25666667 0.41375192]]",1,0.475
2,f,31,english,5,3,english,2024-02-07 14:23:06.611782,False,1,99,sounds\french\audio/french_67.wav,"[[  0.         -85.58948589]
 [  0.1         13.09838054]
 [  0.2        -56.56906679]
 [  0.25666667  57.4599261 ]]","[[0.         0.63200809]
 [0.1        1.95867716]
 [0.2        0.48937635]
 [0.25666667 1.24156625]]",1,0.559
2,f,31,english,5,3,english,2024-02-07 14:23:06.611782,False,1,100,sounds\french\audio/french_552.wav,"[[  0.         -52.32363839]
 [  0.1         23.44364533]
 [  0.2         72.20212972]
 [  0.25666667 -25.42911122]]","[[0.         0.44295398]
 [0.1        1.4520287 ]
 [0.2        0.63620541]
 [0.25666667 1.39952151]]",1,1.745
2,f,31,english,5,3,english,2024-02-07 14:23:06.611782,False,1,101,sounds\french\audio/french_765.wav,"[[  0.          37.74619949]
 [  0.1         35.79177818]
 [  0.2         -4.82792988]
 [  0.25666667 -29.99687949]]","[[0.         1.94846132]
 [0.1        0.74629838]
 [0.2        1.12672767]
 [0.25666667 0.50330326]]",1,3.735
2,f,31,english,5,3,english,2024-02-07 14:23:06.611782,False,1,102,sounds\french\audio/french_709.wav,"[[  0.         -79.1228884 ]
 [  0.1        -27.45222572]
 [  0.2        -11.54770291]
 [  0.25666667 -99.06734201]]","[[0.         1.66046785]
 [0.1        0.50815509]
 [0.2        1.01994244]
 [0.25666667 1.8368488 ]]",0,0.772
2,f,31,english,5,3,english,2024-02-07 14:23:06.611782,False,1,103,sounds\french\audio/french_444.wav,"[[  0.          55.47353293]
 [  0.1         12.04434333]
 [  0.2         14.09264182]
 [  0.25666667 -80.20656615]]","[[0.         0.9328321 ]
 [0.1        1.46542582]
 [0.2        1.44584709]
 [0.25666667 1.50777595]]",0,1.332
2,f,31,english,5,3,english,2024-02-07 14:23:06.611782,False,1,104,sounds\french\audio/french_842.wav,"[[  0.          74.80920959]
 [  0.1        -40.95587484]
 [  0.2         40.36105872]
 [  0.25666667 -80.22764814]]","[[0.         0.40194032]
 [0.1        0.66729024]
 [0.2        0.3355789 ]
 [0.25666667 0.97335266]]",0,1.005
2,f,31,english,5,3,english,2024-02-07 14:23:06.611782,False,1,105,sounds\french\audio/french_998.wav,"[[  0.          41.25843424]
 [  0.1         16.31759718]
 [  0.2        -45.05489169]
 [  0.25666667  -0.1364182 ]]","[[0.         1.12001973]
 [0.1        1.22226563]
 [0.2        1.68799636]
 [0.25666667 0.6107462 ]]",1,0.187
2,f,31,english,5,3,english,2024-02-07 14:23:06.611782,False,1,106,sounds\french\audio/french_321.wav,"[[  0.         -11.01764706]
 [  0.1          9.90480799]
 [  0.2         44.10153768]
 [  0.25666667  10.91862898]]","[[0.         1.39443046]
 [0.1        1.51913173]
 [0.2        0.74961169]
 [0.25666667 1.74221707]]",0,1.378
2,f,31,english,5,3,english,2024-02-07 14:23:06.611782,False,1,107,sounds\french\audio/french_922.wav,"[[  0.          16.31592569]
 [  0.1         -2.28258737]
 [  0.2        -89.56675227]
 [  0.25666667  35.85711901]]","[[0.         1.06783245]
 [0.1        0.48563761]
 [0.2        1.02625397]
 [0.25666667 0.82092749]]",1,0.431
2,f,31,english,5,3,english,2024-02-07 14:23:06.611782,False,1,108,sounds\french\audio/french_878.wav,"[[  0.         -11.41587957]
 [  0.1        -52.86145621]
 [  0.2         10.56905128]
 [  0.25666667  87.23323491]]","[[0.         1.5495917 ]
 [0.1        0.92573348]
 [0.2        0.71371417]
 [0.25666667 0.72785239]]",1,0.538
2,f,31,english,5,3,english,2024-02-07 14:23:06.611782,False,1,109,sounds\french\audio/french_500.wav,"[[  0.         -64.77507575]
 [  0.1         -6.64685947]
 [  0.2        -63.06704172]
 [  0.25666667  -2.53403127]]","[[0.         1.1238598 ]
 [0.1        1.28070421]
 [0.2        0.36817987]
 [0.25666667 0.89472864]]",0,0.629
2,f,31,english,5,3,english,2024-02-07 14:23:06.611782,False,1,110,sounds\french\audio/french_332.wav,"[[  0.         -88.68220121]
 [  0.1         68.217882  ]
 [  0.2        -19.05049855]
 [  0.25666667 -98.47604088]]","[[0.         0.82286563]
 [0.1        1.40641777]
 [0.2        0.59183839]
 [0.25666667 0.80823464]]",1,0.609
2,f,31,english,5,3,english,2024-02-07 14:23:06.611782,False,1,111,sounds\french\audio/french_411.wav,"[[  0.          65.70741219]
 [  0.1          9.47903784]
 [  0.2         88.46874173]
 [  0.25666667 -33.05830924]]","[[0.         1.12073031]
 [0.1        1.20345695]
 [0.2        1.7567893 ]
 [0.25666667 0.68949127]]",0,0.688
2,f,31,english,5,3,english,2024-02-07 14:23:06.611782,False,1,112,sounds\french\audio/french_673.wav,"[[ 0.         97.1433432 ]
 [ 0.1         1.59516127]
 [ 0.2        27.02161491]
 [ 0.25666667 62.92522021]]","[[0.         1.2603    ]
 [0.1        0.42137615]
 [0.2        0.87652171]
 [0.25666667 1.1230089 ]]",1,2.135
2,f,31,english,5,3,english,2024-02-07 14:23:06.611782,False,1,113,sounds\french\audio/french_78.wav,"[[  0.         -36.45256911]
 [  0.1         52.80709263]
 [  0.2        -45.25624127]
 [  0.25666667  18.96418323]]","[[0.         0.98498246]
 [0.1        1.84515784]
 [0.2        1.50799972]
 [0.25666667 1.61920031]]",0,1.258
2,f,31,english,5,3,english,2024-02-07 14:23:06.611782,False,1,114,sounds\french\audio/french_178.wav,"[[ 0.         26.38045069]
 [ 0.1        54.67313893]
 [ 0.2        58.86585948]
 [ 0.25666667  8.14592544]]","[[0.         1.33493468]
 [0.1        1.2022917 ]
 [0.2        1.32810738]
 [0.25666667 0.94030025]]",1,0.464
2,f,31,english,5,3,english,2024-02-07 14:23:06.611782,False,1,115,sounds\french\audio/french_950.wav,"[[ 0.          6.46729125]
 [ 0.1        89.94723115]
 [ 0.2        33.92654299]
 [ 0.25666667  4.68690548]]","[[0.         1.1492664 ]
 [0.1        1.37343317]
 [0.2        1.07181876]
 [0.25666667 0.13073982]]",0,0.964
2,f,31,english,5,3,english,2024-02-07 14:23:06.611782,False,1,116,sounds\french\audio/french_150.wav,"[[  0.           8.70975457]
 [  0.1        -27.10460474]
 [  0.2        -81.59186784]
 [  0.25666667 -72.54184128]]","[[0.         0.6151883 ]
 [0.1        1.35739255]
 [0.2        1.42530839]
 [0.25666667 0.64697028]]",1,1.173
2,f,31,english,5,3,english,2024-02-07 14:23:06.611782,False,1,117,sounds\french\audio/french_608.wav,"[[  0.         -21.93815625]
 [  0.1         68.35071967]
 [  0.2        -10.44332041]
 [  0.25666667 -49.43801065]]","[[0.         0.80217517]
 [0.1        1.13802751]
 [0.2        0.09203458]
 [0.25666667 0.18129022]]",0,1.573
2,f,31,english,5,3,english,2024-02-07 14:23:06.611782,False,1,118,sounds\french\audio/french_740.wav,"[[  0.         -63.22643447]
 [  0.1        -76.79793208]
 [  0.2        -90.89358737]
 [  0.25666667 -87.57687491]]","[[0.         1.41698272]
 [0.1        1.15791198]
 [0.2        1.97460827]
 [0.25666667 0.61281255]]",1,0.246
2,f,31,english,5,3,english,2024-02-07 14:23:06.611782,False,1,119,sounds\french\audio/french_920.wav,"[[  0.          98.83591172]
 [  0.1        -64.95643085]
 [  0.2          1.57326281]
 [  0.25666667 -25.63648329]]","[[0.         0.7646584 ]
 [0.1        1.02879579]
 [0.2        1.0684491 ]
 [0.25666667 0.89198175]]",0,1.746
2,f,31,english,5,3,english,2024-02-07 14:23:06.611782,False,1,120,sounds\french\audio/french_430.wav,"[[  0.         -57.26862172]
 [  0.1         63.88036448]
 [  0.2        -87.83585054]
 [  0.25666667 -58.79211397]]","[[0.         0.12656802]
 [0.1        1.52184386]
 [0.2        1.10266765]
 [0.25666667 1.86011067]]",0,0.517
2,f,31,english,5,3,english,2024-02-07 14:23:06.611782,False,1,121,sounds\french\audio/french_620.wav,"[[  0.         -75.53708421]
 [  0.1          4.57362866]
 [  0.2        -79.19764782]
 [  0.25666667 -82.06470668]]","[[0.         1.75028991]
 [0.1        1.1712224 ]
 [0.2        1.92554269]
 [0.25666667 1.1477244 ]]",1,0.18
2,f,31,english,5,3,english,2024-02-07 14:23:06.611782,False,1,122,sounds\french\audio/french_329.wav,"[[  0.          14.6954169 ]
 [  0.1        -60.61079034]
 [  0.2        -27.52715396]
 [  0.25666667 -71.65343532]]","[[0.         0.80369944]
 [0.1        1.40829285]
 [0.2        0.22971006]
 [0.25666667 0.37653007]]",1,2.426
2,f,31,english,5,3,english,2024-02-07 14:23:06.611782,False,1,123,sounds\french\audio/french_979.wav,"[[  0.          58.05333973]
 [  0.1        -10.78982684]
 [  0.2         -1.76147191]
 [  0.25666667  35.54131035]]","[[0.         1.60321768]
 [0.1        0.5155038 ]
 [0.2        0.80270828]
 [0.25666667 0.30870089]]",0,1.098
2,f,31,english,5,3,english,2024-02-07 14:23:06.611782,False,1,124,sounds\french\audio/french_152.wav,"[[  0.          -3.84179402]
 [  0.1         56.28738818]
 [  0.2        -25.33799013]
 [  0.25666667 -10.23447911]]","[[0.         0.21245747]
 [0.1        1.74384484]
 [0.2        1.40208126]
 [0.25666667 0.94312755]]",0,0.902
2,f,31,english,5,3,english,2024-02-07 14:23:06.611782,False,1,125,sounds\french\audio/french_53.wav,"[[  0.          -2.35814843]
 [  0.1        -48.73544303]
 [  0.2         38.27016364]
 [  0.25666667 -31.96265424]]","[[0.         1.83928924]
 [0.1        0.78912936]
 [0.2        0.60668558]
 [0.25666667 0.83130548]]",1,0.199
2,f,31,english,5,3,english,2024-02-07 14:23:06.611782,False,1,126,sounds\french\audio/french_99.wav,"[[ 0.         82.47343156]
 [ 0.1        79.23143861]
 [ 0.2        34.81001375]
 [ 0.25666667 28.26612214]]","[[0.         0.8791919 ]
 [0.1        0.93561146]
 [0.2        1.15477002]
 [0.25666667 0.77336938]]",0,0.781
2,f,31,english,5,3,english,2024-02-07 14:23:06.611782,False,1,127,sounds\french\audio/french_51.wav,"[[  0.          47.2980437 ]
 [  0.1        -20.71065167]
 [  0.2        -59.15578969]
 [  0.25666667  47.97190204]]","[[0.         1.21993379]
 [0.1        0.59290242]
 [0.2        0.43795747]
 [0.25666667 1.09780803]]",0,2.889
2,f,31,english,5,3,english,2024-02-07 14:23:06.611782,False,1,128,sounds\french\audio/french_505.wav,"[[  0.         -38.72168331]
 [  0.1        -12.49542568]
 [  0.2         71.90880982]
 [  0.25666667 -94.40337553]]","[[0.         1.89725183]
 [0.1        0.88243769]
 [0.2        1.24748728]
 [0.25666667 0.62032879]]",1,0.201
2,f,31,english,5,3,english,2024-02-07 14:23:06.611782,False,1,129,sounds\french\audio/french_196.wav,"[[  0.         -51.30508497]
 [  0.1         89.17651026]
 [  0.2         77.92993737]
 [  0.25666667 -86.11962375]]","[[0.         1.16005851]
 [0.1        0.87725998]
 [0.2        1.23506332]
 [0.25666667 1.33141167]]",1,0.199
2,f,31,english,5,3,english,2024-02-07 14:23:06.611782,False,1,130,sounds\french\audio/french_892.wav,"[[  0.          -9.89123065]
 [  0.1        -29.48301763]
 [  0.2        -20.12274852]
 [  0.25666667 -63.31716547]]","[[0.         1.43345907]
 [0.1        0.60115207]
 [0.2        0.51672516]
 [0.25666667 0.2983609 ]]",1,1.82
2,f,31,english,5,3,english,2024-02-07 14:23:06.611782,False,1,131,sounds\french\audio/french_170.wav,"[[  0.          33.63406691]
 [  0.1        -66.14633185]
 [  0.2        -74.26701986]
 [  0.25666667  32.33295865]]","[[0.         1.37140183]
 [0.1        0.98919038]
 [0.2        1.38629831]
 [0.25666667 0.43392523]]",1,0.654
2,f,31,english,5,3,english,2024-02-07 14:23:06.611782,False,1,132,sounds\french\audio/french_660.wav,"[[  0.         -75.02051955]
 [  0.1        -36.41679043]
 [  0.2        -45.60366398]
 [  0.25666667  13.07838485]]","[[0.         0.75293762]
 [0.1        0.97452375]
 [0.2        1.88941483]
 [0.25666667 0.53297117]]",1,0.912
2,f,31,english,5,3,english,2024-02-07 14:23:06.611782,False,1,133,sounds\french\audio/french_427.wav,"[[  0.         -76.02138843]
 [  0.1        -79.3514541 ]
 [  0.2         33.13783193]
 [  0.25666667 -70.0412192 ]]","[[0.         1.52776537]
 [0.1        0.93213061]
 [0.2        1.10363763]
 [0.25666667 1.44956109]]",1,2.787
2,f,31,english,5,3,english,2024-02-07 14:23:06.611782,False,1,134,sounds\french\audio/french_3.wav,"[[  0.         -14.61439924]
 [  0.1         31.18450832]
 [  0.2         25.79538703]
 [  0.25666667  -0.91933426]]","[[0.         1.57160784]
 [0.1        1.95729533]
 [0.2        1.5259075 ]
 [0.25666667 1.3870147 ]]",1,1.23
2,f,31,english,5,3,english,2024-02-07 14:23:06.611782,False,1,135,sounds\french\audio/french_880.wav,"[[  0.          34.54343789]
 [  0.1         76.62551814]
 [  0.2         69.99614697]
 [  0.25666667 -97.30266151]]","[[0.         1.97652899]
 [0.1        0.35866047]
 [0.2        1.49815227]
 [0.25666667 1.92878763]]",0,1.578
2,f,31,english,5,3,english,2024-02-07 14:23:06.611782,False,1,136,sounds\french\audio/french_359.wav,"[[  0.           4.86221528]
 [  0.1         41.19609007]
 [  0.2         55.98013436]
 [  0.25666667 -59.88256532]]","[[0.         1.66863127]
 [0.1        0.25992168]
 [0.2        1.95186144]
 [0.25666667 1.64110453]]",0,5.367
2,f,31,english,5,3,english,2024-02-07 14:23:06.611782,False,1,137,sounds\french\audio/french_158.wav,"[[  0.          72.88318106]
 [  0.1         51.2800476 ]
 [  0.2        -29.39007937]
 [  0.25666667  87.52810159]]","[[0.         1.5476705 ]
 [0.1        1.92933226]
 [0.2        1.77733774]
 [0.25666667 1.82253327]]",1,1.542
2,f,31,english,5,3,english,2024-02-07 14:23:06.611782,False,1,138,sounds\french\audio/french_417.wav,"[[  0.         -52.68130191]
 [  0.1         73.91368418]
 [  0.2          7.73324389]
 [  0.25666667  92.88066518]]","[[0.         1.49469738]
 [0.1        1.06358835]
 [0.2        1.12421265]
 [0.25666667 0.65436219]]",0,0.411
2,f,31,english,5,3,english,2024-02-07 14:23:06.611782,False,1,139,sounds\french\audio/french_931.wav,"[[  0.          64.75046939]
 [  0.1        -55.9473081 ]
 [  0.2         32.85596214]
 [  0.25666667 -89.33798771]]","[[0.         1.51932084]
 [0.1        1.08335674]
 [0.2        0.78781639]
 [0.25666667 0.66435238]]",0,1.675
2,f,31,english,5,3,english,2024-02-07 14:23:06.611782,False,1,140,sounds\french\audio/french_487.wav,"[[  0.          26.50580686]
 [  0.1        -34.14449754]
 [  0.2         66.18137857]
 [  0.25666667  -7.03677771]]","[[0.         1.63350644]
 [0.1        1.29368608]
 [0.2        0.20656395]
 [0.25666667 1.93991824]]",1,0.282
2,f,31,english,5,3,english,2024-02-07 14:23:06.611782,False,1,141,sounds\french\audio/french_537.wav,"[[ 0.         24.94182708]
 [ 0.1        44.89034985]
 [ 0.2        79.4977598 ]
 [ 0.25666667 43.46988515]]","[[0.         0.83905816]
 [0.1        0.4078644 ]
 [0.2        1.66123527]
 [0.25666667 0.90238518]]",0,0.795
2,f,31,english,5,3,english,2024-02-07 14:23:06.611782,False,1,142,sounds\french\audio/french_208.wav,"[[  0.           8.68990421]
 [  0.1        -43.18378372]
 [  0.2         71.27860087]
 [  0.25666667 -15.56799856]]","[[0.         0.76850137]
 [0.1        1.33781212]
 [0.2        0.39946576]
 [0.25666667 0.17788265]]",0,4.136
2,f,31,english,5,3,english,2024-02-07 14:23:06.611782,False,1,143,sounds\french\audio/french_244.wav,"[[  0.          -1.19097064]
 [  0.1        -92.85229973]
 [  0.2        -96.93666457]
 [  0.25666667 -48.92774089]]","[[0.         0.99374935]
 [0.1        0.05831089]
 [0.2        1.01399938]
 [0.25666667 0.05507298]]",1,2.96
2,f,31,english,5,3,english,2024-02-07 14:23:06.611782,False,1,144,sounds\french\audio/french_160.wav,"[[  0.          94.580754  ]
 [  0.1        -77.59057929]
 [  0.2         49.28871101]
 [  0.25666667  54.34008904]]","[[0.         1.48632924]
 [0.1        0.83284567]
 [0.2        1.32543638]
 [0.25666667 1.18016963]]",0,3.276
2,f,31,english,5,3,english,2024-02-07 14:23:06.611782,False,1,145,sounds\french\audio/french_153.wav,"[[  0.          47.87386837]
 [  0.1          7.07648522]
 [  0.2         20.87760624]
 [  0.25666667 -54.47130494]]","[[0.         0.75426526]
 [0.1        1.23801955]
 [0.2        0.38230121]
 [0.25666667 0.58190832]]",0,0.652
2,f,31,english,5,3,english,2024-02-07 14:23:06.611782,False,1,146,sounds\french\audio/french_28.wav,"[[  0.         -42.04092007]
 [  0.1        -47.89065573]
 [  0.2         88.67668081]
 [  0.25666667  23.25138011]]","[[0.         0.8096396 ]
 [0.1        0.68168646]
 [0.2        0.86103635]
 [0.25666667 1.13642067]]",0,0.319
2,f,31,english,5,3,english,2024-02-07 14:23:06.611782,False,1,147,sounds\french\audio/french_765.wav,"[[  0.          37.74619949]
 [  0.1         35.79177818]
 [  0.2         -4.82792988]
 [  0.25666667 -29.99687949]]","[[0.         1.94846132]
 [0.1        0.74629838]
 [0.2        1.12672767]
 [0.25666667 0.50330326]]",1,0.229
2,f,31,english,5,3,english,2024-02-07 14:23:06.611782,False,1,148,sounds\french\audio/french_719.wav,"[[  0.          -0.39387326]
 [  0.1          1.52424656]
 [  0.2         34.63950895]
 [  0.25666667 -19.23986751]]","[[0.         0.47887204]
 [0.1        1.22874683]
 [0.2        0.97564384]
 [0.25666667 0.79252429]]",0,0.181
2,f,31,english,5,3,english,2024-02-07 14:23:06.611782,False,1,149,sounds\french\audio/french_718.wav,"[[ 0.         60.10154263]
 [ 0.1        11.66591821]
 [ 0.2        18.23831634]
 [ 0.25666667 -0.86268038]]","[[0.         0.48894908]
 [0.1        1.65193902]
 [0.2        1.63024081]
 [0.25666667 0.33166429]]",1,0.491
2,f,31,english,5,3,english,2024-02-07 14:23:06.611782,False,1,150,sounds\french\audio/french_754.wav,"[[ 0.         11.6644261 ]
 [ 0.1         5.00985124]
 [ 0.2        23.99974903]
 [ 0.25666667 23.77807811]]","[[0.         0.15061695]
 [0.1        0.57469516]
 [0.2        0.45412791]
 [0.25666667 0.27591884]]",0,0.475
2,f,31,english,5,3,english,2024-02-07 14:23:06.611782,False,1,151,sounds\french\audio/french_728.wav,"[[  0.         -93.70742078]
 [  0.1        -62.00989335]
 [  0.2         72.64416852]
 [  0.25666667   6.15605077]]","[[0.         1.13399743]
 [0.1        0.93012586]
 [0.2        0.78518922]
 [0.25666667 0.75575783]]",1,1.119
2,f,31,english,5,3,english,2024-02-07 14:23:06.611782,False,1,152,sounds\french\audio/french_818.wav,"[[  0.         -26.74770248]
 [  0.1        -33.54864391]
 [  0.2        -23.72939517]
 [  0.25666667  53.93300908]]","[[0.         1.09674102]
 [0.1        0.98606035]
 [0.2        1.86933067]
 [0.25666667 0.6204836 ]]",1,0.422
2,f,31,english,5,3,english,2024-02-07 14:23:06.611782,False,1,153,sounds\french\audio/french_388.wav,"[[  0.         -56.99851318]
 [  0.1        -28.42117093]
 [  0.2        -17.37440647]
 [  0.25666667  19.5608334 ]]","[[0.         0.76802497]
 [0.1        1.07190306]
 [0.2        0.91030877]
 [0.25666667 0.1576099 ]]",0,1.426
2,f,31,english,5,3,english,2024-02-07 14:23:06.611782,False,1,154,sounds\french\audio/french_293.wav,"[[  0.         -11.30043192]
 [  0.1        -69.36716709]
 [  0.2         65.20751159]
 [  0.25666667  27.71872742]]","[[0.         0.58860684]
 [0.1        0.23928943]
 [0.2        1.00971501]
 [0.25666667 0.31746318]]",0,0.358
2,f,31,english,5,3,english,2024-02-07 14:23:06.611782,False,1,155,sounds\french\audio/french_100.wav,"[[  0.         -35.75508116]
 [  0.1         57.82815341]
 [  0.2         31.92112674]
 [  0.25666667  34.87308497]]","[[0.         1.72997046]
 [0.1        1.04300978]
 [0.2        1.01595182]
 [0.25666667 1.9286069 ]]",1,0.09
2,f,31,english,5,3,english,2024-02-07 14:23:06.611782,False,1,156,sounds\french\audio/french_339.wav,"[[  0.          54.2761061 ]
 [  0.1         63.28603184]
 [  0.2        -39.09064926]
 [  0.25666667 -65.51257867]]","[[0.         1.89825103]
 [0.1        0.66946091]
 [0.2        1.06421907]
 [0.25666667 1.4091401 ]]",0,0.607
2,f,31,english,5,3,english,2024-02-07 14:23:06.611782,False,1,157,sounds\french\audio/french_854.wav,"[[  0.          -7.31529778]
 [  0.1        -99.41756076]
 [  0.2          9.72781791]
 [  0.25666667  12.92966386]]","[[0.         1.19205775]
 [0.1        1.8519083 ]
 [0.2        0.75121465]
 [0.25666667 0.73809803]]",1,0.095
2,f,31,english,5,3,english,2024-02-07 14:23:06.611782,False,1,158,sounds\french\audio/french_523.wav,"[[  0.         -20.54401218]
 [  0.1        -64.61887171]
 [  0.2        -56.67652055]
 [  0.25666667 -29.90055738]]","[[0.         1.01178449]
 [0.1        1.79283511]
 [0.2        0.92711934]
 [0.25666667 1.0186138 ]]",1,0.676
2,f,31,english,5,3,english,2024-02-07 14:23:06.611782,False,1,159,sounds\french\audio/french_384.wav,"[[ 0.         96.27107524]
 [ 0.1        31.19825585]
 [ 0.2        59.60884037]
 [ 0.25666667 90.96213602]]","[[0.         0.63462189]
 [0.1        1.63064356]
 [0.2        0.96291672]
 [0.25666667 1.24636593]]",0,0.384
2,f,31,english,5,3,english,2024-02-07 14:23:06.611782,False,1,160,sounds\french\audio/french_913.wav,"[[  0.           5.31236155]
 [  0.1        -59.65057946]
 [  0.2         27.87230438]
 [  0.25666667 -58.49443874]]","[[0.         1.37558602]
 [0.1        0.3561265 ]
 [0.2        1.61604884]
 [0.25666667 0.97981321]]",0,0.435
2,f,31,english,5,3,english,2024-02-07 14:23:06.611782,False,1,161,sounds\french\audio/french_339.wav,"[[  0.          54.2761061 ]
 [  0.1         63.28603184]
 [  0.2        -39.09064926]
 [  0.25666667 -65.51257867]]","[[0.         1.89825103]
 [0.1        0.66946091]
 [0.2        1.06421907]
 [0.25666667 1.4091401 ]]",1,0.492
2,f,31,english,5,3,english,2024-02-07 14:23:06.611782,False,1,162,sounds\french\audio/french_662.wav,"[[ 0.         69.59464859]
 [ 0.1        92.96629611]
 [ 0.2        83.22574806]
 [ 0.25666667 59.78978888]]","[[0.         0.59800434]
 [0.1        0.25880336]
 [0.2        0.52365302]
 [0.25666667 1.67953256]]",0,0.471
2,f,31,english,5,3,english,2024-02-07 14:23:06.611782,False,1,163,sounds\french\audio/french_514.wav,"[[  0.         -99.76210077]
 [  0.1        -57.79872095]
 [  0.2        -51.12304885]
 [  0.25666667  51.53874679]]","[[0.         0.60226465]
 [0.1        0.08785461]
 [0.2        1.82353854]
 [0.25666667 1.77009288]]",0,0.313
2,f,31,english,5,3,english,2024-02-07 14:23:06.611782,False,1,164,sounds\french\audio/french_886.wav,"[[  0.         -29.93146366]
 [  0.1        -19.22170842]
 [  0.2        -71.55320982]
 [  0.25666667 -23.6698032 ]]","[[0.         0.4543131 ]
 [0.1        1.74784503]
 [0.2        1.04864587]
 [0.25666667 1.15835862]]",1,0.476
2,f,31,english,5,3,english,2024-02-07 14:23:06.611782,False,1,165,sounds\french\audio/french_751.wav,"[[ 0.         43.14158788]
 [ 0.1        18.43858874]
 [ 0.2        79.49995567]
 [ 0.25666667 54.04463095]]","[[0.         0.5897858 ]
 [0.1        0.77618244]
 [0.2        1.33641446]
 [0.25666667 0.80537668]]",0,0.335
2,f,31,english,5,3,english,2024-02-07 14:23:06.611782,False,1,166,sounds\french\audio/french_141.wav,"[[ 0.         88.60100695]
 [ 0.1        68.96819773]
 [ 0.2         1.7368606 ]
 [ 0.25666667 19.36556264]]","[[0.         0.97838459]
 [0.1        1.47503319]
 [0.2        1.40537453]
 [0.25666667 0.305772  ]]",0,1.077
2,f,31,english,5,3,english,2024-02-07 14:23:06.611782,False,1,167,sounds\french\audio/french_523.wav,"[[  0.         -20.54401218]
 [  0.1        -64.61887171]
 [  0.2        -56.67652055]
 [  0.25666667 -29.90055738]]","[[0.         1.01178449]
 [0.1        1.79283511]
 [0.2        0.92711934]
 [0.25666667 1.0186138 ]]",1,0.298
2,f,31,english,5,3,english,2024-02-07 14:23:06.611782,False,1,168,sounds\french\audio/french_750.wav,"[[  0.          36.16157767]
 [  0.1        -94.09249833]
 [  0.2         97.07405484]
 [  0.25666667  -8.28043626]]","[[0.         1.69010054]
 [0.1        0.7877665 ]
 [0.2        0.99353813]
 [0.25666667 0.64245914]]",1,2.449
2,f,31,english,5,3,english,2024-02-07 14:23:06.611782,False,1,169,sounds\french\audio/french_32.wav,"[[  0.         -95.97477456]
 [  0.1        -25.31572866]
 [  0.2        -25.0492654 ]
 [  0.25666667 -74.56689772]]","[[0.         1.5242089 ]
 [0.1        0.2047991 ]
 [0.2        1.11388434]
 [0.25666667 1.18772321]]",1,3.091
2,f,31,english,5,3,english,2024-02-07 14:23:06.611782,False,1,170,sounds\french\audio/french_567.wav,"[[ 0.         27.43626477]
 [ 0.1        41.78362701]
 [ 0.2        54.76706712]
 [ 0.25666667 32.83264266]]","[[0.         1.24283832]
 [0.1        1.94246111]
 [0.2        1.04642714]
 [0.25666667 0.77358904]]",0,1.672
2,f,31,english,5,3,english,2024-02-07 14:23:06.611782,False,1,171,sounds\french\audio/french_19.wav,"[[  0.         -43.32613145]
 [  0.1        -51.04998213]
 [  0.2        -30.05832199]
 [  0.25666667 -62.89931607]]","[[0.         0.86768791]
 [0.1        0.12235363]
 [0.2        0.93205141]
 [0.25666667 0.68272422]]",0,0.708
2,f,31,english,5,3,english,2024-02-07 14:23:06.611782,False,1,172,sounds\french\audio/french_705.wav,"[[  0.         -31.52083019]
 [  0.1         93.24854214]
 [  0.2        -36.26217339]
 [  0.25666667  58.31905924]]","[[0.         1.71356233]
 [0.1        0.26324818]
 [0.2        0.66385994]
 [0.25666667 1.85027868]]",0,0.424
2,f,31,english,5,3,english,2024-02-07 14:23:06.611782,False,1,173,sounds\french\audio/french_422.wav,"[[ 0.         84.96144948]
 [ 0.1        -4.96569357]
 [ 0.2         9.38898655]
 [ 0.25666667 -4.34292742]]","[[0.         0.57918651]
 [0.1        1.20973004]
 [0.2        0.40935242]
 [0.25666667 0.41859168]]",0,0.483
2,f,31,english,5,3,english,2024-02-07 14:23:06.611782,False,1,174,sounds\french\audio/french_730.wav,"[[  0.          45.92676741]
 [  0.1        -44.36449205]
 [  0.2         -0.92451291]
 [  0.25666667  30.80646356]]","[[0.         0.18014666]
 [0.1        1.39371349]
 [0.2        1.11032992]
 [0.25666667 1.142585  ]]",1,0.463
2,f,31,english,5,3,english,2024-02-07 14:23:06.611782,False,1,175,sounds\french\audio/french_926.wav,"[[  0.         -38.30420493]
 [  0.1        -97.26803886]
 [  0.2         55.3544282 ]
 [  0.25666667   8.78644418]]","[[0.         1.0266732 ]
 [0.1        0.03873156]
 [0.2        0.32593073]
 [0.25666667 0.80695306]]",0,0.79
2,f,31,english,5,3,english,2024-02-07 14:23:06.611782,False,1,176,sounds\french\audio/french_738.wav,"[[  0.           9.63502306]
 [  0.1         23.45464863]
 [  0.2        -41.48525502]
 [  0.25666667  10.13311751]]","[[0.         1.8953007 ]
 [0.1        0.66483685]
 [0.2        0.56687756]
 [0.25666667 1.74946228]]",1,0.533
2,f,31,english,5,3,english,2024-02-07 14:23:06.611782,False,1,177,sounds\french\audio/french_340.wav,"[[  0.         -77.74428769]
 [  0.1        -23.36816436]
 [  0.2        -44.47255335]
 [  0.25666667 -51.35474548]]","[[0.         1.5012345 ]
 [0.1        1.72338521]
 [0.2        0.55046319]
 [0.25666667 0.98182936]]",1,0.848
2,f,31,english,5,3,english,2024-02-07 14:23:06.611782,False,1,178,sounds\french\audio/french_257.wav,"[[  0.           1.27289853]
 [  0.1         62.04423448]
 [  0.2         19.88889926]
 [  0.25666667 -46.96649461]]","[[0.         1.18383926]
 [0.1        0.46495515]
 [0.2        0.91766752]
 [0.25666667 1.75135473]]",0,2.036
2,f,31,english,5,3,english,2024-02-07 14:23:06.611782,False,1,179,sounds\french\audio/french_380.wav,"[[  0.          24.49292531]
 [  0.1        -93.89933718]
 [  0.2        -85.93529796]
 [  0.25666667  58.85582409]]","[[0.         0.14533116]
 [0.1        1.07880785]
 [0.2        1.01737492]
 [0.25666667 1.87499145]]",0,2.444
2,f,31,english,5,3,english,2024-02-07 14:23:06.611782,False,1,180,sounds\french\audio/french_336.wav,"[[  0.         -59.08437243]
 [  0.1        -11.33502928]
 [  0.2         -8.85944942]
 [  0.25666667  -2.33471857]]","[[0.         0.65572155]
 [0.1        1.68249373]
 [0.2        0.52457197]
 [0.25666667 1.1312199 ]]",1,0.963
2,f,31,english,5,3,english,2024-02-07 14:23:06.611782,False,1,181,sounds\french\audio/french_95.wav,"[[ 0.         35.71270194]
 [ 0.1        34.21637588]
 [ 0.2        69.23850983]
 [ 0.25666667 -5.02213551]]","[[0.         1.05464779]
 [0.1        0.916907  ]
 [0.2        0.63861668]
 [0.25666667 0.96363956]]",0,0.462
2,f,31,english,5,3,english,2024-02-07 14:23:06.611782,False,1,182,sounds\french\audio/french_533.wav,"[[  0.          16.04004141]
 [  0.1         56.74964814]
 [  0.2         94.00728235]
 [  0.25666667 -15.92685786]]","[[0.         1.94214745]
 [0.1        0.96958639]
 [0.2        1.49563925]
 [0.25666667 1.75047909]]",0,0.45
2,f,31,english,5,3,english,2024-02-07 14:23:06.611782,False,1,183,sounds\french\audio/french_997.wav,"[[ 0.         70.02211451]
 [ 0.1        69.24362731]
 [ 0.2        73.007848  ]
 [ 0.25666667 83.15376715]]","[[0.         0.23520638]
 [0.1        0.40856699]
 [0.2        1.59962624]
 [0.25666667 0.8906701 ]]",0,1.34
2,f,31,english,5,3,english,2024-02-07 14:23:06.611782,False,1,184,sounds\french\audio/french_475.wav,"[[  0.          42.4700979 ]
 [  0.1         19.82242754]
 [  0.2         35.42792781]
 [  0.25666667 -96.45453718]]","[[0.         1.46915347]
 [0.1        0.15565226]
 [0.2        0.40628011]
 [0.25666667 1.14503128]]",0,1.066
2,f,31,english,5,3,english,2024-02-07 14:23:06.611782,False,1,185,sounds\french\audio/french_880.wav,"[[  0.          34.54343789]
 [  0.1         76.62551814]
 [  0.2         69.99614697]
 [  0.25666667 -97.30266151]]","[[0.         1.97652899]
 [0.1        0.35866047]
 [0.2        1.49815227]
 [0.25666667 1.92878763]]",1,0.324
2,f,31,english,5,3,english,2024-02-07 14:23:06.611782,False,1,186,sounds\french\audio/french_944.wav,"[[  0.          -8.30121602]
 [  0.1         15.19990023]
 [  0.2        -34.54061483]
 [  0.25666667 -24.04483863]]","[[0.         1.41077405]
 [0.1        0.52690475]
 [0.2        0.23733031]
 [0.25666667 1.49354387]]",0,0.434
2,f,31,english,5,3,english,2024-02-07 14:23:06.611782,False,1,187,sounds\french\audio/french_844.wav,"[[  0.          29.77319266]
 [  0.1         -6.65775534]
 [  0.2         88.70188171]
 [  0.25666667 -96.32304745]]","[[0.         0.89130203]
 [0.1        0.41170989]
 [0.2        0.96705276]
 [0.25666667 0.58258054]]",0,0.514
2,f,31,english,5,3,english,2024-02-07 14:23:06.611782,False,1,188,sounds\french\audio/french_476.wav,"[[  0.         -83.79523633]
 [  0.1         62.15522278]
 [  0.2        -62.9629606 ]
 [  0.25666667  29.80880048]]","[[0.         0.72975737]
 [0.1        1.65535888]
 [0.2        1.94146275]
 [0.25666667 1.32492406]]",1,0.084
2,f,31,english,5,3,english,2024-02-07 14:23:06.611782,False,1,189,sounds\french\audio/french_835.wav,"[[  0.          -1.43190356]
 [  0.1        -99.33286499]
 [  0.2         34.34373885]
 [  0.25666667  39.86329231]]","[[0.         0.4805844 ]
 [0.1        1.12822193]
 [0.2        1.41477947]
 [0.25666667 0.63497531]]",1,0.305
2,f,31,english,5,3,english,2024-02-07 14:23:06.611782,False,1,190,sounds\french\audio/french_683.wav,"[[  0.          21.98154849]
 [  0.1         59.44126587]
 [  0.2        -51.05687534]
 [  0.25666667  -9.70916743]]","[[0.         0.17421097]
 [0.1        0.03094343]
 [0.2        0.79924543]
 [0.25666667 0.82068176]]",0,1.094
2,f,31,english,5,3,english,2024-02-07 14:23:06.611782,False,1,191,sounds\french\audio/french_951.wav,"[[  0.         -15.86004077]
 [  0.1         60.12120799]
 [  0.2         81.27761476]
 [  0.25666667  61.27828768]]","[[0.         0.48185357]
 [0.1        0.27819881]
 [0.2        1.97659335]
 [0.25666667 1.07257799]]",0,1.618
2,f,31,english,5,3,english,2024-02-07 14:23:06.611782,False,1,192,sounds\french\audio/french_956.wav,"[[  0.         -17.2568339 ]
 [  0.1         60.67626876]
 [  0.2         40.71216363]
 [  0.25666667  16.50619481]]","[[0.         1.05718214]
 [0.1        1.43914937]
 [0.2        0.83140318]
 [0.25666667 0.14426626]]",0,0.761
2,f,31,english,5,3,english,2024-02-07 14:23:06.611782,False,1,193,sounds\french\audio/french_303.wav,"[[  0.         -37.35678584]
 [  0.1        -60.74389767]
 [  0.2         74.2341812 ]
 [  0.25666667  74.10759125]]","[[0.         1.71041427]
 [0.1        0.8709471 ]
 [0.2        1.02400634]
 [0.25666667 0.07072526]]",1,0.207
2,f,31,english,5,3,english,2024-02-07 14:23:06.611782,False,1,194,sounds\french\audio/french_781.wav,"[[  0.          33.25938538]
 [  0.1        -13.90292419]
 [  0.2        -71.59350782]
 [  0.25666667  57.07291034]]","[[0.         1.27105286]
 [0.1        0.93357863]
 [0.2        1.0124146 ]
 [0.25666667 0.68511696]]",1,0.155
2,f,31,english,5,3,english,2024-02-07 14:23:06.611782,False,1,195,sounds\french\audio/french_467.wav,"[[  0.          26.36588123]
 [  0.1        -91.62831039]
 [  0.2         14.27679522]
 [  0.25666667 -77.75485007]]","[[0.         0.49078583]
 [0.1        1.37574102]
 [0.2        0.10009029]
 [0.25666667 1.32516535]]",0,0.718
2,f,31,english,5,3,english,2024-02-07 14:23:06.611782,False,1,196,sounds\french\audio/french_911.wav,"[[  0.          11.85203828]
 [  0.1        -24.36206963]
 [  0.2        -79.91713821]
 [  0.25666667 -65.93332008]]","[[0.         0.91676267]
 [0.1        0.3897793 ]
 [0.2        0.96594055]
 [0.25666667 1.97851167]]",0,1.943
2,f,31,english,5,3,english,2024-02-07 14:23:06.611782,False,1,197,sounds\french\audio/french_302.wav,"[[  0.           8.4067376 ]
 [  0.1        -29.32780789]
 [  0.2        -43.35590711]
 [  0.25666667 -44.50549756]]","[[0.         0.06791418]
 [0.1        1.46578571]
 [0.2        1.81098556]
 [0.25666667 1.40235265]]",1,1.549
2,f,31,english,5,3,english,2024-02-07 14:23:06.611782,False,1,198,sounds\french\audio/french_999.wav,"[[  0.          47.65145935]
 [  0.1         64.90222313]
 [  0.2         79.66636989]
 [  0.25666667 -10.95327426]]","[[0.         0.42993564]
 [0.1        1.41824969]
 [0.2        1.25132817]
 [0.25666667 1.10016678]]",1,0.48
2,f,31,english,5,3,english,2024-02-07 14:23:06.611782,False,1,199,sounds\french\audio/french_465.wav,"[[  0.          75.74191185]
 [  0.1        -78.40057178]
 [  0.2        -12.36406326]
 [  0.25666667 -26.5706303 ]]","[[0.         0.24775687]
 [0.1        0.61634124]
 [0.2        1.57309013]
 [0.25666667 0.56284004]]",0,0.63
2,f,31,english,5,3,english,2024-02-07 14:23:06.611782,False,1,200,sounds\french\audio/french_837.wav,"[[  0.          12.86528577]
 [  0.1         80.83337189]
 [  0.2        -88.94110826]
 [  0.25666667  32.10555955]]","[[0.         1.70928146]
 [0.1        0.14925978]
 [0.2        0.83215091]
 [0.25666667 1.23671449]]",0,1.745
2,f,31,english,5,3,english,2024-02-07 14:23:06.611782,False,1,201,sounds\french\audio/french_752.wav,"[[  0.         -49.05511086]
 [  0.1         68.97169656]
 [  0.2         35.56747744]
 [  0.25666667   3.91641015]]","[[0.         0.41123153]
 [0.1        0.36604045]
 [0.2        0.22184937]
 [0.25666667 1.3158831 ]]",0,0.669
2,f,31,english,5,3,english,2024-02-07 14:23:06.611782,False,1,202,sounds\french\audio/french_65.wav,"[[  0.         -17.53877645]
 [  0.1         77.85789868]
 [  0.2         16.40180032]
 [  0.25666667  56.20856175]]","[[0.         1.80859796]
 [0.1        1.24255314]
 [0.2        1.28894604]
 [0.25666667 0.80043142]]",1,0.484
2,f,31,english,5,3,english,2024-02-07 14:23:06.611782,False,1,203,sounds\french\audio/french_518.wav,"[[  0.          30.08897808]
 [  0.1        -42.00678694]
 [  0.2         47.99304417]
 [  0.25666667 -21.59585354]]","[[0.         1.28002377]
 [0.1        0.31881796]
 [0.2        0.271149  ]
 [0.25666667 1.06182133]]",0,0.562
2,f,31,english,5,3,english,2024-02-07 14:23:06.611782,False,1,204,sounds\french\audio/french_951.wav,"[[  0.         -15.86004077]
 [  0.1         60.12120799]
 [  0.2         81.27761476]
 [  0.25666667  61.27828768]]","[[0.         0.48185357]
 [0.1        0.27819881]
 [0.2        1.97659335]
 [0.25666667 1.07257799]]",0,0.896
2,f,31,english,5,3,english,2024-02-07 14:23:06.611782,False,1,205,sounds\french\audio/french_543.wav,"[[  0.          99.95964938]
 [  0.1         62.1224346 ]
 [  0.2        -10.06540024]
 [  0.25666667  -5.35888672]]","[[0.         0.10365101]
 [0.1        1.02026934]
 [0.2        0.56488883]
 [0.25666667 0.3884986 ]]",0,0.413
2,f,31,english,5,3,english,2024-02-07 14:23:06.611782,False,1,206,sounds\french\audio/french_412.wav,"[[  0.         -59.33534007]
 [  0.1        -79.1774496 ]
 [  0.2        -38.59435565]
 [  0.25666667  65.74010912]]","[[0.         1.02487397]
 [0.1        0.54283138]
 [0.2        0.86213444]
 [0.25666667 0.54314794]]",1,0.57
2,f,31,english,5,3,english,2024-02-07 14:23:06.611782,False,1,207,sounds\french\audio/french_820.wav,"[[  0.         -23.2512771 ]
 [  0.1         -3.42093224]
 [  0.2        -78.83822409]
 [  0.25666667 -24.79307177]]","[[0.         0.85914582]
 [0.1        1.44867235]
 [0.2        1.61907263]
 [0.25666667 1.11055267]]",1,0.551
2,f,31,english,5,3,english,2024-02-07 14:23:06.611782,False,1,208,sounds\french\audio/french_457.wav,"[[ 0.         42.86960152]
 [ 0.1        79.85160671]
 [ 0.2        98.12255829]
 [ 0.25666667 78.01153847]]","[[0.         1.10156515]
 [0.1        0.90608198]
 [0.2        0.87189229]
 [0.25666667 1.12024719]]",0,0.375
2,f,31,english,5,3,english,2024-02-07 14:23:06.611782,False,1,209,sounds\french\audio/french_498.wav,"[[  0.           4.68377609]
 [  0.1        -15.28708952]
 [  0.2         12.01036293]
 [  0.25666667   2.49690218]]","[[0.         1.22559932]
 [0.1        1.70630703]
 [0.2        0.54123502]
 [0.25666667 0.39602685]]",1,0.303
2,f,31,english,5,3,english,2024-02-07 14:23:06.611782,False,1,210,sounds\french\audio/french_587.wav,"[[  0.         -75.34784911]
 [  0.1         20.53880501]
 [  0.2        -66.82934855]
 [  0.25666667   0.42354047]]","[[0.         1.71069253]
 [0.1        1.37718063]
 [0.2        1.47865121]
 [0.25666667 1.29460257]]",1,0.308
2,f,31,english,5,3,english,2024-02-07 14:23:06.611782,False,1,211,sounds\french\audio/french_21.wav,"[[  0.          54.83693262]
 [  0.1        -44.5884084 ]
 [  0.2        -75.20982548]
 [  0.25666667 -57.69855476]]","[[0.         0.05508037]
 [0.1        0.46211883]
 [0.2        1.96075125]
 [0.25666667 0.5365247 ]]",0,0.311
2,f,31,english,5,3,english,2024-02-07 14:23:06.611782,False,1,212,sounds\french\audio/french_906.wav,"[[  0.         -13.49448879]
 [  0.1         31.46373863]
 [  0.2        -49.02376816]
 [  0.25666667  26.58933429]]","[[0.         0.31236465]
 [0.1        1.12113229]
 [0.2        0.0749788 ]
 [0.25666667 0.8331551 ]]",0,0.422
2,f,31,english,5,3,english,2024-02-07 14:23:06.611782,False,1,213,sounds\french\audio/french_396.wav,"[[  0.         -42.7744445 ]
 [  0.1          3.59774391]
 [  0.2        -86.41595133]
 [  0.25666667  76.20152203]]","[[0.         0.31798537]
 [0.1        0.67756986]
 [0.2        1.44355676]
 [0.25666667 1.44326023]]",0,0.651
2,f,31,english,5,3,english,2024-02-07 14:23:06.611782,False,1,214,sounds\french\audio/french_886.wav,"[[  0.         -29.93146366]
 [  0.1        -19.22170842]
 [  0.2        -71.55320982]
 [  0.25666667 -23.6698032 ]]","[[0.         0.4543131 ]
 [0.1        1.74784503]
 [0.2        1.04864587]
 [0.25666667 1.15835862]]",1,0.171
2,f,31,english,5,3,english,2024-02-07 14:23:06.611782,False,1,215,sounds\french\audio/french_10.wav,"[[  0.          34.48773494]
 [  0.1         82.41652137]
 [  0.2        -51.47900312]
 [  0.25666667  70.4490668 ]]","[[0.         0.90390655]
 [0.1        1.13926368]
 [0.2        1.63497012]
 [0.25666667 0.74730693]]",1,0.28
2,f,31,english,5,3,english,2024-02-07 14:23:06.611782,False,1,216,sounds\french\audio/french_571.wav,"[[ 0.         31.56469904]
 [ 0.1        44.5277229 ]
 [ 0.2        41.67262287]
 [ 0.25666667  9.54247743]]","[[0.         0.97268691]
 [0.1        1.62706688]
 [0.2        1.42821868]
 [0.25666667 0.83693393]]",1,0.149
2,f,31,english,5,3,english,2024-02-07 14:23:06.611782,False,1,217,sounds\french\audio/french_651.wav,"[[  0.         -39.76270633]
 [  0.1         98.43983978]
 [  0.2        -35.93188367]
 [  0.25666667 -13.56550518]]","[[0.         0.57054307]
 [0.1        0.47887101]
 [0.2        1.36476361]
 [0.25666667 1.70592369]]",0,2.463
2,f,31,english,5,3,english,2024-02-07 14:23:06.611782,False,1,218,sounds\french\audio/french_22.wav,"[[ 0.         71.14052921]
 [ 0.1        32.6622244 ]
 [ 0.2        96.1292121 ]
 [ 0.25666667 65.79523532]]","[[0.         0.14678418]
 [0.1        0.81024714]
 [0.2        1.14392668]
 [0.25666667 1.62437335]]",0,0.225
2,f,31,english,5,3,english,2024-02-07 14:23:06.611782,False,1,219,sounds\french\audio/french_552.wav,"[[  0.         -52.32363839]
 [  0.1         23.44364533]
 [  0.2         72.20212972]
 [  0.25666667 -25.42911122]]","[[0.         0.44295398]
 [0.1        1.4520287 ]
 [0.2        0.63620541]
 [0.25666667 1.39952151]]",0,0.305
2,f,31,english,5,3,english,2024-02-07 14:23:06.611782,False,1,220,sounds\french\audio/french_86.wav,"[[  0.         -13.34839912]
 [  0.1         -0.15074382]
 [  0.2         25.45831569]
 [  0.25666667  48.27326553]]","[[0.         1.5394535 ]
 [0.1        0.88064418]
 [0.2        1.66652907]
 [0.25666667 0.20293469]]",1,0.106
2,f,31,english,5,3,english,2024-02-07 14:23:06.611782,False,1,221,sounds\french\audio/french_807.wav,"[[  0.          41.22965042]
 [  0.1         55.45523643]
 [  0.2        -56.08981041]
 [  0.25666667  27.67304414]]","[[0.         0.26309645]
 [0.1        0.30227962]
 [0.2        0.58983644]
 [0.25666667 1.26996728]]",0,1.228
2,f,31,english,5,3,english,2024-02-07 14:23:06.611782,False,1,222,sounds\french\audio/french_608.wav,"[[  0.         -21.93815625]
 [  0.1         68.35071967]
 [  0.2        -10.44332041]
 [  0.25666667 -49.43801065]]","[[0.         0.80217517]
 [0.1        1.13802751]
 [0.2        0.09203458]
 [0.25666667 0.18129022]]",1,0.406
2,f,31,english,5,3,english,2024-02-07 14:23:06.611782,False,1,223,sounds\french\audio/french_614.wav,"[[ 0.         13.55245103]
 [ 0.1        56.56377999]
 [ 0.2        18.28165036]
 [ 0.25666667 42.87971424]]","[[0.         0.76920018]
 [0.1        1.46632319]
 [0.2        0.77890927]
 [0.25666667 1.0073418 ]]",1,2.141
2,f,31,english,5,3,english,2024-02-07 14:23:06.611782,False,1,224,sounds\french\audio/french_831.wav,"[[ 0.         63.54740934]
 [ 0.1        37.72830153]
 [ 0.2        -3.45882983]
 [ 0.25666667 83.86154552]]","[[0.         1.51153345]
 [0.1        0.09945987]
 [0.2        0.22010167]
 [0.25666667 0.71497999]]",0,0.569
2,f,31,english,5,3,english,2024-02-07 14:23:06.611782,False,1,225,sounds\french\audio/french_207.wav,"[[ 0.         15.24625839]
 [ 0.1        68.60229744]
 [ 0.2        51.04898438]
 [ 0.25666667  8.99799409]]","[[0.         0.95120839]
 [0.1        1.50295804]
 [0.2        0.44335537]
 [0.25666667 1.65047569]]",1,0.738
2,f,31,english,5,3,english,2024-02-07 14:23:06.611782,False,1,226,sounds\french\audio/french_776.wav,"[[  0.          -9.17095967]
 [  0.1        -70.57850226]
 [  0.2         63.21349252]
 [  0.25666667  59.47578694]]","[[0.         0.42962635]
 [0.1        1.70698124]
 [0.2        1.25010697]
 [0.25666667 1.52671833]]",1,0.672
2,f,31,english,5,3,english,2024-02-07 14:23:06.611782,False,1,227,sounds\french\audio/french_693.wav,"[[  0.         -47.08934597]
 [  0.1         72.6108529 ]
 [  0.2        -29.7137536 ]
 [  0.25666667  50.01737174]]","[[0.         0.01342517]
 [0.1        0.89682207]
 [0.2        1.48476447]
 [0.25666667 0.05087926]]",0,0.956
2,f,31,english,5,3,english,2024-02-07 14:23:06.611782,False,1,228,sounds\french\audio/french_409.wav,"[[  0.         -85.45925867]
 [  0.1        -75.83462931]
 [  0.2        -81.34632848]
 [  0.25666667  -4.23490283]]","[[0.         0.92391671]
 [0.1        0.55779761]
 [0.2        1.04156293]
 [0.25666667 0.8536223 ]]",1,0.397
2,f,31,english,5,3,english,2024-02-07 14:23:06.611782,False,1,229,sounds\french\audio/french_928.wav,"[[  0.          23.35867854]
 [  0.1        -18.47737087]
 [  0.2         41.22883985]
 [  0.25666667  67.72155047]]","[[0.         0.39112769]
 [0.1        1.71601552]
 [0.2        0.4467351 ]
 [0.25666667 0.12145746]]",0,1.337
2,f,31,english,5,3,english,2024-02-07 14:23:06.611782,False,1,230,sounds\french\audio/french_228.wav,"[[  0.         -13.78258648]
 [  0.1         27.88870681]
 [  0.2         -8.73674486]
 [  0.25666667 -13.88179653]]","[[0.         1.36655769]
 [0.1        1.56643938]
 [0.2        0.29403468]
 [0.25666667 0.32348249]]",1,0.59
2,f,31,english,5,3,english,2024-02-07 14:23:06.611782,False,1,231,sounds\french\audio/french_282.wav,"[[  0.         -97.43488085]
 [  0.1         96.20897113]
 [  0.2         27.16020646]
 [  0.25666667 -13.14092169]]","[[0.         0.55303377]
 [0.1        1.41145651]
 [0.2        1.83661618]
 [0.25666667 0.36912502]]",0,1.696
2,f,31,english,5,3,english,2024-02-07 14:23:06.611782,False,1,232,sounds\french\audio/french_746.wav,"[[  0.         -21.92593336]
 [  0.1        -33.34916741]
 [  0.2         -5.0291103 ]
 [  0.25666667 -67.6368859 ]]","[[0.         0.5521476 ]
 [0.1        1.58954792]
 [0.2        0.89586439]
 [0.25666667 0.35939035]]",1,0.564
2,f,31,english,5,3,english,2024-02-07 14:23:06.611782,False,1,233,sounds\french\audio/french_404.wav,"[[  0.         -69.94435752]
 [  0.1        -71.78209065]
 [  0.2          1.54660235]
 [  0.25666667 -64.99062427]]","[[0.         1.52233517]
 [0.1        0.64310095]
 [0.2        1.70982079]
 [0.25666667 0.43662649]]",0,0.773
2,f,31,english,5,3,english,2024-02-07 14:23:06.611782,False,1,234,sounds\french\audio/french_979.wav,"[[  0.          58.05333973]
 [  0.1        -10.78982684]
 [  0.2         -1.76147191]
 [  0.25666667  35.54131035]]","[[0.         1.60321768]
 [0.1        0.5155038 ]
 [0.2        0.80270828]
 [0.25666667 0.30870089]]",1,1.249
2,f,31,english,5,3,english,2024-02-07 14:23:06.611782,False,1,235,sounds\french\audio/french_115.wav,"[[  0.          79.30886426]
 [  0.1         38.64809671]
 [  0.2         24.58912206]
 [  0.25666667 -50.07125558]]","[[0.         0.55665137]
 [0.1        1.15526328]
 [0.2        1.92727625]
 [0.25666667 0.36414304]]",0,0.806
2,f,31,english,5,3,english,2024-02-07 14:23:06.611782,False,1,236,sounds\french\audio/french_963.wav,"[[ 0.         47.65214736]
 [ 0.1         6.38608236]
 [ 0.2        90.58649254]
 [ 0.25666667 -7.76898595]]","[[0.         0.44378955]
 [0.1        0.94107122]
 [0.2        1.48470349]
 [0.25666667 1.98203536]]",0,1.239
2,f,31,english,5,3,english,2024-02-07 14:23:06.611782,False,1,237,sounds\french\audio/french_782.wav,"[[  0.         -22.12019493]
 [  0.1          4.49416446]
 [  0.2         95.81757258]
 [  0.25666667  37.17912971]]","[[0.         0.33541309]
 [0.1        0.60665876]
 [0.2        0.65040298]
 [0.25666667 0.93901734]]",0,0.608
2,f,31,english,5,3,english,2024-02-07 14:23:06.611782,False,1,238,sounds\french\audio/french_18.wav,"[[  0.          29.29326365]
 [  0.1        -65.9497706 ]
 [  0.2        -68.38187686]
 [  0.25666667  26.32477662]]","[[0.         1.56476478]
 [0.1        0.7748919 ]
 [0.2        0.73946843]
 [0.25666667 1.33435109]]",1,0.218
2,f,31,english,5,3,english,2024-02-07 14:23:06.611782,False,1,239,sounds\french\audio/french_133.wav,"[[  0.         -94.78194954]
 [  0.1          8.44061072]
 [  0.2         55.81768563]
 [  0.25666667  73.94294787]]","[[0.         1.29113753]
 [0.1        0.84384968]
 [0.2        1.85990436]
 [0.25666667 1.64621091]]",1,0.12
2,f,31,english,5,3,english,2024-02-07 14:23:06.611782,False,1,240,sounds\french\audio/french_595.wav,"[[  0.         -73.15061419]
 [  0.1         67.23643261]
 [  0.2         29.33444659]
 [  0.25666667 -65.67909684]]","[[0.         1.40746522]
 [0.1        0.48150889]
 [0.2        0.65461581]
 [0.25666667 0.62395538]]",1,0.605
2,f,31,english,5,3,english,2024-02-07 14:23:06.611782,False,1,241,sounds\french\audio/french_34.wav,"[[  0.         -97.24360174]
 [  0.1         62.38297295]
 [  0.2        -49.09622703]
 [  0.25666667 -40.35720841]]","[[0.         1.95744133]
 [0.1        1.24423752]
 [0.2        1.91649641]
 [0.25666667 1.03651442]]",1,0.225
2,f,31,english,5,3,english,2024-02-07 14:23:06.611782,False,1,242,sounds\french\audio/french_399.wav,"[[ 0.         60.88638106]
 [ 0.1        69.51712014]
 [ 0.2        11.9354414 ]
 [ 0.25666667 71.82951649]]","[[0.         0.92905576]
 [0.1        1.13956386]
 [0.2        0.89341089]
 [0.25666667 1.81253855]]",0,1.57
2,f,31,english,5,3,english,2024-02-07 14:23:06.611782,False,1,243,sounds\french\audio/french_262.wav,"[[  0.         -64.23156272]
 [  0.1        -18.68430003]
 [  0.2        -74.67542291]
 [  0.25666667  29.36963449]]","[[0.         0.64961321]
 [0.1        0.97192609]
 [0.2        0.40249154]
 [0.25666667 0.8696964 ]]",1,0.253
2,f,31,english,5,3,english,2024-02-07 14:23:06.611782,False,1,244,sounds\french\audio/french_282.wav,"[[  0.         -97.43488085]
 [  0.1         96.20897113]
 [  0.2         27.16020646]
 [  0.25666667 -13.14092169]]","[[0.         0.55303377]
 [0.1        1.41145651]
 [0.2        1.83661618]
 [0.25666667 0.36912502]]",0,0.879
2,f,31,english,5,3,english,2024-02-07 14:23:06.611782,False,1,245,sounds\french\audio/french_973.wav,"[[  0.         -99.0384004 ]
 [  0.1         40.13117567]
 [  0.2         49.54188212]
 [  0.25666667  89.60941169]]","[[0.         1.64247416]
 [0.1        0.98090528]
 [0.2        1.75566355]
 [0.25666667 0.64442147]]",1,0.189
2,f,31,english,5,3,english,2024-02-07 14:23:06.611782,False,1,246,sounds\french\audio/french_690.wav,"[[  0.          79.01312907]
 [  0.1        -50.63616883]
 [  0.2         19.49439666]
 [  0.25666667 -20.64233715]]","[[0.         1.49686193]
 [0.1        0.92741038]
 [0.2        0.30770403]
 [0.25666667 0.53460579]]",1,1.984
2,f,31,english,5,3,english,2024-02-07 14:23:06.611782,False,1,247,sounds\french\audio/french_665.wav,"[[  0.           1.77078633]
 [  0.1        -95.60257374]
 [  0.2        -26.21333041]
 [  0.25666667 -67.7705493 ]]","[[0.         0.29838278]
 [0.1        0.72198918]
 [0.2        0.91284695]
 [0.25666667 0.52625369]]",0,0.397
2,f,31,english,5,3,english,2024-02-07 14:23:06.611782,False,1,248,sounds\french\audio/french_466.wav,"[[  0.          73.58992944]
 [  0.1         63.97983353]
 [  0.2         36.10141743]
 [  0.25666667 -59.38235663]]","[[0.         1.41071494]
 [0.1        0.05598534]
 [0.2        1.99104708]
 [0.25666667 0.89990448]]",0,0.436
2,f,31,english,5,3,english,2024-02-07 14:23:06.611782,False,1,249,sounds\french\audio/french_663.wav,"[[  0.           9.26283991]
 [  0.1          8.63416543]
 [  0.2        -94.49816933]
 [  0.25666667 -21.43071833]]","[[0.         1.50228176]
 [0.1        0.75616041]
 [0.2        0.98085129]
 [0.25666667 1.35574544]]",1,0.244
2,f,31,english,5,3,english,2024-02-07 14:23:06.611782,False,1,250,sounds\french\audio/french_226.wav,"[[  0.          85.32452385]
 [  0.1        -25.06918931]
 [  0.2        -17.89357971]
 [  0.25666667  45.31971501]]","[[0.         1.68909252]
 [0.1        0.17046025]
 [0.2        0.61029189]
 [0.25666667 0.53544367]]",1,0.604
2,f,31,english,5,3,english,2024-02-07 14:23:06.611782,False,1,251,sounds\french\audio/french_161.wav,"[[  0.          61.58397479]
 [  0.1         44.64347815]
 [  0.2        -11.65199572]
 [  0.25666667  76.59463145]]","[[0.         1.02686065]
 [0.1        1.42523068]
 [0.2        0.36377374]
 [0.25666667 0.41836879]]",0,0.499
2,f,31,english,5,3,english,2024-02-07 14:23:06.611782,False,1,252,sounds\french\audio/french_885.wav,"[[  0.          33.82264354]
 [  0.1        -17.07734064]
 [  0.2        -15.93967404]
 [  0.25666667  58.67746901]]","[[0.         0.94046277]
 [0.1        0.79714646]
 [0.2        1.26873891]
 [0.25666667 1.69592015]]",0,0.618
2,f,31,english,5,3,english,2024-02-07 14:23:06.611782,False,1,253,sounds\french\audio/french_945.wav,"[[  0.         -68.75533602]
 [  0.1        -70.31736245]
 [  0.2         30.11750803]
 [  0.25666667 -35.89247017]]","[[0.         0.74886616]
 [0.1        1.09629777]
 [0.2        0.8052417 ]
 [0.25666667 0.22664311]]",1,0.693
2,f,31,english,5,3,english,2024-02-07 14:23:06.611782,False,1,254,sounds\french\audio/french_861.wav,"[[  0.         -47.60379447]
 [  0.1          8.05593032]
 [  0.2        -18.27545885]
 [  0.25666667  49.68481265]]","[[0.         1.17561317]
 [0.1        0.12143354]
 [0.2        0.42948795]
 [0.25666667 0.3832977 ]]",0,0.568
2,f,31,english,5,3,english,2024-02-07 14:23:06.611782,False,1,255,sounds\french\audio/french_227.wav,"[[  0.           0.51486219]
 [  0.1         -7.58300973]
 [  0.2         -1.58102923]
 [  0.25666667 -53.33162074]]","[[0.         1.24333394]
 [0.1        1.87169026]
 [0.2        1.73620524]
 [0.25666667 0.85172824]]",1,0.416
2,f,31,english,5,3,english,2024-02-07 14:23:06.611782,False,1,256,sounds\french\audio/french_315.wav,"[[ 0.00000000e+00  8.45751695e+01]
 [ 1.00000000e-01 -5.49339599e+01]
 [ 2.00000000e-01 -2.04659381e+01]
 [ 2.56666667e-01  4.97627412e-02]]","[[0.         1.39276289]
 [0.1        0.42909402]
 [0.2        1.80166787]
 [0.25666667 1.01422067]]",1,0.923
2,f,31,english,5,3,english,2024-02-07 14:23:06.611782,False,1,257,sounds\french\audio/french_598.wav,"[[  0.          21.68363658]
 [  0.1        -21.32750779]
 [  0.2          7.72514192]
 [  0.25666667 -29.17866519]]","[[0.         1.67467049]
 [0.1        0.64095668]
 [0.2        0.23575639]
 [0.25666667 0.51628457]]",1,1.024
2,f,31,english,5,3,english,2024-02-07 14:23:06.611782,False,1,258,sounds\french\audio/french_179.wav,"[[  0.         -38.66887761]
 [  0.1        -45.74367449]
 [  0.2         41.91599006]
 [  0.25666667  36.18860402]]","[[0.         0.36967864]
 [0.1        1.41588785]
 [0.2        1.38004937]
 [0.25666667 1.10239155]]",0,1.394
2,f,31,english,5,3,english,2024-02-07 14:23:06.611782,False,1,259,sounds\french\audio/french_266.wav,"[[  0.          58.27883453]
 [  0.1        -28.04411439]
 [  0.2        -38.46127027]
 [  0.25666667 -84.67234247]]","[[0.         0.79886668]
 [0.1        1.49488383]
 [0.2        0.15170522]
 [0.25666667 1.57053192]]",1,0.313
2,f,31,english,5,3,english,2024-02-07 14:23:06.611782,False,1,260,sounds\french\audio/french_420.wav,"[[  0.         -21.03631645]
 [  0.1         59.70125687]
 [  0.2         54.71539052]
 [  0.25666667  38.49486436]]","[[0.         1.00707818]
 [0.1        0.92270488]
 [0.2        1.69105963]
 [0.25666667 0.9671157 ]]",1,0.959
2,f,31,english,5,3,english,2024-02-07 14:23:06.611782,False,1,261,sounds\french\audio/french_589.wav,"[[  0.         -25.33744833]
 [  0.1        -46.00092507]
 [  0.2        -35.85501424]
 [  0.25666667  61.35269907]]","[[0.         1.20649344]
 [0.1        0.60898863]
 [0.2        0.34188975]
 [0.25666667 1.06172305]]",0,0.378
2,f,31,english,5,3,english,2024-02-07 14:23:06.611782,False,1,262,sounds\french\audio/french_351.wav,"[[  0.         -22.87012194]
 [  0.1         10.68995272]
 [  0.2         60.8101445 ]
 [  0.25666667  32.12752515]]","[[0.         0.67033139]
 [0.1        0.80045466]
 [0.2        0.88778875]
 [0.25666667 0.26390259]]",1,0.245
2,f,31,english,5,3,english,2024-02-07 14:23:06.611782,False,1,263,sounds\french\audio/french_607.wav,"[[  0.          86.31857573]
 [  0.1        -46.02697415]
 [  0.2         45.41214831]
 [  0.25666667  58.05056059]]","[[0.         1.61060215]
 [0.1        1.76940735]
 [0.2        0.70600977]
 [0.25666667 0.79164166]]",1,0.501
2,f,31,english,5,3,english,2024-02-07 14:23:06.611782,False,1,264,sounds\french\audio/french_268.wav,"[[  0.         -31.22986491]
 [  0.1         85.41130684]
 [  0.2         51.81326747]
 [  0.25666667  -9.66270327]]","[[0.         0.61965618]
 [0.1        0.43772331]
 [0.2        0.97717852]
 [0.25666667 0.83042374]]",0,0.256
2,f,31,english,5,3,english,2024-02-07 14:23:06.611782,False,1,265,sounds\french\audio/french_249.wav,"[[  0.         -14.62389142]
 [  0.1         82.35169727]
 [  0.2        -37.79288698]
 [  0.25666667 -94.5306765 ]]","[[0.         0.54824935]
 [0.1        0.81625332]
 [0.2        0.28914805]
 [0.25666667 0.43241605]]",0,0.726
2,f,31,english,5,3,english,2024-02-07 14:23:06.611782,False,1,266,sounds\french\audio/french_97.wav,"[[  0.         -26.25195718]
 [  0.1         46.36733761]
 [  0.2        -70.05850246]
 [  0.25666667 -12.16166803]]","[[0.         1.78322942]
 [0.1        0.61428926]
 [0.2        0.23760427]
 [0.25666667 0.84541126]]",1,0.439
2,f,31,english,5,3,english,2024-02-07 14:23:06.611782,False,1,267,sounds\french\audio/french_977.wav,"[[  0.         -23.34946859]
 [  0.1        -74.17160997]
 [  0.2         31.43852713]
 [  0.25666667 -10.29160018]]","[[0.         1.58788712]
 [0.1        0.25032328]
 [0.2        0.90752219]
 [0.25666667 1.52460946]]",0,1.097
2,f,31,english,5,3,english,2024-02-07 14:23:06.611782,False,1,268,sounds\french\audio/french_305.wav,"[[  0.         -54.69953739]
 [  0.1        -55.57420142]
 [  0.2         69.52625069]
 [  0.25666667 -71.2713804 ]]","[[0.         0.89911595]
 [0.1        0.95414013]
 [0.2        1.47998422]
 [0.25666667 1.78847242]]",1,0.211
2,f,31,english,5,3,english,2024-02-07 14:23:06.611782,False,1,269,sounds\french\audio/french_474.wav,"[[  0.          94.09836303]
 [  0.1         43.08248712]
 [  0.2        -98.14389097]
 [  0.25666667 -80.28643924]]","[[0.         0.01406103]
 [0.1        1.41739343]
 [0.2        1.7994516 ]
 [0.25666667 0.15166218]]",0,1.019
2,f,31,english,5,3,english,2024-02-07 14:23:06.611782,False,1,270,sounds\french\audio/french_979.wav,"[[  0.          58.05333973]
 [  0.1        -10.78982684]
 [  0.2         -1.76147191]
 [  0.25666667  35.54131035]]","[[0.         1.60321768]
 [0.1        0.5155038 ]
 [0.2        0.80270828]
 [0.25666667 0.30870089]]",1,0.283
2,f,31,english,5,3,english,2024-02-07 14:23:06.611782,False,1,271,sounds\french\audio/french_418.wav,"[[  0.          69.65568707]
 [  0.1        -73.62960571]
 [  0.2        -12.19608601]
 [  0.25666667  31.099867  ]]","[[0.         1.45647369]
 [0.1        0.96644453]
 [0.2        0.59086709]
 [0.25666667 1.25987346]]",1,1.548
2,f,31,english,5,3,english,2024-02-07 14:23:06.611782,False,1,272,sounds\french\audio/french_26.wav,"[[  0.         -38.52186107]
 [  0.1         92.94908957]
 [  0.2         38.63958599]
 [  0.25666667  81.76747676]]","[[0.         1.55913274]
 [0.1        0.73355846]
 [0.2        0.51766924]
 [0.25666667 0.7935304 ]]",1,0.267
2,f,31,english,5,3,english,2024-02-07 14:23:06.611782,False,1,273,sounds\french\audio/french_235.wav,"[[  0.         -56.36701875]
 [  0.1        -33.99236587]
 [  0.2          5.32608114]
 [  0.25666667 -55.46298983]]","[[0.         1.31563667]
 [0.1        1.74570455]
 [0.2        1.41652928]
 [0.25666667 0.87975081]]",1,0.417
2,f,31,english,5,3,english,2024-02-07 14:23:06.611782,False,1,274,sounds\french\audio/french_633.wav,"[[ 0.         86.81441283]
 [ 0.1        -4.21988764]
 [ 0.2        27.13702415]
 [ 0.25666667 25.74151368]]","[[0.         1.16860967]
 [0.1        0.88033016]
 [0.2        0.79008737]
 [0.25666667 1.16621919]]",1,0.679
2,f,31,english,5,3,english,2024-02-07 14:23:06.611782,False,1,275,sounds\french\audio/french_328.wav,"[[  0.         -82.86069205]
 [  0.1        -76.70984367]
 [  0.2        -82.63579977]
 [  0.25666667 -88.21582145]]","[[0.         0.98291516]
 [0.1        1.53428028]
 [0.2        1.97086095]
 [0.25666667 0.71580661]]",1,0.387
2,f,31,english,5,3,english,2024-02-07 14:23:06.611782,False,1,276,sounds\french\audio/french_525.wav,"[[  0.         -55.71805546]
 [  0.1         69.57832018]
 [  0.2        -61.51619627]
 [  0.25666667 -40.26288332]]","[[0.         1.48564319]
 [0.1        0.7646222 ]
 [0.2        1.98360061]
 [0.25666667 1.91122687]]",1,0.383
2,f,31,english,5,3,english,2024-02-07 14:23:06.611782,False,1,277,sounds\french\audio/french_101.wav,"[[  0.           2.45558497]
 [  0.1        -89.46857105]
 [  0.2         26.84471845]
 [  0.25666667 -40.2942876 ]]","[[0.         0.33272101]
 [0.1        1.30167387]
 [0.2        0.45771198]
 [0.25666667 1.30875705]]",0,0.721
2,f,31,english,5,3,english,2024-02-07 14:23:06.611782,False,1,278,sounds\french\audio/french_869.wav,"[[  0.         -95.34423084]
 [  0.1         11.03315758]
 [  0.2          2.57990287]
 [  0.25666667  46.09103516]]","[[0.         1.39498671]
 [0.1        1.3153684 ]
 [0.2        1.42717997]
 [0.25666667 1.20642508]]",1,0.611
2,f,31,english,5,3,english,2024-02-07 14:23:06.611782,False,1,279,sounds\french\audio/french_982.wav,"[[  0.         -37.50079515]
 [  0.1        -23.37923681]
 [  0.2        -55.8234839 ]
 [  0.25666667 -58.92111767]]","[[0.         0.32253899]
 [0.1        1.88868261]
 [0.2        0.59835015]
 [0.25666667 1.21615752]]",1,0.76
2,f,31,english,5,3,english,2024-02-07 14:23:06.611782,False,1,280,sounds\french\audio/french_497.wav,"[[  0.         -34.77858655]
 [  0.1        -52.52188589]
 [  0.2         81.6415951 ]
 [  0.25666667  23.98828418]]","[[0.         0.98641894]
 [0.1        1.48106735]
 [0.2        1.37619597]
 [0.25666667 1.87248846]]",1,1.317
2,f,31,english,5,3,english,2024-02-07 14:23:06.611782,False,1,281,sounds\french\audio/french_691.wav,"[[  0.          89.02514599]
 [  0.1         84.72414094]
 [  0.2         -3.6265137 ]
 [  0.25666667 -99.35319265]]","[[0.         1.04651451]
 [0.1        1.61938954]
 [0.2        1.34588415]
 [0.25666667 1.50620009]]",1,1.897
2,f,31,english,5,3,english,2024-02-07 14:23:06.611782,False,1,282,sounds\french\audio/french_360.wav,"[[ 0.00000000e+00 -2.35073025e-03]
 [ 1.00000000e-01  7.51310722e+01]
 [ 2.00000000e-01 -5.59073348e+01]
 [ 2.56666667e-01 -5.96885988e+01]]","[[0.         1.59141319]
 [0.1        0.32502124]
 [0.2        0.48861064]
 [0.25666667 0.13551716]]",0,0.31
2,f,31,english,5,3,english,2024-02-07 14:23:06.611782,False,1,283,sounds\french\audio/french_731.wav,"[[  0.          52.82888701]
 [  0.1         44.66747194]
 [  0.2         83.54065351]
 [  0.25666667 -50.41579204]]","[[0.         1.42077684]
 [0.1        0.2996776 ]
 [0.2        1.21708869]
 [0.25666667 1.31490505]]",0,0.896
2,f,31,english,5,3,english,2024-02-07 14:23:06.611782,False,1,284,sounds\french\audio/french_261.wav,"[[  0.         -67.20699789]
 [  0.1         49.58913881]
 [  0.2        -41.06882289]
 [  0.25666667  25.85265167]]","[[0.         0.47660487]
 [0.1        0.48219997]
 [0.2        1.35396927]
 [0.25666667 1.38442255]]",1,0.912
2,f,31,english,5,3,english,2024-02-07 14:23:06.611782,False,1,285,sounds\french\audio/french_966.wav,"[[  0.          94.80811126]
 [  0.1        -90.73743651]
 [  0.2         94.60686235]
 [  0.25666667 -83.76406221]]","[[0.         1.26057873]
 [0.1        1.58996588]
 [0.2        0.08752829]
 [0.25666667 0.32239013]]",0,0.358
2,f,31,english,5,3,english,2024-02-07 14:23:06.611782,False,1,286,sounds\french\audio/french_802.wav,"[[  0.         -73.24347689]
 [  0.1         14.85977478]
 [  0.2        -45.72901481]
 [  0.25666667 -78.69015161]]","[[0.         0.39190156]
 [0.1        1.18064228]
 [0.2        1.4654249 ]
 [0.25666667 0.6030906 ]]",1,0.192
2,f,31,english,5,3,english,2024-02-07 14:23:06.611782,False,1,287,sounds\french\audio/french_119.wav,"[[  0.           9.8100641 ]
 [  0.1         19.57169954]
 [  0.2         -1.41265712]
 [  0.25666667 -78.33165967]]","[[0.         0.76259974]
 [0.1        1.49190063]
 [0.2        0.43709034]
 [0.25666667 1.93463996]]",0,0.417
2,f,31,english,5,3,english,2024-02-07 14:23:06.611782,False,1,288,sounds\french\audio/french_91.wav,"[[  0.          22.16772641]
 [  0.1          4.75787086]
 [  0.2         16.21543539]
 [  0.25666667 -31.35162056]]","[[0.         0.07376739]
 [0.1        1.79269703]
 [0.2        1.59138707]
 [0.25666667 1.67096256]]",0,0.306
2,f,31,english,5,3,english,2024-02-07 14:23:06.611782,False,1,289,sounds\french\audio/french_524.wav,"[[  0.          29.26114001]
 [  0.1         51.10918927]
 [  0.2        -43.7486939 ]
 [  0.25666667 -29.29338592]]","[[0.         1.50805134]
 [0.1        1.00551207]
 [0.2        1.81734516]
 [0.25666667 0.93830148]]",0,2.045
2,f,31,english,5,3,english,2024-02-07 14:23:06.611782,False,1,290,sounds\french\audio/french_898.wav,"[[  0.         -10.33405821]
 [  0.1         56.62547765]
 [  0.2         26.06756425]
 [  0.25666667  61.22858123]]","[[0.         1.53220968]
 [0.1        1.11219982]
 [0.2        1.10520568]
 [0.25666667 0.66903516]]",1,1.314
2,f,31,english,5,3,english,2024-02-07 14:23:06.611782,False,1,291,sounds\french\audio/french_611.wav,"[[  0.         -21.77805362]
 [  0.1        -45.2722057 ]
 [  0.2         67.02777506]
 [  0.25666667 -75.35716628]]","[[0.         0.549449  ]
 [0.1        0.20224538]
 [0.2        1.0051208 ]
 [0.25666667 1.31223223]]",0,0.385
2,f,31,english,5,3,english,2024-02-07 14:23:06.611782,False,1,292,sounds\french\audio/french_92.wav,"[[  0.          59.20081487]
 [  0.1         95.6548793 ]
 [  0.2        -36.19224385]
 [  0.25666667  68.24894855]]","[[0.         1.21926368]
 [0.1        1.56053314]
 [0.2        1.38632022]
 [0.25666667 1.29084252]]",1,0.237
2,f,31,english,5,3,english,2024-02-07 14:23:06.611782,False,1,293,sounds\french\audio/french_708.wav,"[[  0.          77.88438146]
 [  0.1        -89.66132416]
 [  0.2         66.08375885]
 [  0.25666667 -39.93161414]]","[[0.         0.30850898]
 [0.1        1.49064351]
 [0.2        1.28629193]
 [0.25666667 1.01533724]]",0,1.623
2,f,31,english,5,3,english,2024-02-07 14:23:06.611782,False,1,294,sounds\french\audio/french_133.wav,"[[  0.         -94.78194954]
 [  0.1          8.44061072]
 [  0.2         55.81768563]
 [  0.25666667  73.94294787]]","[[0.         1.29113753]
 [0.1        0.84384968]
 [0.2        1.85990436]
 [0.25666667 1.64621091]]",0,0.468
2,f,31,english,5,3,english,2024-02-07 14:23:06.611782,False,1,295,sounds\french\audio/french_925.wav,"[[  0.         -30.51780923]
 [  0.1         35.11933452]
 [  0.2        -97.7648117 ]
 [  0.25666667 -62.39495561]]","[[0.         1.09841649]
 [0.1        0.05099013]
 [0.2        1.83429048]
 [0.25666667 1.66107303]]",0,0.266
2,f,31,english,5,3,english,2024-02-07 14:23:06.611782,False,1,296,sounds\french\audio/french_382.wav,"[[  0.         -28.76508335]
 [  0.1         37.36249056]
 [  0.2         12.02014155]
 [  0.25666667 -78.65251684]]","[[0.         1.75225743]
 [0.1        1.09069334]
 [0.2        1.36067751]
 [0.25666667 0.9131152 ]]",0,0.57
2,f,31,english,5,3,english,2024-02-07 14:23:06.611782,False,1,297,sounds\french\audio/french_885.wav,"[[  0.          33.82264354]
 [  0.1        -17.07734064]
 [  0.2        -15.93967404]
 [  0.25666667  58.67746901]]","[[0.         0.94046277]
 [0.1        0.79714646]
 [0.2        1.26873891]
 [0.25666667 1.69592015]]",0,0.276
2,f,31,english,5,3,english,2024-02-07 14:23:06.611782,False,1,298,sounds\french\audio/french_511.wav,"[[  0.         -19.9871771 ]
 [  0.1        -61.98813266]
 [  0.2        -51.99144191]
 [  0.25666667  26.5419494 ]]","[[0.         1.33271467]
 [0.1        1.54343533]
 [0.2        1.11888865]
 [0.25666667 1.56196296]]",1,0.15
2,f,31,english,5,3,english,2024-02-07 14:23:06.611782,False,1,299,sounds\french\audio/french_341.wav,"[[  0.          20.04332725]
 [  0.1        -82.29685822]
 [  0.2        -35.12302466]
 [  0.25666667  58.90486556]]","[[0.         1.4438644 ]
 [0.1        0.08336385]
 [0.2        0.04329086]
 [0.25666667 0.76896482]]",0,0.433
2,f,31,english,5,3,english,2024-02-07 14:23:06.611782,False,1,300,sounds\french\audio/french_269.wav,"[[  0.          34.85044548]
 [  0.1         47.51511781]
 [  0.2         34.15302515]
 [  0.25666667 -55.0259295 ]]","[[0.00000000e+00 6.17924031e-04]
 [1.00000000e-01 1.05540646e+00]
 [2.00000000e-01 9.84234213e-01]
 [2.56666667e-01 8.45106618e-01]]",0,0.548
2,f,31,english,5,3,english,2024-02-07 14:23:06.611782,False,1,301,sounds\french\audio/french_391.wav,"[[  0.         -76.68975493]
 [  0.1        -61.92507962]
 [  0.2        -59.03609545]
 [  0.25666667  88.69049446]]","[[0.         1.01472424]
 [0.1        1.84772624]
 [0.2        1.36374408]
 [0.25666667 1.21538153]]",1,0.342
2,f,31,english,5,3,english,2024-02-07 14:23:06.611782,False,1,302,sounds\french\audio/french_164.wav,"[[  0.         -18.17175111]
 [  0.1         76.91542059]
 [  0.2        -44.02896165]
 [  0.25666667 -52.20678857]]","[[0.         1.54231832]
 [0.1        0.85273823]
 [0.2        1.08595521]
