subj,sex,age,language,english,french,native_lang,date,practice,block,trial,stim,pitch,stretch,response,rt
8768944929,m,21,english,5,4,english,2024-01-25 10:40:13.581798,False,2,253,sounds\french\audio/french_467.wav,"[[  0.          26.36588123]
 [  0.1        -91.62831039]
 [  0.2         14.27679522]
 [  0.25666667 -77.75485007]]","[[0.         0.49078583]
 [0.1        1.37574102]
 [0.2        0.10009029]
 [0.25666667 1.32516535]]",0,0.804
8768944929,m,21,english,5,4,english,2024-01-25 10:40:13.581798,False,2,254,sounds\french\audio/french_535.wav,"[[  0.         -81.47221285]
 [  0.1         42.68543716]
 [  0.2        -73.81682794]
 [  0.25666667 -85.27887702]]","[[0.         1.61446576]
 [0.1        1.13976105]
 [0.2        0.22032829]
 [0.25666667 0.61620659]]",0,0.43
8768944929,m,21,english,5,4,english,2024-01-25 10:40:13.581798,False,2,255,sounds\french\audio/french_986.wav,"[[  0.         -69.96795985]
 [  0.1        -65.30377544]
 [  0.2         27.38987225]
 [  0.25666667 -55.80740264]]","[[0.         1.93285955]
 [0.1        1.55838575]
 [0.2        0.12645153]
 [0.25666667 0.78072242]]",0,0.445
8768944929,m,21,english,5,4,english,2024-01-25 10:40:13.581798,False,2,256,sounds\french\audio/french_779.wav,"[[  0.         -23.73686582]
 [  0.1         96.23962081]
 [  0.2         19.26430851]
 [  0.25666667 -72.92378626]]","[[0.         0.65858767]
 [0.1        1.55580865]
 [0.2        1.22244229]
 [0.25666667 1.83333034]]",1,0.881
8768944929,m,21,english,5,4,english,2024-01-25 10:40:13.581798,False,2,257,sounds\french\audio/french_760.wav,"[[  0.         -33.74521786]
 [  0.1         38.89159258]
 [  0.2         64.82772984]
 [  0.25666667  15.52705732]]","[[0.         1.08104013]
 [0.1        0.90085836]
 [0.2        0.36080554]
 [0.25666667 0.08393315]]",0,1.455
8768944929,m,21,english,5,4,english,2024-01-25 10:40:13.581798,False,2,258,sounds\french\audio/french_141.wav,"[[ 0.         88.60100695]
 [ 0.1        68.96819773]
 [ 0.2         1.7368606 ]
 [ 0.25666667 19.36556264]]","[[0.         0.97838459]
 [0.1        1.47503319]
 [0.2        1.40537453]
 [0.25666667 0.305772  ]]",0,0.72
8768944929,m,21,english,5,4,english,2024-01-25 10:40:13.581798,False,2,259,sounds\french\audio/french_189.wav,"[[ 0.         25.45363348]
 [ 0.1        10.19219643]
 [ 0.2        79.32306783]
 [ 0.25666667 77.27494318]]","[[0.         0.70243048]
 [0.1        0.78977161]
 [0.2        0.18017453]
 [0.25666667 0.76350619]]",0,0.386
8768944929,m,21,english,5,4,english,2024-01-25 10:40:13.581798,False,2,260,sounds\french\audio/french_988.wav,"[[  0.          -4.11470775]
 [  0.1        -66.00013865]
 [  0.2         59.59027652]
 [  0.25666667   0.47429662]]","[[0.         0.28957615]
 [0.1        0.7977557 ]
 [0.2        1.24206297]
 [0.25666667 1.11640868]]",0,0.95
8768944929,m,21,english,5,4,english,2024-01-25 10:40:13.581798,False,2,261,sounds\french\audio/french_349.wav,"[[  0.          73.89254537]
 [  0.1        -84.33493486]
 [  0.2         -3.2709249 ]
 [  0.25666667 -21.54511299]]","[[0.         0.17403551]
 [0.1        1.66487719]
 [0.2        1.53740634]
 [0.25666667 1.56834066]]",1,1.288
8768944929,m,21,english,5,4,english,2024-01-25 10:40:13.581798,False,2,262,sounds\french\audio/french_549.wav,"[[  0.          40.06296083]
 [  0.1        -25.7595798 ]
 [  0.2         45.79306888]
 [  0.25666667  27.44668145]]","[[0.         1.11554245]
 [0.1        1.21579497]
 [0.2        1.32867101]
 [0.25666667 0.7142841 ]]",0,0.77
8768944929,m,21,english,5,4,english,2024-01-25 10:40:13.581798,False,2,263,sounds\french\audio/french_802.wav,"[[  0.         -73.24347689]
 [  0.1         14.85977478]
 [  0.2        -45.72901481]
 [  0.25666667 -78.69015161]]","[[0.         0.39190156]
 [0.1        1.18064228]
 [0.2        1.4654249 ]
 [0.25666667 0.6030906 ]]",0,0.362
8768944929,m,21,english,5,4,english,2024-01-25 10:40:13.581798,False,2,264,sounds\french\audio/french_126.wav,"[[  0.          92.90369484]
 [  0.1         25.09820179]
 [  0.2         92.10026461]
 [  0.25666667 -27.205087  ]]","[[0.         0.56379558]
 [0.1        1.73295328]
 [0.2        0.28067586]
 [0.25666667 0.82028398]]",0,0.49
8768944929,m,21,english,5,4,english,2024-01-25 10:40:13.581798,False,2,265,sounds\french\audio/french_225.wav,"[[  0.          29.07754255]
 [  0.1         99.63110947]
 [  0.2        -11.85966914]
 [  0.25666667 -24.94738594]]","[[0.         1.10473325]
 [0.1        0.86614983]
 [0.2        1.10071   ]
 [0.25666667 1.32437332]]",0,0.851
8768944929,m,21,english,5,4,english,2024-01-25 10:40:13.581798,False,2,266,sounds\french\audio/french_303.wav,"[[  0.         -37.35678584]
 [  0.1        -60.74389767]
 [  0.2         74.2341812 ]
 [  0.25666667  74.10759125]]","[[0.         1.71041427]
 [0.1        0.8709471 ]
 [0.2        1.02400634]
 [0.25666667 0.07072526]]",1,0.889
8768944929,m,21,english,5,4,english,2024-01-25 10:40:13.581798,False,2,267,sounds\french\audio/french_910.wav,"[[  0.         -48.65293901]
 [  0.1         -4.89021115]
 [  0.2        -57.2651588 ]
 [  0.25666667 -57.53771148]]","[[0.         0.34246772]
 [0.1        1.03510625]
 [0.2        1.59317518]
 [0.25666667 0.91667414]]",0,0.95
8768944929,m,21,english,5,4,english,2024-01-25 10:40:13.581798,False,2,268,sounds\french\audio/french_866.wav,"[[  0.         -60.69074585]
 [  0.1        -41.67968152]
 [  0.2         -8.99838874]
 [  0.25666667  40.83736488]]","[[0.         1.64484001]
 [0.1        0.19415831]
 [0.2        1.20864699]
 [0.25666667 0.81730442]]",1,2.223
8768944929,m,21,english,5,4,english,2024-01-25 10:40:13.581798,False,2,269,sounds\french\audio/french_745.wav,"[[  0.         -23.86566831]
 [  0.1        -33.24912316]
 [  0.2         45.69666298]
 [  0.25666667 -83.60192647]]","[[0.         1.27696082]
 [0.1        1.44075169]
 [0.2        0.50413087]
 [0.25666667 0.37289443]]",0,0.974
8768944929,m,21,english,5,4,english,2024-01-25 10:40:13.581798,False,2,270,sounds\french\audio/french_682.wav,"[[  0.         -16.33102186]
 [  0.1        -49.72009429]
 [  0.2        -23.39596266]
 [  0.25666667 -34.72439006]]","[[0.         0.79850708]
 [0.1        1.31273679]
 [0.2        1.51298147]
 [0.25666667 0.92861139]]",0,1.832
8768944929,m,21,english,5,4,english,2024-01-25 10:40:13.581798,False,2,271,sounds\french\audio/french_812.wav,"[[  0.          78.53201718]
 [  0.1         87.32508034]
 [  0.2         77.15455549]
 [  0.25666667 -51.33102937]]","[[0.         1.73310634]
 [0.1        1.73147281]
 [0.2        1.58178344]
 [0.25666667 0.27993183]]",0,1.254
8768944929,m,21,english,5,4,english,2024-01-25 10:40:13.581798,False,2,272,sounds\french\audio/french_894.wav,"[[  0.          34.15690998]
 [  0.1         66.60232679]
 [  0.2         79.95982278]
 [  0.25666667 -20.39269858]]","[[0.         0.96571794]
 [0.1        0.73360337]
 [0.2        1.43440198]
 [0.25666667 0.64269279]]",0,1.074
8768944929,m,21,english,5,4,english,2024-01-25 10:40:13.581798,False,2,273,sounds\french\audio/french_91.wav,"[[  0.          22.16772641]
 [  0.1          4.75787086]
 [  0.2         16.21543539]
 [  0.25666667 -31.35162056]]","[[0.         0.07376739]
 [0.1        1.79269703]
 [0.2        1.59138707]
 [0.25666667 1.67096256]]",0,1.342
8768944929,m,21,english,5,4,english,2024-01-25 10:40:13.581798,False,2,274,sounds\french\audio/french_944.wav,"[[  0.          -8.30121602]
 [  0.1         15.19990023]
 [  0.2        -34.54061483]
 [  0.25666667 -24.04483863]]","[[0.         1.41077405]
 [0.1        0.52690475]
 [0.2        0.23733031]
 [0.25666667 1.49354387]]",1,0.703
8768944929,m,21,english,5,4,english,2024-01-25 10:40:13.581798,False,2,275,sounds\french\audio/french_423.wav,"[[  0.          80.03290271]
 [  0.1        -33.72349736]
 [  0.2        -38.14858153]
 [  0.25666667 -48.66398852]]","[[0.         0.31618382]
 [0.1        0.81153422]
 [0.2        0.21197718]
 [0.25666667 0.41633142]]",1,0.576
8768944929,m,21,english,5,4,english,2024-01-25 10:40:13.581798,False,2,276,sounds\french\audio/french_370.wav,"[[  0.         -31.30279389]
 [  0.1         96.47349065]
 [  0.2         23.18843017]
 [  0.25666667  81.62933181]]","[[0.         1.88170435]
 [0.1        0.75067332]
 [0.2        1.06279648]
 [0.25666667 0.58974769]]",1,1.261
8768944929,m,21,english,5,4,english,2024-01-25 10:40:13.581798,False,2,277,sounds\french\audio/french_579.wav,"[[  0.          43.6749768 ]
 [  0.1         44.80331973]
 [  0.2         80.34685553]
 [  0.25666667 -77.70594339]]","[[0.         0.88309836]
 [0.1        0.15383342]
 [0.2        0.11279804]
 [0.25666667 1.88524282]]",1,0.912
8768944929,m,21,english,5,4,english,2024-01-25 10:40:13.581798,False,2,278,sounds\french\audio/french_430.wav,"[[  0.         -57.26862172]
 [  0.1         63.88036448]
 [  0.2        -87.83585054]
 [  0.25666667 -58.79211397]]","[[0.         0.12656802]
 [0.1        1.52184386]
 [0.2        1.10266765]
 [0.25666667 1.86011067]]",0,0.642
8768944929,m,21,english,5,4,english,2024-01-25 10:40:13.581798,False,2,279,sounds\french\audio/french_285.wav,"[[  0.         -14.06099989]
 [  0.1         -5.26283055]
 [  0.2         18.02137941]
 [  0.25666667  46.27962364]]","[[0.         0.21649577]
 [0.1        0.66520183]
 [0.2        0.4490454 ]
 [0.25666667 1.92778075]]",0,0.712
8768944929,m,21,english,5,4,english,2024-01-25 10:40:13.581798,False,2,280,sounds\french\audio/french_519.wav,"[[  0.          86.76456043]
 [  0.1          8.46145491]
 [  0.2        -48.6822419 ]
 [  0.25666667 -44.03350662]]","[[0.         1.09635868]
 [0.1        1.19136691]
 [0.2        1.7889624 ]
 [0.25666667 1.1754675 ]]",0,0.408
8768944929,m,21,english,5,4,english,2024-01-25 10:40:13.581798,False,2,281,sounds\french\audio/french_171.wav,"[[ 0.         13.3023016 ]
 [ 0.1        25.29505215]
 [ 0.2        -4.58061697]
 [ 0.25666667 34.76288366]]","[[0.         1.00497926]
 [0.1        0.58011724]
 [0.2        1.99843941]
 [0.25666667 1.29013512]]",0,1.162
8768944929,m,21,english,5,4,english,2024-01-25 10:40:13.581798,False,2,282,sounds\french\audio/french_144.wav,"[[  0.          54.7439873 ]
 [  0.1        -90.40840953]
 [  0.2        -23.8496949 ]
 [  0.25666667   9.69074846]]","[[0.         1.65699933]
 [0.1        0.10946834]
 [0.2        0.63660565]
 [0.25666667 0.31092992]]",1,1.985
8768944929,m,21,english,5,4,english,2024-01-25 10:40:13.581798,False,2,283,sounds\french\audio/french_647.wav,"[[  0.         -41.18361869]
 [  0.1         11.48241437]
 [  0.2         60.38354651]
 [  0.25666667  15.78737628]]","[[0.         1.9224231 ]
 [0.1        1.96851625]
 [0.2        1.74064919]
 [0.25666667 1.76296374]]",0,0.388
8768944929,m,21,english,5,4,english,2024-01-25 10:40:13.581798,False,2,284,sounds\french\audio/french_675.wav,"[[  0.         -70.79994344]
 [  0.1         -7.59389362]
 [  0.2         -3.58790265]
 [  0.25666667 -30.70883091]]","[[0.         1.47729798]
 [0.1        0.30115563]
 [0.2        1.39440132]
 [0.25666667 1.61039035]]",0,0.545
8768944929,m,21,english,5,4,english,2024-01-25 10:40:13.581798,False,2,285,sounds\french\audio/french_791.wav,"[[  0.         -81.64215326]
 [  0.1         84.74526907]
 [  0.2        -10.10354349]
 [  0.25666667 -10.14583619]]","[[0.         0.09493453]
 [0.1        0.0053506 ]
 [0.2        1.61132934]
 [0.25666667 1.39802197]]",1,1.119
8768944929,m,21,english,5,4,english,2024-01-25 10:40:13.581798,False,2,286,sounds\french\audio/french_651.wav,"[[  0.         -39.76270633]
 [  0.1         98.43983978]
 [  0.2        -35.93188367]
 [  0.25666667 -13.56550518]]","[[0.         0.57054307]
 [0.1        0.47887101]
 [0.2        1.36476361]
 [0.25666667 1.70592369]]",1,2.059
8768944929,m,21,english,5,4,english,2024-01-25 10:40:13.581798,False,2,287,sounds\french\audio/french_271.wav,"[[  0.         -86.49285917]
 [  0.1         54.15727338]
 [  0.2        -55.0986676 ]
 [  0.25666667   7.9559813 ]]","[[0.         1.06522616]
 [0.1        1.2372135 ]
 [0.2        1.00925168]
 [0.25666667 0.76785851]]",0,6.184
8768944929,m,21,english,5,4,english,2024-01-25 10:40:13.581798,False,2,288,sounds\french\audio/french_901.wav,"[[  0.         -25.19173586]
 [  0.1        -52.79367362]
 [  0.2         31.61264675]
 [  0.25666667  -8.05782551]]","[[0.         1.14646858]
 [0.1        1.72960478]
 [0.2        1.50121635]
 [0.25666667 0.87544333]]",0,0.421
8768944929,m,21,english,5,4,english,2024-01-25 10:40:13.581798,False,2,289,sounds\french\audio/french_727.wav,"[[  0.         -15.29396541]
 [  0.1        -26.29552155]
 [  0.2         79.97121571]
 [  0.25666667  55.89998316]]","[[0.         0.40840987]
 [0.1        0.3000398 ]
 [0.2        1.00640838]
 [0.25666667 1.06507384]]",0,1.091
8768944929,m,21,english,5,4,english,2024-01-25 10:40:13.581798,False,2,290,sounds\french\audio/french_183.wav,"[[  0.         -70.39448934]
 [  0.1         53.65669982]
 [  0.2         -2.56135136]
 [  0.25666667  49.12124255]]","[[0.         1.64690622]
 [0.1        0.19500459]
 [0.2        1.70333754]
 [0.25666667 0.71175446]]",0,1.563
8768944929,m,21,english,5,4,english,2024-01-25 10:40:13.581798,False,2,291,sounds\french\audio/french_814.wav,"[[  0.          83.0056253 ]
 [  0.1        -71.4586846 ]
 [  0.2         12.63844789]
 [  0.25666667  12.39326704]]","[[0.         1.4499936 ]
 [0.1        0.77595229]
 [0.2        0.21302651]
 [0.25666667 0.16177964]]",1,0.695
8768944929,m,21,english,5,4,english,2024-01-25 10:40:13.581798,False,2,292,sounds\french\audio/french_538.wav,"[[  0.         -62.11881418]
 [  0.1        -49.1326041 ]
 [  0.2         11.48721962]
 [  0.25666667 -26.18142206]]","[[0.         0.72316351]
 [0.1        0.52652182]
 [0.2        0.30218135]
 [0.25666667 1.69243497]]",1,0.525
8768944929,m,21,english,5,4,english,2024-01-25 10:40:13.581798,False,2,293,sounds\french\audio/french_458.wav,"[[  0.          13.7688173 ]
 [  0.1         19.53863665]
 [  0.2        -90.92797006]
 [  0.25666667  55.23452131]]","[[0.         1.1950835 ]
 [0.1        0.33129566]
 [0.2        0.65773392]
 [0.25666667 1.54778139]]",1,0.276
8768944929,m,21,english,5,4,english,2024-01-25 10:40:13.581798,False,2,294,sounds\french\audio/french_612.wav,"[[  0.          43.10783066]
 [  0.1         -4.14995098]
 [  0.2         22.17563662]
 [  0.25666667 -48.75850842]]","[[0.         0.49686358]
 [0.1        1.10500502]
 [0.2        0.22222502]
 [0.25666667 1.14111641]]",1,0.394
8768944929,m,21,english,5,4,english,2024-01-25 10:40:13.581798,False,2,295,sounds\french\audio/french_511.wav,"[[  0.         -19.9871771 ]
 [  0.1        -61.98813266]
 [  0.2        -51.99144191]
 [  0.25666667  26.5419494 ]]","[[0.         1.33271467]
 [0.1        1.54343533]
 [0.2        1.11888865]
 [0.25666667 1.56196296]]",1,0.604
8768944929,m,21,english,5,4,english,2024-01-25 10:40:13.581798,False,2,296,sounds\french\audio/french_45.wav,"[[  0.           6.51510613]
 [  0.1        -86.25018513]
 [  0.2        -60.46903131]
 [  0.25666667 -48.31089161]]","[[0.         0.83763225]
 [0.1        1.19709151]
 [0.2        0.87484565]
 [0.25666667 0.45414185]]",1,0.419
8768944929,m,21,english,5,4,english,2024-01-25 10:40:13.581798,False,2,297,sounds\french\audio/french_112.wav,"[[  0.         -70.30580716]
 [  0.1         33.64373442]
 [  0.2         26.55830463]
 [  0.25666667  46.16769785]]","[[0.         0.18088618]
 [0.1        1.43869791]
 [0.2        0.89230346]
 [0.25666667 0.14009493]]",1,0.863
8768944929,m,21,english,5,4,english,2024-01-25 10:40:13.581798,False,2,298,sounds\french\audio/french_249.wav,"[[  0.         -14.62389142]
 [  0.1         82.35169727]
 [  0.2        -37.79288698]
 [  0.25666667 -94.5306765 ]]","[[0.         0.54824935]
 [0.1        0.81625332]
 [0.2        0.28914805]
 [0.25666667 0.43241605]]",1,0.508
8768944929,m,21,english,5,4,english,2024-01-25 10:40:13.581798,False,2,299,sounds\french\audio/french_792.wav,"[[  0.         -30.95032355]
 [  0.1         73.05460755]
 [  0.2         -0.6809714 ]
 [  0.25666667  25.15150688]]","[[0.         0.5884638 ]
 [0.1        1.61732216]
 [0.2        1.33614238]
 [0.25666667 0.65397567]]",0,0.554
8768944929,m,21,english,5,4,english,2024-01-25 10:40:13.581798,False,2,300,sounds\french\audio/french_400.wav,"[[  0.         -93.78872851]
 [  0.1         52.09991665]
 [  0.2         99.5217597 ]
 [  0.25666667  34.2913143 ]]","[[0.         1.79390568]
 [0.1        0.45516445]
 [0.2        0.71943881]
 [0.25666667 0.66600511]]",0,0.807
8768944929,m,21,english,5,4,english,2024-01-25 10:40:13.581798,False,2,301,sounds\french\audio/french_349.wav,"[[  0.          73.89254537]
 [  0.1        -84.33493486]
 [  0.2         -3.2709249 ]
 [  0.25666667 -21.54511299]]","[[0.         0.17403551]
 [0.1        1.66487719]
 [0.2        1.53740634]
 [0.25666667 1.56834066]]",0,0.728
8768944929,m,21,english,5,4,english,2024-01-25 10:40:13.581798,False,2,302,sounds\french\audio/french_870.wav,"[[ 0.         93.84124937]
 [ 0.1        28.95893835]
 [ 0.2        47.67512023]
 [ 0.25666667 -4.48390189]]","[[0.         1.21813626]
 [0.1        0.388995  ]
 [0.2        1.25544279]
 [0.25666667 0.09184868]]",0,1.456
8768944929,m,21,english,5,4,english,2024-01-25 10:40:13.581798,False,2,303,sounds\french\audio/french_463.wav,"[[  0.         -19.30652055]
 [  0.1         40.7979064 ]
 [  0.2         73.8964325 ]
 [  0.25666667 -55.7146218 ]]","[[0.         0.66062429]
 [0.1        1.38698103]
 [0.2        0.77621561]
 [0.25666667 0.65457598]]",0,0.595
8768944929,m,21,english,5,4,english,2024-01-25 10:40:13.581798,False,2,304,sounds\french\audio/french_27.wav,"[[  0.         -24.90567196]
 [  0.1        -76.22865867]
 [  0.2        -70.77946922]
 [  0.25666667 -40.13018173]]","[[0.         0.77746957]
 [0.1        0.36572894]
 [0.2        1.07248112]
 [0.25666667 1.35477464]]",1,0.518
8768944929,m,21,english,5,4,english,2024-01-25 10:40:13.581798,False,2,305,sounds\french\audio/french_627.wav,"[[  0.           2.1799823 ]
 [  0.1         30.63833179]
 [  0.2         99.93583097]
 [  0.25666667 -23.95585557]]","[[0.         1.97167661]
 [0.1        1.14790719]
 [0.2        1.70510721]
 [0.25666667 1.67415678]]",0,0.296
8768944929,m,21,english,5,4,english,2024-01-25 10:40:13.581798,False,2,306,sounds\french\audio/french_586.wav,"[[ 0.         86.96734506]
 [ 0.1        -8.603444  ]
 [ 0.2        11.78169212]
 [ 0.25666667 14.18547806]]","[[0.         0.62271677]
 [0.1        1.69916535]
 [0.2        1.65961944]
 [0.25666667 1.90120182]]",1,0.724
8768944929,m,21,english,5,4,english,2024-01-25 10:40:13.581798,False,2,307,sounds\french\audio/french_152.wav,"[[  0.          -3.84179402]
 [  0.1         56.28738818]
 [  0.2        -25.33799013]
 [  0.25666667 -10.23447911]]","[[0.         0.21245747]
 [0.1        1.74384484]
 [0.2        1.40208126]
 [0.25666667 0.94312755]]",0,1.499
8768944929,m,21,english,5,4,english,2024-01-25 10:40:13.581798,False,2,308,sounds\french\audio/french_221.wav,"[[  0.         -51.4093514 ]
 [  0.1        -69.26159538]
 [  0.2        -72.79183118]
 [  0.25666667  34.31828887]]","[[0.         1.39236456]
 [0.1        1.1318895 ]
 [0.2        0.94601275]
 [0.25666667 1.80964418]]",1,0.72
8768944929,m,21,english,5,4,english,2024-01-25 10:40:13.581798,False,2,309,sounds\french\audio/french_680.wav,"[[  0.         -51.31535201]
 [  0.1        -31.64171723]
 [  0.2         81.67923452]
 [  0.25666667  54.52860803]]","[[0.         1.24719536]
 [0.1        1.74184859]
 [0.2        0.78878625]
 [0.25666667 1.82878415]]",0,0.662
8768944929,m,21,english,5,4,english,2024-01-25 10:40:13.581798,False,2,310,sounds\french\audio/french_93.wav,"[[  0.          23.57211404]
 [  0.1        -16.15934767]
 [  0.2         25.54711871]
 [  0.25666667  65.09284613]]","[[0.         0.62732128]
 [0.1        0.10811818]
 [0.2        0.30787392]
 [0.25666667 1.57978374]]",1,0.958
8768944929,m,21,english,5,4,english,2024-01-25 10:40:13.581798,False,2,311,sounds\french\audio/french_971.wav,"[[  0.          96.00351489]
 [  0.1        -55.9328558 ]
 [  0.2        -62.43027521]
 [  0.25666667  67.10785382]]","[[0.         1.9961872 ]
 [0.1        0.96234699]
 [0.2        1.29823686]
 [0.25666667 1.44437919]]",0,0.335
8768944929,m,21,english,5,4,english,2024-01-25 10:40:13.581798,False,2,312,sounds\french\audio/french_438.wav,"[[  0.          38.28600595]
 [  0.1         -2.73615403]
 [  0.2        -43.32822043]
 [  0.25666667 -21.43836029]]","[[0.         0.24947118]
 [0.1        0.88566368]
 [0.2        0.23078024]
 [0.25666667 1.64360752]]",0,1.607
8768944929,m,21,english,5,4,english,2024-01-25 10:40:13.581798,False,2,313,sounds\french\audio/french_518.wav,"[[  0.          30.08897808]
 [  0.1        -42.00678694]
 [  0.2         47.99304417]
 [  0.25666667 -21.59585354]]","[[0.         1.28002377]
 [0.1        0.31881796]
 [0.2        0.271149  ]
 [0.25666667 1.06182133]]",1,0.663
8768944929,m,21,english,5,4,english,2024-01-25 10:40:13.581798,False,2,314,sounds\french\audio/french_813.wav,"[[  0.         -37.07388554]
 [  0.1         74.87893645]
 [  0.2        -91.66198227]
 [  0.25666667  81.38219901]]","[[0.         0.1380457 ]
 [0.1        0.44333359]
 [0.2        0.5462976 ]
 [0.25666667 1.94163826]]",1,0.745
8768944929,m,21,english,5,4,english,2024-01-25 10:40:13.581798,False,2,315,sounds\french\audio/french_582.wav,"[[  0.           1.47980053]
 [  0.1        -89.13888063]
 [  0.2          1.45566029]
 [  0.25666667 -76.25724372]]","[[0.         0.83350323]
 [0.1        1.99658076]
 [0.2        0.72464724]
 [0.25666667 1.09622387]]",0,0.39
8768944929,m,21,english,5,4,english,2024-01-25 10:40:13.581798,False,2,316,sounds\french\audio/french_189.wav,"[[ 0.         25.45363348]
 [ 0.1        10.19219643]
 [ 0.2        79.32306783]
 [ 0.25666667 77.27494318]]","[[0.         0.70243048]
 [0.1        0.78977161]
 [0.2        0.18017453]
 [0.25666667 0.76350619]]",0,0.837
8768944929,m,21,english,5,4,english,2024-01-25 10:40:13.581798,False,2,317,sounds\french\audio/french_28.wav,"[[  0.         -42.04092007]
 [  0.1        -47.89065573]
 [  0.2         88.67668081]
 [  0.25666667  23.25138011]]","[[0.         0.8096396 ]
 [0.1        0.68168646]
 [0.2        0.86103635]
 [0.25666667 1.13642067]]",0,3.104
8768944929,m,21,english,5,4,english,2024-01-25 10:40:13.581798,False,2,318,sounds\french\audio/french_695.wav,"[[ 0.00000000e+00 -5.76665866e+01]
 [ 1.00000000e-01  6.09893846e+00]
 [ 2.00000000e-01 -8.08229011e+01]
 [ 2.56666667e-01  7.37669519e-03]]","[[0.         1.09792482]
 [0.1        1.46549104]
 [0.2        1.66085764]
 [0.25666667 1.19228029]]",1,3.569
8768944929,m,21,english,5,4,english,2024-01-25 10:40:13.581798,False,2,319,sounds\french\audio/french_907.wav,"[[  0.           9.20754992]
 [  0.1        -39.82714958]
 [  0.2         91.774681  ]
 [  0.25666667 -60.10887287]]","[[0.         1.79705326]
 [0.1        0.37644661]
 [0.2        1.35697235]
 [0.25666667 0.87178456]]",0,1.797
8768944929,m,21,english,5,4,english,2024-01-25 10:40:13.581798,False,2,320,sounds\french\audio/french_39.wav,"[[  0.         -37.58690814]
 [  0.1         64.36969435]
 [  0.2        -16.17747505]
 [  0.25666667 -31.52468705]]","[[0.         0.69509593]
 [0.1        0.9899387 ]
 [0.2        1.54991446]
 [0.25666667 1.42558302]]",0,0.626
8768944929,m,21,english,5,4,english,2024-01-25 10:40:13.581798,False,2,321,sounds\french\audio/french_190.wav,"[[ 0.         69.06529403]
 [ 0.1        69.42395119]
 [ 0.2        67.79801708]
 [ 0.25666667 63.92857008]]","[[0.         1.3481685 ]
 [0.1        0.73404764]
 [0.2        1.27794388]
 [0.25666667 1.43465572]]",0,0.529
8768944929,m,21,english,5,4,english,2024-01-25 10:40:13.581798,False,2,322,sounds\french\audio/french_417.wav,"[[  0.         -52.68130191]
 [  0.1         73.91368418]
 [  0.2          7.73324389]
 [  0.25666667  92.88066518]]","[[0.         1.49469738]
 [0.1        1.06358835]
 [0.2        1.12421265]
 [0.25666667 0.65436219]]",0,1.948
8768944929,m,21,english,5,4,english,2024-01-25 10:40:13.581798,False,2,323,sounds\french\audio/french_247.wav,"[[  0.          31.18827639]
 [  0.1         28.69447174]
 [  0.2        -68.83088208]
 [  0.25666667  44.69710936]]","[[0.         0.50646138]
 [0.1        0.63180121]
 [0.2        1.73165753]
 [0.25666667 1.77415142]]",0,0.989
8768944929,m,21,english,5,4,english,2024-01-25 10:40:13.581798,False,2,324,sounds\french\audio/french_641.wav,"[[  0.         -92.89939655]
 [  0.1         80.14352585]
 [  0.2         74.03041043]
 [  0.25666667  18.97683281]]","[[0.         0.72916007]
 [0.1        1.01323436]
 [0.2        0.998205  ]
 [0.25666667 0.30086371]]",1,0.506
8768944929,m,21,english,5,4,english,2024-01-25 10:40:13.581798,False,2,325,sounds\french\audio/french_682.wav,"[[  0.         -16.33102186]
 [  0.1        -49.72009429]
 [  0.2        -23.39596266]
 [  0.25666667 -34.72439006]]","[[0.         0.79850708]
 [0.1        1.31273679]
 [0.2        1.51298147]
 [0.25666667 0.92861139]]",0,1.562
8768944929,m,21,english,5,4,english,2024-01-25 10:40:13.581798,False,2,326,sounds\french\audio/french_805.wav,"[[  0.          21.15897581]
 [  0.1        -84.51795283]
 [  0.2         72.20878309]
 [  0.25666667 -28.14016055]]","[[0.         1.3244225 ]
 [0.1        0.68750265]
 [0.2        0.56084624]
 [0.25666667 0.45412894]]",1,1.284
8768944929,m,21,english,5,4,english,2024-01-25 10:40:13.581798,False,2,327,sounds\french\audio/french_522.wav,"[[  0.         -33.95775035]
 [  0.1         -8.89346692]
 [  0.2        -13.71087049]
 [  0.25666667  29.03245504]]","[[0.         0.92167055]
 [0.1        1.03421615]
 [0.2        0.39118917]
 [0.25666667 1.12010972]]",0,0.861
8768944929,m,21,english,5,4,english,2024-01-25 10:40:13.581798,False,2,328,sounds\french\audio/french_762.wav,"[[  0.         -45.61990315]
 [  0.1        -38.16727298]
 [  0.2        -15.44626984]
 [  0.25666667 -31.31206952]]","[[0.         0.95776955]
 [0.1        0.16992331]
 [0.2        1.21301125]
 [0.25666667 0.49399223]]",0,0.613
8768944929,m,21,english,5,4,english,2024-01-25 10:40:13.581798,False,2,329,sounds\french\audio/french_633.wav,"[[ 0.         86.81441283]
 [ 0.1        -4.21988764]
 [ 0.2        27.13702415]
 [ 0.25666667 25.74151368]]","[[0.         1.16860967]
 [0.1        0.88033016]
 [0.2        0.79008737]
 [0.25666667 1.16621919]]",0,1.006
8768944929,m,21,english,5,4,english,2024-01-25 10:40:13.581798,False,2,330,sounds\french\audio/french_145.wav,"[[  0.          45.95226671]
 [  0.1        -66.66601381]
 [  0.2        -89.77596615]
 [  0.25666667   8.03115864]]","[[0.         0.38136586]
 [0.1        1.38589502]
 [0.2        0.43712509]
 [0.25666667 1.92826262]]",0,2.512
8768944929,m,21,english,5,4,english,2024-01-25 10:40:13.581798,False,2,331,sounds\french\audio/french_444.wav,"[[  0.          55.47353293]
 [  0.1         12.04434333]
 [  0.2         14.09264182]
 [  0.25666667 -80.20656615]]","[[0.         0.9328321 ]
 [0.1        1.46542582]
 [0.2        1.44584709]
 [0.25666667 1.50777595]]",0,0.415
8768944929,m,21,english,5,4,english,2024-01-25 10:40:13.581798,False,2,332,sounds\french\audio/french_579.wav,"[[  0.          43.6749768 ]
 [  0.1         44.80331973]
 [  0.2         80.34685553]
 [  0.25666667 -77.70594339]]","[[0.         0.88309836]
 [0.1        0.15383342]
 [0.2        0.11279804]
 [0.25666667 1.88524282]]",1,0.722
8768944929,m,21,english,5,4,english,2024-01-25 10:40:13.581798,False,2,333,sounds\french\audio/french_409.wav,"[[  0.         -85.45925867]
 [  0.1        -75.83462931]
 [  0.2        -81.34632848]
 [  0.25666667  -4.23490283]]","[[0.         0.92391671]
 [0.1        0.55779761]
 [0.2        1.04156293]
 [0.25666667 0.8536223 ]]",0,0.394
8768944929,m,21,english,5,4,english,2024-01-25 10:40:13.581798,False,2,334,sounds\french\audio/french_205.wav,"[[  0.          31.24463061]
 [  0.1        -22.87848896]
 [  0.2        -36.82881223]
 [  0.25666667 -47.84026219]]","[[0.         0.69283155]
 [0.1        1.55894518]
 [0.2        1.67941014]
 [0.25666667 0.92091984]]",0,1.458
8768944929,m,21,english,5,4,english,2024-01-25 10:40:13.581798,False,2,335,sounds\french\audio/french_374.wav,"[[  0.          23.12233407]
 [  0.1          4.88786521]
 [  0.2         75.40336837]
 [  0.25666667 -52.23092949]]","[[0.         0.63582229]
 [0.1        0.48218095]
 [0.2        0.81003499]
 [0.25666667 1.31471089]]",0,1.727
8768944929,m,21,english,5,4,english,2024-01-25 10:40:13.581798,False,2,336,sounds\french\audio/french_504.wav,"[[  0.          -0.09953376]
 [  0.1        -56.24331475]
 [  0.2        -79.12350098]
 [  0.25666667  64.25656878]]","[[0.         1.58426169]
 [0.1        0.92396286]
 [0.2        0.70640993]
 [0.25666667 0.80299587]]",1,0.947
8768944929,m,21,english,5,4,english,2024-01-25 10:40:13.581798,False,2,337,sounds\french\audio/french_348.wav,"[[  0.          68.47734878]
 [  0.1         54.05190865]
 [  0.2          0.19125453]
 [  0.25666667 -34.65909089]]","[[0.         1.61227716]
 [0.1        0.93770463]
 [0.2        1.53689085]
 [0.25666667 1.17337711]]",1,1.49
8768944929,m,21,english,5,4,english,2024-01-25 10:40:13.581798,False,2,338,sounds\french\audio/french_686.wav,"[[ 0.         20.49516986]
 [ 0.1        27.4040505 ]
 [ 0.2        31.96095965]
 [ 0.25666667 61.08066052]]","[[0.         1.86861476]
 [0.1        1.87689714]
 [0.2        0.80940067]
 [0.25666667 0.04075967]]",1,0.643
8768944929,m,21,english,5,4,english,2024-01-25 10:40:13.581798,False,2,339,sounds\french\audio/french_490.wav,"[[  0.         -77.54246231]
 [  0.1         -0.13066058]
 [  0.2        -90.37490593]
 [  0.25666667  62.21960288]]","[[0.         1.03559912]
 [0.1        0.94588293]
 [0.2        1.16449319]
 [0.25666667 1.46557017]]",0,1.336
8768944929,m,21,english,5,4,english,2024-01-25 10:40:13.581798,False,2,340,sounds\french\audio/french_467.wav,"[[  0.          26.36588123]
 [  0.1        -91.62831039]
 [  0.2         14.27679522]
 [  0.25666667 -77.75485007]]","[[0.         0.49078583]
 [0.1        1.37574102]
 [0.2        0.10009029]
 [0.25666667 1.32516535]]",1,1.0
8768944929,m,21,english,5,4,english,2024-01-25 10:40:13.581798,False,2,341,sounds\french\audio/french_446.wav,"[[  0.         -77.26428063]
 [  0.1        -65.30305353]
 [  0.2        -57.58787345]
 [  0.25666667  16.67337698]]","[[0.         0.33935674]
 [0.1        1.45146817]
 [0.2        0.82478891]
 [0.25666667 1.36014186]]",0,0.388
8768944929,m,21,english,5,4,english,2024-01-25 10:40:13.581798,False,2,342,sounds\french\audio/french_977.wav,"[[  0.         -23.34946859]
 [  0.1        -74.17160997]
 [  0.2         31.43852713]
 [  0.25666667 -10.29160018]]","[[0.         1.58788712]
 [0.1        0.25032328]
 [0.2        0.90752219]
 [0.25666667 1.52460946]]",0,0.562
8768944929,m,21,english,5,4,english,2024-01-25 10:40:13.581798,False,2,343,sounds\french\audio/french_429.wav,"[[  0.         -86.61428582]
 [  0.1        -42.15720505]
 [  0.2         57.81850322]
 [  0.25666667  56.8864302 ]]","[[0.         0.48550144]
 [0.1        1.43221201]
 [0.2        1.77393014]
 [0.25666667 0.85506946]]",0,0.701
8768944929,m,21,english,5,4,english,2024-01-25 10:40:13.581798,False,2,344,sounds\french\audio/french_923.wav,"[[  0.         -57.84523262]
 [  0.1        -15.65652506]
 [  0.2         37.84243464]
 [  0.25666667  15.41728704]]","[[0.         1.35677253]
 [0.1        1.1280373 ]
 [0.2        1.38752537]
 [0.25666667 1.42596606]]",0,0.353
8768944929,m,21,english,5,4,english,2024-01-25 10:40:13.581798,False,2,345,sounds\french\audio/french_208.wav,"[[  0.           8.68990421]
 [  0.1        -43.18378372]
 [  0.2         71.27860087]
 [  0.25666667 -15.56799856]]","[[0.         0.76850137]
 [0.1        1.33781212]
 [0.2        0.39946576]
 [0.25666667 0.17788265]]",1,0.498
8768944929,m,21,english,5,4,english,2024-01-25 10:40:13.581798,False,2,346,sounds\french\audio/french_252.wav,"[[  0.         -68.3996329 ]
 [  0.1         79.02734002]
 [  0.2        -18.50805447]
 [  0.25666667 -85.84066145]]","[[0.         0.41781817]
 [0.1        1.03502761]
 [0.2        0.82044901]
 [0.25666667 1.09163249]]",0,0.485
8768944929,m,21,english,5,4,english,2024-01-25 10:40:13.581798,False,2,347,sounds\french\audio/french_897.wav,"[[  0.          -2.62488743]
 [  0.1        -35.09835725]
 [  0.2         -7.90226738]
 [  0.25666667  34.22753828]]","[[0.         0.95618392]
 [0.1        0.97615626]
 [0.2        0.33556547]
 [0.25666667 0.12618193]]",1,0.566
8768944929,m,21,english,5,4,english,2024-01-25 10:40:13.581798,False,2,348,sounds\french\audio/french_174.wav,"[[  0.           1.45674265]
 [  0.1         47.27057229]
 [  0.2        -41.5239841 ]
 [  0.25666667  32.3517821 ]]","[[0.         0.26044346]
 [0.1        1.87217745]
 [0.2        1.40485436]
 [0.25666667 1.2389409 ]]",0,0.557
8768944929,m,21,english,5,4,english,2024-01-25 10:40:13.581798,False,2,349,sounds\french\audio/french_315.wav,"[[ 0.00000000e+00  8.45751695e+01]
 [ 1.00000000e-01 -5.49339599e+01]
 [ 2.00000000e-01 -2.04659381e+01]
 [ 2.56666667e-01  4.97627412e-02]]","[[0.         1.39276289]
 [0.1        0.42909402]
 [0.2        1.80166787]
 [0.25666667 1.01422067]]",0,0.712
8768944929,m,21,english,5,4,english,2024-01-25 10:40:13.581798,False,2,350,sounds\french\audio/french_535.wav,"[[  0.         -81.47221285]
 [  0.1         42.68543716]
 [  0.2        -73.81682794]
 [  0.25666667 -85.27887702]]","[[0.         1.61446576]
 [0.1        1.13976105]
 [0.2        0.22032829]
 [0.25666667 0.61620659]]",0,0.355
8768944929,m,21,english,5,4,english,2024-01-25 10:40:13.581798,False,2,351,sounds\french\audio/french_720.wav,"[[  0.         -84.90658582]
 [  0.1         42.34331668]
 [  0.2        -51.84568825]
 [  0.25666667  70.93496883]]","[[0.         1.45299565]
 [0.1        1.58494494]
 [0.2        1.67187292]
 [0.25666667 0.90000718]]",0,0.997
8768944929,m,21,english,5,4,english,2024-01-25 10:40:13.581798,False,2,352,sounds\french\audio/french_707.wav,"[[  0.          77.25708539]
 [  0.1        -54.8008957 ]
 [  0.2        -15.62691875]
 [  0.25666667   8.64437522]]","[[0.         0.72667473]
 [0.1        1.98017833]
 [0.2        0.70006776]
 [0.25666667 1.11828401]]",0,0.402
8768944929,m,21,english,5,4,english,2024-01-25 10:40:13.581798,False,2,353,sounds\french\audio/french_936.wav,"[[  0.         -20.69739044]
 [  0.1         11.25896305]
 [  0.2        -73.43688333]
 [  0.25666667  14.6038409 ]]","[[0.         1.81100612]
 [0.1        0.34150345]
 [0.2        0.78598688]
 [0.25666667 0.34536881]]",0,0.729
8768944929,m,21,english,5,4,english,2024-01-25 10:40:13.581798,False,2,354,sounds\french\audio/french_19.wav,"[[  0.         -43.32613145]
 [  0.1        -51.04998213]
 [  0.2        -30.05832199]
 [  0.25666667 -62.89931607]]","[[0.         0.86768791]
 [0.1        0.12235363]
 [0.2        0.93205141]
 [0.25666667 0.68272422]]",0,1.1
8768944929,m,21,english,5,4,english,2024-01-25 10:40:13.581798,False,2,355,sounds\french\audio/french_363.wav,"[[  0.          53.04818478]
 [  0.1         68.67010762]
 [  0.2        -91.11205335]
 [  0.25666667 -38.9131055 ]]","[[0.         0.48026107]
 [0.1        1.94302888]
 [0.2        0.36511891]
 [0.25666667 1.6181542 ]]",0,0.612
8768944929,m,21,english,5,4,english,2024-01-25 10:40:13.581798,False,2,356,sounds\french\audio/french_806.wav,"[[  0.          97.26957313]
 [  0.1         79.44562669]
 [  0.2         79.77586719]
 [  0.25666667 -46.2684083 ]]","[[0.         1.48673004]
 [0.1        1.9967546 ]
 [0.2        0.9238106 ]
 [0.25666667 1.39755131]]",0,0.472
8768944929,m,21,english,5,4,english,2024-01-25 10:40:13.581798,False,2,357,sounds\french\audio/french_880.wav,"[[  0.          34.54343789]
 [  0.1         76.62551814]
 [  0.2         69.99614697]
 [  0.25666667 -97.30266151]]","[[0.         1.97652899]
 [0.1        0.35866047]
 [0.2        1.49815227]
 [0.25666667 1.92878763]]",0,0.327
8768944929,m,21,english,5,4,english,2024-01-25 10:40:13.581798,False,2,358,sounds\french\audio/french_730.wav,"[[  0.          45.92676741]
 [  0.1        -44.36449205]
 [  0.2         -0.92451291]
 [  0.25666667  30.80646356]]","[[0.         0.18014666]
 [0.1        1.39371349]
 [0.2        1.11032992]
 [0.25666667 1.142585  ]]",1,1.903
8768944929,m,21,english,5,4,english,2024-01-25 10:40:13.581798,False,2,359,sounds\french\audio/french_495.wav,"[[  0.          93.48002859]
 [  0.1         99.142871  ]
 [  0.2        -33.98102163]
 [  0.25666667  38.68354094]]","[[0.         1.03648483]
 [0.1        1.23043948]
 [0.2        1.1332488 ]
 [0.25666667 0.62015381]]",1,0.965
8768944929,m,21,english,5,4,english,2024-01-25 10:40:13.581798,False,2,360,sounds\french\audio/french_327.wav,"[[  0.          75.01862194]
 [  0.1        -83.8502905 ]
 [  0.2         63.63621512]
 [  0.25666667 -22.5018405 ]]","[[0.         1.26930687]
 [0.1        1.47688931]
 [0.2        1.339502  ]
 [0.25666667 0.76786237]]",1,1.582
8768944929,m,21,english,5,4,english,2024-01-25 10:40:13.581798,False,2,361,sounds\french\audio/french_791.wav,"[[  0.         -81.64215326]
 [  0.1         84.74526907]
 [  0.2        -10.10354349]
 [  0.25666667 -10.14583619]]","[[0.         0.09493453]
 [0.1        0.0053506 ]
 [0.2        1.61132934]
 [0.25666667 1.39802197]]",1,2.481
8768944929,m,21,english,5,4,english,2024-01-25 10:40:13.581798,False,2,362,sounds\french\audio/french_463.wav,"[[  0.         -19.30652055]
 [  0.1         40.7979064 ]
 [  0.2         73.8964325 ]
 [  0.25666667 -55.7146218 ]]","[[0.         0.66062429]
 [0.1        1.38698103]
 [0.2        0.77621561]
 [0.25666667 0.65457598]]",0,0.54
8768944929,m,21,english,5,4,english,2024-01-25 10:40:13.581798,False,2,363,sounds\french\audio/french_511.wav,"[[  0.         -19.9871771 ]
 [  0.1        -61.98813266]
 [  0.2        -51.99144191]
 [  0.25666667  26.5419494 ]]","[[0.         1.33271467]
 [0.1        1.54343533]
 [0.2        1.11888865]
 [0.25666667 1.56196296]]",0,0.416
8768944929,m,21,english,5,4,english,2024-01-25 10:40:13.581798,False,2,364,sounds\french\audio/french_773.wav,"[[ 0.         44.49367894]
 [ 0.1        -3.70834598]
 [ 0.2        10.6701804 ]
 [ 0.25666667 36.58697532]]","[[0.         1.02864329]
 [0.1        1.31333622]
 [0.2        0.86217131]
 [0.25666667 0.61318027]]",1,1.219
8768944929,m,21,english,5,4,english,2024-01-25 10:40:13.581798,False,2,365,sounds\french\audio/french_592.wav,"[[  0.         -60.74271859]
 [  0.1         93.57737247]
 [  0.2        -53.75438764]
 [  0.25666667  -2.22241718]]","[[0.         0.07910076]
 [0.1        0.09988206]
 [0.2        0.64371435]
 [0.25666667 0.65219405]]",1,1.533
8768944929,m,21,english,5,4,english,2024-01-25 10:40:13.581798,False,2,366,sounds\french\audio/french_186.wav,"[[  0.         -80.05391137]
 [  0.1        -76.4275614 ]
 [  0.2          7.24631247]
 [  0.25666667 -47.449751  ]]","[[0.         1.48946386]
 [0.1        1.35064599]
 [0.2        0.88239158]
 [0.25666667 1.60975952]]",0,0.445
8768944929,m,21,english,5,4,english,2024-01-25 10:40:13.581798,False,2,367,sounds\french\audio/french_968.wav,"[[  0.          45.43845159]
 [  0.1         86.71618344]
 [  0.2        -29.06718199]
 [  0.25666667  11.394495  ]]","[[0.         0.89884875]
 [0.1        1.25950681]
 [0.2        0.29298434]
 [0.25666667 1.98021593]]",1,1.174
8768944929,m,21,english,5,4,english,2024-01-25 10:40:13.581798,False,2,368,sounds\french\audio/french_17.wav,"[[ 0.         61.86852427]
 [ 0.1        14.81642836]
 [ 0.2        -8.48865215]
 [ 0.25666667 71.68336874]]","[[0.         1.05769551]
 [0.1        0.81667418]
 [0.2        0.51249479]
 [0.25666667 0.29939213]]",1,1.245
8768944929,m,21,english,5,4,english,2024-01-25 10:40:13.581798,False,2,369,sounds\french\audio/french_926.wav,"[[  0.         -38.30420493]
 [  0.1        -97.26803886]
 [  0.2         55.3544282 ]
 [  0.25666667   8.78644418]]","[[0.         1.0266732 ]
 [0.1        0.03873156]
 [0.2        0.32593073]
 [0.25666667 0.80695306]]",1,1.12
8768944929,m,21,english,5,4,english,2024-01-25 10:40:13.581798,False,2,370,sounds\french\audio/french_906.wav,"[[  0.         -13.49448879]
 [  0.1         31.46373863]
 [  0.2        -49.02376816]
 [  0.25666667  26.58933429]]","[[0.         0.31236465]
 [0.1        1.12113229]
 [0.2        0.0749788 ]
 [0.25666667 0.8331551 ]]",1,1.181
8768944929,m,21,english,5,4,english,2024-01-25 10:40:13.581798,False,2,371,sounds\french\audio/french_211.wav,"[[  0.          26.09911827]
 [  0.1         37.88219535]
 [  0.2         25.3370042 ]
 [  0.25666667 -31.50750366]]","[[0.         0.38797522]
 [0.1        0.97106999]
 [0.2        0.82384696]
 [0.25666667 0.88987221]]",1,0.779
8768944929,m,21,english,5,4,english,2024-01-25 10:40:13.581798,False,2,372,sounds\french\audio/french_382.wav,"[[  0.         -28.76508335]
 [  0.1         37.36249056]
 [  0.2         12.02014155]
 [  0.25666667 -78.65251684]]","[[0.         1.75225743]
 [0.1        1.09069334]
 [0.2        1.36067751]
 [0.25666667 0.9131152 ]]",1,0.624
8768944929,m,21,english,5,4,english,2024-01-25 10:40:13.581798,False,2,373,sounds\french\audio/french_599.wav,"[[  0.          67.35107794]
 [  0.1        -80.59112066]
 [  0.2          8.51369184]
 [  0.25666667  74.29539318]]","[[0.         1.27225877]
 [0.1        1.42607556]
 [0.2        0.27008032]
 [0.25666667 0.36016313]]",1,1.332
8768944929,m,21,english,5,4,english,2024-01-25 10:40:13.581798,False,2,374,sounds\french\audio/french_509.wav,"[[  0.          98.86127545]
 [  0.1        -58.47415861]
 [  0.2         23.95425933]
 [  0.25666667  74.34097669]]","[[0.         0.38470371]
 [0.1        0.77077576]
 [0.2        1.30836253]
 [0.25666667 1.2187589 ]]",0,0.381
8768944929,m,21,english,5,4,english,2024-01-25 10:40:13.581798,False,2,375,sounds\french\audio/french_401.wav,"[[  0.         -70.28001137]
 [  0.1        -33.39817342]
 [  0.2         31.30905025]
 [  0.25666667  85.09993336]]","[[0.         0.55430578]
 [0.1        1.52055291]
 [0.2        1.05517946]
 [0.25666667 0.68126919]]",0,0.37
8768944929,m,21,english,5,4,english,2024-01-25 10:40:13.581798,False,2,376,sounds\french\audio/french_164.wav,"[[  0.         -18.17175111]
 [  0.1         76.91542059]
 [  0.2        -44.02896165]
 [  0.25666667 -52.20678857]]","[[0.         1.54231832]
 [0.1        0.85273823]
 [0.2        1.08595521]
 [0.25666667 1.30612675]]",0,0.435
8768944929,m,21,english,5,4,english,2024-01-25 10:40:13.581798,False,2,377,sounds\french\audio/french_586.wav,"[[ 0.         86.96734506]
 [ 0.1        -8.603444  ]
 [ 0.2        11.78169212]
 [ 0.25666667 14.18547806]]","[[0.         0.62271677]
 [0.1        1.69916535]
 [0.2        1.65961944]
 [0.25666667 1.90120182]]",0,0.638
8768944929,m,21,english,5,4,english,2024-01-25 10:40:13.581798,False,2,378,sounds\french\audio/french_126.wav,"[[  0.          92.90369484]
 [  0.1         25.09820179]
 [  0.2         92.10026461]
 [  0.25666667 -27.205087  ]]","[[0.         0.56379558]
 [0.1        1.73295328]
 [0.2        0.28067586]
 [0.25666667 0.82028398]]",0,0.521
8768944929,m,21,english,5,4,english,2024-01-25 10:40:13.581798,False,2,379,sounds\french\audio/french_330.wav,"[[  0.         -46.98301203]
 [  0.1         55.18277966]
 [  0.2         68.01781419]
 [  0.25666667 -65.13341665]]","[[0.         1.92315583]
 [0.1        0.64158591]
 [0.2        0.71457858]
 [0.25666667 0.26661962]]",1,0.855
8768944929,m,21,english,5,4,english,2024-01-25 10:40:13.581798,False,2,380,sounds\french\audio/french_300.wav,"[[  0.         -13.28568226]
 [  0.1         80.95964609]
 [  0.2         97.81212175]
 [  0.25666667  60.85112551]]","[[0.         1.4723541 ]
 [0.1        1.07308012]
 [0.2        1.14674573]
 [0.25666667 1.78656344]]",0,1.959
8768944929,m,21,english,5,4,english,2024-01-25 10:40:13.581798,False,2,381,sounds\french\audio/french_258.wav,"[[  0.          49.87761594]
 [  0.1        -83.77774399]
 [  0.2         58.69904626]
 [  0.25666667 -57.68721695]]","[[0.         0.27922365]
 [0.1        1.89432374]
 [0.2        0.22934206]
 [0.25666667 0.35615934]]",1,0.32
8768944929,m,21,english,5,4,english,2024-01-25 10:40:13.581798,False,2,382,sounds\french\audio/french_257.wav,"[[  0.           1.27289853]
 [  0.1         62.04423448]
 [  0.2         19.88889926]
 [  0.25666667 -46.96649461]]","[[0.         1.18383926]
 [0.1        0.46495515]
 [0.2        0.91766752]
 [0.25666667 1.75135473]]",0,0.373
8768944929,m,21,english,5,4,english,2024-01-25 10:40:13.581798,False,2,383,sounds\french\audio/french_454.wav,"[[  0.          -2.34959028]
 [  0.1        -12.00596157]
 [  0.2         53.09832594]
 [  0.25666667   2.06709411]]","[[0.         0.74247593]
 [0.1        1.74271244]
 [0.2        0.67609159]
 [0.25666667 1.84499539]]",0,0.373
8768944929,m,21,english,5,4,english,2024-01-25 10:40:13.581798,False,2,384,sounds\french\audio/french_742.wav,"[[  0.          70.50155873]
 [  0.1        -40.99625843]
 [  0.2          6.68379951]
 [  0.25666667 -76.31698705]]","[[0.         0.93659897]
 [0.1        1.14125333]
 [0.2        1.25957194]
 [0.25666667 0.86761951]]",0,0.278
8768944929,m,21,english,5,4,english,2024-01-25 10:40:13.581798,False,2,385,sounds\french\audio/french_191.wav,"[[  0.          61.70033847]
 [  0.1        -19.77100541]
 [  0.2        -44.48193137]
 [  0.25666667 -92.19007218]]","[[0.         1.87867126]
 [0.1        0.40395676]
 [0.2        1.14362057]
 [0.25666667 1.68692384]]",0,0.404
8768944929,m,21,english,5,4,english,2024-01-25 10:40:13.581798,False,2,386,sounds\french\audio/french_640.wav,"[[  0.         -15.56807975]
 [  0.1         54.79262645]
 [  0.2        -80.20485071]
 [  0.25666667 -47.69326323]]","[[0.         1.93294171]
 [0.1        1.3982646 ]
 [0.2        1.35271381]
 [0.25666667 0.1240569 ]]",0,0.578
8768944929,m,21,english,5,4,english,2024-01-25 10:40:13.581798,False,2,387,sounds\french\audio/french_927.wav,"[[  0.         -10.52890049]
 [  0.1        -14.60087289]
 [  0.2        -23.19620382]
 [  0.25666667  -4.91748489]]","[[0.         0.60201579]
 [0.1        1.35124195]
 [0.2        0.97713268]
 [0.25666667 0.83956459]]",0,0.63
8768944929,m,21,english,5,4,english,2024-01-25 10:40:13.581798,False,2,388,sounds\french\audio/french_888.wav,"[[  0.          -7.09076065]
 [  0.1         62.1549683 ]
 [  0.2        -14.42714579]
 [  0.25666667 -85.6987995 ]]","[[0.         0.01679895]
 [0.1        1.75942782]
 [0.2        0.28698877]
 [0.25666667 1.72009857]]",1,0.79
8768944929,m,21,english,5,4,english,2024-01-25 10:40:13.581798,False,2,389,sounds\french\audio/french_665.wav,"[[  0.           1.77078633]
 [  0.1        -95.60257374]
 [  0.2        -26.21333041]
 [  0.25666667 -67.7705493 ]]","[[0.         0.29838278]
 [0.1        0.72198918]
 [0.2        0.91284695]
 [0.25666667 0.52625369]]",0,2.152
8768944929,m,21,english,5,4,english,2024-01-25 10:40:13.581798,False,2,390,sounds\french\audio/french_723.wav,"[[  0.         -46.61221312]
 [  0.1        -11.45492587]
 [  0.2         -2.50722763]
 [  0.25666667 -31.56133571]]","[[0.         0.88342187]
 [0.1        0.45371046]
 [0.2        1.8565603 ]
 [0.25666667 0.74236501]]",1,0.823
8768944929,m,21,english,5,4,english,2024-01-25 10:40:13.581798,False,2,391,sounds\french\audio/french_776.wav,"[[  0.          -9.17095967]
 [  0.1        -70.57850226]
 [  0.2         63.21349252]
 [  0.25666667  59.47578694]]","[[0.         0.42962635]
 [0.1        1.70698124]
 [0.2        1.25010697]
 [0.25666667 1.52671833]]",0,0.629
8768944929,m,21,english,5,4,english,2024-01-25 10:40:13.581798,False,2,392,sounds\french\audio/french_165.wav,"[[ 0.         34.81781775]
 [ 0.1        -0.63630456]
 [ 0.2        85.92593744]
 [ 0.25666667  7.56589877]]","[[0.         0.27086967]
 [0.1        1.42196963]
 [0.2        1.99513726]
 [0.25666667 0.37439059]]",1,3.404
8768944929,m,21,english,5,4,english,2024-01-25 10:40:13.581798,False,2,393,sounds\french\audio/french_641.wav,"[[  0.         -92.89939655]
 [  0.1         80.14352585]
 [  0.2         74.03041043]
 [  0.25666667  18.97683281]]","[[0.         0.72916007]
 [0.1        1.01323436]
 [0.2        0.998205  ]
 [0.25666667 0.30086371]]",0,0.399
8768944929,m,21,english,5,4,english,2024-01-25 10:40:13.581798,False,2,394,sounds\french\audio/french_697.wav,"[[  0.         -19.8565912 ]
 [  0.1        -16.18456076]
 [  0.2        -70.77550193]
 [  0.25666667 -81.21106402]]","[[0.         1.89587242]
 [0.1        0.49072185]
 [0.2        1.8362568 ]
 [0.25666667 0.50078837]]",1,0.278
8768944929,m,21,english,5,4,english,2024-01-25 10:40:13.581798,False,2,395,sounds\french\audio/french_377.wav,"[[  0.          99.29202042]
 [  0.1         26.86177352]
 [  0.2        -57.22110681]
 [  0.25666667  67.5545455 ]]","[[0.         1.14982617]
 [0.1        1.68513437]
 [0.2        0.38363532]
 [0.25666667 0.68728301]]",1,0.998
8768944929,m,21,english,5,4,english,2024-01-25 10:40:13.581798,False,2,396,sounds\french\audio/french_431.wav,"[[  0.         -54.98282588]
 [  0.1        -84.59035382]
 [  0.2        -24.91317649]
 [  0.25666667  11.58207854]]","[[0.         1.39465542]
 [0.1        1.77814632]
 [0.2        0.57412197]
 [0.25666667 1.85348509]]",0,1.811
8768944929,m,21,english,5,4,english,2024-01-25 10:40:13.581798,False,2,397,sounds\french\audio/french_792.wav,"[[  0.         -30.95032355]
 [  0.1         73.05460755]
 [  0.2         -0.6809714 ]
 [  0.25666667  25.15150688]]","[[0.         0.5884638 ]
 [0.1        1.61732216]
 [0.2        1.33614238]
 [0.25666667 0.65397567]]",0,0.801
8768944929,m,21,english,5,4,english,2024-01-25 10:40:13.581798,False,2,398,sounds\french\audio/french_187.wav,"[[  0.         -18.61743148]
 [  0.1         27.93687652]
 [  0.2          6.26647606]
 [  0.25666667  58.88972832]]","[[0.         0.79177474]
 [0.1        0.90472294]
 [0.2        1.3885115 ]
 [0.25666667 1.88547829]]",0,0.307
8768944929,m,21,english,5,4,english,2024-01-25 10:40:13.581798,False,2,399,sounds\french\audio/french_785.wav,"[[  0.         -85.51822201]
 [  0.1         -3.83792251]
 [  0.2         45.88945115]
 [  0.25666667  38.51931882]]","[[0.         1.39201941]
 [0.1        0.93814534]
 [0.2        0.59493864]
 [0.25666667 0.08649149]]",0,1.751
8768944929,m,21,english,5,4,english,2024-01-25 10:40:13.581798,False,2,400,sounds\french\audio/french_775.wav,"[[  0.         -25.73289632]
 [  0.1         52.55800123]
 [  0.2        -82.88064372]
 [  0.25666667  71.02003497]]","[[0.         0.08278175]
 [0.1        0.7848412 ]
 [0.2        1.99473571]
 [0.25666667 0.87564379]]",1,0.62
8768944929,m,21,english,5,4,english,2024-01-25 10:40:13.581798,False,2,401,sounds\french\audio/french_223.wav,"[[  0.           4.95143367]
 [  0.1         55.42619629]
 [  0.2         77.82995017]
 [  0.25666667 -85.84724551]]","[[0.         1.93703508]
 [0.1        0.30698411]
 [0.2        0.10644958]
 [0.25666667 0.25911965]]",1,2.087
8768944929,m,21,english,5,4,english,2024-01-25 10:40:13.581798,False,2,402,sounds\french\audio/french_523.wav,"[[  0.         -20.54401218]
 [  0.1        -64.61887171]
 [  0.2        -56.67652055]
 [  0.25666667 -29.90055738]]","[[0.         1.01178449]
 [0.1        1.79283511]
 [0.2        0.92711934]
 [0.25666667 1.0186138 ]]",0,0.238
8768944929,m,21,english,5,4,english,2024-01-25 10:40:13.581798,False,2,403,sounds\french\audio/french_99.wav,"[[ 0.         82.47343156]
 [ 0.1        79.23143861]
 [ 0.2        34.81001375]
 [ 0.25666667 28.26612214]]","[[0.         0.8791919 ]
 [0.1        0.93561146]
 [0.2        1.15477002]
 [0.25666667 0.77336938]]",0,1.514
8768944929,m,21,english,5,4,english,2024-01-25 10:40:13.581798,False,2,404,sounds\french\audio/french_923.wav,"[[  0.         -57.84523262]
 [  0.1        -15.65652506]
 [  0.2         37.84243464]
 [  0.25666667  15.41728704]]","[[0.         1.35677253]
 [0.1        1.1280373 ]
 [0.2        1.38752537]
 [0.25666667 1.42596606]]",0,0.344
8768944929,m,21,english,5,4,english,2024-01-25 10:40:13.581798,False,2,405,sounds\french\audio/french_988.wav,"[[  0.          -4.11470775]
 [  0.1        -66.00013865]
 [  0.2         59.59027652]
 [  0.25666667   0.47429662]]","[[0.         0.28957615]
 [0.1        0.7977557 ]
 [0.2        1.24206297]
 [0.25666667 1.11640868]]",1,1.03
8768944929,m,21,english,5,4,english,2024-01-25 10:40:13.581798,False,2,406,sounds\french\audio/french_39.wav,"[[  0.         -37.58690814]
 [  0.1         64.36969435]
 [  0.2        -16.17747505]
 [  0.25666667 -31.52468705]]","[[0.         0.69509593]
 [0.1        0.9899387 ]
 [0.2        1.54991446]
 [0.25666667 1.42558302]]",1,0.529
8768944929,m,21,english,5,4,english,2024-01-25 10:40:13.581798,False,2,407,sounds\french\audio/french_547.wav,"[[  0.         -72.35697933]
 [  0.1        -74.8664908 ]
 [  0.2         67.97778582]
 [  0.25666667  23.13057238]]","[[0.         0.54090293]
 [0.1        1.21231176]
 [0.2        1.67585204]
 [0.25666667 0.28113426]]",1,0.358
8768944929,m,21,english,5,4,english,2024-01-25 10:40:13.581798,False,2,408,sounds\french\audio/french_699.wav,"[[ 0.         38.02578945]
 [ 0.1        21.65060188]
 [ 0.2        73.60148166]
 [ 0.25666667 94.39755493]]","[[0.         0.2020154 ]
 [0.1        0.44231897]
 [0.2        1.2945402 ]
 [0.25666667 1.2548045 ]]",0,1.541
8768944929,m,21,english,5,4,english,2024-01-25 10:40:13.581798,False,2,409,sounds\french\audio/french_77.wav,"[[  0.         -38.97456477]
 [  0.1        -27.77573133]
 [  0.2         62.31685549]
 [  0.25666667  13.7751853 ]]","[[0.         1.51906971]
 [0.1        1.43123518]
 [0.2        1.04030098]
 [0.25666667 1.45792424]]",0,0.473
8768944929,m,21,english,5,4,english,2024-01-25 10:40:13.581798,False,2,410,sounds\french\audio/french_725.wav,"[[  0.          61.28532458]
 [  0.1         25.43953492]
 [  0.2         31.92964858]
 [  0.25666667 -96.80759498]]","[[0.         0.86285292]
 [0.1        0.5175718 ]
 [0.2        1.72668514]
 [0.25666667 1.79225728]]",1,1.154
8768944929,m,21,english,5,4,english,2024-01-25 10:40:13.581798,False,2,411,sounds\french\audio/french_258.wav,"[[  0.          49.87761594]
 [  0.1        -83.77774399]
 [  0.2         58.69904626]
 [  0.25666667 -57.68721695]]","[[0.         0.27922365]
 [0.1        1.89432374]
 [0.2        0.22934206]
 [0.25666667 0.35615934]]",1,0.982
8768944929,m,21,english,5,4,english,2024-01-25 10:40:13.581798,False,2,412,sounds\french\audio/french_419.wav,"[[  0.         -42.00575778]
 [  0.1        -35.26826913]
 [  0.2        -18.10946272]
 [  0.25666667  -2.55322937]]","[[0.         0.81351681]
 [0.1        1.62056968]
 [0.2        1.68465097]
 [0.25666667 1.07803679]]",0,1.676
8768944929,m,21,english,5,4,english,2024-01-25 10:40:13.581798,False,2,413,sounds\french\audio/french_375.wav,"[[  0.          25.91972282]
 [  0.1        -60.98407933]
 [  0.2        -55.02276561]
 [  0.25666667  50.70039074]]","[[0.         0.89929791]
 [0.1        0.6101435 ]
 [0.2        1.65353502]
 [0.25666667 0.66964756]]",1,1.186
8768944929,m,21,english,5,4,english,2024-01-25 10:40:13.581798,False,2,414,sounds\french\audio/french_515.wav,"[[  0.          90.1787868 ]
 [  0.1         95.19464712]
 [  0.2        -71.09612906]
 [  0.25666667  86.48037909]]","[[0.         1.05169603]
 [0.1        0.16234368]
 [0.2        1.85560054]
 [0.25666667 0.23492468]]",1,0.835
8768944929,m,21,english,5,4,english,2024-01-25 10:40:13.581798,False,2,415,sounds\french\audio/french_526.wav,"[[ 0.         88.08406442]
 [ 0.1        34.72799638]
 [ 0.2         4.2178472 ]
 [ 0.25666667 90.74946068]]","[[0.         1.10890049]
 [0.1        1.05741796]
 [0.2        1.4706377 ]
 [0.25666667 0.12061003]]",1,1.035
8768944929,m,21,english,5,4,english,2024-01-25 10:40:13.581798,False,2,416,sounds\french\audio/french_846.wav,"[[  0.          70.67693031]
 [  0.1        -66.50397015]
 [  0.2         37.81388611]
 [  0.25666667 -25.90764661]]","[[0.         1.34255937]
 [0.1        0.4230684 ]
 [0.2        1.53749893]
 [0.25666667 0.57819313]]",0,1.398
8768944929,m,21,english,5,4,english,2024-01-25 10:40:13.581798,False,2,417,sounds\french\audio/french_711.wav,"[[  0.          35.46622773]
 [  0.1         62.41897997]
 [  0.2        -12.16405894]
 [  0.25666667  23.8007589 ]]","[[0.         1.8142291 ]
 [0.1        1.39339975]
 [0.2        1.57822467]
 [0.25666667 1.63044315]]",0,0.51
8768944929,m,21,english,5,4,english,2024-01-25 10:40:13.581798,False,2,418,sounds\french\audio/french_575.wav,"[[  0.          32.80241223]
 [  0.1         11.70984026]
 [  0.2        -24.23897751]
 [  0.25666667   5.92669397]]","[[0.         0.38229386]
 [0.1        0.34252019]
 [0.2        1.12781483]
 [0.25666667 1.51292739]]",1,1.794
8768944929,m,21,english,5,4,english,2024-01-25 10:40:13.581798,False,2,419,sounds\french\audio/french_952.wav,"[[  0.          89.6944408 ]
 [  0.1         29.6191185 ]
 [  0.2         82.60414553]
 [  0.25666667 -20.57336344]]","[[0.         1.65049473]
 [0.1        0.9962644 ]
 [0.2        0.25471402]
 [0.25666667 0.85149117]]",1,0.539
8768944929,m,21,english,5,4,english,2024-01-25 10:40:13.581798,False,2,420,sounds\french\audio/french_112.wav,"[[  0.         -70.30580716]
 [  0.1         33.64373442]
 [  0.2         26.55830463]
 [  0.25666667  46.16769785]]","[[0.         0.18088618]
 [0.1        1.43869791]
 [0.2        0.89230346]
 [0.25666667 0.14009493]]",0,0.73
8768944929,m,21,english,5,4,english,2024-01-25 10:40:13.581798,False,2,421,sounds\french\audio/french_241.wav,"[[ 0.         89.40240056]
 [ 0.1        40.19017079]
 [ 0.2         6.95264839]
 [ 0.25666667 60.0147698 ]]","[[0.         1.53101086]
 [0.1        0.22293869]
 [0.2        0.66477428]
 [0.25666667 1.1640228 ]]",0,0.588
8768944929,m,21,english,5,4,english,2024-01-25 10:40:13.581798,False,2,422,sounds\french\audio/french_35.wav,"[[  0.         -91.9197252 ]
 [  0.1        -51.10479589]
 [  0.2        -15.74458639]
 [  0.25666667 -11.36352661]]","[[0.         1.92941129]
 [0.1        1.66263878]
 [0.2        0.60493147]
 [0.25666667 1.17557979]]",0,0.395
8768944929,m,21,english,5,4,english,2024-01-25 10:40:13.581798,False,2,423,sounds\french\audio/french_603.wav,"[[ 0.         59.84554137]
 [ 0.1        16.50437024]
 [ 0.2        38.82252298]
 [ 0.25666667 25.72688984]]","[[0.         1.0661988 ]
 [0.1        1.9988244 ]
 [0.2        0.61428719]
 [0.25666667 0.58715273]]",0,0.236
8768944929,m,21,english,5,4,english,2024-01-25 10:40:13.581798,False,2,424,sounds\french\audio/french_655.wav,"[[  0.           4.60078694]
 [  0.1         90.51966262]
 [  0.2        -72.80105835]
 [  0.25666667  32.46228297]]","[[0.         1.00375004]
 [0.1        1.23726083]
 [0.2        1.08672065]
 [0.25666667 0.32613357]]",0,0.353
8768944929,m,21,english,5,4,english,2024-01-25 10:40:13.581798,False,2,425,sounds\french\audio/french_864.wav,"[[ 0.         27.21382842]
 [ 0.1        -8.96687562]
 [ 0.2        47.01768167]
 [ 0.25666667 98.93956807]]","[[0.         1.35032716]
 [0.1        1.41041806]
 [0.2        0.47669103]
 [0.25666667 1.26265942]]",1,0.679
8768944929,m,21,english,5,4,english,2024-01-25 10:40:13.581798,False,2,426,sounds\french\audio/french_89.wav,"[[  0.         -79.59355323]
 [  0.1        -86.9945706 ]
 [  0.2         81.38410409]
 [  0.25666667 -11.31628481]]","[[0.         1.69180454]
 [0.1        1.08047967]
 [0.2        1.92177075]
 [0.25666667 1.93759104]]",0,0.236
8768944929,m,21,english,5,4,english,2024-01-25 10:40:13.581798,False,2,427,sounds\french\audio/french_804.wav,"[[  0.          26.75542793]
 [  0.1        -36.26520541]
 [  0.2         56.17292919]
 [  0.25666667   8.82571189]]","[[0.         1.45857154]
 [0.1        0.22938299]
 [0.2        1.23693855]
 [0.25666667 1.26994951]]",0,0.503
8768944929,m,21,english,5,4,english,2024-01-25 10:40:13.581798,False,2,428,sounds\french\audio/french_70.wav,"[[  0.          24.17054112]
 [  0.1        -33.49200779]
 [  0.2        -94.66214176]
 [  0.25666667  65.90688931]]","[[0.         1.64784081]
 [0.1        0.51465366]
 [0.2        1.24573935]
 [0.25666667 1.78963367]]",0,1.139
8768944929,m,21,english,5,4,english,2024-01-25 10:40:13.581798,False,2,429,sounds\french\audio/french_639.wav,"[[  0.          11.64385005]
 [  0.1        -83.53772589]
 [  0.2        -26.70113898]
 [  0.25666667 -28.21717215]]","[[0.         1.86180111]
 [0.1        1.31531339]
 [0.2        0.16484712]
 [0.25666667 0.08923993]]",1,0.634
8768944929,m,21,english,5,4,english,2024-01-25 10:40:13.581798,False,2,430,sounds\french\audio/french_514.wav,"[[  0.         -99.76210077]
 [  0.1        -57.79872095]
 [  0.2        -51.12304885]
 [  0.25666667  51.53874679]]","[[0.         0.60226465]
 [0.1        0.08785461]
 [0.2        1.82353854]
 [0.25666667 1.77009288]]",1,0.611
8768944929,m,21,english,5,4,english,2024-01-25 10:40:13.581798,False,2,431,sounds\french\audio/french_950.wav,"[[ 0.          6.46729125]
 [ 0.1        89.94723115]
 [ 0.2        33.92654299]
 [ 0.25666667  4.68690548]]","[[0.         1.1492664 ]
 [0.1        1.37343317]
 [0.2        1.07181876]
 [0.25666667 0.13073982]]",0,1.17
8768944929,m,21,english,5,4,english,2024-01-25 10:40:13.581798,False,2,432,sounds\french\audio/french_940.wav,"[[  0.          60.64207397]
 [  0.1        -16.07257124]
 [  0.2        -38.93693506]
 [  0.25666667 -22.19838027]]","[[0.         1.38818271]
 [0.1        1.64047706]
 [0.2        1.31963125]
 [0.25666667 1.73227719]]",0,0.373
8768944929,m,21,english,5,4,english,2024-01-25 10:40:13.581798,False,2,433,sounds\french\audio/french_340.wav,"[[  0.         -77.74428769]
 [  0.1        -23.36816436]
 [  0.2        -44.47255335]
 [  0.25666667 -51.35474548]]","[[0.         1.5012345 ]
 [0.1        1.72338521]
 [0.2        0.55046319]
 [0.25666667 0.98182936]]",0,0.851
8768944929,m,21,english,5,4,english,2024-01-25 10:40:13.581798,False,2,434,sounds\french\audio/french_792.wav,"[[  0.         -30.95032355]
 [  0.1         73.05460755]
 [  0.2         -0.6809714 ]
 [  0.25666667  25.15150688]]","[[0.         0.5884638 ]
 [0.1        1.61732216]
 [0.2        1.33614238]
 [0.25666667 0.65397567]]",0,1.296
8768944929,m,21,english,5,4,english,2024-01-25 10:40:13.581798,False,2,435,sounds\french\audio/french_873.wav,"[[  0.         -12.1574241 ]
 [  0.1        -18.24590524]
 [  0.2        -68.65561389]
 [  0.25666667 -45.4488766 ]]","[[0.         0.39218062]
 [0.1        1.88422008]
 [0.2        1.05802306]
 [0.25666667 0.58030918]]",0,2.085
8768944929,m,21,english,5,4,english,2024-01-25 10:40:13.581798,False,2,436,sounds\french\audio/french_764.wav,"[[  0.          -8.95969579]
 [  0.1          5.11158076]
 [  0.2          3.7358826 ]
 [  0.25666667 -14.74224302]]","[[0.         0.46272501]
 [0.1        1.84250995]
 [0.2        0.71585727]
 [0.25666667 0.58101627]]",0,1.906
8768944929,m,21,english,5,4,english,2024-01-25 10:40:13.581798,False,2,437,sounds\french\audio/french_745.wav,"[[  0.         -23.86566831]
 [  0.1        -33.24912316]
 [  0.2         45.69666298]
 [  0.25666667 -83.60192647]]","[[0.         1.27696082]
 [0.1        1.44075169]
 [0.2        0.50413087]
 [0.25666667 0.37289443]]",0,1.085
8768944929,m,21,english,5,4,english,2024-01-25 10:40:13.581798,False,2,438,sounds\french\audio/french_45.wav,"[[  0.           6.51510613]
 [  0.1        -86.25018513]
 [  0.2        -60.46903131]
 [  0.25666667 -48.31089161]]","[[0.         0.83763225]
 [0.1        1.19709151]
 [0.2        0.87484565]
 [0.25666667 0.45414185]]",0,0.893
8768944929,m,21,english,5,4,english,2024-01-25 10:40:13.581798,False,2,439,sounds\french\audio/french_523.wav,"[[  0.         -20.54401218]
 [  0.1        -64.61887171]
 [  0.2        -56.67652055]
 [  0.25666667 -29.90055738]]","[[0.         1.01178449]
 [0.1        1.79283511]
 [0.2        0.92711934]
 [0.25666667 1.0186138 ]]",1,1.336
8768944929,m,21,english,5,4,english,2024-01-25 10:40:13.581798,False,2,440,sounds\french\audio/french_485.wav,"[[  0.          49.72116837]
 [  0.1         30.83147643]
 [  0.2         37.98454641]
 [  0.25666667 -93.0468476 ]]","[[0.         1.80184077]
 [0.1        1.80095915]
 [0.2        1.42682554]
 [0.25666667 0.86529676]]",1,0.844
8768944929,m,21,english,5,4,english,2024-01-25 10:40:13.581798,False,2,441,sounds\french\audio/french_721.wav,"[[ 0.         83.32262744]
 [ 0.1        53.43911967]
 [ 0.2        45.88272958]
 [ 0.25666667 34.59804534]]","[[0.         0.77898197]
 [0.1        1.2749748 ]
 [0.2        1.13618558]
 [0.25666667 1.96642304]]",1,0.627
8768944929,m,21,english,5,4,english,2024-01-25 10:40:13.581798,False,2,442,sounds\french\audio/french_790.wav,"[[  0.         -78.0899986 ]
 [  0.1        -13.38999599]
 [  0.2        -59.88967217]
 [  0.25666667  34.06701256]]","[[0.         0.03777082]
 [0.1        1.54425687]
 [0.2        0.07634696]
 [0.25666667 1.62279479]]",1,0.945
8768944929,m,21,english,5,4,english,2024-01-25 10:40:13.581798,False,2,443,sounds\french\audio/french_805.wav,"[[  0.          21.15897581]
 [  0.1        -84.51795283]
 [  0.2         72.20878309]
 [  0.25666667 -28.14016055]]","[[0.         1.3244225 ]
 [0.1        0.68750265]
 [0.2        0.56084624]
 [0.25666667 0.45412894]]",1,0.443
8768944929,m,21,english,5,4,english,2024-01-25 10:40:13.581798,False,2,444,sounds\french\audio/french_467.wav,"[[  0.          26.36588123]
 [  0.1        -91.62831039]
 [  0.2         14.27679522]
 [  0.25666667 -77.75485007]]","[[0.         0.49078583]
 [0.1        1.37574102]
 [0.2        0.10009029]
 [0.25666667 1.32516535]]",1,0.356
8768944929,m,21,english,5,4,english,2024-01-25 10:40:13.581798,False,2,445,sounds\french\audio/french_954.wav,"[[  0.         -31.81965022]
 [  0.1         82.90828133]
 [  0.2         94.68318648]
 [  0.25666667 -42.01635115]]","[[0.         1.69468269]
 [0.1        0.7734121 ]
 [0.2        0.43346946]
 [0.25666667 0.14112827]]",1,0.698
8768944929,m,21,english,5,4,english,2024-01-25 10:40:13.581798,False,2,446,sounds\french\audio/french_86.wav,"[[  0.         -13.34839912]
 [  0.1         -0.15074382]
 [  0.2         25.45831569]
 [  0.25666667  48.27326553]]","[[0.         1.5394535 ]
 [0.1        0.88064418]
 [0.2        1.66652907]
 [0.25666667 0.20293469]]",1,1.454
8768944929,m,21,english,5,4,english,2024-01-25 10:40:13.581798,False,2,447,sounds\french\audio/french_493.wav,"[[  0.         -68.32294441]
 [  0.1        -10.78892258]
 [  0.2         91.72278204]
 [  0.25666667 -45.09260027]]","[[0.         0.52835731]
 [0.1        0.49612748]
 [0.2        1.46473376]
 [0.25666667 1.2872874 ]]",1,0.652
8768944929,m,21,english,5,4,english,2024-01-25 10:40:13.581798,False,2,448,sounds\french\audio/french_671.wav,"[[  0.         -43.02390558]
 [  0.1         13.89093856]
 [  0.2          3.48608914]
 [  0.25666667 -98.36263583]]","[[0.         0.93196934]
 [0.1        1.15314194]
 [0.2        0.54353121]
 [0.25666667 1.08598707]]",1,1.915
8768944929,m,21,english,5,4,english,2024-01-25 10:40:13.581798,False,2,449,sounds\french\audio/french_994.wav,"[[  0.         -39.66278541]
 [  0.1         66.70535545]
 [  0.2        -87.43703712]
 [  0.25666667 -41.83233866]]","[[0.         0.39681658]
 [0.1        1.6498105 ]
 [0.2        1.48803434]
 [0.25666667 1.54058484]]",0,0.32
8768944929,m,21,english,5,4,english,2024-01-25 10:40:13.581798,False,2,450,sounds\french\audio/french_927.wav,"[[  0.         -10.52890049]
 [  0.1        -14.60087289]
 [  0.2        -23.19620382]
 [  0.25666667  -4.91748489]]","[[0.         0.60201579]
 [0.1        1.35124195]
 [0.2        0.97713268]
 [0.25666667 0.83956459]]",1,0.699
8768944929,m,21,english,5,4,english,2024-01-25 10:40:13.581798,False,2,451,sounds\french\audio/french_238.wav,"[[ 0.         -7.77377299]
 [ 0.1        24.08862247]
 [ 0.2        87.10581208]
 [ 0.25666667 73.57906518]]","[[0.         1.79398275]
 [0.1        0.12404774]
 [0.2        0.76943839]
 [0.25666667 1.68164748]]",0,1.258
8768944929,m,21,english,5,4,english,2024-01-25 10:40:13.581798,False,2,452,sounds\french\audio/french_289.wav,"[[  0.         -36.76000605]
 [  0.1         10.32506406]
 [  0.2        -63.16699613]
 [  0.25666667  44.4452875 ]]","[[0.         0.0295717 ]
 [0.1        0.30354321]
 [0.2        0.64873245]
 [0.25666667 1.33679234]]",1,0.603
8768944929,m,21,english,5,4,english,2024-01-25 10:40:13.581798,False,2,453,sounds\french\audio/french_617.wav,"[[  0.         -34.18466024]
 [  0.1         35.41565559]
 [  0.2         59.04414741]
 [  0.25666667  80.0519445 ]]","[[0.         0.10021852]
 [0.1        0.72859392]
 [0.2        0.77782194]
 [0.25666667 1.13599019]]",0,1.012
8768944929,m,21,english,5,4,english,2024-01-25 10:40:13.581798,False,2,454,sounds\french\audio/french_57.wav,"[[  0.           5.04798132]
 [  0.1         34.86476391]
 [  0.2          8.76450083]
 [  0.25666667 -66.01533982]]","[[0.         0.30893924]
 [0.1        1.37192861]
 [0.2        1.2366194 ]
 [0.25666667 1.17459784]]",0,1.099
8768944929,m,21,english,5,4,english,2024-01-25 10:40:13.581798,False,2,455,sounds\french\audio/french_121.wav,"[[  0.          35.32035933]
 [  0.1        -67.07725169]
 [  0.2         83.36951387]
 [  0.25666667  37.65048559]]","[[0.         0.75756688]
 [0.1        1.37771724]
 [0.2        1.17860501]
 [0.25666667 1.25500134]]",0,0.424
8768944929,m,21,english,5,4,english,2024-01-25 10:40:13.581798,False,2,456,sounds\french\audio/french_761.wav,"[[  0.         -26.32638144]
 [  0.1         78.13411122]
 [  0.2         -6.36477673]
 [  0.25666667 -77.19672863]]","[[0.         1.05429599]
 [0.1        0.90631559]
 [0.2        1.36732306]
 [0.25666667 0.83755281]]",0,0.345
8768944929,m,21,english,5,4,english,2024-01-25 10:40:13.581798,False,2,457,sounds\french\audio/french_139.wav,"[[  0.          55.8945715 ]
 [  0.1        -37.58065727]
 [  0.2        -36.76334563]
 [  0.25666667   4.9296063 ]]","[[0.         0.94357116]
 [0.1        0.51247941]
 [0.2        1.17002066]
 [0.25666667 0.00285273]]",0,0.771
8768944929,m,21,english,5,4,english,2024-01-25 10:40:13.581798,False,2,458,sounds\french\audio/french_544.wav,"[[  0.         -53.15565046]
 [  0.1        -92.4791724 ]
 [  0.2         38.15839594]
 [  0.25666667  24.38113977]]","[[0.         1.35860228]
 [0.1        0.93453098]
 [0.2        0.5056151 ]
 [0.25666667 1.47508   ]]",0,0.425
8768944929,m,21,english,5,4,english,2024-01-25 10:40:13.581798,False,2,459,sounds\french\audio/french_881.wav,"[[  0.         -25.82648211]
 [  0.1         13.08751975]
 [  0.2        -84.06590477]
 [  0.25666667 -28.7935441 ]]","[[0.         0.15296837]
 [0.1        1.42149925]
 [0.2        1.29281362]
 [0.25666667 1.41538706]]",1,0.617
8768944929,m,21,english,5,4,english,2024-01-25 10:40:13.581798,False,2,460,sounds\french\audio/french_152.wav,"[[  0.          -3.84179402]
 [  0.1         56.28738818]
 [  0.2        -25.33799013]
 [  0.25666667 -10.23447911]]","[[0.         0.21245747]
 [0.1        1.74384484]
 [0.2        1.40208126]
 [0.25666667 0.94312755]]",1,0.523
8768944929,m,21,english,5,4,english,2024-01-25 10:40:13.581798,False,2,461,sounds\french\audio/french_381.wav,"[[  0.         -36.22739734]
 [  0.1         63.18659678]
 [  0.2        -88.25823098]
 [  0.25666667  39.00702017]]","[[0.         0.39069554]
 [0.1        0.02424263]
 [0.2        0.59540025]
 [0.25666667 0.84340327]]",1,0.599
8768944929,m,21,english,5,4,english,2024-01-25 10:40:13.581798,False,2,462,sounds\french\audio/french_86.wav,"[[  0.         -13.34839912]
 [  0.1         -0.15074382]
 [  0.2         25.45831569]
 [  0.25666667  48.27326553]]","[[0.         1.5394535 ]
 [0.1        0.88064418]
 [0.2        1.66652907]
 [0.25666667 0.20293469]]",0,0.348
8768944929,m,21,english,5,4,english,2024-01-25 10:40:13.581798,False,2,463,sounds\french\audio/french_374.wav,"[[  0.          23.12233407]
 [  0.1          4.88786521]
 [  0.2         75.40336837]
 [  0.25666667 -52.23092949]]","[[0.         0.63582229]
 [0.1        0.48218095]
 [0.2        0.81003499]
 [0.25666667 1.31471089]]",0,0.411
8768944929,m,21,english,5,4,english,2024-01-25 10:40:13.581798,False,2,464,sounds\french\audio/french_699.wav,"[[ 0.         38.02578945]
 [ 0.1        21.65060188]
 [ 0.2        73.60148166]
 [ 0.25666667 94.39755493]]","[[0.         0.2020154 ]
 [0.1        0.44231897]
 [0.2        1.2945402 ]
 [0.25666667 1.2548045 ]]",0,1.755
8768944929,m,21,english,5,4,english,2024-01-25 10:40:13.581798,False,2,465,sounds\french\audio/french_931.wav,"[[  0.          64.75046939]
 [  0.1        -55.9473081 ]
 [  0.2         32.85596214]
 [  0.25666667 -89.33798771]]","[[0.         1.51932084]
 [0.1        1.08335674]
 [0.2        0.78781639]
 [0.25666667 0.66435238]]",1,0.571
8768944929,m,21,english,5,4,english,2024-01-25 10:40:13.581798,False,2,466,sounds\french\audio/french_823.wav,"[[  0.         -89.53533563]
 [  0.1         14.01752274]
 [  0.2         33.24657022]
 [  0.25666667 -78.84260648]]","[[0.         0.87621895]
 [0.1        0.92757563]
 [0.2        1.30685671]
 [0.25666667 1.33840969]]",1,1.211
8768944929,m,21,english,5,4,english,2024-01-25 10:40:13.581798,False,2,467,sounds\french\audio/french_187.wav,"[[  0.         -18.61743148]
 [  0.1         27.93687652]
 [  0.2          6.26647606]
 [  0.25666667  58.88972832]]","[[0.         0.79177474]
 [0.1        0.90472294]
 [0.2        1.3885115 ]
 [0.25666667 1.88547829]]",1,0.854
8768944929,m,21,english,5,4,english,2024-01-25 10:40:13.581798,False,2,468,sounds\french\audio/french_412.wav,"[[  0.         -59.33534007]
 [  0.1        -79.1774496 ]
 [  0.2        -38.59435565]
 [  0.25666667  65.74010912]]","[[0.         1.02487397]
 [0.1        0.54283138]
 [0.2        0.86213444]
 [0.25666667 0.54314794]]",1,0.62
8768944929,m,21,english,5,4,english,2024-01-25 10:40:13.581798,False,2,469,sounds\french\audio/french_277.wav,"[[  0.          25.76771762]
 [  0.1        -70.25975294]
 [  0.2        -52.96477311]
 [  0.25666667  41.51950841]]","[[0.         1.36859257]
 [0.1        1.02052852]
 [0.2        1.14771146]
 [0.25666667 0.3441713 ]]",1,0.486
8768944929,m,21,english,5,4,english,2024-01-25 10:40:13.581798,False,2,470,sounds\french\audio/french_31.wav,"[[  0.         -16.52506352]
 [  0.1        -80.19736258]
 [  0.2        -47.04996605]
 [  0.25666667  35.27279848]]","[[0.         1.57904125]
 [0.1        0.88688051]
 [0.2        0.44579633]
 [0.25666667 1.71139476]]",1,0.666
8768944929,m,21,english,5,4,english,2024-01-25 10:40:13.581798,False,2,471,sounds\french\audio/french_151.wav,"[[  0.          71.76568175]
 [  0.1        -74.84502799]
 [  0.2        -35.2682716 ]
 [  0.25666667 -20.9501034 ]]","[[0.         1.0902049 ]
 [0.1        0.763019  ]
 [0.2        0.78938414]
 [0.25666667 0.23047004]]",1,0.766
8768944929,m,21,english,5,4,english,2024-01-25 10:40:13.581798,False,2,472,sounds\french\audio/french_530.wav,"[[  0.         -48.266975  ]
 [  0.1         10.53522492]
 [  0.2        -70.81391458]
 [  0.25666667 -13.69241617]]","[[0.         0.22885815]
 [0.1        0.99708564]
 [0.2        0.43471164]
 [0.25666667 0.61022423]]",1,0.744
8768944929,m,21,english,5,4,english,2024-01-25 10:40:13.581798,False,2,473,sounds\french\audio/french_255.wav,"[[  0.         -34.51424568]
 [  0.1         78.41526515]
 [  0.2        -68.08036781]
 [  0.25666667  24.01405499]]","[[0.         1.48061101]
 [0.1        1.11576013]
 [0.2        0.98465822]
 [0.25666667 1.10721404]]",0,3.417
8768944929,m,21,english,5,4,english,2024-01-25 10:40:13.581798,False,2,474,sounds\french\audio/french_152.wav,"[[  0.          -3.84179402]
 [  0.1         56.28738818]
 [  0.2        -25.33799013]
 [  0.25666667 -10.23447911]]","[[0.         0.21245747]
 [0.1        1.74384484]
 [0.2        1.40208126]
 [0.25666667 0.94312755]]",0,2.798
8768944929,m,21,english,5,4,english,2024-01-25 10:40:13.581798,False,2,475,sounds\french\audio/french_184.wav,"[[  0.          48.36861498]
 [  0.1         -2.94347193]
 [  0.2        -52.00472355]
 [  0.25666667 -36.80137507]]","[[0.         1.86119552]
 [0.1        0.96576449]
 [0.2        1.69315982]
 [0.25666667 0.52689434]]",0,0.347
8768944929,m,21,english,5,4,english,2024-01-25 10:40:13.581798,False,2,476,sounds\french\audio/french_83.wav,"[[ 0.         45.44740295]
 [ 0.1        42.82646372]
 [ 0.2        -9.21139132]
 [ 0.25666667 30.29486893]]","[[0.         0.80263788]
 [0.1        1.96742974]
 [0.2        0.40483772]
 [0.25666667 0.1024326 ]]",0,1.451
8768944929,m,21,english,5,4,english,2024-01-25 10:40:13.581798,False,2,477,sounds\french\audio/french_813.wav,"[[  0.         -37.07388554]
 [  0.1         74.87893645]
 [  0.2        -91.66198227]
 [  0.25666667  81.38219901]]","[[0.         0.1380457 ]
 [0.1        0.44333359]
 [0.2        0.5462976 ]
 [0.25666667 1.94163826]]",1,0.505
8768944929,m,21,english,5,4,english,2024-01-25 10:40:13.581798,False,2,478,sounds\french\audio/french_255.wav,"[[  0.         -34.51424568]
 [  0.1         78.41526515]
 [  0.2        -68.08036781]
 [  0.25666667  24.01405499]]","[[0.         1.48061101]
 [0.1        1.11576013]
 [0.2        0.98465822]
 [0.25666667 1.10721404]]",0,0.308
8768944929,m,21,english,5,4,english,2024-01-25 10:40:13.581798,False,2,479,sounds\french\audio/french_131.wav,"[[  0.          55.95469812]
 [  0.1        -96.48122085]
 [  0.2        -45.26115565]
 [  0.25666667  97.10583427]]","[[0.         0.7326606 ]
 [0.1        0.77747938]
 [0.2        1.02132862]
 [0.25666667 0.34109041]]",0,0.817
8768944929,m,21,english,5,4,english,2024-01-25 10:40:13.581798,False,2,480,sounds\french\audio/french_426.wav,"[[ 0.         94.83015244]
 [ 0.1        80.74954266]
 [ 0.2        14.22402444]
 [ 0.25666667 92.85203769]]","[[0.         1.95768421]
 [0.1        0.5170286 ]
 [0.2        0.27456075]
 [0.25666667 1.53042381]]",0,0.577
8768944929,m,21,english,5,4,english,2024-01-25 10:40:13.581798,False,2,481,sounds\french\audio/french_326.wav,"[[  0.         -63.35446608]
 [  0.1         12.54179258]
 [  0.2          2.59324468]
 [  0.25666667  34.92537359]]","[[0.         1.54071776]
 [0.1        0.67448432]
 [0.2        0.56210636]
 [0.25666667 1.5196438 ]]",0,0.317
8768944929,m,21,english,5,4,english,2024-01-25 10:40:13.581798,False,2,482,sounds\french\audio/french_318.wav,"[[  0.          51.46520294]
 [  0.1         86.78866558]
 [  0.2        -10.27725715]
 [  0.25666667   9.68065634]]","[[0.         0.36120202]
 [0.1        0.00996795]
 [0.2        1.05940341]
 [0.25666667 1.37923943]]",0,2.207
8768944929,m,21,english,5,4,english,2024-01-25 10:40:13.581798,False,2,483,sounds\french\audio/french_406.wav,"[[  0.          58.13533855]
 [  0.1         16.77938971]
 [  0.2        -34.29610563]
 [  0.25666667   5.14727068]]","[[0.         1.29537269]
 [0.1        1.03128378]
 [0.2        1.90878176]
 [0.25666667 1.43946259]]",0,0.431
8768944929,m,21,english,5,4,english,2024-01-25 10:40:13.581798,False,2,484,sounds\french\audio/french_845.wav,"[[  0.          -4.24220541]
 [  0.1        -33.05758094]
 [  0.2        -22.8575131 ]
 [  0.25666667 -28.52835037]]","[[0.         1.81527349]
 [0.1        0.43145559]
 [0.2        1.45726833]
 [0.25666667 1.38023089]]",0,0.904
8768944929,m,21,english,5,4,english,2024-01-25 10:40:13.581798,False,2,485,sounds\french\audio/french_107.wav,"[[  0.          67.03881883]
 [  0.1         45.78296109]
 [  0.2        -43.22729876]
 [  0.25666667 -74.69599774]]","[[0.         1.87266913]
 [0.1        0.27229476]
 [0.2        1.08803063]
 [0.25666667 1.63601275]]",0,0.457
8768944929,m,21,english,5,4,english,2024-01-25 10:40:13.581798,False,2,486,sounds\french\audio/french_597.wav,"[[  0.          78.21673508]
 [  0.1         48.44931265]
 [  0.2         -9.21876948]
 [  0.25666667 -95.47680095]]","[[0.         0.32061172]
 [0.1        1.01687051]
 [0.2        0.22158162]
 [0.25666667 0.62073139]]",1,0.392
8768944929,m,21,english,5,4,english,2024-01-25 10:40:13.581798,False,2,487,sounds\french\audio/french_857.wav,"[[  0.          40.93487779]
 [  0.1        -17.75235864]
 [  0.2         39.31370365]
 [  0.25666667 -10.04228362]]","[[0.         1.95936394]
 [0.1        1.43648621]
 [0.2        1.12127335]
 [0.25666667 0.40363044]]",0,0.242
8768944929,m,21,english,5,4,english,2024-01-25 10:40:13.581798,False,2,488,sounds\french\audio/french_937.wav,"[[  0.          27.89553513]
 [  0.1        -51.2753628 ]
 [  0.2        -75.08991272]
 [  0.25666667 -24.40434042]]","[[0.         1.9323197 ]
 [0.1        1.67315664]
 [0.2        1.14592467]
 [0.25666667 1.81837395]]",0,0.223
8768944929,m,21,english,5,4,english,2024-01-25 10:40:13.581798,False,2,489,sounds\french\audio/french_399.wav,"[[ 0.         60.88638106]
 [ 0.1        69.51712014]
 [ 0.2        11.9354414 ]
 [ 0.25666667 71.82951649]]","[[0.         0.92905576]
 [0.1        1.13956386]
 [0.2        0.89341089]
 [0.25666667 1.81253855]]",0,0.18
8768944929,m,21,english,5,4,english,2024-01-25 10:40:13.581798,False,2,490,sounds\french\audio/french_115.wav,"[[  0.          79.30886426]
 [  0.1         38.64809671]
 [  0.2         24.58912206]
 [  0.25666667 -50.07125558]]","[[0.         0.55665137]
 [0.1        1.15526328]
 [0.2        1.92727625]
 [0.25666667 0.36414304]]",1,1.149
8768944929,m,21,english,5,4,english,2024-01-25 10:40:13.581798,False,2,491,sounds\french\audio/french_858.wav,"[[  0.         -70.8749608 ]
 [  0.1        -68.92821451]
 [  0.2         48.1063746 ]
 [  0.25666667   0.98463207]]","[[0.         0.88986318]
 [0.1        0.34092676]
 [0.2        0.38776381]
 [0.25666667 1.26771376]]",0,0.909
8768944929,m,21,english,5,4,english,2024-01-25 10:40:13.581798,False,2,492,sounds\french\audio/french_405.wav,"[[  0.          52.22885858]
 [  0.1         18.90294402]
 [  0.2        -84.01769715]
 [  0.25666667  95.02638452]]","[[0.         0.59532017]
 [0.1        0.31881138]
 [0.2        1.18035169]
 [0.25666667 0.2814716 ]]",0,1.703
8768944929,m,21,english,5,4,english,2024-01-25 10:40:13.581798,False,2,493,sounds\french\audio/french_334.wav,"[[  0.          40.44836216]
 [  0.1        -67.56280837]
 [  0.2        -28.73514643]
 [  0.25666667 -49.63309354]]","[[0.         0.13212964]
 [0.1        0.74019732]
 [0.2        0.72240648]
 [0.25666667 0.47162208]]",0,0.95
8768944929,m,21,english,5,4,english,2024-01-25 10:40:13.581798,False,2,494,sounds\french\audio/french_575.wav,"[[  0.          32.80241223]
 [  0.1         11.70984026]
 [  0.2        -24.23897751]
 [  0.25666667   5.92669397]]","[[0.         0.38229386]
 [0.1        0.34252019]
 [0.2        1.12781483]
 [0.25666667 1.51292739]]",0,0.659
8768944929,m,21,english,5,4,english,2024-01-25 10:40:13.581798,False,2,495,sounds\french\audio/french_553.wav,"[[  0.          -1.38146628]
 [  0.1        -34.28745567]
 [  0.2          6.87532462]
 [  0.25666667  90.98690029]]","[[0.         0.44011383]
 [0.1        1.14829302]
 [0.2        1.07508961]
 [0.25666667 0.10252166]]",0,2.086
8768944929,m,21,english,5,4,english,2024-01-25 10:40:13.581798,False,2,496,sounds\french\audio/french_858.wav,"[[  0.         -70.8749608 ]
 [  0.1        -68.92821451]
 [  0.2         48.1063746 ]
 [  0.25666667   0.98463207]]","[[0.         0.88986318]
 [0.1        0.34092676]
 [0.2        0.38776381]
 [0.25666667 1.26771376]]",1,0.635
8768944929,m,21,english,5,4,english,2024-01-25 10:40:13.581798,False,2,497,sounds\french\audio/french_378.wav,"[[ 0.         74.25757507]
 [ 0.1        69.54270197]
 [ 0.2        91.83328043]
 [ 0.25666667 65.12199987]]","[[0.         1.44636003]
 [0.1        0.18429149]
 [0.2        0.75177649]
 [0.25666667 0.49263706]]",0,0.411
8768944929,m,21,english,5,4,english,2024-01-25 10:40:13.581798,False,2,498,sounds\french\audio/french_349.wav,"[[  0.          73.89254537]
 [  0.1        -84.33493486]
 [  0.2         -3.2709249 ]
 [  0.25666667 -21.54511299]]","[[0.         0.17403551]
 [0.1        1.66487719]
 [0.2        1.53740634]
 [0.25666667 1.56834066]]",0,1.097
8768944929,m,21,english,5,4,english,2024-01-25 10:40:13.581798,False,2,499,sounds\french\audio/french_738.wav,"[[  0.           9.63502306]
 [  0.1         23.45464863]
 [  0.2        -41.48525502]
 [  0.25666667  10.13311751]]","[[0.         1.8953007 ]
 [0.1        0.66483685]
 [0.2        0.56687756]
 [0.25666667 1.74946228]]",0,0.5
8768944929,m,21,english,5,4,english,2024-01-25 10:40:13.581798,False,2,500,sounds\french\audio/french_821.wav,"[[  0.          70.15336782]
 [  0.1         -1.11865535]
 [  0.2        -91.54006312]
 [  0.25666667  24.13643902]]","[[0.         1.4099425 ]
 [0.1        1.36643738]
 [0.2        0.06599991]
 [0.25666667 1.20854405]]",1,0.601
8768944929,m,21,english,5,4,english,2024-01-25 10:40:13.581798,False,2,501,sounds\french\audio/french_437.wav,"[[  0.          59.70067771]
 [  0.1         78.61233767]
 [  0.2         76.18154157]
 [  0.25666667 -54.28538078]]","[[0.         0.22659206]
 [0.1        0.85429053]
 [0.2        1.36297282]
 [0.25666667 1.46039745]]",1,0.685
8768944929,m,21,english,5,4,english,2024-01-25 10:40:13.581798,False,2,502,sounds\french\audio/french_275.wav,"[[  0.         -71.45872278]
 [  0.1         50.23093754]
 [  0.2         82.04936404]
 [  0.25666667 -63.35862329]]","[[0.         0.56157087]
 [0.1        1.03531052]
 [0.2        1.31605034]
 [0.25666667 0.72936955]]",0,1.873
