subj,trial,block,date,stim,stim_order,response,rt,age,english,language,sex,param_index,segment,pitch,stretch
DJX,0,0,2024-06-13T10:01:36.645Z,english_40.wav,0,0,8981,20,4,Chinese ,f,0,0,20.98315678,0.33544846
DJX,0,0,2024-06-13T10:01:36.645Z,english_40.wav,0,0,8981,20,4,Chinese ,f,1,0.1,80.64974175,0.81764939
DJX,0,0,2024-06-13T10:01:36.645Z,english_40.wav,0,0,8981,20,4,Chinese ,f,2,0.2,5.38930518,0.17548883
DJX,0,0,2024-06-13T10:01:36.645Z,english_40.wav,0,0,8981,20,4,Chinese ,f,3,0.3,18.83593916,0.83674413
DJX,0,0,2024-06-13T10:01:36.645Z,english_40.wav,0,0,8981,20,4,Chinese ,f,4,0.32341667,-14.62145671,0.80890384
DJX,1,0,2024-06-13T10:01:36.645Z,english_55.wav,0,1,1537,20,4,Chinese ,f,0,0,71.89255128,0.24931264
DJX,1,0,2024-06-13T10:01:36.645Z,english_55.wav,0,1,1537,20,4,Chinese ,f,1,0.1,0.20692224,1.79813092
DJX,1,0,2024-06-13T10:01:36.645Z,english_55.wav,0,1,1537,20,4,Chinese ,f,2,0.2,-68.61006599,0.71729895
DJX,1,0,2024-06-13T10:01:36.645Z,english_55.wav,0,1,1537,20,4,Chinese ,f,3,0.3,-5.20952515,1.28733782
DJX,1,0,2024-06-13T10:01:36.645Z,english_55.wav,0,1,1537,20,4,Chinese ,f,4,0.32341667,28.45991968,1.77061752
DJX,2,0,2024-06-13T10:01:36.645Z,english_350.wav,0,0,5364,20,4,Chinese ,f,0,0,97.64268741,0.61487918
DJX,2,0,2024-06-13T10:01:36.645Z,english_350.wav,0,0,5364,20,4,Chinese ,f,1,0.1,23.96704837,0.40988424
DJX,2,0,2024-06-13T10:01:36.645Z,english_350.wav,0,0,5364,20,4,Chinese ,f,2,0.2,50.30792237,0.86872158
DJX,2,0,2024-06-13T10:01:36.645Z,english_350.wav,0,0,5364,20,4,Chinese ,f,3,0.3,71.77937185,1.01783109
DJX,2,0,2024-06-13T10:01:36.645Z,english_350.wav,0,0,5364,20,4,Chinese ,f,4,0.32341667,-64.81416361,0.68761283
DJX,3,0,2024-06-13T10:01:36.645Z,english_492.wav,0,1,3790,20,4,Chinese ,f,0,0,-66.2832746,0.52930651
DJX,3,0,2024-06-13T10:01:36.645Z,english_492.wav,0,1,3790,20,4,Chinese ,f,1,0.1,-19.36008054,1.11739795
DJX,3,0,2024-06-13T10:01:36.645Z,english_492.wav,0,1,3790,20,4,Chinese ,f,2,0.2,95.25769545,1.86018292
DJX,3,0,2024-06-13T10:01:36.645Z,english_492.wav,0,1,3790,20,4,Chinese ,f,3,0.3,-42.69351484,0.07313262
DJX,3,0,2024-06-13T10:01:36.645Z,english_492.wav,0,1,3790,20,4,Chinese ,f,4,0.32341667,48.13359561,0.30480454
DJX,4,0,2024-06-13T10:01:36.645Z,english_666.wav,0,0,1270,20,4,Chinese ,f,0,0,-6.63307831,0.44221414
DJX,4,0,2024-06-13T10:01:36.645Z,english_666.wav,0,0,1270,20,4,Chinese ,f,1,0.1,-47.66524373,1.62559692
DJX,4,0,2024-06-13T10:01:36.645Z,english_666.wav,0,0,1270,20,4,Chinese ,f,2,0.2,66.93817534,0.27313334
DJX,4,0,2024-06-13T10:01:36.645Z,english_666.wav,0,0,1270,20,4,Chinese ,f,3,0.3,-1.338646,0.46846925
DJX,4,0,2024-06-13T10:01:36.645Z,english_666.wav,0,0,1270,20,4,Chinese ,f,4,0.32341667,-14.31927765,1.08883823
DJX,5,0,2024-06-13T10:01:36.645Z,english_392.wav,0,0,826,20,4,Chinese ,f,0,0,-12.90562814,1.13144201
DJX,5,0,2024-06-13T10:01:36.645Z,english_392.wav,0,0,826,20,4,Chinese ,f,1,0.1,-1.29416779,0.98893381
DJX,5,0,2024-06-13T10:01:36.645Z,english_392.wav,0,0,826,20,4,Chinese ,f,2,0.2,-53.34155903,0.07204825
DJX,5,0,2024-06-13T10:01:36.645Z,english_392.wav,0,0,826,20,4,Chinese ,f,3,0.3,-48.65153398,1.52779633
DJX,5,0,2024-06-13T10:01:36.645Z,english_392.wav,0,0,826,20,4,Chinese ,f,4,0.32341667,-43.47653164,1.32355089
DJX,6,0,2024-06-13T10:01:36.645Z,english_479.wav,0,0,981,20,4,Chinese ,f,0,0,74.98268857,0.98081986
DJX,6,0,2024-06-13T10:01:36.645Z,english_479.wav,0,0,981,20,4,Chinese ,f,1,0.1,16.03290679,0.71187618
DJX,6,0,2024-06-13T10:01:36.645Z,english_479.wav,0,0,981,20,4,Chinese ,f,2,0.2,78.97784812,0.27050369
DJX,6,0,2024-06-13T10:01:36.645Z,english_479.wav,0,0,981,20,4,Chinese ,f,3,0.3,-15.63843586,1.15797271
DJX,6,0,2024-06-13T10:01:36.645Z,english_479.wav,0,0,981,20,4,Chinese ,f,4,0.32341667,42.04802753,1.51318639
DJX,7,0,2024-06-13T10:01:36.645Z,english_830.wav,0,0,8241,20,4,Chinese ,f,0,0,2.63258607,0.89301132
DJX,7,0,2024-06-13T10:01:36.645Z,english_830.wav,0,0,8241,20,4,Chinese ,f,1,0.1,-31.8387274,1.32560067
DJX,7,0,2024-06-13T10:01:36.645Z,english_830.wav,0,0,8241,20,4,Chinese ,f,2,0.2,-6.78563658,1.08718884
DJX,7,0,2024-06-13T10:01:36.645Z,english_830.wav,0,0,8241,20,4,Chinese ,f,3,0.3,-57.52390495,0.53430446
DJX,7,0,2024-06-13T10:01:36.645Z,english_830.wav,0,0,8241,20,4,Chinese ,f,4,0.32341667,51.13575953,0.53816607
DJX,8,0,2024-06-13T10:01:36.645Z,english_763.wav,0,1,4442,20,4,Chinese ,f,0,0,64.63144232,0.7800836
DJX,8,0,2024-06-13T10:01:36.645Z,english_763.wav,0,1,4442,20,4,Chinese ,f,1,0.1,8.86346429,1.26656169
DJX,8,0,2024-06-13T10:01:36.645Z,english_763.wav,0,1,4442,20,4,Chinese ,f,2,0.2,32.79569159,1.93170043
DJX,8,0,2024-06-13T10:01:36.645Z,english_763.wav,0,1,4442,20,4,Chinese ,f,3,0.3,10.55051177,0.29422641
DJX,8,0,2024-06-13T10:01:36.645Z,english_763.wav,0,1,4442,20,4,Chinese ,f,4,0.32341667,6.38738619,1.43860225
DJX,9,0,2024-06-13T10:01:36.645Z,english_351.wav,0,0,950,20,4,Chinese ,f,0,0,-56.55455818,0.98366365
DJX,9,0,2024-06-13T10:01:36.645Z,english_351.wav,0,0,950,20,4,Chinese ,f,1,0.1,-81.1333892,1.13800808
DJX,9,0,2024-06-13T10:01:36.645Z,english_351.wav,0,0,950,20,4,Chinese ,f,2,0.2,70.95296343,1.04915948
DJX,9,0,2024-06-13T10:01:36.645Z,english_351.wav,0,0,950,20,4,Chinese ,f,3,0.3,-82.79021433,1.70890302
DJX,9,0,2024-06-13T10:01:36.645Z,english_351.wav,0,0,950,20,4,Chinese ,f,4,0.32341667,-21.34496407,1.83807055
DJX,10,0,2024-06-13T10:01:36.645Z,english_684.wav,0,1,1882,20,4,Chinese ,f,0,0,0.36394418,1.65924935
DJX,10,0,2024-06-13T10:01:36.645Z,english_684.wav,0,1,1882,20,4,Chinese ,f,1,0.1,28.47964645,1.32149406
DJX,10,0,2024-06-13T10:01:36.645Z,english_684.wav,0,1,1882,20,4,Chinese ,f,2,0.2,60.47995017,0.32417562
DJX,10,0,2024-06-13T10:01:36.645Z,english_684.wav,0,1,1882,20,4,Chinese ,f,3,0.3,-33.43266819,1.42108385
DJX,10,0,2024-06-13T10:01:36.645Z,english_684.wav,0,1,1882,20,4,Chinese ,f,4,0.32341667,-31.86672206,1.29243289
DJX,11,0,2024-06-13T10:01:36.645Z,english_252.wav,0,0,1399,20,4,Chinese ,f,0,0,79.75601627,0.77799761
DJX,11,0,2024-06-13T10:01:36.645Z,english_252.wav,0,0,1399,20,4,Chinese ,f,1,0.1,17.00183399,1.07711339
DJX,11,0,2024-06-13T10:01:36.645Z,english_252.wav,0,0,1399,20,4,Chinese ,f,2,0.2,-25.42800597,0.7917181
DJX,11,0,2024-06-13T10:01:36.645Z,english_252.wav,0,0,1399,20,4,Chinese ,f,3,0.3,-47.65138194,1.47632881
DJX,11,0,2024-06-13T10:01:36.645Z,english_252.wav,0,0,1399,20,4,Chinese ,f,4,0.32341667,35.10652067,1.65919103
DJX,12,0,2024-06-13T10:01:36.645Z,english_41.wav,0,0,1097,20,4,Chinese ,f,0,0,42.21237724,0.98996482
DJX,12,0,2024-06-13T10:01:36.645Z,english_41.wav,0,0,1097,20,4,Chinese ,f,1,0.1,33.8271633,0.77076848
DJX,12,0,2024-06-13T10:01:36.645Z,english_41.wav,0,0,1097,20,4,Chinese ,f,2,0.2,20.96644351,0.37402384
DJX,12,0,2024-06-13T10:01:36.645Z,english_41.wav,0,0,1097,20,4,Chinese ,f,3,0.3,-53.61985723,1.98545705
DJX,12,0,2024-06-13T10:01:36.645Z,english_41.wav,0,0,1097,20,4,Chinese ,f,4,0.32341667,-55.68725705,1.53352273
DJX,13,0,2024-06-13T10:01:36.645Z,english_970.wav,0,0,1244,20,4,Chinese ,f,0,0,37.22911191,0.60712849
DJX,13,0,2024-06-13T10:01:36.645Z,english_970.wav,0,0,1244,20,4,Chinese ,f,1,0.1,36.57191813,1.26781741
DJX,13,0,2024-06-13T10:01:36.645Z,english_970.wav,0,0,1244,20,4,Chinese ,f,2,0.2,20.2344678,1.29373459
DJX,13,0,2024-06-13T10:01:36.645Z,english_970.wav,0,0,1244,20,4,Chinese ,f,3,0.3,-86.31030026,0.18112256
DJX,13,0,2024-06-13T10:01:36.645Z,english_970.wav,0,0,1244,20,4,Chinese ,f,4,0.32341667,-83.96880691,1.07780169
DJX,14,0,2024-06-13T10:01:36.645Z,english_477.wav,0,0,1947,20,4,Chinese ,f,0,0,9.7496965,0.26828956
DJX,14,0,2024-06-13T10:01:36.645Z,english_477.wav,0,0,1947,20,4,Chinese ,f,1,0.1,70.56003184,0.51901368
DJX,14,0,2024-06-13T10:01:36.645Z,english_477.wav,0,0,1947,20,4,Chinese ,f,2,0.2,34.49551211,0.35677294
DJX,14,0,2024-06-13T10:01:36.645Z,english_477.wav,0,0,1947,20,4,Chinese ,f,3,0.3,-75.0597055,1.39462812
DJX,14,0,2024-06-13T10:01:36.645Z,english_477.wav,0,0,1947,20,4,Chinese ,f,4,0.32341667,-82.15638008,0.55199483
DJX,15,0,2024-06-13T10:01:36.645Z,english_710.wav,0,1,730,20,4,Chinese ,f,0,0,-75.8732007,1.76991952
DJX,15,0,2024-06-13T10:01:36.645Z,english_710.wav,0,1,730,20,4,Chinese ,f,1,0.1,-57.22858583,1.84377411
DJX,15,0,2024-06-13T10:01:36.645Z,english_710.wav,0,1,730,20,4,Chinese ,f,2,0.2,28.4956072,1.20069914
DJX,15,0,2024-06-13T10:01:36.645Z,english_710.wav,0,1,730,20,4,Chinese ,f,3,0.3,-96.06281818,0.06088286
DJX,15,0,2024-06-13T10:01:36.645Z,english_710.wav,0,1,730,20,4,Chinese ,f,4,0.32341667,12.57492899,1.86160088
DJX,16,0,2024-06-13T10:01:36.645Z,english_339.wav,0,0,5650,20,4,Chinese ,f,0,0,-58.67599578,0.13141934
DJX,16,0,2024-06-13T10:01:36.645Z,english_339.wav,0,0,5650,20,4,Chinese ,f,1,0.1,-13.30258388,0.16133177
DJX,16,0,2024-06-13T10:01:36.645Z,english_339.wav,0,0,5650,20,4,Chinese ,f,2,0.2,-52.40820381,1.13500643
DJX,16,0,2024-06-13T10:01:36.645Z,english_339.wav,0,0,5650,20,4,Chinese ,f,3,0.3,11.33062491,0.98717522
DJX,16,0,2024-06-13T10:01:36.645Z,english_339.wav,0,0,5650,20,4,Chinese ,f,4,0.32341667,9.6385593,0.10332776
DJX,17,0,2024-06-13T10:01:36.645Z,english_532.wav,0,1,1227,20,4,Chinese ,f,0,0,-19.59321792,1.69826346
DJX,17,0,2024-06-13T10:01:36.645Z,english_532.wav,0,1,1227,20,4,Chinese ,f,1,0.1,84.44945775,1.19849103
DJX,17,0,2024-06-13T10:01:36.645Z,english_532.wav,0,1,1227,20,4,Chinese ,f,2,0.2,-5.6477907,0.05164805
DJX,17,0,2024-06-13T10:01:36.645Z,english_532.wav,0,1,1227,20,4,Chinese ,f,3,0.3,-66.11375502,0.74129516
DJX,17,0,2024-06-13T10:01:36.645Z,english_532.wav,0,1,1227,20,4,Chinese ,f,4,0.32341667,-46.16722618,0.11393119
DJX,18,0,2024-06-13T10:01:36.645Z,english_410.wav,0,0,870,20,4,Chinese ,f,0,0,-74.64506245,0.42358098
DJX,18,0,2024-06-13T10:01:36.645Z,english_410.wav,0,0,870,20,4,Chinese ,f,1,0.1,65.24401488,0.42526697
DJX,18,0,2024-06-13T10:01:36.645Z,english_410.wav,0,0,870,20,4,Chinese ,f,2,0.2,-65.86471953,1.12385183
DJX,18,0,2024-06-13T10:01:36.645Z,english_410.wav,0,0,870,20,4,Chinese ,f,3,0.3,98.79489106,0.33588109
DJX,18,0,2024-06-13T10:01:36.645Z,english_410.wav,0,0,870,20,4,Chinese ,f,4,0.32341667,14.95451541,1.7246864
DJX,19,0,2024-06-13T10:01:36.645Z,english_16.wav,0,1,655,20,4,Chinese ,f,0,0,-86.84797814,0.47796166
DJX,19,0,2024-06-13T10:01:36.645Z,english_16.wav,0,1,655,20,4,Chinese ,f,1,0.1,29.78439304,1.82902446
DJX,19,0,2024-06-13T10:01:36.645Z,english_16.wav,0,1,655,20,4,Chinese ,f,2,0.2,93.37667148,1.57835565
DJX,19,0,2024-06-13T10:01:36.645Z,english_16.wav,0,1,655,20,4,Chinese ,f,3,0.3,-84.28086854,0.98546729
DJX,19,0,2024-06-13T10:01:36.645Z,english_16.wav,0,1,655,20,4,Chinese ,f,4,0.32341667,-8.77302982,0.88950072
DJX,20,0,2024-06-13T10:01:36.645Z,english_311.wav,0,0,792,20,4,Chinese ,f,0,0,-35.59355899,0.16094856
DJX,20,0,2024-06-13T10:01:36.645Z,english_311.wav,0,0,792,20,4,Chinese ,f,1,0.1,-50.39310557,1.33895436
DJX,20,0,2024-06-13T10:01:36.645Z,english_311.wav,0,0,792,20,4,Chinese ,f,2,0.2,-53.37222601,0.01028283
DJX,20,0,2024-06-13T10:01:36.645Z,english_311.wav,0,0,792,20,4,Chinese ,f,3,0.3,72.25802658,0.48497386
DJX,20,0,2024-06-13T10:01:36.645Z,english_311.wav,0,0,792,20,4,Chinese ,f,4,0.32341667,48.72421008,0.48591183
DJX,21,0,2024-06-13T10:01:36.645Z,english_604.wav,0,1,544,20,4,Chinese ,f,0,0,11.37360706,1.9162078
DJX,21,0,2024-06-13T10:01:36.645Z,english_604.wav,0,1,544,20,4,Chinese ,f,1,0.1,-50.20832577,0.59247461
DJX,21,0,2024-06-13T10:01:36.645Z,english_604.wav,0,1,544,20,4,Chinese ,f,2,0.2,-34.39542541,1.79911242
DJX,21,0,2024-06-13T10:01:36.645Z,english_604.wav,0,1,544,20,4,Chinese ,f,3,0.3,-9.87560088,0.998763
DJX,21,0,2024-06-13T10:01:36.645Z,english_604.wav,0,1,544,20,4,Chinese ,f,4,0.32341667,34.71454295,0.76768671
DJX,22,0,2024-06-13T10:01:36.645Z,english_942.wav,0,1,3115,20,4,Chinese ,f,0,0,96.26286183,1.14976657
DJX,22,0,2024-06-13T10:01:36.645Z,english_942.wav,0,1,3115,20,4,Chinese ,f,1,0.1,-96.45992778,0.962364
DJX,22,0,2024-06-13T10:01:36.645Z,english_942.wav,0,1,3115,20,4,Chinese ,f,2,0.2,50.93322043,0.99280793
DJX,22,0,2024-06-13T10:01:36.645Z,english_942.wav,0,1,3115,20,4,Chinese ,f,3,0.3,14.6207779,1.92237923
DJX,22,0,2024-06-13T10:01:36.645Z,english_942.wav,0,1,3115,20,4,Chinese ,f,4,0.32341667,7.19296333,1.02094568
DJX,23,0,2024-06-13T10:01:36.645Z,english_795.wav,0,0,2225,20,4,Chinese ,f,0,0,39.36518311,1.47453336
DJX,23,0,2024-06-13T10:01:36.645Z,english_795.wav,0,0,2225,20,4,Chinese ,f,1,0.1,16.50141431,0.29075574
DJX,23,0,2024-06-13T10:01:36.645Z,english_795.wav,0,0,2225,20,4,Chinese ,f,2,0.2,54.87860026,1.88174141
DJX,23,0,2024-06-13T10:01:36.645Z,english_795.wav,0,0,2225,20,4,Chinese ,f,3,0.3,61.09971909,0.27471403
DJX,23,0,2024-06-13T10:01:36.645Z,english_795.wav,0,0,2225,20,4,Chinese ,f,4,0.32341667,4.28490532,0.11399574
DJX,24,0,2024-06-13T10:01:36.645Z,english_329.wav,0,1,1337,20,4,Chinese ,f,0,0,-48.89108629,1.2424848
DJX,24,0,2024-06-13T10:01:36.645Z,english_329.wav,0,1,1337,20,4,Chinese ,f,1,0.1,55.67852038,1.73811564
DJX,24,0,2024-06-13T10:01:36.645Z,english_329.wav,0,1,1337,20,4,Chinese ,f,2,0.2,48.16827585,0.4928271
DJX,24,0,2024-06-13T10:01:36.645Z,english_329.wav,0,1,1337,20,4,Chinese ,f,3,0.3,73.70818564,0.68407289
DJX,24,0,2024-06-13T10:01:36.645Z,english_329.wav,0,1,1337,20,4,Chinese ,f,4,0.32341667,85.70797026,1.92917435
DJX,25,0,2024-06-13T10:01:36.645Z,english_370.wav,0,0,2709,20,4,Chinese ,f,0,0,-90.17078727,0.17796458
DJX,25,0,2024-06-13T10:01:36.645Z,english_370.wav,0,0,2709,20,4,Chinese ,f,1,0.1,-71.99280791,1.08934715
DJX,25,0,2024-06-13T10:01:36.645Z,english_370.wav,0,0,2709,20,4,Chinese ,f,2,0.2,-13.60727202,1.05914244
DJX,25,0,2024-06-13T10:01:36.645Z,english_370.wav,0,0,2709,20,4,Chinese ,f,3,0.3,-0.93192742,1.87852505
DJX,25,0,2024-06-13T10:01:36.645Z,english_370.wav,0,0,2709,20,4,Chinese ,f,4,0.32341667,33.27852394,1.24161401
DJX,26,0,2024-06-13T10:01:36.645Z,english_940.wav,0,0,33467,20,4,Chinese ,f,0,0,47.11462569,0.32214594
DJX,26,0,2024-06-13T10:01:36.645Z,english_940.wav,0,0,33467,20,4,Chinese ,f,1,0.1,11.81885745,0.21999868
DJX,26,0,2024-06-13T10:01:36.645Z,english_940.wav,0,0,33467,20,4,Chinese ,f,2,0.2,-1.49931669,0.34357292
DJX,26,0,2024-06-13T10:01:36.645Z,english_940.wav,0,0,33467,20,4,Chinese ,f,3,0.3,45.92466934,1.61274527
DJX,26,0,2024-06-13T10:01:36.645Z,english_940.wav,0,0,33467,20,4,Chinese ,f,4,0.32341667,-72.78738407,0.9185628
DJX,27,0,2024-06-13T10:01:36.645Z,english_53.wav,0,0,844,20,4,Chinese ,f,0,0,5.97237457,0.42230306
DJX,27,0,2024-06-13T10:01:36.645Z,english_53.wav,0,0,844,20,4,Chinese ,f,1,0.1,-76.12131912,0.60624646
DJX,27,0,2024-06-13T10:01:36.645Z,english_53.wav,0,0,844,20,4,Chinese ,f,2,0.2,55.18337216,0.26369256
DJX,27,0,2024-06-13T10:01:36.645Z,english_53.wav,0,0,844,20,4,Chinese ,f,3,0.3,70.32610425,1.07400525
DJX,27,0,2024-06-13T10:01:36.645Z,english_53.wav,0,0,844,20,4,Chinese ,f,4,0.32341667,26.40450832,0.2721545
DJX,28,0,2024-06-13T10:01:36.645Z,english_697.wav,0,0,1014,20,4,Chinese ,f,0,0,34.8877197,0.10761674
DJX,28,0,2024-06-13T10:01:36.645Z,english_697.wav,0,0,1014,20,4,Chinese ,f,1,0.1,-0.0129750448,0.88035305
DJX,28,0,2024-06-13T10:01:36.645Z,english_697.wav,0,0,1014,20,4,Chinese ,f,2,0.2,48.8877829,0.12183403
DJX,28,0,2024-06-13T10:01:36.645Z,english_697.wav,0,0,1014,20,4,Chinese ,f,3,0.3,68.5745634,0.55306263
DJX,28,0,2024-06-13T10:01:36.645Z,english_697.wav,0,0,1014,20,4,Chinese ,f,4,0.323416667,18.9536775,1.83833688
DJX,29,0,2024-06-13T10:01:36.645Z,english_114.wav,0,1,1012,20,4,Chinese ,f,0,0,32.66189176,0.56529239
DJX,29,0,2024-06-13T10:01:36.645Z,english_114.wav,0,1,1012,20,4,Chinese ,f,1,0.1,11.50533392,1.79520186
DJX,29,0,2024-06-13T10:01:36.645Z,english_114.wav,0,1,1012,20,4,Chinese ,f,2,0.2,-73.58201401,1.4619954
DJX,29,0,2024-06-13T10:01:36.645Z,english_114.wav,0,1,1012,20,4,Chinese ,f,3,0.3,-8.93644113,0.78288211
DJX,29,0,2024-06-13T10:01:36.645Z,english_114.wav,0,1,1012,20,4,Chinese ,f,4,0.32341667,-2.4794064,0.66376764
DJX,30,0,2024-06-13T10:01:36.645Z,english_144.wav,0,0,693,20,4,Chinese ,f,0,0,-68.95587174,0.23806678
DJX,30,0,2024-06-13T10:01:36.645Z,english_144.wav,0,0,693,20,4,Chinese ,f,1,0.1,-74.16141139,0.77020267
DJX,30,0,2024-06-13T10:01:36.645Z,english_144.wav,0,0,693,20,4,Chinese ,f,2,0.2,-19.31034794,0.33858197
DJX,30,0,2024-06-13T10:01:36.645Z,english_144.wav,0,0,693,20,4,Chinese ,f,3,0.3,-77.96768175,1.42512122
DJX,30,0,2024-06-13T10:01:36.645Z,english_144.wav,0,0,693,20,4,Chinese ,f,4,0.32341667,3.46911061,0.57629619
DJX,31,0,2024-06-13T10:01:36.645Z,english_121.wav,0,0,2011,20,4,Chinese ,f,0,0,-30.24687583,0.23154591
DJX,31,0,2024-06-13T10:01:36.645Z,english_121.wav,0,0,2011,20,4,Chinese ,f,1,0.1,-28.09260766,0.6680997
DJX,31,0,2024-06-13T10:01:36.645Z,english_121.wav,0,0,2011,20,4,Chinese ,f,2,0.2,-29.54951374,1.79539672
DJX,31,0,2024-06-13T10:01:36.645Z,english_121.wav,0,0,2011,20,4,Chinese ,f,3,0.3,-37.35286973,0.57554739
DJX,31,0,2024-06-13T10:01:36.645Z,english_121.wav,0,0,2011,20,4,Chinese ,f,4,0.32341667,58.68529554,1.8709958
DJX,32,0,2024-06-13T10:01:36.645Z,english_43.wav,0,0,856,20,4,Chinese ,f,0,0,22.40064366,1.74132857
DJX,32,0,2024-06-13T10:01:36.645Z,english_43.wav,0,0,856,20,4,Chinese ,f,1,0.1,-68.20152198,0.12763156
DJX,32,0,2024-06-13T10:01:36.645Z,english_43.wav,0,0,856,20,4,Chinese ,f,2,0.2,62.56231291,0.31420738
DJX,32,0,2024-06-13T10:01:36.645Z,english_43.wav,0,0,856,20,4,Chinese ,f,3,0.3,45.0736378,0.98572154
DJX,32,0,2024-06-13T10:01:36.645Z,english_43.wav,0,0,856,20,4,Chinese ,f,4,0.32341667,-36.46791656,0.91325677
DJX,33,0,2024-06-13T10:01:36.645Z,english_452.wav,0,0,1193,20,4,Chinese ,f,0,0,-15.91859121,0.16050204
DJX,33,0,2024-06-13T10:01:36.645Z,english_452.wav,0,0,1193,20,4,Chinese ,f,1,0.1,66.54493607,1.05820221
DJX,33,0,2024-06-13T10:01:36.645Z,english_452.wav,0,0,1193,20,4,Chinese ,f,2,0.2,49.2405228,1.42476674
DJX,33,0,2024-06-13T10:01:36.645Z,english_452.wav,0,0,1193,20,4,Chinese ,f,3,0.3,-8.75382859,0.48128336
DJX,33,0,2024-06-13T10:01:36.645Z,english_452.wav,0,0,1193,20,4,Chinese ,f,4,0.32341667,-35.51952716,0.52453318
DJX,34,0,2024-06-13T10:01:36.645Z,english_526.wav,0,0,723,20,4,Chinese ,f,0,0,-32.34532461,0.924261
DJX,34,0,2024-06-13T10:01:36.645Z,english_526.wav,0,0,723,20,4,Chinese ,f,1,0.1,-46.6208459,0.25414499
DJX,34,0,2024-06-13T10:01:36.645Z,english_526.wav,0,0,723,20,4,Chinese ,f,2,0.2,-42.84927068,1.01925886
DJX,34,0,2024-06-13T10:01:36.645Z,english_526.wav,0,0,723,20,4,Chinese ,f,3,0.3,3.47643827,0.65966822
DJX,34,0,2024-06-13T10:01:36.645Z,english_526.wav,0,0,723,20,4,Chinese ,f,4,0.32341667,52.79087598,1.50872035
DJX,35,0,2024-06-13T10:01:36.645Z,english_724.wav,0,0,2863,20,4,Chinese ,f,0,0,-91.46740291,0.46376674
DJX,35,0,2024-06-13T10:01:36.645Z,english_724.wav,0,0,2863,20,4,Chinese ,f,1,0.1,23.01616352,1.84849858
DJX,35,0,2024-06-13T10:01:36.645Z,english_724.wav,0,0,2863,20,4,Chinese ,f,2,0.2,-29.32408493,1.44978715
DJX,35,0,2024-06-13T10:01:36.645Z,english_724.wav,0,0,2863,20,4,Chinese ,f,3,0.3,-79.49145217,1.24719002
DJX,35,0,2024-06-13T10:01:36.645Z,english_724.wav,0,0,2863,20,4,Chinese ,f,4,0.32341667,82.35247912,0.99570929
DJX,36,0,2024-06-13T10:01:36.645Z,english_10.wav,0,0,1411,20,4,Chinese ,f,0,0,-80.92247099,1.33142191
DJX,36,0,2024-06-13T10:01:36.645Z,english_10.wav,0,0,1411,20,4,Chinese ,f,1,0.1,11.56157957,0.6588087
DJX,36,0,2024-06-13T10:01:36.645Z,english_10.wav,0,0,1411,20,4,Chinese ,f,2,0.2,72.61501241,1.62851887
DJX,36,0,2024-06-13T10:01:36.645Z,english_10.wav,0,0,1411,20,4,Chinese ,f,3,0.3,91.01400741,1.4109269
DJX,36,0,2024-06-13T10:01:36.645Z,english_10.wav,0,0,1411,20,4,Chinese ,f,4,0.32341667,-64.58672822,0.76235223
DJX,37,0,2024-06-13T10:01:36.645Z,english_236.wav,0,0,2314,20,4,Chinese ,f,0,0,14.26564849,0.89253674
DJX,37,0,2024-06-13T10:01:36.645Z,english_236.wav,0,0,2314,20,4,Chinese ,f,1,0.1,60.97219358,0.38957934
DJX,37,0,2024-06-13T10:01:36.645Z,english_236.wav,0,0,2314,20,4,Chinese ,f,2,0.2,-12.39626346,1.55558051
DJX,37,0,2024-06-13T10:01:36.645Z,english_236.wav,0,0,2314,20,4,Chinese ,f,3,0.3,-62.87774076,0.2682718
DJX,37,0,2024-06-13T10:01:36.645Z,english_236.wav,0,0,2314,20,4,Chinese ,f,4,0.32341667,-75.97684705,1.92182597
DJX,38,0,2024-06-13T10:01:36.645Z,english_439.wav,0,0,522,20,4,Chinese ,f,0,0,-34.98153375,0.51703437
DJX,38,0,2024-06-13T10:01:36.645Z,english_439.wav,0,0,522,20,4,Chinese ,f,1,0.1,58.81829455,0.92552513
DJX,38,0,2024-06-13T10:01:36.645Z,english_439.wav,0,0,522,20,4,Chinese ,f,2,0.2,-39.64168408,1.94754337
DJX,38,0,2024-06-13T10:01:36.645Z,english_439.wav,0,0,522,20,4,Chinese ,f,3,0.3,-65.89684329,0.19153473
DJX,38,0,2024-06-13T10:01:36.645Z,english_439.wav,0,0,522,20,4,Chinese ,f,4,0.32341667,-18.09409032,1.29438445
DJX,39,0,2024-06-13T10:01:36.645Z,english_731.wav,0,0,1485,20,4,Chinese ,f,0,0,91.74609406,0.2840719
DJX,39,0,2024-06-13T10:01:36.645Z,english_731.wav,0,0,1485,20,4,Chinese ,f,1,0.1,96.5637085,1.75324284
DJX,39,0,2024-06-13T10:01:36.645Z,english_731.wav,0,0,1485,20,4,Chinese ,f,2,0.2,-58.02596537,1.43086201
DJX,39,0,2024-06-13T10:01:36.645Z,english_731.wav,0,0,1485,20,4,Chinese ,f,3,0.3,21.59328018,1.68336342
DJX,39,0,2024-06-13T10:01:36.645Z,english_731.wav,0,0,1485,20,4,Chinese ,f,4,0.32341667,13.26044458,0.60031718
DJX,40,0,2024-06-13T10:01:36.645Z,english_275.wav,0,0,606,20,4,Chinese ,f,0,0,-1.14725012,0.71691039
DJX,40,0,2024-06-13T10:01:36.645Z,english_275.wav,0,0,606,20,4,Chinese ,f,1,0.1,-90.43848863,0.74614953
DJX,40,0,2024-06-13T10:01:36.645Z,english_275.wav,0,0,606,20,4,Chinese ,f,2,0.2,-40.03711279,1.94843862
DJX,40,0,2024-06-13T10:01:36.645Z,english_275.wav,0,0,606,20,4,Chinese ,f,3,0.3,-29.12549604,0.32495742
DJX,40,0,2024-06-13T10:01:36.645Z,english_275.wav,0,0,606,20,4,Chinese ,f,4,0.32341667,77.33253221,0.61649877
DJX,41,0,2024-06-13T10:01:36.645Z,english_595.wav,0,1,1934,20,4,Chinese ,f,0,0,-39.84727911,1.6526444
DJX,41,0,2024-06-13T10:01:36.645Z,english_595.wav,0,1,1934,20,4,Chinese ,f,1,0.1,-68.85607622,1.11711065
DJX,41,0,2024-06-13T10:01:36.645Z,english_595.wav,0,1,1934,20,4,Chinese ,f,2,0.2,23.68364187,1.96516016
DJX,41,0,2024-06-13T10:01:36.645Z,english_595.wav,0,1,1934,20,4,Chinese ,f,3,0.3,-80.51887658,0.34053421
DJX,41,0,2024-06-13T10:01:36.645Z,english_595.wav,0,1,1934,20,4,Chinese ,f,4,0.32341667,-94.66311932,1.22603371
DJX,42,0,2024-06-13T10:01:36.645Z,english_842.wav,0,0,698,20,4,Chinese ,f,0,0,-48.5952207,0.12382156
DJX,42,0,2024-06-13T10:01:36.645Z,english_842.wav,0,0,698,20,4,Chinese ,f,1,0.1,29.19485822,1.75564688
DJX,42,0,2024-06-13T10:01:36.645Z,english_842.wav,0,0,698,20,4,Chinese ,f,2,0.2,84.54328152,0.24815543
DJX,42,0,2024-06-13T10:01:36.645Z,english_842.wav,0,0,698,20,4,Chinese ,f,3,0.3,69.99994667,1.2885643
DJX,42,0,2024-06-13T10:01:36.645Z,english_842.wav,0,0,698,20,4,Chinese ,f,4,0.32341667,56.72069463,0.70518165
DJX,43,0,2024-06-13T10:01:36.645Z,english_674.wav,0,0,2552,20,4,Chinese ,f,0,0,-38.60253285,0.25488683
DJX,43,0,2024-06-13T10:01:36.645Z,english_674.wav,0,0,2552,20,4,Chinese ,f,1,0.1,46.14948962,1.80679583
DJX,43,0,2024-06-13T10:01:36.645Z,english_674.wav,0,0,2552,20,4,Chinese ,f,2,0.2,-49.76414787,1.59420413
DJX,43,0,2024-06-13T10:01:36.645Z,english_674.wav,0,0,2552,20,4,Chinese ,f,3,0.3,-66.16492387,1.25714797
DJX,43,0,2024-06-13T10:01:36.645Z,english_674.wav,0,0,2552,20,4,Chinese ,f,4,0.32341667,28.37583826,1.20557216
DJX,44,0,2024-06-13T10:01:36.645Z,english_982.wav,0,0,784,20,4,Chinese ,f,0,0,12.44046596,0.81508625
DJX,44,0,2024-06-13T10:01:36.645Z,english_982.wav,0,0,784,20,4,Chinese ,f,1,0.1,-60.41666302,0.92712357
DJX,44,0,2024-06-13T10:01:36.645Z,english_982.wav,0,0,784,20,4,Chinese ,f,2,0.2,-35.31499742,0.77678916
DJX,44,0,2024-06-13T10:01:36.645Z,english_982.wav,0,0,784,20,4,Chinese ,f,3,0.3,-10.96739076,1.0294352
DJX,44,0,2024-06-13T10:01:36.645Z,english_982.wav,0,0,784,20,4,Chinese ,f,4,0.32341667,44.50624474,1.1322674
DJX,45,0,2024-06-13T10:01:36.645Z,english_33.wav,0,1,1319,20,4,Chinese ,f,0,0,13.53683954,1.37746345
DJX,45,0,2024-06-13T10:01:36.645Z,english_33.wav,0,1,1319,20,4,Chinese ,f,1,0.1,-23.61599557,1.14776292
DJX,45,0,2024-06-13T10:01:36.645Z,english_33.wav,0,1,1319,20,4,Chinese ,f,2,0.2,60.58241295,1.15899553
DJX,45,0,2024-06-13T10:01:36.645Z,english_33.wav,0,1,1319,20,4,Chinese ,f,3,0.3,-2.03686091,0.64766031
DJX,45,0,2024-06-13T10:01:36.645Z,english_33.wav,0,1,1319,20,4,Chinese ,f,4,0.32341667,79.90239576,1.69768968
DJX,46,0,2024-06-13T10:01:36.645Z,english_466.wav,0,0,1089,20,4,Chinese ,f,0,0,59.64739432,1.91119383
DJX,46,0,2024-06-13T10:01:36.645Z,english_466.wav,0,0,1089,20,4,Chinese ,f,1,0.1,-20.63646321,1.29572765
DJX,46,0,2024-06-13T10:01:36.645Z,english_466.wav,0,0,1089,20,4,Chinese ,f,2,0.2,62.86141463,0.99944191
DJX,46,0,2024-06-13T10:01:36.645Z,english_466.wav,0,0,1089,20,4,Chinese ,f,3,0.3,-65.74461877,1.01221774
DJX,46,0,2024-06-13T10:01:36.645Z,english_466.wav,0,0,1089,20,4,Chinese ,f,4,0.32341667,44.70090984,0.89697717
DJX,47,0,2024-06-13T10:01:36.645Z,english_585.wav,0,0,613,20,4,Chinese ,f,0,0,-47.47167609,0.91486293
DJX,47,0,2024-06-13T10:01:36.645Z,english_585.wav,0,0,613,20,4,Chinese ,f,1,0.1,-85.73018253,0.8051019
DJX,47,0,2024-06-13T10:01:36.645Z,english_585.wav,0,0,613,20,4,Chinese ,f,2,0.2,4.69567907,1.25289508
DJX,47,0,2024-06-13T10:01:36.645Z,english_585.wav,0,0,613,20,4,Chinese ,f,3,0.3,51.83381109,0.83258124
DJX,47,0,2024-06-13T10:01:36.645Z,english_585.wav,0,0,613,20,4,Chinese ,f,4,0.32341667,14.12777642,1.43411439
DJX,48,0,2024-06-13T10:01:36.645Z,english_808.wav,0,0,585,20,4,Chinese ,f,0,0,23.02589628,1.07384277
DJX,48,0,2024-06-13T10:01:36.645Z,english_808.wav,0,0,585,20,4,Chinese ,f,1,0.1,10.58817829,1.3919179
DJX,48,0,2024-06-13T10:01:36.645Z,english_808.wav,0,0,585,20,4,Chinese ,f,2,0.2,36.77134597,0.54960524
DJX,48,0,2024-06-13T10:01:36.645Z,english_808.wav,0,0,585,20,4,Chinese ,f,3,0.3,-30.31603221,1.95871365
DJX,48,0,2024-06-13T10:01:36.645Z,english_808.wav,0,0,585,20,4,Chinese ,f,4,0.32341667,9.74764343,0.79150541
DJX,49,0,2024-06-13T10:01:36.645Z,english_657.wav,0,0,430,20,4,Chinese ,f,0,0,30.03208284,1.42095662
DJX,49,0,2024-06-13T10:01:36.645Z,english_657.wav,0,0,430,20,4,Chinese ,f,1,0.1,-5.57127058,1.29790323
DJX,49,0,2024-06-13T10:01:36.645Z,english_657.wav,0,0,430,20,4,Chinese ,f,2,0.2,9.55793083,0.51612643
DJX,49,0,2024-06-13T10:01:36.645Z,english_657.wav,0,0,430,20,4,Chinese ,f,3,0.3,3.39766504,0.37671101
DJX,49,0,2024-06-13T10:01:36.645Z,english_657.wav,0,0,430,20,4,Chinese ,f,4,0.32341667,84.38659916,1.20124021
DJX,50,1,2024-06-13T10:07:15.649Z,english_735.wav,0,1,1849,20,4,Chinese ,f,0,0,51.40973306,0.29099813
DJX,50,1,2024-06-13T10:07:15.649Z,english_735.wav,0,1,1849,20,4,Chinese ,f,1,0.1,-5.42867159,1.62833375
DJX,50,1,2024-06-13T10:07:15.649Z,english_735.wav,0,1,1849,20,4,Chinese ,f,2,0.2,13.71146629,0.32849247
DJX,50,1,2024-06-13T10:07:15.649Z,english_735.wav,0,1,1849,20,4,Chinese ,f,3,0.3,-14.17202169,0.46991549
DJX,50,1,2024-06-13T10:07:15.649Z,english_735.wav,0,1,1849,20,4,Chinese ,f,4,0.32341667,14.98699592,0.51625305
DJX,51,1,2024-06-13T10:07:15.649Z,english_87.wav,0,0,3816,20,4,Chinese ,f,0,0,54.83056612,1.56132998
DJX,51,1,2024-06-13T10:07:15.649Z,english_87.wav,0,0,3816,20,4,Chinese ,f,1,0.1,56.31531505,1.28614089
DJX,51,1,2024-06-13T10:07:15.649Z,english_87.wav,0,0,3816,20,4,Chinese ,f,2,0.2,-65.55002777,1.44579989
DJX,51,1,2024-06-13T10:07:15.649Z,english_87.wav,0,0,3816,20,4,Chinese ,f,3,0.3,-25.15788212,0.3607766
DJX,51,1,2024-06-13T10:07:15.649Z,english_87.wav,0,0,3816,20,4,Chinese ,f,4,0.32341667,22.72349562,0.17745198
DJX,52,1,2024-06-13T10:07:15.649Z,english_455.wav,0,0,782,20,4,Chinese ,f,0,0,16.09493262,0.21208686
DJX,52,1,2024-06-13T10:07:15.649Z,english_455.wav,0,0,782,20,4,Chinese ,f,1,0.1,24.58982,1.0305564
DJX,52,1,2024-06-13T10:07:15.649Z,english_455.wav,0,0,782,20,4,Chinese ,f,2,0.2,-59.31201859,1.53057992
DJX,52,1,2024-06-13T10:07:15.649Z,english_455.wav,0,0,782,20,4,Chinese ,f,3,0.3,40.79603426,0.62599766
DJX,52,1,2024-06-13T10:07:15.649Z,english_455.wav,0,0,782,20,4,Chinese ,f,4,0.32341667,-39.30035714,1.43054244
DJX,53,1,2024-06-13T10:07:15.649Z,english_518.wav,0,0,1303,20,4,Chinese ,f,0,0,52.37511869,0.23824141
DJX,53,1,2024-06-13T10:07:15.649Z,english_518.wav,0,0,1303,20,4,Chinese ,f,1,0.1,-33.3490586,0.80559068
DJX,53,1,2024-06-13T10:07:15.649Z,english_518.wav,0,0,1303,20,4,Chinese ,f,2,0.2,-71.20035434,1.24725456
DJX,53,1,2024-06-13T10:07:15.649Z,english_518.wav,0,0,1303,20,4,Chinese ,f,3,0.3,6.23243823,1.01334401
DJX,53,1,2024-06-13T10:07:15.649Z,english_518.wav,0,0,1303,20,4,Chinese ,f,4,0.32341667,-29.48660546,1.51264586
DJX,54,1,2024-06-13T10:07:15.649Z,english_902.wav,0,0,926,20,4,Chinese ,f,0,0,-4.27617126,0.16330526
DJX,54,1,2024-06-13T10:07:15.649Z,english_902.wav,0,0,926,20,4,Chinese ,f,1,0.1,-5.01127315,0.62492789
DJX,54,1,2024-06-13T10:07:15.649Z,english_902.wav,0,0,926,20,4,Chinese ,f,2,0.2,83.22080084,1.08638924
DJX,54,1,2024-06-13T10:07:15.649Z,english_902.wav,0,0,926,20,4,Chinese ,f,3,0.3,77.56473772,1.61764227
DJX,54,1,2024-06-13T10:07:15.649Z,english_902.wav,0,0,926,20,4,Chinese ,f,4,0.32341667,-13.02741535,1.72075309
DJX,55,1,2024-06-13T10:07:15.649Z,english_361.wav,0,0,875,20,4,Chinese ,f,0,0,47.37783877,1.2281625
DJX,55,1,2024-06-13T10:07:15.649Z,english_361.wav,0,0,875,20,4,Chinese ,f,1,0.1,41.96620543,0.32170701
DJX,55,1,2024-06-13T10:07:15.649Z,english_361.wav,0,0,875,20,4,Chinese ,f,2,0.2,-99.83447432,0.41267147
DJX,55,1,2024-06-13T10:07:15.649Z,english_361.wav,0,0,875,20,4,Chinese ,f,3,0.3,-83.75612903,0.32528287
DJX,55,1,2024-06-13T10:07:15.649Z,english_361.wav,0,0,875,20,4,Chinese ,f,4,0.32341667,99.31228573,0.29737668
DJX,56,1,2024-06-13T10:07:15.649Z,english_420.wav,0,1,998,20,4,Chinese ,f,0,0,-56.31893026,0.25307214
DJX,56,1,2024-06-13T10:07:15.649Z,english_420.wav,0,1,998,20,4,Chinese ,f,1,0.1,66.6522923,1.93095887
DJX,56,1,2024-06-13T10:07:15.649Z,english_420.wav,0,1,998,20,4,Chinese ,f,2,0.2,2.15493058,0.49520396
DJX,56,1,2024-06-13T10:07:15.649Z,english_420.wav,0,1,998,20,4,Chinese ,f,3,0.3,-23.51601285,1.55970731
DJX,56,1,2024-06-13T10:07:15.649Z,english_420.wav,0,1,998,20,4,Chinese ,f,4,0.32341667,22.32226467,0.71957325
DJX,57,1,2024-06-13T10:07:15.649Z,english_451.wav,0,0,546,20,4,Chinese ,f,0,0,-87.31297583,0.44823779
DJX,57,1,2024-06-13T10:07:15.649Z,english_451.wav,0,0,546,20,4,Chinese ,f,1,0.1,-44.51362963,0.44678563
DJX,57,1,2024-06-13T10:07:15.649Z,english_451.wav,0,0,546,20,4,Chinese ,f,2,0.2,-15.52945473,1.69444841
DJX,57,1,2024-06-13T10:07:15.649Z,english_451.wav,0,0,546,20,4,Chinese ,f,3,0.3,11.70886435,0.18586344
DJX,57,1,2024-06-13T10:07:15.649Z,english_451.wav,0,0,546,20,4,Chinese ,f,4,0.32341667,82.84342256,0.9677256
DJX,58,1,2024-06-13T10:07:15.649Z,english_568.wav,0,0,656,20,4,Chinese ,f,0,0,-80.38325009,1.52383372
DJX,58,1,2024-06-13T10:07:15.649Z,english_568.wav,0,0,656,20,4,Chinese ,f,1,0.1,65.28340143,0.37337456
DJX,58,1,2024-06-13T10:07:15.649Z,english_568.wav,0,0,656,20,4,Chinese ,f,2,0.2,22.57833022,0.67023469
DJX,58,1,2024-06-13T10:07:15.649Z,english_568.wav,0,0,656,20,4,Chinese ,f,3,0.3,-55.44872251,1.98652091
DJX,58,1,2024-06-13T10:07:15.649Z,english_568.wav,0,0,656,20,4,Chinese ,f,4,0.32341667,-94.3142815,1.15861726
DJX,59,1,2024-06-13T10:07:15.649Z,english_375.wav,0,0,692,20,4,Chinese ,f,0,0,18.096335,0.30735121
DJX,59,1,2024-06-13T10:07:15.649Z,english_375.wav,0,0,692,20,4,Chinese ,f,1,0.1,-55.77885891,1.17808606
DJX,59,1,2024-06-13T10:07:15.649Z,english_375.wav,0,0,692,20,4,Chinese ,f,2,0.2,-79.80603762,1.03107785
DJX,59,1,2024-06-13T10:07:15.649Z,english_375.wav,0,0,692,20,4,Chinese ,f,3,0.3,-57.7566014,0.46519988
DJX,59,1,2024-06-13T10:07:15.649Z,english_375.wav,0,0,692,20,4,Chinese ,f,4,0.32341667,74.14673873,1.41875211
DJX,60,1,2024-06-13T10:07:15.649Z,english_434.wav,0,0,661,20,4,Chinese ,f,0,0,-4.12787863,0.96421208
DJX,60,1,2024-06-13T10:07:15.649Z,english_434.wav,0,0,661,20,4,Chinese ,f,1,0.1,-30.19441281,1.08561731
DJX,60,1,2024-06-13T10:07:15.649Z,english_434.wav,0,0,661,20,4,Chinese ,f,2,0.2,41.04377471,1.46356301
DJX,60,1,2024-06-13T10:07:15.649Z,english_434.wav,0,0,661,20,4,Chinese ,f,3,0.3,-32.43591961,0.25116585
DJX,60,1,2024-06-13T10:07:15.649Z,english_434.wav,0,0,661,20,4,Chinese ,f,4,0.32341667,61.53108406,0.73120458
DJX,61,1,2024-06-13T10:07:15.649Z,english_415.wav,0,1,444,20,4,Chinese ,f,0,0,36.00223879,1.49199547
DJX,61,1,2024-06-13T10:07:15.649Z,english_415.wav,0,1,444,20,4,Chinese ,f,1,0.1,-82.63332374,1.79959711
DJX,61,1,2024-06-13T10:07:15.649Z,english_415.wav,0,1,444,20,4,Chinese ,f,2,0.2,57.55038703,0.64689267
DJX,61,1,2024-06-13T10:07:15.649Z,english_415.wav,0,1,444,20,4,Chinese ,f,3,0.3,-9.83064734,0.31881377
DJX,61,1,2024-06-13T10:07:15.649Z,english_415.wav,0,1,444,20,4,Chinese ,f,4,0.32341667,-29.78573939,0.18568486
DJX,62,1,2024-06-13T10:07:15.649Z,english_884.wav,0,0,1684,20,4,Chinese ,f,0,0,77.1498115,1.83268558
DJX,62,1,2024-06-13T10:07:15.649Z,english_884.wav,0,0,1684,20,4,Chinese ,f,1,0.1,10.32602389,0.76817862
DJX,62,1,2024-06-13T10:07:15.649Z,english_884.wav,0,0,1684,20,4,Chinese ,f,2,0.2,4.15464736,1.59331573
DJX,62,1,2024-06-13T10:07:15.649Z,english_884.wav,0,0,1684,20,4,Chinese ,f,3,0.3,21.19252889,0.58913169
DJX,62,1,2024-06-13T10:07:15.649Z,english_884.wav,0,0,1684,20,4,Chinese ,f,4,0.32341667,-7.11336122,0.81393531
DJX,63,1,2024-06-13T10:07:15.649Z,english_72.wav,0,0,860,20,4,Chinese ,f,0,0,3.79788214,1.04175162
DJX,63,1,2024-06-13T10:07:15.649Z,english_72.wav,0,0,860,20,4,Chinese ,f,1,0.1,-35.73428138,0.91099175
DJX,63,1,2024-06-13T10:07:15.649Z,english_72.wav,0,0,860,20,4,Chinese ,f,2,0.2,-30.83181688,0.34322307
DJX,63,1,2024-06-13T10:07:15.649Z,english_72.wav,0,0,860,20,4,Chinese ,f,3,0.3,-68.4260973,1.39599539
DJX,63,1,2024-06-13T10:07:15.649Z,english_72.wav,0,0,860,20,4,Chinese ,f,4,0.32341667,-10.87667298,0.78322702
DJX,64,1,2024-06-13T10:07:15.649Z,english_899.wav,0,0,812,20,4,Chinese ,f,0,0,34.44970312,1.0262563
DJX,64,1,2024-06-13T10:07:15.649Z,english_899.wav,0,0,812,20,4,Chinese ,f,1,0.1,-73.97598586,0.5565938
DJX,64,1,2024-06-13T10:07:15.649Z,english_899.wav,0,0,812,20,4,Chinese ,f,2,0.2,4.84970015,0.08950317
DJX,64,1,2024-06-13T10:07:15.649Z,english_899.wav,0,0,812,20,4,Chinese ,f,3,0.3,25.99530817,1.10823657
DJX,64,1,2024-06-13T10:07:15.649Z,english_899.wav,0,0,812,20,4,Chinese ,f,4,0.32341667,7.0197251,1.27665612
DJX,65,1,2024-06-13T10:07:15.649Z,english_167.wav,0,1,796,20,4,Chinese ,f,0,0,57.26975159,0.44729063
DJX,65,1,2024-06-13T10:07:15.649Z,english_167.wav,0,1,796,20,4,Chinese ,f,1,0.1,54.31010869,1.623568
DJX,65,1,2024-06-13T10:07:15.649Z,english_167.wav,0,1,796,20,4,Chinese ,f,2,0.2,99.57020207,0.28743218
DJX,65,1,2024-06-13T10:07:15.649Z,english_167.wav,0,1,796,20,4,Chinese ,f,3,0.3,27.92735821,0.71837494
DJX,65,1,2024-06-13T10:07:15.649Z,english_167.wav,0,1,796,20,4,Chinese ,f,4,0.32341667,73.13424206,1.35815305
DJX,66,1,2024-06-13T10:07:15.649Z,english_220.wav,0,1,1959,20,4,Chinese ,f,0,0,-49.83323752,1.6244524
DJX,66,1,2024-06-13T10:07:15.649Z,english_220.wav,0,1,1959,20,4,Chinese ,f,1,0.1,49.13629021,0.7812698
DJX,66,1,2024-06-13T10:07:15.649Z,english_220.wav,0,1,1959,20,4,Chinese ,f,2,0.2,10.673463,1.29736816
DJX,66,1,2024-06-13T10:07:15.649Z,english_220.wav,0,1,1959,20,4,Chinese ,f,3,0.3,-2.35218347,1.3419496
DJX,66,1,2024-06-13T10:07:15.649Z,english_220.wav,0,1,1959,20,4,Chinese ,f,4,0.32341667,-2.61587219,1.06575232
DJX,67,1,2024-06-13T10:07:15.649Z,english_711.wav,0,1,993,20,4,Chinese ,f,0,0,40.88671478,0.99029016
DJX,67,1,2024-06-13T10:07:15.649Z,english_711.wav,0,1,993,20,4,Chinese ,f,1,0.1,9.07407961,0.54320223
DJX,67,1,2024-06-13T10:07:15.649Z,english_711.wav,0,1,993,20,4,Chinese ,f,2,0.2,-23.01321115,1.60107
DJX,67,1,2024-06-13T10:07:15.649Z,english_711.wav,0,1,993,20,4,Chinese ,f,3,0.3,-10.85681813,1.574764
DJX,67,1,2024-06-13T10:07:15.649Z,english_711.wav,0,1,993,20,4,Chinese ,f,4,0.32341667,87.87195083,1.34863725
DJX,68,1,2024-06-13T10:07:15.649Z,english_184.wav,0,1,2518,20,4,Chinese ,f,0,0,29.65201825,1.69567788
DJX,68,1,2024-06-13T10:07:15.649Z,english_184.wav,0,1,2518,20,4,Chinese ,f,1,0.1,16.48348791,1.26735627
DJX,68,1,2024-06-13T10:07:15.649Z,english_184.wav,0,1,2518,20,4,Chinese ,f,2,0.2,3.77448983,0.95352895
DJX,68,1,2024-06-13T10:07:15.649Z,english_184.wav,0,1,2518,20,4,Chinese ,f,3,0.3,62.87502431,1.7991474
DJX,68,1,2024-06-13T10:07:15.649Z,english_184.wav,0,1,2518,20,4,Chinese ,f,4,0.32341667,-8.82418577,0.98992659
DJX,69,1,2024-06-13T10:07:15.649Z,english_359.wav,0,1,3463,20,4,Chinese ,f,0,0,95.13315851,1.5844105
DJX,69,1,2024-06-13T10:07:15.649Z,english_359.wav,0,1,3463,20,4,Chinese ,f,1,0.1,95.71495863,0.46491803
DJX,69,1,2024-06-13T10:07:15.649Z,english_359.wav,0,1,3463,20,4,Chinese ,f,2,0.2,4.56295435,1.17107987
DJX,69,1,2024-06-13T10:07:15.649Z,english_359.wav,0,1,3463,20,4,Chinese ,f,3,0.3,-11.93773809,0.63485582
DJX,69,1,2024-06-13T10:07:15.649Z,english_359.wav,0,1,3463,20,4,Chinese ,f,4,0.32341667,-75.72789111,0.10666132
DJX,70,1,2024-06-13T10:07:15.649Z,english_859.wav,0,0,1388,20,4,Chinese ,f,0,0,71.31858369,0.11764496
DJX,70,1,2024-06-13T10:07:15.649Z,english_859.wav,0,0,1388,20,4,Chinese ,f,1,0.1,-33.60875554,0.29827778
DJX,70,1,2024-06-13T10:07:15.649Z,english_859.wav,0,0,1388,20,4,Chinese ,f,2,0.2,-64.15502461,0.43254339
DJX,70,1,2024-06-13T10:07:15.649Z,english_859.wav,0,0,1388,20,4,Chinese ,f,3,0.3,-36.22537369,0.12368506
DJX,70,1,2024-06-13T10:07:15.649Z,english_859.wav,0,0,1388,20,4,Chinese ,f,4,0.32341667,-23.59955866,0.97858169
DJX,71,1,2024-06-13T10:07:15.649Z,english_485.wav,0,0,2269,20,4,Chinese ,f,0,0,-7.08941798,1.8206563
DJX,71,1,2024-06-13T10:07:15.649Z,english_485.wav,0,0,2269,20,4,Chinese ,f,1,0.1,-70.64579204,0.10660577
DJX,71,1,2024-06-13T10:07:15.649Z,english_485.wav,0,0,2269,20,4,Chinese ,f,2,0.2,23.79115045,1.92760945
DJX,71,1,2024-06-13T10:07:15.649Z,english_485.wav,0,0,2269,20,4,Chinese ,f,3,0.3,0.80487994,0.77499174
DJX,71,1,2024-06-13T10:07:15.649Z,english_485.wav,0,0,2269,20,4,Chinese ,f,4,0.32341667,4.72097057,1.20070888
DJX,72,1,2024-06-13T10:07:15.649Z,english_165.wav,0,1,1953,20,4,Chinese ,f,0,0,-65.85966689,0.99094124
DJX,72,1,2024-06-13T10:07:15.649Z,english_165.wav,0,1,1953,20,4,Chinese ,f,1,0.1,57.4210377,1.25140592
DJX,72,1,2024-06-13T10:07:15.649Z,english_165.wav,0,1,1953,20,4,Chinese ,f,2,0.2,-53.4891742,1.66606931
DJX,72,1,2024-06-13T10:07:15.649Z,english_165.wav,0,1,1953,20,4,Chinese ,f,3,0.3,-32.80877015,0.56557264
DJX,72,1,2024-06-13T10:07:15.649Z,english_165.wav,0,1,1953,20,4,Chinese ,f,4,0.32341667,-23.63509804,1.31427626
DJX,73,1,2024-06-13T10:07:15.649Z,english_11.wav,0,0,837,20,4,Chinese ,f,0,0,-20.45826732,1.19869378
DJX,73,1,2024-06-13T10:07:15.649Z,english_11.wav,0,0,837,20,4,Chinese ,f,1,0.1,-31.26113472,0.2059713
DJX,73,1,2024-06-13T10:07:15.649Z,english_11.wav,0,0,837,20,4,Chinese ,f,2,0.2,84.03210455,0.62296143
DJX,73,1,2024-06-13T10:07:15.649Z,english_11.wav,0,0,837,20,4,Chinese ,f,3,0.3,30.35463164,1.49781179
DJX,73,1,2024-06-13T10:07:15.649Z,english_11.wav,0,0,837,20,4,Chinese ,f,4,0.32341667,-63.36217442,0.18750748
DJX,74,1,2024-06-13T10:07:15.649Z,english_20.wav,0,0,2005,20,4,Chinese ,f,0,0,-56.6830557,0.06363068
DJX,74,1,2024-06-13T10:07:15.649Z,english_20.wav,0,0,2005,20,4,Chinese ,f,1,0.1,50.66790367,1.80739158
DJX,74,1,2024-06-13T10:07:15.649Z,english_20.wav,0,0,2005,20,4,Chinese ,f,2,0.2,-18.96445326,1.41045117
DJX,74,1,2024-06-13T10:07:15.649Z,english_20.wav,0,0,2005,20,4,Chinese ,f,3,0.3,-25.44345058,0.2049667
DJX,74,1,2024-06-13T10:07:15.649Z,english_20.wav,0,0,2005,20,4,Chinese ,f,4,0.32341667,12.75548414,0.27136646
DJX,75,1,2024-06-13T10:07:15.649Z,english_685.wav,0,0,1741,20,4,Chinese ,f,0,0,91.61032892,0.4504418
DJX,75,1,2024-06-13T10:07:15.649Z,english_685.wav,0,0,1741,20,4,Chinese ,f,1,0.1,39.6206555,1.04279806
DJX,75,1,2024-06-13T10:07:15.649Z,english_685.wav,0,0,1741,20,4,Chinese ,f,2,0.2,-3.19880539,1.33634651
DJX,75,1,2024-06-13T10:07:15.649Z,english_685.wav,0,0,1741,20,4,Chinese ,f,3,0.3,-72.84721689,1.25094987
DJX,75,1,2024-06-13T10:07:15.649Z,english_685.wav,0,0,1741,20,4,Chinese ,f,4,0.32341667,98.11411302,0.37726169
DJX,76,1,2024-06-13T10:07:15.649Z,english_345.wav,0,0,1230,20,4,Chinese ,f,0,0,-46.00579497,1.58751342
DJX,76,1,2024-06-13T10:07:15.649Z,english_345.wav,0,0,1230,20,4,Chinese ,f,1,0.1,-45.5805492,1.0202646
DJX,76,1,2024-06-13T10:07:15.649Z,english_345.wav,0,0,1230,20,4,Chinese ,f,2,0.2,-14.04378539,0.61561299
DJX,76,1,2024-06-13T10:07:15.649Z,english_345.wav,0,0,1230,20,4,Chinese ,f,3,0.3,63.72413351,1.21547564
DJX,76,1,2024-06-13T10:07:15.649Z,english_345.wav,0,0,1230,20,4,Chinese ,f,4,0.32341667,18.03717792,1.47127253
DJX,77,1,2024-06-13T10:07:15.649Z,english_364.wav,0,1,744,20,4,Chinese ,f,0,0,19.50953027,1.75500584
DJX,77,1,2024-06-13T10:07:15.649Z,english_364.wav,0,1,744,20,4,Chinese ,f,1,0.1,48.44847612,1.3553812
DJX,77,1,2024-06-13T10:07:15.649Z,english_364.wav,0,1,744,20,4,Chinese ,f,2,0.2,-85.20645473,0.86672295
DJX,77,1,2024-06-13T10:07:15.649Z,english_364.wav,0,1,744,20,4,Chinese ,f,3,0.3,97.47454191,1.42489128
DJX,77,1,2024-06-13T10:07:15.649Z,english_364.wav,0,1,744,20,4,Chinese ,f,4,0.32341667,-45.42958463,1.19673805
DJX,78,1,2024-06-13T10:07:15.649Z,english_422.wav,0,0,1204,20,4,Chinese ,f,0,0,-79.81150205,1.34332733
DJX,78,1,2024-06-13T10:07:15.649Z,english_422.wav,0,0,1204,20,4,Chinese ,f,1,0.1,-2.02836706,0.77514932
DJX,78,1,2024-06-13T10:07:15.649Z,english_422.wav,0,0,1204,20,4,Chinese ,f,2,0.2,-11.18998235,0.33214039
DJX,78,1,2024-06-13T10:07:15.649Z,english_422.wav,0,0,1204,20,4,Chinese ,f,3,0.3,52.04958687,0.53493982
DJX,78,1,2024-06-13T10:07:15.649Z,english_422.wav,0,0,1204,20,4,Chinese ,f,4,0.32341667,-63.48776447,0.45685022
DJX,79,1,2024-06-13T10:07:15.649Z,english_69.wav,0,0,926,20,4,Chinese ,f,0,0,-57.18730239,0.11878381
DJX,79,1,2024-06-13T10:07:15.649Z,english_69.wav,0,0,926,20,4,Chinese ,f,1,0.1,16.22212469,1.00797921
DJX,79,1,2024-06-13T10:07:15.649Z,english_69.wav,0,0,926,20,4,Chinese ,f,2,0.2,-44.28071093,0.42082068
DJX,79,1,2024-06-13T10:07:15.649Z,english_69.wav,0,0,926,20,4,Chinese ,f,3,0.3,-70.80378082,0.50205716
DJX,79,1,2024-06-13T10:07:15.649Z,english_69.wav,0,0,926,20,4,Chinese ,f,4,0.32341667,-58.3439892,0.68985838
DJX,80,1,2024-06-13T10:07:15.649Z,english_57.wav,0,1,645,20,4,Chinese ,f,0,0,-27.39668164,1.97835384
DJX,80,1,2024-06-13T10:07:15.649Z,english_57.wav,0,1,645,20,4,Chinese ,f,1,0.1,63.52389761,0.69906452
DJX,80,1,2024-06-13T10:07:15.649Z,english_57.wav,0,1,645,20,4,Chinese ,f,2,0.2,-55.42033209,0.75389415
DJX,80,1,2024-06-13T10:07:15.649Z,english_57.wav,0,1,645,20,4,Chinese ,f,3,0.3,40.81906742,0.20375649
DJX,80,1,2024-06-13T10:07:15.649Z,english_57.wav,0,1,645,20,4,Chinese ,f,4,0.32341667,-12.75543821,1.65585112
DJX,81,1,2024-06-13T10:07:15.649Z,english_625.wav,0,0,745,20,4,Chinese ,f,0,0,25.70847239,1.1960971
DJX,81,1,2024-06-13T10:07:15.649Z,english_625.wav,0,0,745,20,4,Chinese ,f,1,0.1,-37.82303983,0.02795501
DJX,81,1,2024-06-13T10:07:15.649Z,english_625.wav,0,0,745,20,4,Chinese ,f,2,0.2,38.52328891,1.10198652
DJX,81,1,2024-06-13T10:07:15.649Z,english_625.wav,0,0,745,20,4,Chinese ,f,3,0.3,-23.93667478,0.08852642
DJX,81,1,2024-06-13T10:07:15.649Z,english_625.wav,0,0,745,20,4,Chinese ,f,4,0.32341667,-53.98326942,1.59813041
DJX,82,1,2024-06-13T10:07:15.649Z,english_326.wav,0,1,404,20,4,Chinese ,f,0,0,-13.70476372,1.64570887
DJX,82,1,2024-06-13T10:07:15.649Z,english_326.wav,0,1,404,20,4,Chinese ,f,1,0.1,47.7156259,0.91266102
DJX,82,1,2024-06-13T10:07:15.649Z,english_326.wav,0,1,404,20,4,Chinese ,f,2,0.2,23.24839736,0.36997562
DJX,82,1,2024-06-13T10:07:15.649Z,english_326.wav,0,1,404,20,4,Chinese ,f,3,0.3,67.08212267,1.96258237
DJX,82,1,2024-06-13T10:07:15.649Z,english_326.wav,0,1,404,20,4,Chinese ,f,4,0.32341667,78.79356023,1.01334204
DJX,83,1,2024-06-13T10:07:15.649Z,english_950.wav,0,0,1438,20,4,Chinese ,f,0,0,-21.9776243,0.20752278
DJX,83,1,2024-06-13T10:07:15.649Z,english_950.wav,0,0,1438,20,4,Chinese ,f,1,0.1,-41.40023943,1.93939622
DJX,83,1,2024-06-13T10:07:15.649Z,english_950.wav,0,0,1438,20,4,Chinese ,f,2,0.2,48.01515584,1.55608343
DJX,83,1,2024-06-13T10:07:15.649Z,english_950.wav,0,0,1438,20,4,Chinese ,f,3,0.3,-87.95551252,1.49634866
DJX,83,1,2024-06-13T10:07:15.649Z,english_950.wav,0,0,1438,20,4,Chinese ,f,4,0.32341667,-39.5252386,0.91783384
DJX,84,1,2024-06-13T10:07:15.649Z,english_21.wav,0,0,1460,20,4,Chinese ,f,0,0,-21.85116114,1.17417274
DJX,84,1,2024-06-13T10:07:15.649Z,english_21.wav,0,0,1460,20,4,Chinese ,f,1,0.1,-94.69976897,0.84289237
DJX,84,1,2024-06-13T10:07:15.649Z,english_21.wav,0,0,1460,20,4,Chinese ,f,2,0.2,59.00053046,1.58737119
DJX,84,1,2024-06-13T10:07:15.649Z,english_21.wav,0,0,1460,20,4,Chinese ,f,3,0.3,-81.44868512,0.70500889
DJX,84,1,2024-06-13T10:07:15.649Z,english_21.wav,0,0,1460,20,4,Chinese ,f,4,0.32341667,-68.72650823,1.41810016
DJX,85,1,2024-06-13T10:07:15.649Z,english_897.wav,0,1,383,20,4,Chinese ,f,0,0,-6.17515852,1.45954458
DJX,85,1,2024-06-13T10:07:15.649Z,english_897.wav,0,1,383,20,4,Chinese ,f,1,0.1,-25.56252799,1.4662158
DJX,85,1,2024-06-13T10:07:15.649Z,english_897.wav,0,1,383,20,4,Chinese ,f,2,0.2,-51.51756482,1.09304129
DJX,85,1,2024-06-13T10:07:15.649Z,english_897.wav,0,1,383,20,4,Chinese ,f,3,0.3,-57.3776393,1.17713492
DJX,85,1,2024-06-13T10:07:15.649Z,english_897.wav,0,1,383,20,4,Chinese ,f,4,0.32341667,-65.82780913,1.23726335
DJX,86,1,2024-06-13T10:07:15.649Z,english_93.wav,0,0,583,20,4,Chinese ,f,0,0,-63.58558414,0.84265136
DJX,86,1,2024-06-13T10:07:15.649Z,english_93.wav,0,0,583,20,4,Chinese ,f,1,0.1,47.93190562,0.45441634
DJX,86,1,2024-06-13T10:07:15.649Z,english_93.wav,0,0,583,20,4,Chinese ,f,2,0.2,74.1463043,1.33476805
DJX,86,1,2024-06-13T10:07:15.649Z,english_93.wav,0,0,583,20,4,Chinese ,f,3,0.3,46.42515129,0.61821532
DJX,86,1,2024-06-13T10:07:15.649Z,english_93.wav,0,0,583,20,4,Chinese ,f,4,0.32341667,-19.17332826,1.94889868
DJX,87,1,2024-06-13T10:07:15.649Z,english_402.wav,0,0,833,20,4,Chinese ,f,0,0,-69.75327375,0.88104294
DJX,87,1,2024-06-13T10:07:15.649Z,english_402.wav,0,0,833,20,4,Chinese ,f,1,0.1,-37.13247603,1.50830761
DJX,87,1,2024-06-13T10:07:15.649Z,english_402.wav,0,0,833,20,4,Chinese ,f,2,0.2,95.06865819,0.86613458
DJX,87,1,2024-06-13T10:07:15.649Z,english_402.wav,0,0,833,20,4,Chinese ,f,3,0.3,-83.65219271,1.46195184
DJX,87,1,2024-06-13T10:07:15.649Z,english_402.wav,0,0,833,20,4,Chinese ,f,4,0.32341667,-39.65623645,1.78030697
DJX,88,1,2024-06-13T10:07:15.649Z,english_828.wav,0,0,759,20,4,Chinese ,f,0,0,51.6479082,0.4417702
DJX,88,1,2024-06-13T10:07:15.649Z,english_828.wav,0,0,759,20,4,Chinese ,f,1,0.1,37.62818293,1.22957458
DJX,88,1,2024-06-13T10:07:15.649Z,english_828.wav,0,0,759,20,4,Chinese ,f,2,0.2,55.79615955,0.69909727
DJX,88,1,2024-06-13T10:07:15.649Z,english_828.wav,0,0,759,20,4,Chinese ,f,3,0.3,31.91979646,1.572544
DJX,88,1,2024-06-13T10:07:15.649Z,english_828.wav,0,0,759,20,4,Chinese ,f,4,0.32341667,-22.21091203,0.87669833
DJX,89,1,2024-06-13T10:07:15.649Z,english_755.wav,0,0,621,20,4,Chinese ,f,0,0,-15.85533995,0.06987403
DJX,89,1,2024-06-13T10:07:15.649Z,english_755.wav,0,0,621,20,4,Chinese ,f,1,0.1,-97.95934782,0.83204773
DJX,89,1,2024-06-13T10:07:15.649Z,english_755.wav,0,0,621,20,4,Chinese ,f,2,0.2,-5.14559719,1.06816443
DJX,89,1,2024-06-13T10:07:15.649Z,english_755.wav,0,0,621,20,4,Chinese ,f,3,0.3,32.74087849,1.42856986
DJX,89,1,2024-06-13T10:07:15.649Z,english_755.wav,0,0,621,20,4,Chinese ,f,4,0.32341667,-56.93437429,0.58130438
DJX,90,1,2024-06-13T10:07:15.649Z,english_686.wav,0,0,1824,20,4,Chinese ,f,0,0,-30.40223154,0.36787347
DJX,90,1,2024-06-13T10:07:15.649Z,english_686.wav,0,0,1824,20,4,Chinese ,f,1,0.1,40.30213926,1.54584144
DJX,90,1,2024-06-13T10:07:15.649Z,english_686.wav,0,0,1824,20,4,Chinese ,f,2,0.2,68.68183252,1.54645212
DJX,90,1,2024-06-13T10:07:15.649Z,english_686.wav,0,0,1824,20,4,Chinese ,f,3,0.3,82.36920372,1.04035585
DJX,90,1,2024-06-13T10:07:15.649Z,english_686.wav,0,0,1824,20,4,Chinese ,f,4,0.32341667,5.8000707,1.51520661
DJX,91,1,2024-06-13T10:07:15.649Z,english_624.wav,0,0,651,20,4,Chinese ,f,0,0,-66.94889137,0.79130031
DJX,91,1,2024-06-13T10:07:15.649Z,english_624.wav,0,0,651,20,4,Chinese ,f,1,0.1,-6.87427926,1.85178888
DJX,91,1,2024-06-13T10:07:15.649Z,english_624.wav,0,0,651,20,4,Chinese ,f,2,0.2,69.52298075,0.79988954
DJX,91,1,2024-06-13T10:07:15.649Z,english_624.wav,0,0,651,20,4,Chinese ,f,3,0.3,-45.26015132,0.87521033
DJX,91,1,2024-06-13T10:07:15.649Z,english_624.wav,0,0,651,20,4,Chinese ,f,4,0.32341667,-50.37935108,1.50754026
DJX,92,1,2024-06-13T10:07:15.649Z,english_941.wav,0,1,4014,20,4,Chinese ,f,0,0,88.25484185,1.5236155
DJX,92,1,2024-06-13T10:07:15.649Z,english_941.wav,0,1,4014,20,4,Chinese ,f,1,0.1,29.23312353,0.93469446
DJX,92,1,2024-06-13T10:07:15.649Z,english_941.wav,0,1,4014,20,4,Chinese ,f,2,0.2,-73.60888885,0.44203051
DJX,92,1,2024-06-13T10:07:15.649Z,english_941.wav,0,1,4014,20,4,Chinese ,f,3,0.3,-38.35663254,1.28625712
DJX,92,1,2024-06-13T10:07:15.649Z,english_941.wav,0,1,4014,20,4,Chinese ,f,4,0.32341667,-37.21470774,1.264942
DJX,93,1,2024-06-13T10:07:15.649Z,english_776.wav,0,0,1992,20,4,Chinese ,f,0,0,29.86548478,0.57139857
DJX,93,1,2024-06-13T10:07:15.649Z,english_776.wav,0,0,1992,20,4,Chinese ,f,1,0.1,2.8025705,1.94435619
DJX,93,1,2024-06-13T10:07:15.649Z,english_776.wav,0,0,1992,20,4,Chinese ,f,2,0.2,-38.4768188,0.3951066
DJX,93,1,2024-06-13T10:07:15.649Z,english_776.wav,0,0,1992,20,4,Chinese ,f,3,0.3,-89.49838949,0.29859462
DJX,93,1,2024-06-13T10:07:15.649Z,english_776.wav,0,0,1992,20,4,Chinese ,f,4,0.32341667,30.18488016,1.93939037
DJX,94,1,2024-06-13T10:07:15.649Z,english_703.wav,0,1,727,20,4,Chinese ,f,0,0,21.25560127,1.22587136
DJX,94,1,2024-06-13T10:07:15.649Z,english_703.wav,0,1,727,20,4,Chinese ,f,1,0.1,-5.61566417,1.28752652
DJX,94,1,2024-06-13T10:07:15.649Z,english_703.wav,0,1,727,20,4,Chinese ,f,2,0.2,-88.15973778,1.61643937
DJX,94,1,2024-06-13T10:07:15.649Z,english_703.wav,0,1,727,20,4,Chinese ,f,3,0.3,39.86499493,1.32560109
DJX,94,1,2024-06-13T10:07:15.649Z,english_703.wav,0,1,727,20,4,Chinese ,f,4,0.32341667,64.67338156,0.74206522
DJX,95,1,2024-06-13T10:07:15.649Z,english_966.wav,0,0,788,20,4,Chinese ,f,0,0,23.00954068,1.02848684
DJX,95,1,2024-06-13T10:07:15.649Z,english_966.wav,0,0,788,20,4,Chinese ,f,1,0.1,-2.7733657,1.22612364
DJX,95,1,2024-06-13T10:07:15.649Z,english_966.wav,0,0,788,20,4,Chinese ,f,2,0.2,-6.00176123,0.03461529
DJX,95,1,2024-06-13T10:07:15.649Z,english_966.wav,0,0,788,20,4,Chinese ,f,3,0.3,-64.80320904,0.22357585
DJX,95,1,2024-06-13T10:07:15.649Z,english_966.wav,0,0,788,20,4,Chinese ,f,4,0.32341667,94.15296916,0.55383001
DJX,96,1,2024-06-13T10:07:15.649Z,english_29.wav,0,0,771,20,4,Chinese ,f,0,0,-2.71310826,1.50712016
DJX,96,1,2024-06-13T10:07:15.649Z,english_29.wav,0,0,771,20,4,Chinese ,f,1,0.1,17.7201972,0.83644439
DJX,96,1,2024-06-13T10:07:15.649Z,english_29.wav,0,0,771,20,4,Chinese ,f,2,0.2,-20.17501418,0.76078741
DJX,96,1,2024-06-13T10:07:15.649Z,english_29.wav,0,0,771,20,4,Chinese ,f,3,0.3,12.48271646,0.17009155
DJX,96,1,2024-06-13T10:07:15.649Z,english_29.wav,0,0,771,20,4,Chinese ,f,4,0.32341667,29.42079391,1.26727983
DJX,97,1,2024-06-13T10:07:15.649Z,english_377.wav,0,1,1597,20,4,Chinese ,f,0,0,74.10679581,1.90218841
DJX,97,1,2024-06-13T10:07:15.649Z,english_377.wav,0,1,1597,20,4,Chinese ,f,1,0.1,-97.36412995,1.60160035
DJX,97,1,2024-06-13T10:07:15.649Z,english_377.wav,0,1,1597,20,4,Chinese ,f,2,0.2,-84.25672888,1.668912
DJX,97,1,2024-06-13T10:07:15.649Z,english_377.wav,0,1,1597,20,4,Chinese ,f,3,0.3,27.09308902,1.51590505
DJX,97,1,2024-06-13T10:07:15.649Z,english_377.wav,0,1,1597,20,4,Chinese ,f,4,0.32341667,-12.33253686,0.99909344
DJX,98,1,2024-06-13T10:07:15.649Z,english_277.wav,0,0,5830,20,4,Chinese ,f,0,0,57.10742469,0.00973607
DJX,98,1,2024-06-13T10:07:15.649Z,english_277.wav,0,0,5830,20,4,Chinese ,f,1,0.1,-91.86277199,0.30409245
DJX,98,1,2024-06-13T10:07:15.649Z,english_277.wav,0,0,5830,20,4,Chinese ,f,2,0.2,15.18492706,1.04533503
DJX,98,1,2024-06-13T10:07:15.649Z,english_277.wav,0,0,5830,20,4,Chinese ,f,3,0.3,-70.52173838,1.32138987
DJX,98,1,2024-06-13T10:07:15.649Z,english_277.wav,0,0,5830,20,4,Chinese ,f,4,0.32341667,87.41438228,0.22027268
DJX,99,1,2024-06-13T10:07:15.649Z,english_817.wav,0,1,805,20,4,Chinese ,f,0,0,58.06319333,0.77394069
DJX,99,1,2024-06-13T10:07:15.649Z,english_817.wav,0,1,805,20,4,Chinese ,f,1,0.1,0.91206114,0.81778066
DJX,99,1,2024-06-13T10:07:15.649Z,english_817.wav,0,1,805,20,4,Chinese ,f,2,0.2,-27.80824757,1.48752315
DJX,99,1,2024-06-13T10:07:15.649Z,english_817.wav,0,1,805,20,4,Chinese ,f,3,0.3,-73.7491051,0.41888886
DJX,99,1,2024-06-13T10:07:15.649Z,english_817.wav,0,1,805,20,4,Chinese ,f,4,0.32341667,69.75698508,0.93012443
DJX,100,2,2024-06-13T10:12:43.367Z,english_175.wav,0,0,3745,20,4,Chinese ,f,0,0,-88.83902874,0.00773228
DJX,100,2,2024-06-13T10:12:43.367Z,english_175.wav,0,0,3745,20,4,Chinese ,f,1,0.1,8.60564456,1.6431495
DJX,100,2,2024-06-13T10:12:43.367Z,english_175.wav,0,0,3745,20,4,Chinese ,f,2,0.2,7.189218,0.24882977
DJX,100,2,2024-06-13T10:12:43.367Z,english_175.wav,0,0,3745,20,4,Chinese ,f,3,0.3,-2.31675389,1.20663028
DJX,100,2,2024-06-13T10:12:43.367Z,english_175.wav,0,0,3745,20,4,Chinese ,f,4,0.32341667,-21.56803319,0.57172188
DJX,101,2,2024-06-13T10:12:43.367Z,english_464.wav,0,0,1578,20,4,Chinese ,f,0,0,53.08614354,0.76512863
DJX,101,2,2024-06-13T10:12:43.367Z,english_464.wav,0,0,1578,20,4,Chinese ,f,1,0.1,30.21863436,1.75958979
DJX,101,2,2024-06-13T10:12:43.367Z,english_464.wav,0,0,1578,20,4,Chinese ,f,2,0.2,-72.79337117,0.91412587
DJX,101,2,2024-06-13T10:12:43.367Z,english_464.wav,0,0,1578,20,4,Chinese ,f,3,0.3,91.0452741,1.02089091
DJX,101,2,2024-06-13T10:12:43.367Z,english_464.wav,0,0,1578,20,4,Chinese ,f,4,0.32341667,-31.40181873,1.37846458
DJX,102,2,2024-06-13T10:12:43.367Z,english_599.wav,0,0,1949,20,4,Chinese ,f,0,0,-57.09760884,1.03382432
DJX,102,2,2024-06-13T10:12:43.367Z,english_599.wav,0,0,1949,20,4,Chinese ,f,1,0.1,31.85682387,1.26885403
DJX,102,2,2024-06-13T10:12:43.367Z,english_599.wav,0,0,1949,20,4,Chinese ,f,2,0.2,-6.73425875,1.24717465
DJX,102,2,2024-06-13T10:12:43.367Z,english_599.wav,0,0,1949,20,4,Chinese ,f,3,0.3,47.95830633,1.34338376
DJX,102,2,2024-06-13T10:12:43.367Z,english_599.wav,0,0,1949,20,4,Chinese ,f,4,0.32341667,-83.8084816,0.34550335
DJX,103,2,2024-06-13T10:12:43.367Z,english_988.wav,0,0,1196,20,4,Chinese ,f,0,0,23.53561789,0.18772999
DJX,103,2,2024-06-13T10:12:43.367Z,english_988.wav,0,0,1196,20,4,Chinese ,f,1,0.1,39.09545525,0.71537172
DJX,103,2,2024-06-13T10:12:43.367Z,english_988.wav,0,0,1196,20,4,Chinese ,f,2,0.2,-32.2225044,0.50944864
DJX,103,2,2024-06-13T10:12:43.367Z,english_988.wav,0,0,1196,20,4,Chinese ,f,3,0.3,5.54449519,0.59930705
DJX,103,2,2024-06-13T10:12:43.367Z,english_988.wav,0,0,1196,20,4,Chinese ,f,4,0.32341667,-94.58480047,1.43881296
DJX,104,2,2024-06-13T10:12:43.367Z,english_295.wav,0,0,736,20,4,Chinese ,f,0,0,-76.51454746,1.12273409
DJX,104,2,2024-06-13T10:12:43.367Z,english_295.wav,0,0,736,20,4,Chinese ,f,1,0.1,-96.9380047,0.2018376
DJX,104,2,2024-06-13T10:12:43.367Z,english_295.wav,0,0,736,20,4,Chinese ,f,2,0.2,-72.79782389,1.81703153
DJX,104,2,2024-06-13T10:12:43.367Z,english_295.wav,0,0,736,20,4,Chinese ,f,3,0.3,-31.86888898,0.31799467
DJX,104,2,2024-06-13T10:12:43.367Z,english_295.wav,0,0,736,20,4,Chinese ,f,4,0.32341667,-51.47839766,0.71777059
DJX,105,2,2024-06-13T10:12:43.367Z,english_559.wav,0,0,1000,20,4,Chinese ,f,0,0,72.91796617,0.28347303
DJX,105,2,2024-06-13T10:12:43.367Z,english_559.wav,0,0,1000,20,4,Chinese ,f,1,0.1,49.0763932,0.33705515
DJX,105,2,2024-06-13T10:12:43.367Z,english_559.wav,0,0,1000,20,4,Chinese ,f,2,0.2,37.36372944,1.25665906
DJX,105,2,2024-06-13T10:12:43.367Z,english_559.wav,0,0,1000,20,4,Chinese ,f,3,0.3,62.8744144,0.42135622
DJX,105,2,2024-06-13T10:12:43.367Z,english_559.wav,0,0,1000,20,4,Chinese ,f,4,0.32341667,-70.24316133,0.44445559
DJX,106,2,2024-06-13T10:12:43.367Z,english_712.wav,0,0,708,20,4,Chinese ,f,0,0,-69.83835125,1.15670948
DJX,106,2,2024-06-13T10:12:43.367Z,english_712.wav,0,0,708,20,4,Chinese ,f,1,0.1,-89.98535393,0.40201287
DJX,106,2,2024-06-13T10:12:43.367Z,english_712.wav,0,0,708,20,4,Chinese ,f,2,0.2,47.33040466,0.06412681
DJX,106,2,2024-06-13T10:12:43.367Z,english_712.wav,0,0,708,20,4,Chinese ,f,3,0.3,-32.03166139,1.50973484
DJX,106,2,2024-06-13T10:12:43.367Z,english_712.wav,0,0,708,20,4,Chinese ,f,4,0.32341667,-5.29851616,1.18377017
DJX,107,2,2024-06-13T10:12:43.367Z,english_157.wav,0,1,1508,20,4,Chinese ,f,0,0,-74.01864956,1.10168906
DJX,107,2,2024-06-13T10:12:43.367Z,english_157.wav,0,1,1508,20,4,Chinese ,f,1,0.1,1.44529667,1.71225259
DJX,107,2,2024-06-13T10:12:43.367Z,english_157.wav,0,1,1508,20,4,Chinese ,f,2,0.2,-42.76251303,1.71884561
DJX,107,2,2024-06-13T10:12:43.367Z,english_157.wav,0,1,1508,20,4,Chinese ,f,3,0.3,-49.01483239,1.47822148
DJX,107,2,2024-06-13T10:12:43.367Z,english_157.wav,0,1,1508,20,4,Chinese ,f,4,0.32341667,-96.85595697,1.36273156
DJX,108,2,2024-06-13T10:12:43.367Z,english_617.wav,0,1,3047,20,4,Chinese ,f,0,0,-99.94195333,1.17597353
DJX,108,2,2024-06-13T10:12:43.367Z,english_617.wav,0,1,3047,20,4,Chinese ,f,1,0.1,-27.54289523,0.72595777
DJX,108,2,2024-06-13T10:12:43.367Z,english_617.wav,0,1,3047,20,4,Chinese ,f,2,0.2,-31.48016085,0.94648609
DJX,108,2,2024-06-13T10:12:43.367Z,english_617.wav,0,1,3047,20,4,Chinese ,f,3,0.3,-72.28967102,1.67485207
DJX,108,2,2024-06-13T10:12:43.367Z,english_617.wav,0,1,3047,20,4,Chinese ,f,4,0.32341667,-18.83127656,0.94146903
DJX,109,2,2024-06-13T10:12:43.367Z,english_601.wav,0,0,1323,20,4,Chinese ,f,0,0,54.32401431,0.08668951
DJX,109,2,2024-06-13T10:12:43.367Z,english_601.wav,0,0,1323,20,4,Chinese ,f,1,0.1,-6.72935942,1.16468766
DJX,109,2,2024-06-13T10:12:43.367Z,english_601.wav,0,0,1323,20,4,Chinese ,f,2,0.2,39.12079493,1.8612572
DJX,109,2,2024-06-13T10:12:43.367Z,english_601.wav,0,0,1323,20,4,Chinese ,f,3,0.3,39.92141387,0.92171433
DJX,109,2,2024-06-13T10:12:43.367Z,english_601.wav,0,0,1323,20,4,Chinese ,f,4,0.32341667,-27.14681087,0.50419734
DJX,110,2,2024-06-13T10:12:43.367Z,english_762.wav,0,1,925,20,4,Chinese ,f,0,0,-56.40971946,1.43822993
DJX,110,2,2024-06-13T10:12:43.367Z,english_762.wav,0,1,925,20,4,Chinese ,f,1,0.1,-9.09046034,1.11776807
DJX,110,2,2024-06-13T10:12:43.367Z,english_762.wav,0,1,925,20,4,Chinese ,f,2,0.2,20.98892014,0.71531135
DJX,110,2,2024-06-13T10:12:43.367Z,english_762.wav,0,1,925,20,4,Chinese ,f,3,0.3,-66.43296232,0.54997993
DJX,110,2,2024-06-13T10:12:43.367Z,english_762.wav,0,1,925,20,4,Chinese ,f,4,0.32341667,-91.78640069,0.26897274
DJX,111,2,2024-06-13T10:12:43.367Z,english_699.wav,0,1,1673,20,4,Chinese ,f,0,0,-21.84844695,0.55007596
DJX,111,2,2024-06-13T10:12:43.367Z,english_699.wav,0,1,1673,20,4,Chinese ,f,1,0.1,-20.61050251,0.98595355
DJX,111,2,2024-06-13T10:12:43.367Z,english_699.wav,0,1,1673,20,4,Chinese ,f,2,0.2,-7.57046677,1.16771202
DJX,111,2,2024-06-13T10:12:43.367Z,english_699.wav,0,1,1673,20,4,Chinese ,f,3,0.3,-90.18255135,0.60930532
DJX,111,2,2024-06-13T10:12:43.367Z,english_699.wav,0,1,1673,20,4,Chinese ,f,4,0.32341667,-39.12532958,1.39260434
DJX,112,2,2024-06-13T10:12:43.367Z,english_254.wav,0,1,1146,20,4,Chinese ,f,0,0,-9.19838866,1.99657173
DJX,112,2,2024-06-13T10:12:43.367Z,english_254.wav,0,1,1146,20,4,Chinese ,f,1,0.1,15.86633291,1.39044581
DJX,112,2,2024-06-13T10:12:43.367Z,english_254.wav,0,1,1146,20,4,Chinese ,f,2,0.2,-42.67167238,1.09933375
DJX,112,2,2024-06-13T10:12:43.367Z,english_254.wav,0,1,1146,20,4,Chinese ,f,3,0.3,-11.53254556,0.78821302
DJX,112,2,2024-06-13T10:12:43.367Z,english_254.wav,0,1,1146,20,4,Chinese ,f,4,0.32341667,-12.27536806,0.39297423
DJX,113,2,2024-06-13T10:12:43.367Z,english_5.wav,0,0,661,20,4,Chinese ,f,0,0,-15.92383461,0.27445408
DJX,113,2,2024-06-13T10:12:43.367Z,english_5.wav,0,0,661,20,4,Chinese ,f,1,0.1,-20.01914587,0.54328549
DJX,113,2,2024-06-13T10:12:43.367Z,english_5.wav,0,0,661,20,4,Chinese ,f,2,0.2,40.70457056,0.32172142
DJX,113,2,2024-06-13T10:12:43.367Z,english_5.wav,0,0,661,20,4,Chinese ,f,3,0.3,-94.67131236,1.15903644
DJX,113,2,2024-06-13T10:12:43.367Z,english_5.wav,0,0,661,20,4,Chinese ,f,4,0.32341667,-88.33027294,0.94870148
DJX,114,2,2024-06-13T10:12:43.367Z,english_239.wav,0,1,1526,20,4,Chinese ,f,0,0,87.44943986,1.42022081
DJX,114,2,2024-06-13T10:12:43.367Z,english_239.wav,0,1,1526,20,4,Chinese ,f,1,0.1,50.09814929,0.64261102
DJX,114,2,2024-06-13T10:12:43.367Z,english_239.wav,0,1,1526,20,4,Chinese ,f,2,0.2,-20.91132269,0.17156284
DJX,114,2,2024-06-13T10:12:43.367Z,english_239.wav,0,1,1526,20,4,Chinese ,f,3,0.3,1.56869958,1.89365974
DJX,114,2,2024-06-13T10:12:43.367Z,english_239.wav,0,1,1526,20,4,Chinese ,f,4,0.32341667,15.23790706,1.86939691
DJX,115,2,2024-06-13T10:12:43.367Z,english_65.wav,0,0,715,20,4,Chinese ,f,0,0,-46.88015867,0.62230507
DJX,115,2,2024-06-13T10:12:43.367Z,english_65.wav,0,0,715,20,4,Chinese ,f,1,0.1,54.34027197,1.12355997
DJX,115,2,2024-06-13T10:12:43.367Z,english_65.wav,0,0,715,20,4,Chinese ,f,2,0.2,-65.46386729,1.0507031
DJX,115,2,2024-06-13T10:12:43.367Z,english_65.wav,0,0,715,20,4,Chinese ,f,3,0.3,-66.7533487,0.71238348
DJX,115,2,2024-06-13T10:12:43.367Z,english_65.wav,0,0,715,20,4,Chinese ,f,4,0.32341667,-12.18147599,0.41048607
DJX,116,2,2024-06-13T10:12:43.367Z,english_442.wav,0,1,774,20,4,Chinese ,f,0,0,-5.21319176,1.35819452
DJX,116,2,2024-06-13T10:12:43.367Z,english_442.wav,0,1,774,20,4,Chinese ,f,1,0.1,-16.23989513,1.66019663
DJX,116,2,2024-06-13T10:12:43.367Z,english_442.wav,0,1,774,20,4,Chinese ,f,2,0.2,-36.77315909,0.51170704
DJX,116,2,2024-06-13T10:12:43.367Z,english_442.wav,0,1,774,20,4,Chinese ,f,3,0.3,-33.51446291,1.6590932
DJX,116,2,2024-06-13T10:12:43.367Z,english_442.wav,0,1,774,20,4,Chinese ,f,4,0.32341667,-25.07447919,0.97998973
DJX,117,2,2024-06-13T10:12:43.367Z,english_91.wav,0,0,815,20,4,Chinese ,f,0,0,-67.73951944,0.2772338
DJX,117,2,2024-06-13T10:12:43.367Z,english_91.wav,0,0,815,20,4,Chinese ,f,1,0.1,83.83337034,0.0816757
DJX,117,2,2024-06-13T10:12:43.367Z,english_91.wav,0,0,815,20,4,Chinese ,f,2,0.2,-12.75649653,0.92538416
DJX,117,2,2024-06-13T10:12:43.367Z,english_91.wav,0,0,815,20,4,Chinese ,f,3,0.3,5.95502951,0.40714056
DJX,117,2,2024-06-13T10:12:43.367Z,english_91.wav,0,0,815,20,4,Chinese ,f,4,0.32341667,59.56964586,1.8717525
DJX,118,2,2024-06-13T10:12:43.367Z,english_243.wav,0,0,1136,20,4,Chinese ,f,0,0,-74.41503345,0.65151457
DJX,118,2,2024-06-13T10:12:43.367Z,english_243.wav,0,0,1136,20,4,Chinese ,f,1,0.1,-16.65530333,0.20623253
DJX,118,2,2024-06-13T10:12:43.367Z,english_243.wav,0,0,1136,20,4,Chinese ,f,2,0.2,-1.41224798,0.87153721
DJX,118,2,2024-06-13T10:12:43.367Z,english_243.wav,0,0,1136,20,4,Chinese ,f,3,0.3,37.30419975,0.28583671
DJX,118,2,2024-06-13T10:12:43.367Z,english_243.wav,0,0,1136,20,4,Chinese ,f,4,0.32341667,-3.40378668,1.90700275
DJX,119,2,2024-06-13T10:12:43.367Z,english_186.wav,0,1,387,20,4,Chinese ,f,0,0,-54.7664391,1.87021502
DJX,119,2,2024-06-13T10:12:43.367Z,english_186.wav,0,1,387,20,4,Chinese ,f,1,0.1,-8.4263529,1.36390049
DJX,119,2,2024-06-13T10:12:43.367Z,english_186.wav,0,1,387,20,4,Chinese ,f,2,0.2,6.22451559,1.69942617
DJX,119,2,2024-06-13T10:12:43.367Z,english_186.wav,0,1,387,20,4,Chinese ,f,3,0.3,-12.35671223,1.8066537
DJX,119,2,2024-06-13T10:12:43.367Z,english_186.wav,0,1,387,20,4,Chinese ,f,4,0.32341667,86.21839615,1.2511354
DJX,120,2,2024-06-13T10:12:43.367Z,english_438.wav,0,1,340,20,4,Chinese ,f,0,0,31.75305261,1.38451981
DJX,120,2,2024-06-13T10:12:43.367Z,english_438.wav,0,1,340,20,4,Chinese ,f,1,0.1,20.27112767,1.99020027
DJX,120,2,2024-06-13T10:12:43.367Z,english_438.wav,0,1,340,20,4,Chinese ,f,2,0.2,66.65258945,0.15645945
DJX,120,2,2024-06-13T10:12:43.367Z,english_438.wav,0,1,340,20,4,Chinese ,f,3,0.3,70.72003494,1.37678514
DJX,120,2,2024-06-13T10:12:43.367Z,english_438.wav,0,1,340,20,4,Chinese ,f,4,0.32341667,59.11013505,0.82730153
DJX,121,2,2024-06-13T10:12:43.367Z,english_972.wav,0,0,1487,20,4,Chinese ,f,0,0,-87.82800068,1.28286493
DJX,121,2,2024-06-13T10:12:43.367Z,english_972.wav,0,0,1487,20,4,Chinese ,f,1,0.1,-25.45661385,0.89058027
DJX,121,2,2024-06-13T10:12:43.367Z,english_972.wav,0,0,1487,20,4,Chinese ,f,2,0.2,2.95853851,1.4716374
DJX,121,2,2024-06-13T10:12:43.367Z,english_972.wav,0,0,1487,20,4,Chinese ,f,3,0.3,84.61583696,0.6386035
DJX,121,2,2024-06-13T10:12:43.367Z,english_972.wav,0,0,1487,20,4,Chinese ,f,4,0.32341667,42.95706616,1.51056083
DJX,122,2,2024-06-13T10:12:43.367Z,english_301.wav,0,1,572,20,4,Chinese ,f,0,0,-78.18927369,1.31935747
DJX,122,2,2024-06-13T10:12:43.367Z,english_301.wav,0,1,572,20,4,Chinese ,f,1,0.1,-3.52439177,1.41636911
DJX,122,2,2024-06-13T10:12:43.367Z,english_301.wav,0,1,572,20,4,Chinese ,f,2,0.2,-23.22473782,1.38842862
DJX,122,2,2024-06-13T10:12:43.367Z,english_301.wav,0,1,572,20,4,Chinese ,f,3,0.3,-11.7220967,1.25169603
DJX,122,2,2024-06-13T10:12:43.367Z,english_301.wav,0,1,572,20,4,Chinese ,f,4,0.32341667,-5.78047748,1.38740104
DJX,123,2,2024-06-13T10:12:43.367Z,english_248.wav,0,1,2158,20,4,Chinese ,f,0,0,62.49888219,0.01612638
DJX,123,2,2024-06-13T10:12:43.367Z,english_248.wav,0,1,2158,20,4,Chinese ,f,1,0.1,-37.43052778,0.65001727
DJX,123,2,2024-06-13T10:12:43.367Z,english_248.wav,0,1,2158,20,4,Chinese ,f,2,0.2,50.26474258,1.10053755
DJX,123,2,2024-06-13T10:12:43.367Z,english_248.wav,0,1,2158,20,4,Chinese ,f,3,0.3,-90.47385391,0.93833438
DJX,123,2,2024-06-13T10:12:43.367Z,english_248.wav,0,1,2158,20,4,Chinese ,f,4,0.32341667,-16.4169983,1.90627888
DJX,124,2,2024-06-13T10:12:43.367Z,english_544.wav,0,1,1007,20,4,Chinese ,f,0,0,96.80704334,1.85115917
DJX,124,2,2024-06-13T10:12:43.367Z,english_544.wav,0,1,1007,20,4,Chinese ,f,1,0.1,70.5198752,0.8718407
DJX,124,2,2024-06-13T10:12:43.367Z,english_544.wav,0,1,1007,20,4,Chinese ,f,2,0.2,78.21609099,1.82238935
DJX,124,2,2024-06-13T10:12:43.367Z,english_544.wav,0,1,1007,20,4,Chinese ,f,3,0.3,-95.7752672,0.25719172
DJX,124,2,2024-06-13T10:12:43.367Z,english_544.wav,0,1,1007,20,4,Chinese ,f,4,0.32341667,-56.58918052,0.72929157
DJX,125,2,2024-06-13T10:12:43.367Z,english_263.wav,0,0,1608,20,4,Chinese ,f,0,0,4.78285782,1.6410762
DJX,125,2,2024-06-13T10:12:43.367Z,english_263.wav,0,0,1608,20,4,Chinese ,f,1,0.1,13.60270601,0.7602565
DJX,125,2,2024-06-13T10:12:43.367Z,english_263.wav,0,0,1608,20,4,Chinese ,f,2,0.2,39.50896912,0.2694778
DJX,125,2,2024-06-13T10:12:43.367Z,english_263.wav,0,0,1608,20,4,Chinese ,f,3,0.3,22.44107494,1.51649535
DJX,125,2,2024-06-13T10:12:43.367Z,english_263.wav,0,0,1608,20,4,Chinese ,f,4,0.32341667,-36.00172497,0.60574629
DJX,126,2,2024-06-13T10:12:43.367Z,english_323.wav,0,1,325,20,4,Chinese ,f,0,0,92.33188111,1.59668922
DJX,126,2,2024-06-13T10:12:43.367Z,english_323.wav,0,1,325,20,4,Chinese ,f,1,0.1,4.22577609,1.75306106
DJX,126,2,2024-06-13T10:12:43.367Z,english_323.wav,0,1,325,20,4,Chinese ,f,2,0.2,-35.48560344,1.06071567
DJX,126,2,2024-06-13T10:12:43.367Z,english_323.wav,0,1,325,20,4,Chinese ,f,3,0.3,7.73763769,1.9328625
DJX,126,2,2024-06-13T10:12:43.367Z,english_323.wav,0,1,325,20,4,Chinese ,f,4,0.32341667,55.62458321,1.27347405
DJX,127,2,2024-06-13T10:12:43.367Z,english_628.wav,0,0,838,20,4,Chinese ,f,0,0,-19.71295886,0.8960583
DJX,127,2,2024-06-13T10:12:43.367Z,english_628.wav,0,0,838,20,4,Chinese ,f,1,0.1,-79.294697,1.61949508
DJX,127,2,2024-06-13T10:12:43.367Z,english_628.wav,0,0,838,20,4,Chinese ,f,2,0.2,-59.93256946,0.65483299
DJX,127,2,2024-06-13T10:12:43.367Z,english_628.wav,0,0,838,20,4,Chinese ,f,3,0.3,-18.46863719,0.12001531
DJX,127,2,2024-06-13T10:12:43.367Z,english_628.wav,0,0,838,20,4,Chinese ,f,4,0.32341667,53.30350975,0.85308449
DJX,128,2,2024-06-13T10:12:43.367Z,english_226.wav,0,0,624,20,4,Chinese ,f,0,0,-56.53605181,0.51185795
DJX,128,2,2024-06-13T10:12:43.367Z,english_226.wav,0,0,624,20,4,Chinese ,f,1,0.1,-5.93547338,0.73377568
DJX,128,2,2024-06-13T10:12:43.367Z,english_226.wav,0,0,624,20,4,Chinese ,f,2,0.2,-81.0596442,1.62034912
DJX,128,2,2024-06-13T10:12:43.367Z,english_226.wav,0,0,624,20,4,Chinese ,f,3,0.3,-12.14261426,0.19474782
DJX,128,2,2024-06-13T10:12:43.367Z,english_226.wav,0,0,624,20,4,Chinese ,f,4,0.32341667,40.67667876,0.1395898
DJX,129,2,2024-06-13T10:12:43.367Z,english_493.wav,0,1,445,20,4,Chinese ,f,0,0,42.62366846,0.72879325
DJX,129,2,2024-06-13T10:12:43.367Z,english_493.wav,0,1,445,20,4,Chinese ,f,1,0.1,-24.95330968,1.87742997
DJX,129,2,2024-06-13T10:12:43.367Z,english_493.wav,0,1,445,20,4,Chinese ,f,2,0.2,82.3526737,1.69463318
DJX,129,2,2024-06-13T10:12:43.367Z,english_493.wav,0,1,445,20,4,Chinese ,f,3,0.3,53.78370402,0.82529142
DJX,129,2,2024-06-13T10:12:43.367Z,english_493.wav,0,1,445,20,4,Chinese ,f,4,0.32341667,-52.5410085,0.10126548
DJX,130,2,2024-06-13T10:12:43.367Z,english_31.wav,0,0,627,20,4,Chinese ,f,0,0,21.28810337,1.2057056
DJX,130,2,2024-06-13T10:12:43.367Z,english_31.wav,0,0,627,20,4,Chinese ,f,1,0.1,68.821868,0.99381392
DJX,130,2,2024-06-13T10:12:43.367Z,english_31.wav,0,0,627,20,4,Chinese ,f,2,0.2,-73.02143346,0.87600828
DJX,130,2,2024-06-13T10:12:43.367Z,english_31.wav,0,0,627,20,4,Chinese ,f,3,0.3,68.60173581,1.15844697
DJX,130,2,2024-06-13T10:12:43.367Z,english_31.wav,0,0,627,20,4,Chinese ,f,4,0.32341667,51.47999234,1.3722803
DJX,131,2,2024-06-13T10:12:43.367Z,english_411.wav,0,0,772,20,4,Chinese ,f,0,0,75.357241,0.83773649
DJX,131,2,2024-06-13T10:12:43.367Z,english_411.wav,0,0,772,20,4,Chinese ,f,1,0.1,-55.75688593,0.80885485
DJX,131,2,2024-06-13T10:12:43.367Z,english_411.wav,0,0,772,20,4,Chinese ,f,2,0.2,61.10111178,0.61144368
DJX,131,2,2024-06-13T10:12:43.367Z,english_411.wav,0,0,772,20,4,Chinese ,f,3,0.3,90.25367142,0.73863407
DJX,131,2,2024-06-13T10:12:43.367Z,english_411.wav,0,0,772,20,4,Chinese ,f,4,0.32341667,26.85831553,0.4624235
DJX,132,2,2024-06-13T10:12:43.367Z,english_126.wav,0,0,655,20,4,Chinese ,f,0,0,-71.89060105,0.84485729
DJX,132,2,2024-06-13T10:12:43.367Z,english_126.wav,0,0,655,20,4,Chinese ,f,1,0.1,-54.28004149,1.61340521
DJX,132,2,2024-06-13T10:12:43.367Z,english_126.wav,0,0,655,20,4,Chinese ,f,2,0.2,67.0997098,1.10892805
DJX,132,2,2024-06-13T10:12:43.367Z,english_126.wav,0,0,655,20,4,Chinese ,f,3,0.3,-96.31741745,1.20133652
DJX,132,2,2024-06-13T10:12:43.367Z,english_126.wav,0,0,655,20,4,Chinese ,f,4,0.32341667,22.67293764,0.33470898
DJX,133,2,2024-06-13T10:12:43.367Z,english_64.wav,0,0,1527,20,4,Chinese ,f,0,0,-77.75081389,0.01503168
DJX,133,2,2024-06-13T10:12:43.367Z,english_64.wav,0,0,1527,20,4,Chinese ,f,1,0.1,47.79712302,0.51971923
DJX,133,2,2024-06-13T10:12:43.367Z,english_64.wav,0,0,1527,20,4,Chinese ,f,2,0.2,-98.04646937,1.01128345
DJX,133,2,2024-06-13T10:12:43.367Z,english_64.wav,0,0,1527,20,4,Chinese ,f,3,0.3,-20.17707595,0.69563875
DJX,133,2,2024-06-13T10:12:43.367Z,english_64.wav,0,0,1527,20,4,Chinese ,f,4,0.32341667,53.05828969,1.51814807
DJX,134,2,2024-06-13T10:12:43.367Z,english_543.wav,0,0,427,20,4,Chinese ,f,0,0,13.74009622,0.63900578
DJX,134,2,2024-06-13T10:12:43.367Z,english_543.wav,0,0,427,20,4,Chinese ,f,1,0.1,51.80972721,1.6206981
DJX,134,2,2024-06-13T10:12:43.367Z,english_543.wav,0,0,427,20,4,Chinese ,f,2,0.2,86.3964352,0.03304675
DJX,134,2,2024-06-13T10:12:43.367Z,english_543.wav,0,0,427,20,4,Chinese ,f,3,0.3,-66.39783761,1.7049324
DJX,134,2,2024-06-13T10:12:43.367Z,english_543.wav,0,0,427,20,4,Chinese ,f,4,0.32341667,31.11863834,1.46507556
DJX,135,2,2024-06-13T10:12:43.367Z,english_836.wav,0,0,741,20,4,Chinese ,f,0,0,34.85846782,1.04017402
DJX,135,2,2024-06-13T10:12:43.367Z,english_836.wav,0,0,741,20,4,Chinese ,f,1,0.1,41.54458908,0.35535359
DJX,135,2,2024-06-13T10:12:43.367Z,english_836.wav,0,0,741,20,4,Chinese ,f,2,0.2,23.27363575,0.10471693
DJX,135,2,2024-06-13T10:12:43.367Z,english_836.wav,0,0,741,20,4,Chinese ,f,3,0.3,86.83996211,0.55523491
DJX,135,2,2024-06-13T10:12:43.367Z,english_836.wav,0,0,741,20,4,Chinese ,f,4,0.32341667,-32.25656931,0.70311776
DJX,136,2,2024-06-13T10:12:43.367Z,english_242.wav,0,0,753,20,4,Chinese ,f,0,0,26.44185099,0.44763058
DJX,136,2,2024-06-13T10:12:43.367Z,english_242.wav,0,0,753,20,4,Chinese ,f,1,0.1,44.29547205,1.06541359
DJX,136,2,2024-06-13T10:12:43.367Z,english_242.wav,0,0,753,20,4,Chinese ,f,2,0.2,-3.86423299,0.64111919
DJX,136,2,2024-06-13T10:12:43.367Z,english_242.wav,0,0,753,20,4,Chinese ,f,3,0.3,60.29108386,0.35225786
DJX,136,2,2024-06-13T10:12:43.367Z,english_242.wav,0,0,753,20,4,Chinese ,f,4,0.32341667,18.66576556,1.0072971
DJX,137,2,2024-06-13T10:12:43.367Z,english_417.wav,0,0,512,20,4,Chinese ,f,0,0,-17.25972862,1.29903721
DJX,137,2,2024-06-13T10:12:43.367Z,english_417.wav,0,0,512,20,4,Chinese ,f,1,0.1,72.11413149,0.87773419
DJX,137,2,2024-06-13T10:12:43.367Z,english_417.wav,0,0,512,20,4,Chinese ,f,2,0.2,83.70212603,1.45838331
DJX,137,2,2024-06-13T10:12:43.367Z,english_417.wav,0,0,512,20,4,Chinese ,f,3,0.3,67.19530478,0.90979472
DJX,137,2,2024-06-13T10:12:43.367Z,english_417.wav,0,0,512,20,4,Chinese ,f,4,0.32341667,29.72084594,0.1224986
DJX,138,2,2024-06-13T10:12:43.367Z,english_993.wav,0,0,657,20,4,Chinese ,f,0,0,-66.15449332,1.17508471
DJX,138,2,2024-06-13T10:12:43.367Z,english_993.wav,0,0,657,20,4,Chinese ,f,1,0.1,33.08083728,0.94744004
DJX,138,2,2024-06-13T10:12:43.367Z,english_993.wav,0,0,657,20,4,Chinese ,f,2,0.2,51.46479562,0.74931244
DJX,138,2,2024-06-13T10:12:43.367Z,english_993.wav,0,0,657,20,4,Chinese ,f,3,0.3,-80.58676237,0.35628979
DJX,138,2,2024-06-13T10:12:43.367Z,english_993.wav,0,0,657,20,4,Chinese ,f,4,0.32341667,81.97884737,1.25416847
DJX,139,2,2024-06-13T10:12:43.367Z,english_901.wav,0,1,533,20,4,Chinese ,f,0,0,-14.81770559,1.5194741
DJX,139,2,2024-06-13T10:12:43.367Z,english_901.wav,0,1,533,20,4,Chinese ,f,1,0.1,-27.73561163,1.98674938
DJX,139,2,2024-06-13T10:12:43.367Z,english_901.wav,0,1,533,20,4,Chinese ,f,2,0.2,-22.44015454,0.54356598
DJX,139,2,2024-06-13T10:12:43.367Z,english_901.wav,0,1,533,20,4,Chinese ,f,3,0.3,-41.34815185,1.30497628
DJX,139,2,2024-06-13T10:12:43.367Z,english_901.wav,0,1,533,20,4,Chinese ,f,4,0.32341667,10.13492358,0.61526789
DJX,140,2,2024-06-13T10:12:43.367Z,english_545.wav,0,0,716,20,4,Chinese ,f,0,0,42.99494118,1.37740168
DJX,140,2,2024-06-13T10:12:43.367Z,english_545.wav,0,0,716,20,4,Chinese ,f,1,0.1,72.53025652,0.91972232
DJX,140,2,2024-06-13T10:12:43.367Z,english_545.wav,0,0,716,20,4,Chinese ,f,2,0.2,4.60849844,0.73226975
DJX,140,2,2024-06-13T10:12:43.367Z,english_545.wav,0,0,716,20,4,Chinese ,f,3,0.3,9.93291538,1.52934768
DJX,140,2,2024-06-13T10:12:43.367Z,english_545.wav,0,0,716,20,4,Chinese ,f,4,0.32341667,-11.25611892,0.18478607
DJX,141,2,2024-06-13T10:12:43.367Z,english_437.wav,0,0,731,20,4,Chinese ,f,0,0,61.91803223,0.36516876
DJX,141,2,2024-06-13T10:12:43.367Z,english_437.wav,0,0,731,20,4,Chinese ,f,1,0.1,0.99543568,0.43500315
DJX,141,2,2024-06-13T10:12:43.367Z,english_437.wav,0,0,731,20,4,Chinese ,f,2,0.2,-50.96874522,1.25398366
DJX,141,2,2024-06-13T10:12:43.367Z,english_437.wav,0,0,731,20,4,Chinese ,f,3,0.3,-47.73319396,0.60570222
DJX,141,2,2024-06-13T10:12:43.367Z,english_437.wav,0,0,731,20,4,Chinese ,f,4,0.32341667,15.35939938,0.97208355
DJX,142,2,2024-06-13T10:12:43.367Z,english_75.wav,0,1,777,20,4,Chinese ,f,0,0,-9.18091647,0.92930856
DJX,142,2,2024-06-13T10:12:43.367Z,english_75.wav,0,1,777,20,4,Chinese ,f,1,0.1,-62.02164907,1.94000482
DJX,142,2,2024-06-13T10:12:43.367Z,english_75.wav,0,1,777,20,4,Chinese ,f,2,0.2,-12.90623207,1.2183621
DJX,142,2,2024-06-13T10:12:43.367Z,english_75.wav,0,1,777,20,4,Chinese ,f,3,0.3,15.17089036,0.47349695
DJX,142,2,2024-06-13T10:12:43.367Z,english_75.wav,0,1,777,20,4,Chinese ,f,4,0.32341667,10.89352922,1.02561006
DJX,143,2,2024-06-13T10:12:43.367Z,english_935.wav,0,0,909,20,4,Chinese ,f,0,0,64.39543101,0.53440609
DJX,143,2,2024-06-13T10:12:43.367Z,english_935.wav,0,0,909,20,4,Chinese ,f,1,0.1,86.95314533,0.5847186
DJX,143,2,2024-06-13T10:12:43.367Z,english_935.wav,0,0,909,20,4,Chinese ,f,2,0.2,-18.93400703,0.87093815
DJX,143,2,2024-06-13T10:12:43.367Z,english_935.wav,0,0,909,20,4,Chinese ,f,3,0.3,36.25821345,1.35336039
DJX,143,2,2024-06-13T10:12:43.367Z,english_935.wav,0,0,909,20,4,Chinese ,f,4,0.32341667,-52.75689815,1.46825192
DJX,144,2,2024-06-13T10:12:43.367Z,english_127.wav,0,0,1402,20,4,Chinese ,f,0,0,-69.70750805,0.25070661
DJX,144,2,2024-06-13T10:12:43.367Z,english_127.wav,0,0,1402,20,4,Chinese ,f,1,0.1,-23.17484413,1.1475992
DJX,144,2,2024-06-13T10:12:43.367Z,english_127.wav,0,0,1402,20,4,Chinese ,f,2,0.2,16.27024862,1.99299371
DJX,144,2,2024-06-13T10:12:43.367Z,english_127.wav,0,0,1402,20,4,Chinese ,f,3,0.3,-50.08342814,0.57749513
DJX,144,2,2024-06-13T10:12:43.367Z,english_127.wav,0,0,1402,20,4,Chinese ,f,4,0.32341667,22.60332787,1.27832678
DJX,145,2,2024-06-13T10:12:43.367Z,english_447.wav,0,0,984,20,4,Chinese ,f,0,0,38.77193801,0.52212734
DJX,145,2,2024-06-13T10:12:43.367Z,english_447.wav,0,0,984,20,4,Chinese ,f,1,0.1,-3.53992528,0.58948567
DJX,145,2,2024-06-13T10:12:43.367Z,english_447.wav,0,0,984,20,4,Chinese ,f,2,0.2,54.1888363,0.60662966
DJX,145,2,2024-06-13T10:12:43.367Z,english_447.wav,0,0,984,20,4,Chinese ,f,3,0.3,-95.90180003,0.73195254
DJX,145,2,2024-06-13T10:12:43.367Z,english_447.wav,0,0,984,20,4,Chinese ,f,4,0.32341667,48.32118178,0.21856551
DJX,146,2,2024-06-13T10:12:43.367Z,english_465.wav,0,0,1224,20,4,Chinese ,f,0,0,40.04056426,1.33778995
DJX,146,2,2024-06-13T10:12:43.367Z,english_465.wav,0,0,1224,20,4,Chinese ,f,1,0.1,-97.28817369,0.1899685
DJX,146,2,2024-06-13T10:12:43.367Z,english_465.wav,0,0,1224,20,4,Chinese ,f,2,0.2,-58.72937184,1.35609136
DJX,146,2,2024-06-13T10:12:43.367Z,english_465.wav,0,0,1224,20,4,Chinese ,f,3,0.3,82.2448524,1.94032164
DJX,146,2,2024-06-13T10:12:43.367Z,english_465.wav,0,0,1224,20,4,Chinese ,f,4,0.32341667,-29.20233879,0.27858753
DJX,147,2,2024-06-13T10:12:43.367Z,english_614.wav,0,0,1048,20,4,Chinese ,f,0,0,78.57791509,1.76663636
DJX,147,2,2024-06-13T10:12:43.367Z,english_614.wav,0,0,1048,20,4,Chinese ,f,1,0.1,-6.15631212,0.7337869
DJX,147,2,2024-06-13T10:12:43.367Z,english_614.wav,0,0,1048,20,4,Chinese ,f,2,0.2,-15.34092719,1.62880485
DJX,147,2,2024-06-13T10:12:43.367Z,english_614.wav,0,0,1048,20,4,Chinese ,f,3,0.3,21.91351344,0.61213133
DJX,147,2,2024-06-13T10:12:43.367Z,english_614.wav,0,0,1048,20,4,Chinese ,f,4,0.32341667,-10.50820757,0.41097232
DJX,148,2,2024-06-13T10:12:43.367Z,english_592.wav,0,0,2867,20,4,Chinese ,f,0,0,-77.34060672,0.96869857
DJX,148,2,2024-06-13T10:12:43.367Z,english_592.wav,0,0,2867,20,4,Chinese ,f,1,0.1,27.41551815,1.75134411
DJX,148,2,2024-06-13T10:12:43.367Z,english_592.wav,0,0,2867,20,4,Chinese ,f,2,0.2,-17.47445882,1.41680483
DJX,148,2,2024-06-13T10:12:43.367Z,english_592.wav,0,0,2867,20,4,Chinese ,f,3,0.3,-61.08462212,1.07260777
DJX,148,2,2024-06-13T10:12:43.367Z,english_592.wav,0,0,2867,20,4,Chinese ,f,4,0.32341667,74.7675789,0.73150904
DJX,149,2,2024-06-13T10:12:43.367Z,english_924.wav,0,0,2068,20,4,Chinese ,f,0,0,63.64154058,1.83477076
DJX,149,2,2024-06-13T10:12:43.367Z,english_924.wav,0,0,2068,20,4,Chinese ,f,1,0.1,-60.55254199,0.21366754
DJX,149,2,2024-06-13T10:12:43.367Z,english_924.wav,0,0,2068,20,4,Chinese ,f,2,0.2,-47.94670646,1.07859551
DJX,149,2,2024-06-13T10:12:43.367Z,english_924.wav,0,0,2068,20,4,Chinese ,f,3,0.3,-76.50696127,1.9507375
DJX,149,2,2024-06-13T10:12:43.367Z,english_924.wav,0,0,2068,20,4,Chinese ,f,4,0.32341667,44.23103111,1.33476666
DJX,150,3,2024-06-13T10:12:43.367Z,english_952.wav,0,0,459,20,4,Chinese ,f,0,0,64.91746033,1.00586425
DJX,150,3,2024-06-13T10:12:43.367Z,english_952.wav,0,0,459,20,4,Chinese ,f,1,0.1,-25.84234774,1.28790365
DJX,150,3,2024-06-13T10:12:43.367Z,english_952.wav,0,0,459,20,4,Chinese ,f,2,0.2,60.30097417,1.6668124
DJX,150,3,2024-06-13T10:12:43.367Z,english_952.wav,0,0,459,20,4,Chinese ,f,3,0.3,-98.0606555,1.44616756
DJX,150,3,2024-06-13T10:12:43.367Z,english_952.wav,0,0,459,20,4,Chinese ,f,4,0.32341667,-77.98984902,0.15831209
DJX,151,3,2024-06-13T10:12:43.367Z,english_925.wav,0,1,1352,20,4,Chinese ,f,0,0,-23.38055082,1.07708889
DJX,151,3,2024-06-13T10:12:43.367Z,english_925.wav,0,1,1352,20,4,Chinese ,f,1,0.1,12.69502826,1.65606803
DJX,151,3,2024-06-13T10:12:43.367Z,english_925.wav,0,1,1352,20,4,Chinese ,f,2,0.2,77.53463838,0.48648737
DJX,151,3,2024-06-13T10:12:43.367Z,english_925.wav,0,1,1352,20,4,Chinese ,f,3,0.3,58.05299948,0.8939016
DJX,151,3,2024-06-13T10:12:43.367Z,english_925.wav,0,1,1352,20,4,Chinese ,f,4,0.32341667,54.12197927,0.72199492
DJX,152,3,2024-06-13T10:12:43.367Z,english_761.wav,0,0,1094,20,4,Chinese ,f,0,0,-7.84319468,0.39728316
DJX,152,3,2024-06-13T10:12:43.367Z,english_761.wav,0,0,1094,20,4,Chinese ,f,1,0.1,77.10262164,0.76675063
DJX,152,3,2024-06-13T10:12:43.367Z,english_761.wav,0,0,1094,20,4,Chinese ,f,2,0.2,23.07677451,1.40075404
DJX,152,3,2024-06-13T10:12:43.367Z,english_761.wav,0,0,1094,20,4,Chinese ,f,3,0.3,-22.28856666,0.53792203
DJX,152,3,2024-06-13T10:12:43.367Z,english_761.wav,0,0,1094,20,4,Chinese ,f,4,0.32341667,18.71779046,1.06229189
DJX,153,3,2024-06-13T10:12:43.367Z,english_461.wav,0,0,1128,20,4,Chinese ,f,0,0,-99.86661298,0.04975834
DJX,153,3,2024-06-13T10:12:43.367Z,english_461.wav,0,0,1128,20,4,Chinese ,f,1,0.1,65.11959058,1.27856071
DJX,153,3,2024-06-13T10:12:43.367Z,english_461.wav,0,0,1128,20,4,Chinese ,f,2,0.2,-96.19635976,1.53618081
DJX,153,3,2024-06-13T10:12:43.367Z,english_461.wav,0,0,1128,20,4,Chinese ,f,3,0.3,56.69155656,1.97602464
DJX,153,3,2024-06-13T10:12:43.367Z,english_461.wav,0,0,1128,20,4,Chinese ,f,4,0.32341667,-82.13106063,1.41647384
DJX,154,3,2024-06-13T10:12:43.367Z,english_499.wav,0,0,1412,20,4,Chinese ,f,0,0,-62.75547094,0.4212983
DJX,154,3,2024-06-13T10:12:43.367Z,english_499.wav,0,0,1412,20,4,Chinese ,f,1,0.1,28.73361796,1.54082224
DJX,154,3,2024-06-13T10:12:43.367Z,english_499.wav,0,0,1412,20,4,Chinese ,f,2,0.2,-71.86053711,1.07919976
DJX,154,3,2024-06-13T10:12:43.367Z,english_499.wav,0,0,1412,20,4,Chinese ,f,3,0.3,-44.40399931,1.20425095
DJX,154,3,2024-06-13T10:12:43.367Z,english_499.wav,0,0,1412,20,4,Chinese ,f,4,0.32341667,-2.72335033,0.4618338
DJX,155,3,2024-06-13T10:12:43.367Z,english_200.wav,0,0,1664,20,4,Chinese ,f,0,0,48.98677304,1.07797747
DJX,155,3,2024-06-13T10:12:43.367Z,english_200.wav,0,0,1664,20,4,Chinese ,f,1,0.1,13.54292536,1.23698451
DJX,155,3,2024-06-13T10:12:43.367Z,english_200.wav,0,0,1664,20,4,Chinese ,f,2,0.2,15.98335964,0.85343662
DJX,155,3,2024-06-13T10:12:43.367Z,english_200.wav,0,0,1664,20,4,Chinese ,f,3,0.3,-46.7743147,1.38707984
DJX,155,3,2024-06-13T10:12:43.367Z,english_200.wav,0,0,1664,20,4,Chinese ,f,4,0.32341667,-12.18386714,0.65409939
DJX,156,3,2024-06-13T10:12:43.367Z,english_97.wav,0,0,826,20,4,Chinese ,f,0,0,57.21139396,1.63402743
DJX,156,3,2024-06-13T10:12:43.367Z,english_97.wav,0,0,826,20,4,Chinese ,f,1,0.1,-7.40408397,0.54734888
DJX,156,3,2024-06-13T10:12:43.367Z,english_97.wav,0,0,826,20,4,Chinese ,f,2,0.2,77.7995227,1.5228594
DJX,156,3,2024-06-13T10:12:43.367Z,english_97.wav,0,0,826,20,4,Chinese ,f,3,0.3,-51.1747528,1.13050105
DJX,156,3,2024-06-13T10:12:43.367Z,english_97.wav,0,0,826,20,4,Chinese ,f,4,0.32341667,77.11982253,0.82586999
DJX,157,3,2024-06-13T10:12:43.367Z,english_740.wav,0,0,858,20,4,Chinese ,f,0,0,17.63845752,0.65519257
DJX,157,3,2024-06-13T10:12:43.367Z,english_740.wav,0,0,858,20,4,Chinese ,f,1,0.1,36.88289119,0.996231
DJX,157,3,2024-06-13T10:12:43.367Z,english_740.wav,0,0,858,20,4,Chinese ,f,2,0.2,-63.85348159,0.85360158
DJX,157,3,2024-06-13T10:12:43.367Z,english_740.wav,0,0,858,20,4,Chinese ,f,3,0.3,-97.96670479,1.42654033
DJX,157,3,2024-06-13T10:12:43.367Z,english_740.wav,0,0,858,20,4,Chinese ,f,4,0.32341667,43.035587,1.01691569
DJX,158,3,2024-06-13T10:12:43.367Z,english_427.wav,0,0,1039,20,4,Chinese ,f,0,0,38.10585738,0.62221409
DJX,158,3,2024-06-13T10:12:43.367Z,english_427.wav,0,0,1039,20,4,Chinese ,f,1,0.1,75.26959407,1.20145201
DJX,158,3,2024-06-13T10:12:43.367Z,english_427.wav,0,0,1039,20,4,Chinese ,f,2,0.2,-92.48152235,0.18894815
DJX,158,3,2024-06-13T10:12:43.367Z,english_427.wav,0,0,1039,20,4,Chinese ,f,3,0.3,-38.24940669,0.36527681
DJX,158,3,2024-06-13T10:12:43.367Z,english_427.wav,0,0,1039,20,4,Chinese ,f,4,0.32341667,-41.67637111,0.02898627
DJX,159,3,2024-06-13T10:12:43.367Z,english_334.wav,0,1,891,20,4,Chinese ,f,0,0,-67.45724149,1.41500124
DJX,159,3,2024-06-13T10:12:43.367Z,english_334.wav,0,1,891,20,4,Chinese ,f,1,0.1,-9.29085452,1.93519658
DJX,159,3,2024-06-13T10:12:43.367Z,english_334.wav,0,1,891,20,4,Chinese ,f,2,0.2,-52.27794836,1.67457228
DJX,159,3,2024-06-13T10:12:43.367Z,english_334.wav,0,1,891,20,4,Chinese ,f,3,0.3,97.74689659,1.80763723
DJX,159,3,2024-06-13T10:12:43.367Z,english_334.wav,0,1,891,20,4,Chinese ,f,4,0.32341667,69.13668576,0.68141016
DJX,160,3,2024-06-13T10:12:43.367Z,english_332.wav,0,0,1729,20,4,Chinese ,f,0,0,-51.41680869,1.58782391
DJX,160,3,2024-06-13T10:12:43.367Z,english_332.wav,0,0,1729,20,4,Chinese ,f,1,0.1,4.985172,0.72138411
DJX,160,3,2024-06-13T10:12:43.367Z,english_332.wav,0,0,1729,20,4,Chinese ,f,2,0.2,88.20327684,1.12265768
DJX,160,3,2024-06-13T10:12:43.367Z,english_332.wav,0,0,1729,20,4,Chinese ,f,3,0.3,-58.40734817,0.23569111
DJX,160,3,2024-06-13T10:12:43.367Z,english_332.wav,0,0,1729,20,4,Chinese ,f,4,0.32341667,68.30800912,1.23583309
DJX,161,3,2024-06-13T10:12:43.367Z,english_490.wav,0,0,1424,20,4,Chinese ,f,0,0,39.23640548,0.12600295
DJX,161,3,2024-06-13T10:12:43.367Z,english_490.wav,0,0,1424,20,4,Chinese ,f,1,0.1,-42.18123516,0.88631808
DJX,161,3,2024-06-13T10:12:43.367Z,english_490.wav,0,0,1424,20,4,Chinese ,f,2,0.2,53.94030347,1.76218548
DJX,161,3,2024-06-13T10:12:43.367Z,english_490.wav,0,0,1424,20,4,Chinese ,f,3,0.3,-65.41993581,1.86160188
DJX,161,3,2024-06-13T10:12:43.367Z,english_490.wav,0,0,1424,20,4,Chinese ,f,4,0.32341667,90.15742696,1.03493088
DJX,162,3,2024-06-13T10:12:43.367Z,english_640.wav,0,0,2120,20,4,Chinese ,f,0,0,74.95875769,1.81273707
DJX,162,3,2024-06-13T10:12:43.367Z,english_640.wav,0,0,2120,20,4,Chinese ,f,1,0.1,87.73764633,1.50076703
DJX,162,3,2024-06-13T10:12:43.367Z,english_640.wav,0,0,2120,20,4,Chinese ,f,2,0.2,-71.36544648,0.25286143
DJX,162,3,2024-06-13T10:12:43.367Z,english_640.wav,0,0,2120,20,4,Chinese ,f,3,0.3,11.07583082,0.53181051
DJX,162,3,2024-06-13T10:12:43.367Z,english_640.wav,0,0,2120,20,4,Chinese ,f,4,0.32341667,18.32643638,0.76351343
DJX,163,3,2024-06-13T10:12:43.367Z,english_98.wav,0,0,1891,20,4,Chinese ,f,0,0,-23.07451683,0.55932234
DJX,163,3,2024-06-13T10:12:43.367Z,english_98.wav,0,0,1891,20,4,Chinese ,f,1,0.1,58.83766866,1.03192869
DJX,163,3,2024-06-13T10:12:43.367Z,english_98.wav,0,0,1891,20,4,Chinese ,f,2,0.2,75.90401246,1.16154403
DJX,163,3,2024-06-13T10:12:43.367Z,english_98.wav,0,0,1891,20,4,Chinese ,f,3,0.3,-86.31256295,0.50819795
DJX,163,3,2024-06-13T10:12:43.367Z,english_98.wav,0,0,1891,20,4,Chinese ,f,4,0.32341667,26.17624316,1.94690859
DJX,164,3,2024-06-13T10:12:43.367Z,english_156.wav,0,0,876,20,4,Chinese ,f,0,0,93.86570948,0.27803573
DJX,164,3,2024-06-13T10:12:43.367Z,english_156.wav,0,0,876,20,4,Chinese ,f,1,0.1,63.74639013,0.76121308
DJX,164,3,2024-06-13T10:12:43.367Z,english_156.wav,0,0,876,20,4,Chinese ,f,2,0.2,-97.10775444,0.98438609
DJX,164,3,2024-06-13T10:12:43.367Z,english_156.wav,0,0,876,20,4,Chinese ,f,3,0.3,99.76737427,0.34877861
DJX,164,3,2024-06-13T10:12:43.367Z,english_156.wav,0,0,876,20,4,Chinese ,f,4,0.32341667,11.29868277,0.58154428
DJX,165,3,2024-06-13T10:12:43.367Z,english_276.wav,0,1,1246,20,4,Chinese ,f,0,0,-87.25523595,1.1918401
DJX,165,3,2024-06-13T10:12:43.367Z,english_276.wav,0,1,1246,20,4,Chinese ,f,1,0.1,16.91650801,0.89399115
DJX,165,3,2024-06-13T10:12:43.367Z,english_276.wav,0,1,1246,20,4,Chinese ,f,2,0.2,-40.09372932,0.89701806
DJX,165,3,2024-06-13T10:12:43.367Z,english_276.wav,0,1,1246,20,4,Chinese ,f,3,0.3,3.19229046,1.98333504
DJX,165,3,2024-06-13T10:12:43.367Z,english_276.wav,0,1,1246,20,4,Chinese ,f,4,0.32341667,18.84785296,1.85350493
DJX,166,3,2024-06-13T10:12:43.367Z,english_615.wav,0,1,819,20,4,Chinese ,f,0,0,76.05955912,1.68553334
DJX,166,3,2024-06-13T10:12:43.367Z,english_615.wav,0,1,819,20,4,Chinese ,f,1,0.1,54.62950786,1.5058876
DJX,166,3,2024-06-13T10:12:43.367Z,english_615.wav,0,1,819,20,4,Chinese ,f,2,0.2,-31.02204933,1.66676809
DJX,166,3,2024-06-13T10:12:43.367Z,english_615.wav,0,1,819,20,4,Chinese ,f,3,0.3,-3.27946314,1.09840801
DJX,166,3,2024-06-13T10:12:43.367Z,english_615.wav,0,1,819,20,4,Chinese ,f,4,0.32341667,51.350795,0.25314986
DJX,167,3,2024-06-13T10:12:43.367Z,english_502.wav,0,0,783,20,4,Chinese ,f,0,0,-23.73065935,0.0797034
DJX,167,3,2024-06-13T10:12:43.367Z,english_502.wav,0,0,783,20,4,Chinese ,f,1,0.1,2.70754613,1.83600464
DJX,167,3,2024-06-13T10:12:43.367Z,english_502.wav,0,0,783,20,4,Chinese ,f,2,0.2,25.650451,1.48948742
DJX,167,3,2024-06-13T10:12:43.367Z,english_502.wav,0,0,783,20,4,Chinese ,f,3,0.3,-49.55254658,1.22465236
DJX,167,3,2024-06-13T10:12:43.367Z,english_502.wav,0,0,783,20,4,Chinese ,f,4,0.32341667,16.82642172,1.41984075
DJX,168,3,2024-06-13T10:12:43.367Z,english_853.wav,0,0,1221,20,4,Chinese ,f,0,0,87.83319324,0.81037323
DJX,168,3,2024-06-13T10:12:43.367Z,english_853.wav,0,0,1221,20,4,Chinese ,f,1,0.1,64.16710312,1.2495933
DJX,168,3,2024-06-13T10:12:43.367Z,english_853.wav,0,0,1221,20,4,Chinese ,f,2,0.2,12.98667351,0.22916278
DJX,168,3,2024-06-13T10:12:43.367Z,english_853.wav,0,0,1221,20,4,Chinese ,f,3,0.3,25.03434444,0.67764146
DJX,168,3,2024-06-13T10:12:43.367Z,english_853.wav,0,0,1221,20,4,Chinese ,f,4,0.32341667,98.3458188,0.13807639
DJX,169,3,2024-06-13T10:12:43.367Z,english_328.wav,0,0,832,20,4,Chinese ,f,0,0,-24.96515822,0.68772771
DJX,169,3,2024-06-13T10:12:43.367Z,english_328.wav,0,0,832,20,4,Chinese ,f,1,0.1,36.64267249,0.30369637
DJX,169,3,2024-06-13T10:12:43.367Z,english_328.wav,0,0,832,20,4,Chinese ,f,2,0.2,-93.60804347,1.16330199
DJX,169,3,2024-06-13T10:12:43.367Z,english_328.wav,0,0,832,20,4,Chinese ,f,3,0.3,9.86556644,0.69001341
DJX,169,3,2024-06-13T10:12:43.367Z,english_328.wav,0,0,832,20,4,Chinese ,f,4,0.32341667,-17.13685423,0.54642887
DJX,170,3,2024-06-13T10:12:43.367Z,english_363.wav,0,0,823,20,4,Chinese ,f,0,0,-8.62246293,0.22304778
DJX,170,3,2024-06-13T10:12:43.367Z,english_363.wav,0,0,823,20,4,Chinese ,f,1,0.1,-37.95317313,0.51009023
DJX,170,3,2024-06-13T10:12:43.367Z,english_363.wav,0,0,823,20,4,Chinese ,f,2,0.2,-98.56362786,1.67320701
DJX,170,3,2024-06-13T10:12:43.367Z,english_363.wav,0,0,823,20,4,Chinese ,f,3,0.3,79.4101663,0.32318158
DJX,170,3,2024-06-13T10:12:43.367Z,english_363.wav,0,0,823,20,4,Chinese ,f,4,0.32341667,-19.01593507,1.23606141
DJX,171,3,2024-06-13T10:12:43.367Z,english_533.wav,0,0,1409,20,4,Chinese ,f,0,0,-10.36570298,0.10013008
DJX,171,3,2024-06-13T10:12:43.367Z,english_533.wav,0,0,1409,20,4,Chinese ,f,1,0.1,-67.04420928,1.73583104
DJX,171,3,2024-06-13T10:12:43.367Z,english_533.wav,0,0,1409,20,4,Chinese ,f,2,0.2,-31.24691396,1.00550506
DJX,171,3,2024-06-13T10:12:43.367Z,english_533.wav,0,0,1409,20,4,Chinese ,f,3,0.3,-22.73912087,1.21009828
DJX,171,3,2024-06-13T10:12:43.367Z,english_533.wav,0,0,1409,20,4,Chinese ,f,4,0.32341667,-4.63915005,1.69946188
DJX,172,3,2024-06-13T10:12:43.367Z,english_797.wav,0,0,1647,20,4,Chinese ,f,0,0,-10.77604935,1.75152448
DJX,172,3,2024-06-13T10:12:43.367Z,english_797.wav,0,0,1647,20,4,Chinese ,f,1,0.1,76.52998448,0.25625033
DJX,172,3,2024-06-13T10:12:43.367Z,english_797.wav,0,0,1647,20,4,Chinese ,f,2,0.2,-52.30950648,1.63910521
DJX,172,3,2024-06-13T10:12:43.367Z,english_797.wav,0,0,1647,20,4,Chinese ,f,3,0.3,-19.27189704,1.44412191
DJX,172,3,2024-06-13T10:12:43.367Z,english_797.wav,0,0,1647,20,4,Chinese ,f,4,0.32341667,-68.52312916,1.41513857
DJX,173,3,2024-06-13T10:12:43.367Z,english_771.wav,0,1,2835,20,4,Chinese ,f,0,0,52.29619013,1.65909918
DJX,173,3,2024-06-13T10:12:43.367Z,english_771.wav,0,1,2835,20,4,Chinese ,f,1,0.1,55.26271333,1.05958749
DJX,173,3,2024-06-13T10:12:43.367Z,english_771.wav,0,1,2835,20,4,Chinese ,f,2,0.2,49.2587818,1.33758239
DJX,173,3,2024-06-13T10:12:43.367Z,english_771.wav,0,1,2835,20,4,Chinese ,f,3,0.3,48.45532009,1.75478958
DJX,173,3,2024-06-13T10:12:43.367Z,english_771.wav,0,1,2835,20,4,Chinese ,f,4,0.32341667,-98.45631565,0.37013483
DJX,174,3,2024-06-13T10:12:43.367Z,english_680.wav,0,0,1744,20,4,Chinese ,f,0,0,93.24972168,1.89994278
DJX,174,3,2024-06-13T10:12:43.367Z,english_680.wav,0,0,1744,20,4,Chinese ,f,1,0.1,21.55707386,1.06559033
DJX,174,3,2024-06-13T10:12:43.367Z,english_680.wav,0,0,1744,20,4,Chinese ,f,2,0.2,-58.84044748,0.79606997
DJX,174,3,2024-06-13T10:12:43.367Z,english_680.wav,0,0,1744,20,4,Chinese ,f,3,0.3,-13.55367876,0.35899559
DJX,174,3,2024-06-13T10:12:43.367Z,english_680.wav,0,0,1744,20,4,Chinese ,f,4,0.32341667,17.98073729,1.50925573
DJX,175,3,2024-06-13T10:12:43.367Z,english_73.wav,0,1,1403,20,4,Chinese ,f,0,0,-73.49165063,1.41947215
DJX,175,3,2024-06-13T10:12:43.367Z,english_73.wav,0,1,1403,20,4,Chinese ,f,1,0.1,65.54847429,1.68852165
DJX,175,3,2024-06-13T10:12:43.367Z,english_73.wav,0,1,1403,20,4,Chinese ,f,2,0.2,-55.11967081,0.59259525
DJX,175,3,2024-06-13T10:12:43.367Z,english_73.wav,0,1,1403,20,4,Chinese ,f,3,0.3,68.77466141,0.85140805
DJX,175,3,2024-06-13T10:12:43.367Z,english_73.wav,0,1,1403,20,4,Chinese ,f,4,0.32341667,-37.79888894,1.17745107
DJX,176,3,2024-06-13T10:12:43.367Z,english_962.wav,0,0,2013,20,4,Chinese ,f,0,0,-55.512918,1.78332996
DJX,176,3,2024-06-13T10:12:43.367Z,english_962.wav,0,0,2013,20,4,Chinese ,f,1,0.1,90.34773129,1.25956614
DJX,176,3,2024-06-13T10:12:43.367Z,english_962.wav,0,0,2013,20,4,Chinese ,f,2,0.2,-3.10818459,0.72891593
DJX,176,3,2024-06-13T10:12:43.367Z,english_962.wav,0,0,2013,20,4,Chinese ,f,3,0.3,50.27619033,1.49954356
DJX,176,3,2024-06-13T10:12:43.367Z,english_962.wav,0,0,2013,20,4,Chinese ,f,4,0.32341667,-47.3196173,0.96339983
DJX,177,3,2024-06-13T10:12:43.367Z,english_693.wav,0,0,3459,20,4,Chinese ,f,0,0,-83.71635172,0.35753224
DJX,177,3,2024-06-13T10:12:43.367Z,english_693.wav,0,0,3459,20,4,Chinese ,f,1,0.1,32.46406691,1.09553371
DJX,177,3,2024-06-13T10:12:43.367Z,english_693.wav,0,0,3459,20,4,Chinese ,f,2,0.2,8.27548994,1.67166692
DJX,177,3,2024-06-13T10:12:43.367Z,english_693.wav,0,0,3459,20,4,Chinese ,f,3,0.3,15.80660539,1.61413862
DJX,177,3,2024-06-13T10:12:43.367Z,english_693.wav,0,0,3459,20,4,Chinese ,f,4,0.32341667,74.32681132,1.90943184
DJX,178,3,2024-06-13T10:12:43.367Z,english_25.wav,0,0,1758,20,4,Chinese ,f,0,0,-93.68210842,1.14210865
DJX,178,3,2024-06-13T10:12:43.367Z,english_25.wav,0,0,1758,20,4,Chinese ,f,1,0.1,-14.41268038,1.90089654
DJX,178,3,2024-06-13T10:12:43.367Z,english_25.wav,0,0,1758,20,4,Chinese ,f,2,0.2,72.93230065,0.61137859
DJX,178,3,2024-06-13T10:12:43.367Z,english_25.wav,0,0,1758,20,4,Chinese ,f,3,0.3,23.28545759,1.93042398
DJX,178,3,2024-06-13T10:12:43.367Z,english_25.wav,0,0,1758,20,4,Chinese ,f,4,0.32341667,18.09953767,1.11869114
DJX,179,3,2024-06-13T10:12:43.367Z,english_297.wav,0,0,1423,20,4,Chinese ,f,0,0,43.84745313,1.28698197
DJX,179,3,2024-06-13T10:12:43.367Z,english_297.wav,0,0,1423,20,4,Chinese ,f,1,0.1,-76.77337823,0.55126404
DJX,179,3,2024-06-13T10:12:43.367Z,english_297.wav,0,0,1423,20,4,Chinese ,f,2,0.2,52.72097055,0.14077967
DJX,179,3,2024-06-13T10:12:43.367Z,english_297.wav,0,0,1423,20,4,Chinese ,f,3,0.3,-53.36684977,1.29889067
DJX,179,3,2024-06-13T10:12:43.367Z,english_297.wav,0,0,1423,20,4,Chinese ,f,4,0.32341667,81.15212258,1.30715655
DJX,180,3,2024-06-13T10:12:43.367Z,english_185.wav,0,0,1234,20,4,Chinese ,f,0,0,-67.20213277,0.62417316
DJX,180,3,2024-06-13T10:12:43.367Z,english_185.wav,0,0,1234,20,4,Chinese ,f,1,0.1,-70.91279736,1.12829576
DJX,180,3,2024-06-13T10:12:43.367Z,english_185.wav,0,0,1234,20,4,Chinese ,f,2,0.2,11.55913655,0.70978518
DJX,180,3,2024-06-13T10:12:43.367Z,english_185.wav,0,0,1234,20,4,Chinese ,f,3,0.3,-88.76292025,0.02882377
DJX,180,3,2024-06-13T10:12:43.367Z,english_185.wav,0,0,1234,20,4,Chinese ,f,4,0.32341667,-25.67800099,0.52970381
DJX,181,3,2024-06-13T10:12:43.367Z,english_209.wav,0,1,602,20,4,Chinese ,f,0,0,14.15361396,1.44232267
DJX,181,3,2024-06-13T10:12:43.367Z,english_209.wav,0,1,602,20,4,Chinese ,f,1,0.1,85.95109622,1.49291498
DJX,181,3,2024-06-13T10:12:43.367Z,english_209.wav,0,1,602,20,4,Chinese ,f,2,0.2,18.04804687,1.19611731
DJX,181,3,2024-06-13T10:12:43.367Z,english_209.wav,0,1,602,20,4,Chinese ,f,3,0.3,28.2522976,1.49647535
DJX,181,3,2024-06-13T10:12:43.367Z,english_209.wav,0,1,602,20,4,Chinese ,f,4,0.32341667,5.36776296,0.30324849
DJX,182,3,2024-06-13T10:12:43.367Z,english_179.wav,0,0,828,20,4,Chinese ,f,0,0,76.93131114,0.23318107
DJX,182,3,2024-06-13T10:12:43.367Z,english_179.wav,0,0,828,20,4,Chinese ,f,1,0.1,5.5150778,0.47080089
DJX,182,3,2024-06-13T10:12:43.367Z,english_179.wav,0,0,828,20,4,Chinese ,f,2,0.2,3.89208722,1.31062884
DJX,182,3,2024-06-13T10:12:43.367Z,english_179.wav,0,0,828,20,4,Chinese ,f,3,0.3,-8.47825544,0.27743795
DJX,182,3,2024-06-13T10:12:43.367Z,english_179.wav,0,0,828,20,4,Chinese ,f,4,0.32341667,50.73924617,0.83516241
DJX,183,3,2024-06-13T10:12:43.367Z,english_778.wav,0,1,2462,20,4,Chinese ,f,0,0,99.37283207,0.92158405
DJX,183,3,2024-06-13T10:12:43.367Z,english_778.wav,0,1,2462,20,4,Chinese ,f,1,0.1,61.02900927,1.90392814
DJX,183,3,2024-06-13T10:12:43.367Z,english_778.wav,0,1,2462,20,4,Chinese ,f,2,0.2,-43.89505842,0.34916702
DJX,183,3,2024-06-13T10:12:43.367Z,english_778.wav,0,1,2462,20,4,Chinese ,f,3,0.3,-6.51139434,1.21087231
DJX,183,3,2024-06-13T10:12:43.367Z,english_778.wav,0,1,2462,20,4,Chinese ,f,4,0.32341667,-98.37213751,0.72140227
DJX,184,3,2024-06-13T10:12:43.367Z,english_13.wav,0,0,1993,20,4,Chinese ,f,0,0,85.79405153,0.93145275
DJX,184,3,2024-06-13T10:12:43.367Z,english_13.wav,0,0,1993,20,4,Chinese ,f,1,0.1,-22.00296346,0.69811424
DJX,184,3,2024-06-13T10:12:43.367Z,english_13.wav,0,0,1993,20,4,Chinese ,f,2,0.2,45.89988476,1.08090206
DJX,184,3,2024-06-13T10:12:43.367Z,english_13.wav,0,0,1993,20,4,Chinese ,f,3,0.3,-17.47250281,0.35305012
DJX,184,3,2024-06-13T10:12:43.367Z,english_13.wav,0,0,1993,20,4,Chinese ,f,4,0.32341667,-30.34546067,0.65915907
DJX,185,3,2024-06-13T10:12:43.367Z,english_468.wav,0,0,3794,20,4,Chinese ,f,0,0,-33.82586043,0.35164089
DJX,185,3,2024-06-13T10:12:43.367Z,english_468.wav,0,0,3794,20,4,Chinese ,f,1,0.1,-42.55840131,0.20114733
DJX,185,3,2024-06-13T10:12:43.367Z,english_468.wav,0,0,3794,20,4,Chinese ,f,2,0.2,-36.6492295,1.40729654
DJX,185,3,2024-06-13T10:12:43.367Z,english_468.wav,0,0,3794,20,4,Chinese ,f,3,0.3,39.91321296,0.04300573
DJX,185,3,2024-06-13T10:12:43.367Z,english_468.wav,0,0,3794,20,4,Chinese ,f,4,0.32341667,54.14936319,1.79642733
DJX,186,3,2024-06-13T10:12:43.367Z,english_247.wav,0,0,627,20,4,Chinese ,f,0,0,48.65693284,0.25539499
DJX,186,3,2024-06-13T10:12:43.367Z,english_247.wav,0,0,627,20,4,Chinese ,f,1,0.1,-27.64572099,1.09429421
DJX,186,3,2024-06-13T10:12:43.367Z,english_247.wav,0,0,627,20,4,Chinese ,f,2,0.2,-20.19701808,0.88115619
DJX,186,3,2024-06-13T10:12:43.367Z,english_247.wav,0,0,627,20,4,Chinese ,f,3,0.3,-10.74442668,1.97859338
DJX,186,3,2024-06-13T10:12:43.367Z,english_247.wav,0,0,627,20,4,Chinese ,f,4,0.32341667,91.42432082,0.10638235
DJX,187,3,2024-06-13T10:12:43.367Z,english_796.wav,0,0,1081,20,4,Chinese ,f,0,0,57.52331511,0.93419081
DJX,187,3,2024-06-13T10:12:43.367Z,english_796.wav,0,0,1081,20,4,Chinese ,f,1,0.1,-53.71774571,0.77950231
DJX,187,3,2024-06-13T10:12:43.367Z,english_796.wav,0,0,1081,20,4,Chinese ,f,2,0.2,-36.09214461,0.54947466
DJX,187,3,2024-06-13T10:12:43.367Z,english_796.wav,0,0,1081,20,4,Chinese ,f,3,0.3,23.21783142,1.69054841
DJX,187,3,2024-06-13T10:12:43.367Z,english_796.wav,0,0,1081,20,4,Chinese ,f,4,0.32341667,-74.52171885,0.76047802
DJX,188,3,2024-06-13T10:12:43.367Z,english_219.wav,0,0,1071,20,4,Chinese ,f,0,0,38.40040381,1.09142553
DJX,188,3,2024-06-13T10:12:43.367Z,english_219.wav,0,0,1071,20,4,Chinese ,f,1,0.1,-26.23926727,0.5740428
DJX,188,3,2024-06-13T10:12:43.367Z,english_219.wav,0,0,1071,20,4,Chinese ,f,2,0.2,-57.67558578,1.19056911
DJX,188,3,2024-06-13T10:12:43.367Z,english_219.wav,0,0,1071,20,4,Chinese ,f,3,0.3,50.56926795,1.87089358
DJX,188,3,2024-06-13T10:12:43.367Z,english_219.wav,0,0,1071,20,4,Chinese ,f,4,0.32341667,64.39220397,1.06933149
DJX,189,3,2024-06-13T10:12:43.367Z,english_320.wav,0,0,1387,20,4,Chinese ,f,0,0,-85.59568725,1.40519879
DJX,189,3,2024-06-13T10:12:43.367Z,english_320.wav,0,0,1387,20,4,Chinese ,f,1,0.1,-85.79055124,0.4213256
DJX,189,3,2024-06-13T10:12:43.367Z,english_320.wav,0,0,1387,20,4,Chinese ,f,2,0.2,-34.52195848,0.82537755
DJX,189,3,2024-06-13T10:12:43.367Z,english_320.wav,0,0,1387,20,4,Chinese ,f,3,0.3,14.03031204,0.50617831
DJX,189,3,2024-06-13T10:12:43.367Z,english_320.wav,0,0,1387,20,4,Chinese ,f,4,0.32341667,45.83597199,1.22725326
DJX,190,3,2024-06-13T10:12:43.367Z,english_730.wav,0,0,5982,20,4,Chinese ,f,0,0,12.15035978,0.91227818
