subj,trial,block,date,stim,stim_order,response,rt,age,english,language,sex,param_index,segment,pitch,stretch
Shay,0,0,2024-04-17T20:35:53.140Z,english_408.wav,0,1,3351,30,4,Mandarin,f,0,0,-0.16211679,1.52185603
Shay,0,0,2024-04-17T20:35:53.140Z,english_408.wav,0,1,3351,30,4,Mandarin,f,1,0.1,16.68246491,0.27925492
Shay,0,0,2024-04-17T20:35:53.140Z,english_408.wav,0,1,3351,30,4,Mandarin,f,2,0.2,-84.31504289,0.96179544
Shay,0,0,2024-04-17T20:35:53.140Z,english_408.wav,0,1,3351,30,4,Mandarin,f,3,0.3,20.95362966,1.64669203
Shay,0,0,2024-04-17T20:35:53.140Z,english_408.wav,0,1,3351,30,4,Mandarin,f,4,0.32341667,15.25079186,1.54793764
Shay,1,0,2024-04-17T20:35:53.140Z,english_480.wav,0,0,1874,30,4,Mandarin,f,0,0,-9.10453384,0.61491247
Shay,1,0,2024-04-17T20:35:53.140Z,english_480.wav,0,0,1874,30,4,Mandarin,f,1,0.1,72.09708103,1.35502449
Shay,1,0,2024-04-17T20:35:53.140Z,english_480.wav,0,0,1874,30,4,Mandarin,f,2,0.2,-73.7181862,0.28674933
Shay,1,0,2024-04-17T20:35:53.140Z,english_480.wav,0,0,1874,30,4,Mandarin,f,3,0.3,18.73451671,0.14653082
Shay,1,0,2024-04-17T20:35:53.140Z,english_480.wav,0,0,1874,30,4,Mandarin,f,4,0.32341667,83.35837597,1.34653786
Shay,2,0,2024-04-17T20:35:53.140Z,english_552.wav,0,1,1488,30,4,Mandarin,f,0,0,-54.22317773,0.14479657
Shay,2,0,2024-04-17T20:35:53.140Z,english_552.wav,0,1,1488,30,4,Mandarin,f,1,0.1,23.75537749,1.96762023
Shay,2,0,2024-04-17T20:35:53.140Z,english_552.wav,0,1,1488,30,4,Mandarin,f,2,0.2,-67.43154965,0.75812729
Shay,2,0,2024-04-17T20:35:53.140Z,english_552.wav,0,1,1488,30,4,Mandarin,f,3,0.3,-83.62242399,0.84420129
Shay,2,0,2024-04-17T20:35:53.140Z,english_552.wav,0,1,1488,30,4,Mandarin,f,4,0.32341667,64.2322812,0.73382384
Shay,3,0,2024-04-17T20:35:53.140Z,english_800.wav,0,1,822,30,4,Mandarin,f,0,0,-9.91001254,0.13142639
Shay,3,0,2024-04-17T20:35:53.140Z,english_800.wav,0,1,822,30,4,Mandarin,f,1,0.1,-86.79409322,1.71040153
Shay,3,0,2024-04-17T20:35:53.140Z,english_800.wav,0,1,822,30,4,Mandarin,f,2,0.2,-27.39997365,0.18637657
Shay,3,0,2024-04-17T20:35:53.140Z,english_800.wav,0,1,822,30,4,Mandarin,f,3,0.3,13.46737707,1.09766523
Shay,3,0,2024-04-17T20:35:53.140Z,english_800.wav,0,1,822,30,4,Mandarin,f,4,0.32341667,-32.56208711,1.57940615
Shay,4,0,2024-04-17T20:35:53.140Z,english_628.wav,0,1,762,30,4,Mandarin,f,0,0,-19.71295886,0.8960583
Shay,4,0,2024-04-17T20:35:53.140Z,english_628.wav,0,1,762,30,4,Mandarin,f,1,0.1,-79.294697,1.61949508
Shay,4,0,2024-04-17T20:35:53.140Z,english_628.wav,0,1,762,30,4,Mandarin,f,2,0.2,-59.93256946,0.65483299
Shay,4,0,2024-04-17T20:35:53.140Z,english_628.wav,0,1,762,30,4,Mandarin,f,3,0.3,-18.46863719,0.12001531
Shay,4,0,2024-04-17T20:35:53.140Z,english_628.wav,0,1,762,30,4,Mandarin,f,4,0.32341667,53.30350975,0.85308449
Shay,5,0,2024-04-17T20:35:53.140Z,english_433.wav,0,0,1979,30,4,Mandarin,f,0,0,-74.58178472,0.69852952
Shay,5,0,2024-04-17T20:35:53.140Z,english_433.wav,0,0,1979,30,4,Mandarin,f,1,0.1,-50.00917691,1.92405883
Shay,5,0,2024-04-17T20:35:53.140Z,english_433.wav,0,0,1979,30,4,Mandarin,f,2,0.2,48.18572343,0.3905825
Shay,5,0,2024-04-17T20:35:53.140Z,english_433.wav,0,0,1979,30,4,Mandarin,f,3,0.3,-63.95387597,0.31453116
Shay,5,0,2024-04-17T20:35:53.140Z,english_433.wav,0,0,1979,30,4,Mandarin,f,4,0.32341667,-68.91859183,1.4953114
Shay,6,0,2024-04-17T20:35:53.140Z,english_896.wav,0,0,957,30,4,Mandarin,f,0,0,-76.63716622,1.08893336
Shay,6,0,2024-04-17T20:35:53.140Z,english_896.wav,0,0,957,30,4,Mandarin,f,1,0.1,-73.11298951,0.41748987
Shay,6,0,2024-04-17T20:35:53.140Z,english_896.wav,0,0,957,30,4,Mandarin,f,2,0.2,48.53347054,0.32012442
Shay,6,0,2024-04-17T20:35:53.140Z,english_896.wav,0,0,957,30,4,Mandarin,f,3,0.3,-4.46661278,0.63387312
Shay,6,0,2024-04-17T20:35:53.140Z,english_896.wav,0,0,957,30,4,Mandarin,f,4,0.32341667,-44.69533701,1.27766005
Shay,7,0,2024-04-17T20:35:53.140Z,english_269.wav,0,1,983,30,4,Mandarin,f,0,0,61.09556447,1.11606818
Shay,7,0,2024-04-17T20:35:53.140Z,english_269.wav,0,1,983,30,4,Mandarin,f,1,0.1,-3.97684721,1.55443041
Shay,7,0,2024-04-17T20:35:53.140Z,english_269.wav,0,1,983,30,4,Mandarin,f,2,0.2,-87.59080112,1.78173809
Shay,7,0,2024-04-17T20:35:53.140Z,english_269.wav,0,1,983,30,4,Mandarin,f,3,0.3,78.47165079,1.73012946
Shay,7,0,2024-04-17T20:35:53.140Z,english_269.wav,0,1,983,30,4,Mandarin,f,4,0.32341667,-52.74135522,0.88090417
Shay,8,0,2024-04-17T20:35:53.140Z,english_729.wav,0,0,1347,30,4,Mandarin,f,0,0,31.16849918,1.30127688
Shay,8,0,2024-04-17T20:35:53.140Z,english_729.wav,0,0,1347,30,4,Mandarin,f,1,0.1,-74.04657477,1.28998605
Shay,8,0,2024-04-17T20:35:53.140Z,english_729.wav,0,0,1347,30,4,Mandarin,f,2,0.2,98.28479208,0.71365363
Shay,8,0,2024-04-17T20:35:53.140Z,english_729.wav,0,0,1347,30,4,Mandarin,f,3,0.3,45.68234461,0.61436371
Shay,8,0,2024-04-17T20:35:53.140Z,english_729.wav,0,0,1347,30,4,Mandarin,f,4,0.32341667,-23.12232547,0.96520681
Shay,9,0,2024-04-17T20:35:53.140Z,english_616.wav,0,1,1096,30,4,Mandarin,f,0,0,-71.12360497,0.83412473
Shay,9,0,2024-04-17T20:35:53.140Z,english_616.wav,0,1,1096,30,4,Mandarin,f,1,0.1,55.35355355,1.49185731
Shay,9,0,2024-04-17T20:35:53.140Z,english_616.wav,0,1,1096,30,4,Mandarin,f,2,0.2,-15.85026512,1.32170209
Shay,9,0,2024-04-17T20:35:53.140Z,english_616.wav,0,1,1096,30,4,Mandarin,f,3,0.3,-22.60587367,0.90458331
Shay,9,0,2024-04-17T20:35:53.140Z,english_616.wav,0,1,1096,30,4,Mandarin,f,4,0.32341667,-45.64131884,1.17134835
Shay,10,0,2024-04-17T20:35:53.140Z,english_154.wav,0,1,2221,30,4,Mandarin,f,0,0,69.79630433,0.95543174
Shay,10,0,2024-04-17T20:35:53.140Z,english_154.wav,0,1,2221,30,4,Mandarin,f,1,0.1,-67.81892388,1.87835363
Shay,10,0,2024-04-17T20:35:53.140Z,english_154.wav,0,1,2221,30,4,Mandarin,f,2,0.2,14.97335347,1.19287874
Shay,10,0,2024-04-17T20:35:53.140Z,english_154.wav,0,1,2221,30,4,Mandarin,f,3,0.3,8.47433965,1.12321966
Shay,10,0,2024-04-17T20:35:53.140Z,english_154.wav,0,1,2221,30,4,Mandarin,f,4,0.32341667,32.47098569,0.66995817
Shay,11,0,2024-04-17T20:35:53.140Z,english_19.wav,0,0,872,30,4,Mandarin,f,0,0,51.84788699,0.3981759
Shay,11,0,2024-04-17T20:35:53.140Z,english_19.wav,0,0,872,30,4,Mandarin,f,1,0.1,59.68091475,1.61217409
Shay,11,0,2024-04-17T20:35:53.140Z,english_19.wav,0,0,872,30,4,Mandarin,f,2,0.2,-27.71167756,0.35158216
Shay,11,0,2024-04-17T20:35:53.140Z,english_19.wav,0,0,872,30,4,Mandarin,f,3,0.3,-29.56443604,0.8770992
Shay,11,0,2024-04-17T20:35:53.140Z,english_19.wav,0,0,872,30,4,Mandarin,f,4,0.32341667,-58.55228515,0.51670124
Shay,12,0,2024-04-17T20:35:53.140Z,english_1.wav,0,0,569,30,4,Mandarin,f,0,0,53.99031816,1.91732561
Shay,12,0,2024-04-17T20:35:53.140Z,english_1.wav,0,0,569,30,4,Mandarin,f,1,0.1,-58.32145174,0.75352701
Shay,12,0,2024-04-17T20:35:53.140Z,english_1.wav,0,0,569,30,4,Mandarin,f,2,0.2,-86.75659624,1.40297919
Shay,12,0,2024-04-17T20:35:53.140Z,english_1.wav,0,0,569,30,4,Mandarin,f,3,0.3,-31.84945767,0.12157709
Shay,12,0,2024-04-17T20:35:53.140Z,english_1.wav,0,0,569,30,4,Mandarin,f,4,0.32341667,-59.21997754,1.57687546
Shay,13,0,2024-04-17T20:35:53.140Z,english_395.wav,0,0,993,30,4,Mandarin,f,0,0,12.69072165,1.18485033
Shay,13,0,2024-04-17T20:35:53.140Z,english_395.wav,0,0,993,30,4,Mandarin,f,1,0.1,16.88915645,0.64230571
Shay,13,0,2024-04-17T20:35:53.140Z,english_395.wav,0,0,993,30,4,Mandarin,f,2,0.2,49.23789678,0.95454364
Shay,13,0,2024-04-17T20:35:53.140Z,english_395.wav,0,0,993,30,4,Mandarin,f,3,0.3,39.87613746,0.75997929
Shay,13,0,2024-04-17T20:35:53.140Z,english_395.wav,0,0,993,30,4,Mandarin,f,4,0.32341667,70.90138048,1.50770695
Shay,14,0,2024-04-17T20:35:53.140Z,english_249.wav,0,0,736,30,4,Mandarin,f,0,0,78.40227579,1.91339694
Shay,14,0,2024-04-17T20:35:53.140Z,english_249.wav,0,0,736,30,4,Mandarin,f,1,0.1,-55.1129652,1.00834957
Shay,14,0,2024-04-17T20:35:53.140Z,english_249.wav,0,0,736,30,4,Mandarin,f,2,0.2,6.74447168,0.29418026
Shay,14,0,2024-04-17T20:35:53.140Z,english_249.wav,0,0,736,30,4,Mandarin,f,3,0.3,27.3376716,1.53256547
Shay,14,0,2024-04-17T20:35:53.140Z,english_249.wav,0,0,736,30,4,Mandarin,f,4,0.32341667,-97.08031886,0.99264532
Shay,15,0,2024-04-17T20:35:53.140Z,english_174.wav,0,0,707,30,4,Mandarin,f,0,0,-14.93169449,0.27768215
Shay,15,0,2024-04-17T20:35:53.140Z,english_174.wav,0,0,707,30,4,Mandarin,f,1,0.1,-60.50222611,0.13809097
Shay,15,0,2024-04-17T20:35:53.140Z,english_174.wav,0,0,707,30,4,Mandarin,f,2,0.2,-88.67347191,0.18584848
Shay,15,0,2024-04-17T20:35:53.140Z,english_174.wav,0,0,707,30,4,Mandarin,f,3,0.3,-20.58504224,1.46718454
Shay,15,0,2024-04-17T20:35:53.140Z,english_174.wav,0,0,707,30,4,Mandarin,f,4,0.32341667,-52.28073567,0.17567705
Shay,16,0,2024-04-17T20:35:53.140Z,english_990.wav,0,0,514,30,4,Mandarin,f,0,0,-17.98511021,0.6190444
Shay,16,0,2024-04-17T20:35:53.140Z,english_990.wav,0,0,514,30,4,Mandarin,f,1,0.1,-90.3005676,0.77548775
Shay,16,0,2024-04-17T20:35:53.140Z,english_990.wav,0,0,514,30,4,Mandarin,f,2,0.2,4.37005684,0.55013224
Shay,16,0,2024-04-17T20:35:53.140Z,english_990.wav,0,0,514,30,4,Mandarin,f,3,0.3,83.93705034,0.66784051
Shay,16,0,2024-04-17T20:35:53.140Z,english_990.wav,0,0,514,30,4,Mandarin,f,4,0.32341667,-36.57803625,0.32384409
Shay,17,0,2024-04-17T20:35:53.140Z,english_651.wav,0,0,406,30,4,Mandarin,f,0,0,94.66063372,0.16277223
Shay,17,0,2024-04-17T20:35:53.140Z,english_651.wav,0,0,406,30,4,Mandarin,f,1,0.1,53.93234837,1.71236475
Shay,17,0,2024-04-17T20:35:53.140Z,english_651.wav,0,0,406,30,4,Mandarin,f,2,0.2,-71.35755131,0.37376336
Shay,17,0,2024-04-17T20:35:53.140Z,english_651.wav,0,0,406,30,4,Mandarin,f,3,0.3,50.84025958,0.80998932
Shay,17,0,2024-04-17T20:35:53.140Z,english_651.wav,0,0,406,30,4,Mandarin,f,4,0.32341667,-24.67252949,0.23835763
Shay,18,0,2024-04-17T20:35:53.140Z,english_79.wav,0,0,580,30,4,Mandarin,f,0,0,-69.52518262,0.23164561
Shay,18,0,2024-04-17T20:35:53.140Z,english_79.wav,0,0,580,30,4,Mandarin,f,1,0.1,56.533406,1.01948637
Shay,18,0,2024-04-17T20:35:53.140Z,english_79.wav,0,0,580,30,4,Mandarin,f,2,0.2,25.92051761,0.17653141
Shay,18,0,2024-04-17T20:35:53.140Z,english_79.wav,0,0,580,30,4,Mandarin,f,3,0.3,81.58880491,0.14868702
Shay,18,0,2024-04-17T20:35:53.140Z,english_79.wav,0,0,580,30,4,Mandarin,f,4,0.32341667,-19.75719301,0.33345335
Shay,19,0,2024-04-17T20:35:53.140Z,english_390.wav,0,1,1124,30,4,Mandarin,f,0,0,-50.40750922,1.41643644
Shay,19,0,2024-04-17T20:35:53.140Z,english_390.wav,0,1,1124,30,4,Mandarin,f,1,0.1,-38.67641955,0.84399933
Shay,19,0,2024-04-17T20:35:53.140Z,english_390.wav,0,1,1124,30,4,Mandarin,f,2,0.2,-37.03459725,1.67796426
Shay,19,0,2024-04-17T20:35:53.140Z,english_390.wav,0,1,1124,30,4,Mandarin,f,3,0.3,-24.07335547,0.43781117
Shay,19,0,2024-04-17T20:35:53.140Z,english_390.wav,0,1,1124,30,4,Mandarin,f,4,0.32341667,75.09366884,0.01225463
Shay,20,0,2024-04-17T20:35:53.140Z,english_769.wav,0,0,1478,30,4,Mandarin,f,0,0,-12.68288087,1.59358978
Shay,20,0,2024-04-17T20:35:53.140Z,english_769.wav,0,0,1478,30,4,Mandarin,f,1,0.1,13.58895245,0.16681031
Shay,20,0,2024-04-17T20:35:53.140Z,english_769.wav,0,0,1478,30,4,Mandarin,f,2,0.2,-5.57429841,0.74292099
Shay,20,0,2024-04-17T20:35:53.140Z,english_769.wav,0,0,1478,30,4,Mandarin,f,3,0.3,-26.44516544,0.17250104
Shay,20,0,2024-04-17T20:35:53.140Z,english_769.wav,0,0,1478,30,4,Mandarin,f,4,0.32341667,85.93285426,0.16730253
Shay,21,0,2024-04-17T20:35:53.140Z,english_64.wav,0,0,12237,30,4,Mandarin,f,0,0,-77.75081389,0.01503168
Shay,21,0,2024-04-17T20:35:53.140Z,english_64.wav,0,0,12237,30,4,Mandarin,f,1,0.1,47.79712302,0.51971923
Shay,21,0,2024-04-17T20:35:53.140Z,english_64.wav,0,0,12237,30,4,Mandarin,f,2,0.2,-98.04646937,1.01128345
Shay,21,0,2024-04-17T20:35:53.140Z,english_64.wav,0,0,12237,30,4,Mandarin,f,3,0.3,-20.17707595,0.69563875
Shay,21,0,2024-04-17T20:35:53.140Z,english_64.wav,0,0,12237,30,4,Mandarin,f,4,0.32341667,53.05828969,1.51814807
Shay,22,0,2024-04-17T20:35:53.140Z,english_748.wav,0,0,3496,30,4,Mandarin,f,0,0,0.23647087,0.91094575
Shay,22,0,2024-04-17T20:35:53.140Z,english_748.wav,0,0,3496,30,4,Mandarin,f,1,0.1,45.60572596,1.68800655
Shay,22,0,2024-04-17T20:35:53.140Z,english_748.wav,0,0,3496,30,4,Mandarin,f,2,0.2,6.14588966,1.37684191
Shay,22,0,2024-04-17T20:35:53.140Z,english_748.wav,0,0,3496,30,4,Mandarin,f,3,0.3,-10.39850874,0.70556294
Shay,22,0,2024-04-17T20:35:53.140Z,english_748.wav,0,0,3496,30,4,Mandarin,f,4,0.32341667,-7.86503132,1.52987196
Shay,23,0,2024-04-17T20:35:53.140Z,english_522.wav,0,0,707,30,4,Mandarin,f,0,0,11.68148217,0.44643579
Shay,23,0,2024-04-17T20:35:53.140Z,english_522.wav,0,0,707,30,4,Mandarin,f,1,0.1,-74.55265788,0.16885459
Shay,23,0,2024-04-17T20:35:53.140Z,english_522.wav,0,0,707,30,4,Mandarin,f,2,0.2,95.15954448,1.67161326
Shay,23,0,2024-04-17T20:35:53.140Z,english_522.wav,0,0,707,30,4,Mandarin,f,3,0.3,-17.14209769,0.53349848
Shay,23,0,2024-04-17T20:35:53.140Z,english_522.wav,0,0,707,30,4,Mandarin,f,4,0.32341667,-35.38302731,0.4645726
Shay,24,0,2024-04-17T20:35:53.140Z,english_441.wav,0,1,997,30,4,Mandarin,f,0,0,-34.50722314,1.86415324
Shay,24,0,2024-04-17T20:35:53.140Z,english_441.wav,0,1,997,30,4,Mandarin,f,1,0.1,91.55175756,1.34062972
Shay,24,0,2024-04-17T20:35:53.140Z,english_441.wav,0,1,997,30,4,Mandarin,f,2,0.2,-74.07917439,1.20894222
Shay,24,0,2024-04-17T20:35:53.140Z,english_441.wav,0,1,997,30,4,Mandarin,f,3,0.3,82.08396891,0.00248362
Shay,24,0,2024-04-17T20:35:53.140Z,english_441.wav,0,1,997,30,4,Mandarin,f,4,0.32341667,13.2563292,0.67485278
Shay,25,0,2024-04-17T20:35:53.140Z,english_530.wav,0,0,543,30,4,Mandarin,f,0,0,21.55057906,0.25130805
Shay,25,0,2024-04-17T20:35:53.140Z,english_530.wav,0,0,543,30,4,Mandarin,f,1,0.1,-20.17265513,0.96020899
Shay,25,0,2024-04-17T20:35:53.140Z,english_530.wav,0,0,543,30,4,Mandarin,f,2,0.2,-52.07974762,1.55252741
Shay,25,0,2024-04-17T20:35:53.140Z,english_530.wav,0,0,543,30,4,Mandarin,f,3,0.3,87.36384387,1.19622655
Shay,25,0,2024-04-17T20:35:53.140Z,english_530.wav,0,0,543,30,4,Mandarin,f,4,0.32341667,-72.92256984,0.75880724
Shay,26,0,2024-04-17T20:35:53.140Z,english_558.wav,0,0,623,30,4,Mandarin,f,0,0,-73.38624366,1.58797859
Shay,26,0,2024-04-17T20:35:53.140Z,english_558.wav,0,0,623,30,4,Mandarin,f,1,0.1,-42.42633216,1.10525313
Shay,26,0,2024-04-17T20:35:53.140Z,english_558.wav,0,0,623,30,4,Mandarin,f,2,0.2,15.99713578,0.42598769
Shay,26,0,2024-04-17T20:35:53.140Z,english_558.wav,0,0,623,30,4,Mandarin,f,3,0.3,-33.12568725,0.25629603
Shay,26,0,2024-04-17T20:35:53.140Z,english_558.wav,0,0,623,30,4,Mandarin,f,4,0.32341667,44.00446366,1.81995896
Shay,27,0,2024-04-17T20:35:53.140Z,english_968.wav,0,0,532,30,4,Mandarin,f,0,0,-36.76350372,0.52322451
Shay,27,0,2024-04-17T20:35:53.140Z,english_968.wav,0,0,532,30,4,Mandarin,f,1,0.1,-99.8991193,0.66419732
Shay,27,0,2024-04-17T20:35:53.140Z,english_968.wav,0,0,532,30,4,Mandarin,f,2,0.2,27.503089,0.44232096
Shay,27,0,2024-04-17T20:35:53.140Z,english_968.wav,0,0,532,30,4,Mandarin,f,3,0.3,-34.85106147,1.90778707
Shay,27,0,2024-04-17T20:35:53.140Z,english_968.wav,0,0,532,30,4,Mandarin,f,4,0.32341667,68.2869663,0.59652698
Shay,28,0,2024-04-17T20:35:53.140Z,english_99.wav,0,0,810,30,4,Mandarin,f,0,0,9.75149611,0.79411887
Shay,28,0,2024-04-17T20:35:53.140Z,english_99.wav,0,0,810,30,4,Mandarin,f,1,0.1,-7.37998228,0.53064308
Shay,28,0,2024-04-17T20:35:53.140Z,english_99.wav,0,0,810,30,4,Mandarin,f,2,0.2,29.15889261,0.10254027
Shay,28,0,2024-04-17T20:35:53.140Z,english_99.wav,0,0,810,30,4,Mandarin,f,3,0.3,-23.23230809,0.53999741
Shay,28,0,2024-04-17T20:35:53.140Z,english_99.wav,0,0,810,30,4,Mandarin,f,4,0.32341667,51.25937721,0.74302856
Shay,29,0,2024-04-17T20:35:53.140Z,english_459.wav,0,0,633,30,4,Mandarin,f,0,0,30.23503988,1.42205963
Shay,29,0,2024-04-17T20:35:53.140Z,english_459.wav,0,0,633,30,4,Mandarin,f,1,0.1,-58.09525271,0.13069666
Shay,29,0,2024-04-17T20:35:53.140Z,english_459.wav,0,0,633,30,4,Mandarin,f,2,0.2,22.03715272,0.55220733
Shay,29,0,2024-04-17T20:35:53.140Z,english_459.wav,0,0,633,30,4,Mandarin,f,3,0.3,-33.09468511,0.48840502
Shay,29,0,2024-04-17T20:35:53.140Z,english_459.wav,0,0,633,30,4,Mandarin,f,4,0.32341667,-9.46836848,1.08918734
Shay,30,0,2024-04-17T20:35:53.140Z,english_383.wav,0,0,642,30,4,Mandarin,f,0,0,-1.49759031,0.61403304
Shay,30,0,2024-04-17T20:35:53.140Z,english_383.wav,0,0,642,30,4,Mandarin,f,1,0.1,48.0809444,0.69225556
Shay,30,0,2024-04-17T20:35:53.140Z,english_383.wav,0,0,642,30,4,Mandarin,f,2,0.2,-84.09524499,0.33452268
Shay,30,0,2024-04-17T20:35:53.140Z,english_383.wav,0,0,642,30,4,Mandarin,f,3,0.3,95.23220486,1.06792504
Shay,30,0,2024-04-17T20:35:53.140Z,english_383.wav,0,0,642,30,4,Mandarin,f,4,0.32341667,64.91086902,0.58483827
Shay,31,0,2024-04-17T20:35:53.140Z,english_843.wav,0,1,1469,30,4,Mandarin,f,0,0,-34.38568909,1.38988397
Shay,31,0,2024-04-17T20:35:53.140Z,english_843.wav,0,1,1469,30,4,Mandarin,f,1,0.1,91.48235516,0.61638546
Shay,31,0,2024-04-17T20:35:53.140Z,english_843.wav,0,1,1469,30,4,Mandarin,f,2,0.2,45.43581208,1.5800421
Shay,31,0,2024-04-17T20:35:53.140Z,english_843.wav,0,1,1469,30,4,Mandarin,f,3,0.3,47.04005582,1.07327256
Shay,31,0,2024-04-17T20:35:53.140Z,english_843.wav,0,1,1469,30,4,Mandarin,f,4,0.32341667,30.80916685,0.46994626
Shay,32,0,2024-04-17T20:35:53.140Z,english_206.wav,0,0,2693,30,4,Mandarin,f,0,0,29.86029141,0.9413203
Shay,32,0,2024-04-17T20:35:53.140Z,english_206.wav,0,0,2693,30,4,Mandarin,f,1,0.1,-65.49550847,1.58501733
Shay,32,0,2024-04-17T20:35:53.140Z,english_206.wav,0,0,2693,30,4,Mandarin,f,2,0.2,-8.37849199,1.84833856
Shay,32,0,2024-04-17T20:35:53.140Z,english_206.wav,0,0,2693,30,4,Mandarin,f,3,0.3,16.32170521,1.12864021
Shay,32,0,2024-04-17T20:35:53.140Z,english_206.wav,0,0,2693,30,4,Mandarin,f,4,0.32341667,-96.55544023,0.85017735
Shay,33,0,2024-04-17T20:35:53.140Z,english_740.wav,0,0,946,30,4,Mandarin,f,0,0,17.63845752,0.65519257
Shay,33,0,2024-04-17T20:35:53.140Z,english_740.wav,0,0,946,30,4,Mandarin,f,1,0.1,36.88289119,0.996231
Shay,33,0,2024-04-17T20:35:53.140Z,english_740.wav,0,0,946,30,4,Mandarin,f,2,0.2,-63.85348159,0.85360158
Shay,33,0,2024-04-17T20:35:53.140Z,english_740.wav,0,0,946,30,4,Mandarin,f,3,0.3,-97.96670479,1.42654033
Shay,33,0,2024-04-17T20:35:53.140Z,english_740.wav,0,0,946,30,4,Mandarin,f,4,0.32341667,43.035587,1.01691569
Shay,34,0,2024-04-17T20:35:53.140Z,english_427.wav,0,0,525,30,4,Mandarin,f,0,0,38.10585738,0.62221409
Shay,34,0,2024-04-17T20:35:53.140Z,english_427.wav,0,0,525,30,4,Mandarin,f,1,0.1,75.26959407,1.20145201
Shay,34,0,2024-04-17T20:35:53.140Z,english_427.wav,0,0,525,30,4,Mandarin,f,2,0.2,-92.48152235,0.18894815
Shay,34,0,2024-04-17T20:35:53.140Z,english_427.wav,0,0,525,30,4,Mandarin,f,3,0.3,-38.24940669,0.36527681
Shay,34,0,2024-04-17T20:35:53.140Z,english_427.wav,0,0,525,30,4,Mandarin,f,4,0.32341667,-41.67637111,0.02898627
Shay,35,0,2024-04-17T20:35:53.140Z,english_817.wav,0,0,429,30,4,Mandarin,f,0,0,58.06319333,0.77394069
Shay,35,0,2024-04-17T20:35:53.140Z,english_817.wav,0,0,429,30,4,Mandarin,f,1,0.1,0.91206114,0.81778066
Shay,35,0,2024-04-17T20:35:53.140Z,english_817.wav,0,0,429,30,4,Mandarin,f,2,0.2,-27.80824757,1.48752315
Shay,35,0,2024-04-17T20:35:53.140Z,english_817.wav,0,0,429,30,4,Mandarin,f,3,0.3,-73.7491051,0.41888886
Shay,35,0,2024-04-17T20:35:53.140Z,english_817.wav,0,0,429,30,4,Mandarin,f,4,0.32341667,69.75698508,0.93012443
Shay,36,0,2024-04-17T20:35:53.140Z,english_731.wav,0,1,2502,30,4,Mandarin,f,0,0,91.74609406,0.2840719
Shay,36,0,2024-04-17T20:35:53.140Z,english_731.wav,0,1,2502,30,4,Mandarin,f,1,0.1,96.5637085,1.75324284
Shay,36,0,2024-04-17T20:35:53.140Z,english_731.wav,0,1,2502,30,4,Mandarin,f,2,0.2,-58.02596537,1.43086201
Shay,36,0,2024-04-17T20:35:53.140Z,english_731.wav,0,1,2502,30,4,Mandarin,f,3,0.3,21.59328018,1.68336342
Shay,36,0,2024-04-17T20:35:53.140Z,english_731.wav,0,1,2502,30,4,Mandarin,f,4,0.32341667,13.26044458,0.60031718
Shay,37,0,2024-04-17T20:35:53.140Z,english_138.wav,0,0,484,30,4,Mandarin,f,0,0,-79.80620147,0.37063564
Shay,37,0,2024-04-17T20:35:53.140Z,english_138.wav,0,0,484,30,4,Mandarin,f,1,0.1,-15.42889109,0.81801141
Shay,37,0,2024-04-17T20:35:53.140Z,english_138.wav,0,0,484,30,4,Mandarin,f,2,0.2,-88.31677226,0.0634538
Shay,37,0,2024-04-17T20:35:53.140Z,english_138.wav,0,0,484,30,4,Mandarin,f,3,0.3,26.6486106,1.85131452
Shay,37,0,2024-04-17T20:35:53.140Z,english_138.wav,0,0,484,30,4,Mandarin,f,4,0.32341667,-42.18894711,1.66059024
Shay,38,0,2024-04-17T20:35:53.140Z,english_87.wav,0,0,600,30,4,Mandarin,f,0,0,54.83056612,1.56132998
Shay,38,0,2024-04-17T20:35:53.140Z,english_87.wav,0,0,600,30,4,Mandarin,f,1,0.1,56.31531505,1.28614089
Shay,38,0,2024-04-17T20:35:53.140Z,english_87.wav,0,0,600,30,4,Mandarin,f,2,0.2,-65.55002777,1.44579989
Shay,38,0,2024-04-17T20:35:53.140Z,english_87.wav,0,0,600,30,4,Mandarin,f,3,0.3,-25.15788212,0.3607766
Shay,38,0,2024-04-17T20:35:53.140Z,english_87.wav,0,0,600,30,4,Mandarin,f,4,0.32341667,22.72349562,0.17745198
Shay,39,0,2024-04-17T20:35:53.140Z,english_110.wav,0,0,639,30,4,Mandarin,f,0,0,87.43016285,1.84693198
Shay,39,0,2024-04-17T20:35:53.140Z,english_110.wav,0,0,639,30,4,Mandarin,f,1,0.1,-22.53798338,0.72868036
Shay,39,0,2024-04-17T20:35:53.140Z,english_110.wav,0,0,639,30,4,Mandarin,f,2,0.2,60.38266123,1.6889543
Shay,39,0,2024-04-17T20:35:53.140Z,english_110.wav,0,0,639,30,4,Mandarin,f,3,0.3,50.75224473,0.97311446
Shay,39,0,2024-04-17T20:35:53.140Z,english_110.wav,0,0,639,30,4,Mandarin,f,4,0.32341667,87.78495288,0.46157718
Shay,40,0,2024-04-17T20:35:53.140Z,english_898.wav,0,0,946,30,4,Mandarin,f,0,0,77.23607787,0.41308158
Shay,40,0,2024-04-17T20:35:53.140Z,english_898.wav,0,0,946,30,4,Mandarin,f,1,0.1,-36.99854877,1.59324842
Shay,40,0,2024-04-17T20:35:53.140Z,english_898.wav,0,0,946,30,4,Mandarin,f,2,0.2,16.09723403,1.42339693
Shay,40,0,2024-04-17T20:35:53.140Z,english_898.wav,0,0,946,30,4,Mandarin,f,3,0.3,29.12208023,1.17478291
Shay,40,0,2024-04-17T20:35:53.140Z,english_898.wav,0,0,946,30,4,Mandarin,f,4,0.32341667,-69.45423228,1.88393163
Shay,41,0,2024-04-17T20:35:53.140Z,english_630.wav,0,0,759,30,4,Mandarin,f,0,0,97.25925287,0.34607754
Shay,41,0,2024-04-17T20:35:53.140Z,english_630.wav,0,0,759,30,4,Mandarin,f,1,0.1,76.95662127,0.15996234
Shay,41,0,2024-04-17T20:35:53.140Z,english_630.wav,0,0,759,30,4,Mandarin,f,2,0.2,5.01423186,1.73874617
Shay,41,0,2024-04-17T20:35:53.140Z,english_630.wav,0,0,759,30,4,Mandarin,f,3,0.3,-27.88706711,0.41181915
Shay,41,0,2024-04-17T20:35:53.140Z,english_630.wav,0,0,759,30,4,Mandarin,f,4,0.32341667,90.69966072,0.77788697
Shay,42,0,2024-04-17T20:35:53.140Z,english_397.wav,0,0,798,30,4,Mandarin,f,0,0,89.67962381,0.42719638
Shay,42,0,2024-04-17T20:35:53.140Z,english_397.wav,0,0,798,30,4,Mandarin,f,1,0.1,-80.29722345,0.89466904
Shay,42,0,2024-04-17T20:35:53.140Z,english_397.wav,0,0,798,30,4,Mandarin,f,2,0.2,60.53564011,0.56174568
Shay,42,0,2024-04-17T20:35:53.140Z,english_397.wav,0,0,798,30,4,Mandarin,f,3,0.3,9.94565725,0.1553242
Shay,42,0,2024-04-17T20:35:53.140Z,english_397.wav,0,0,798,30,4,Mandarin,f,4,0.32341667,0.1319882,1.89079641
Shay,43,0,2024-04-17T20:35:53.140Z,english_126.wav,0,1,1014,30,4,Mandarin,f,0,0,-71.89060105,0.84485729
Shay,43,0,2024-04-17T20:35:53.140Z,english_126.wav,0,1,1014,30,4,Mandarin,f,1,0.1,-54.28004149,1.61340521
Shay,43,0,2024-04-17T20:35:53.140Z,english_126.wav,0,1,1014,30,4,Mandarin,f,2,0.2,67.0997098,1.10892805
Shay,43,0,2024-04-17T20:35:53.140Z,english_126.wav,0,1,1014,30,4,Mandarin,f,3,0.3,-96.31741745,1.20133652
Shay,43,0,2024-04-17T20:35:53.140Z,english_126.wav,0,1,1014,30,4,Mandarin,f,4,0.32341667,22.67293764,0.33470898
Shay,44,0,2024-04-17T20:35:53.140Z,english_713.wav,0,0,2892,30,4,Mandarin,f,0,0,18.77281956,1.04868626
Shay,44,0,2024-04-17T20:35:53.140Z,english_713.wav,0,0,2892,30,4,Mandarin,f,1,0.1,40.78610286,0.48332939
Shay,44,0,2024-04-17T20:35:53.140Z,english_713.wav,0,0,2892,30,4,Mandarin,f,2,0.2,84.18153491,0.83217717
Shay,44,0,2024-04-17T20:35:53.140Z,english_713.wav,0,0,2892,30,4,Mandarin,f,3,0.3,47.00827256,1.90318663
Shay,44,0,2024-04-17T20:35:53.140Z,english_713.wav,0,0,2892,30,4,Mandarin,f,4,0.32341667,66.01008384,0.50055362
Shay,45,0,2024-04-17T20:35:53.140Z,english_363.wav,0,0,753,30,4,Mandarin,f,0,0,-8.62246293,0.22304778
Shay,45,0,2024-04-17T20:35:53.140Z,english_363.wav,0,0,753,30,4,Mandarin,f,1,0.1,-37.95317313,0.51009023
Shay,45,0,2024-04-17T20:35:53.140Z,english_363.wav,0,0,753,30,4,Mandarin,f,2,0.2,-98.56362786,1.67320701
Shay,45,0,2024-04-17T20:35:53.140Z,english_363.wav,0,0,753,30,4,Mandarin,f,3,0.3,79.4101663,0.32318158
Shay,45,0,2024-04-17T20:35:53.140Z,english_363.wav,0,0,753,30,4,Mandarin,f,4,0.32341667,-19.01593507,1.23606141
Shay,46,0,2024-04-17T20:35:53.140Z,english_961.wav,0,1,839,30,4,Mandarin,f,0,0,20.81275789,1.87720953
Shay,46,0,2024-04-17T20:35:53.140Z,english_961.wav,0,1,839,30,4,Mandarin,f,1,0.1,46.48072234,1.43497285
Shay,46,0,2024-04-17T20:35:53.140Z,english_961.wav,0,1,839,30,4,Mandarin,f,2,0.2,79.36291712,1.9095844
Shay,46,0,2024-04-17T20:35:53.140Z,english_961.wav,0,1,839,30,4,Mandarin,f,3,0.3,7.86976501,0.20821065
Shay,46,0,2024-04-17T20:35:53.140Z,english_961.wav,0,1,839,30,4,Mandarin,f,4,0.32341667,-45.45751668,0.0640973
Shay,47,0,2024-04-17T20:35:53.140Z,english_132.wav,0,0,3332,30,4,Mandarin,f,0,0,-72.51222148,1.10010631
Shay,47,0,2024-04-17T20:35:53.140Z,english_132.wav,0,0,3332,30,4,Mandarin,f,1,0.1,-7.68798614,1.14985521
Shay,47,0,2024-04-17T20:35:53.140Z,english_132.wav,0,0,3332,30,4,Mandarin,f,2,0.2,-26.80347179,1.49426164
Shay,47,0,2024-04-17T20:35:53.140Z,english_132.wav,0,0,3332,30,4,Mandarin,f,3,0.3,-51.62992771,1.25622472
Shay,47,0,2024-04-17T20:35:53.140Z,english_132.wav,0,0,3332,30,4,Mandarin,f,4,0.32341667,-1.85745595,0.89976888
Shay,48,0,2024-04-17T20:35:53.140Z,english_885.wav,0,0,3829,30,4,Mandarin,f,0,0,36.3288655,0.78617108
Shay,48,0,2024-04-17T20:35:53.140Z,english_885.wav,0,0,3829,30,4,Mandarin,f,1,0.1,-33.4786966,0.96292114
Shay,48,0,2024-04-17T20:35:53.140Z,english_885.wav,0,0,3829,30,4,Mandarin,f,2,0.2,8.05827153,0.70266535
Shay,48,0,2024-04-17T20:35:53.140Z,english_885.wav,0,0,3829,30,4,Mandarin,f,3,0.3,84.98004341,0.45613544
Shay,48,0,2024-04-17T20:35:53.140Z,english_885.wav,0,0,3829,30,4,Mandarin,f,4,0.32341667,-34.65749493,0.81873504
Shay,49,0,2024-04-17T20:35:53.140Z,english_418.wav,0,0,698,30,4,Mandarin,f,0,0,-7.92859899,0.20369216
Shay,49,0,2024-04-17T20:35:53.140Z,english_418.wav,0,0,698,30,4,Mandarin,f,1,0.1,10.19863107,0.15242613
Shay,49,0,2024-04-17T20:35:53.140Z,english_418.wav,0,0,698,30,4,Mandarin,f,2,0.2,-44.82770696,0.77695319
Shay,49,0,2024-04-17T20:35:53.140Z,english_418.wav,0,0,698,30,4,Mandarin,f,3,0.3,-80.4141896,0.71786342
Shay,49,0,2024-04-17T20:35:53.140Z,english_418.wav,0,0,698,30,4,Mandarin,f,4,0.32341667,32.43674468,1.20494416
Shay,50,1,2024-04-17T20:39:04.548Z,english_364.wav,0,1,1122,30,4,Mandarin,f,0,0,19.50953027,1.75500584
Shay,50,1,2024-04-17T20:39:04.548Z,english_364.wav,0,1,1122,30,4,Mandarin,f,1,0.1,48.44847612,1.3553812
Shay,50,1,2024-04-17T20:39:04.548Z,english_364.wav,0,1,1122,30,4,Mandarin,f,2,0.2,-85.20645473,0.86672295
Shay,50,1,2024-04-17T20:39:04.548Z,english_364.wav,0,1,1122,30,4,Mandarin,f,3,0.3,97.47454191,1.42489128
Shay,50,1,2024-04-17T20:39:04.548Z,english_364.wav,0,1,1122,30,4,Mandarin,f,4,0.32341667,-45.42958463,1.19673805
Shay,51,1,2024-04-17T20:39:04.548Z,english_166.wav,0,0,1226,30,4,Mandarin,f,0,0,37.27670025,1.42766663
Shay,51,1,2024-04-17T20:39:04.548Z,english_166.wav,0,0,1226,30,4,Mandarin,f,1,0.1,34.38847046,0.72731767
Shay,51,1,2024-04-17T20:39:04.548Z,english_166.wav,0,0,1226,30,4,Mandarin,f,2,0.2,49.91842175,1.80608275
Shay,51,1,2024-04-17T20:39:04.548Z,english_166.wav,0,0,1226,30,4,Mandarin,f,3,0.3,56.9541748,1.91598421
Shay,51,1,2024-04-17T20:39:04.548Z,english_166.wav,0,0,1226,30,4,Mandarin,f,4,0.32341667,10.97290623,1.21084105
Shay,52,1,2024-04-17T20:39:04.548Z,english_243.wav,0,0,703,30,4,Mandarin,f,0,0,-74.41503345,0.65151457
Shay,52,1,2024-04-17T20:39:04.548Z,english_243.wav,0,0,703,30,4,Mandarin,f,1,0.1,-16.65530333,0.20623253
Shay,52,1,2024-04-17T20:39:04.548Z,english_243.wav,0,0,703,30,4,Mandarin,f,2,0.2,-1.41224798,0.87153721
Shay,52,1,2024-04-17T20:39:04.548Z,english_243.wav,0,0,703,30,4,Mandarin,f,3,0.3,37.30419975,0.28583671
Shay,52,1,2024-04-17T20:39:04.548Z,english_243.wav,0,0,703,30,4,Mandarin,f,4,0.32341667,-3.40378668,1.90700275
Shay,53,1,2024-04-17T20:39:04.548Z,english_497.wav,0,1,1213,30,4,Mandarin,f,0,0,3.92391523,0.25005623
Shay,53,1,2024-04-17T20:39:04.548Z,english_497.wav,0,1,1213,30,4,Mandarin,f,1,0.1,-39.44421726,1.18920756
Shay,53,1,2024-04-17T20:39:04.548Z,english_497.wav,0,1,1213,30,4,Mandarin,f,2,0.2,-70.21843081,1.75478959
Shay,53,1,2024-04-17T20:39:04.548Z,english_497.wav,0,1,1213,30,4,Mandarin,f,3,0.3,-95.13281119,0.47878412
Shay,53,1,2024-04-17T20:39:04.548Z,english_497.wav,0,1,1213,30,4,Mandarin,f,4,0.32341667,-23.7064256,0.88125504
Shay,54,1,2024-04-17T20:39:04.548Z,english_95.wav,0,0,672,30,4,Mandarin,f,0,0,-9.17523314,0.73915747
Shay,54,1,2024-04-17T20:39:04.548Z,english_95.wav,0,0,672,30,4,Mandarin,f,1,0.1,-95.16832451,1.01172325
Shay,54,1,2024-04-17T20:39:04.548Z,english_95.wav,0,0,672,30,4,Mandarin,f,2,0.2,-21.6130257,1.19817679
Shay,54,1,2024-04-17T20:39:04.548Z,english_95.wav,0,0,672,30,4,Mandarin,f,3,0.3,0.51006416,1.53285694
Shay,54,1,2024-04-17T20:39:04.548Z,english_95.wav,0,0,672,30,4,Mandarin,f,4,0.32341667,43.00131518,1.08383215
Shay,55,1,2024-04-17T20:39:04.548Z,english_553.wav,0,1,1740,30,4,Mandarin,f,0,0,-18.85071283,1.30647824
Shay,55,1,2024-04-17T20:39:04.548Z,english_553.wav,0,1,1740,30,4,Mandarin,f,1,0.1,56.72439372,1.55205535
Shay,55,1,2024-04-17T20:39:04.548Z,english_553.wav,0,1,1740,30,4,Mandarin,f,2,0.2,-32.51510613,1.79127341
Shay,55,1,2024-04-17T20:39:04.548Z,english_553.wav,0,1,1740,30,4,Mandarin,f,3,0.3,-81.56708954,0.1795284
Shay,55,1,2024-04-17T20:39:04.548Z,english_553.wav,0,1,1740,30,4,Mandarin,f,4,0.32341667,42.80590219,0.48805839
Shay,56,1,2024-04-17T20:39:04.548Z,english_901.wav,0,0,742,30,4,Mandarin,f,0,0,-14.81770559,1.5194741
Shay,56,1,2024-04-17T20:39:04.548Z,english_901.wav,0,0,742,30,4,Mandarin,f,1,0.1,-27.73561163,1.98674938
Shay,56,1,2024-04-17T20:39:04.548Z,english_901.wav,0,0,742,30,4,Mandarin,f,2,0.2,-22.44015454,0.54356598
Shay,56,1,2024-04-17T20:39:04.548Z,english_901.wav,0,0,742,30,4,Mandarin,f,3,0.3,-41.34815185,1.30497628
Shay,56,1,2024-04-17T20:39:04.548Z,english_901.wav,0,0,742,30,4,Mandarin,f,4,0.32341667,10.13492358,0.61526789
Shay,57,1,2024-04-17T20:39:04.548Z,english_235.wav,0,0,1544,30,4,Mandarin,f,0,0,-1.09951899,1.56432712
Shay,57,1,2024-04-17T20:39:04.548Z,english_235.wav,0,0,1544,30,4,Mandarin,f,1,0.1,-96.83918407,0.18127978
Shay,57,1,2024-04-17T20:39:04.548Z,english_235.wav,0,0,1544,30,4,Mandarin,f,2,0.2,96.22116446,1.26168206
Shay,57,1,2024-04-17T20:39:04.548Z,english_235.wav,0,0,1544,30,4,Mandarin,f,3,0.3,48.9502898,1.98140435
Shay,57,1,2024-04-17T20:39:04.548Z,english_235.wav,0,0,1544,30,4,Mandarin,f,4,0.32341667,38.18641725,0.52366779
Shay,58,1,2024-04-17T20:39:04.548Z,english_26.wav,0,0,751,30,4,Mandarin,f,0,0,54.38966875,1.86679487
Shay,58,1,2024-04-17T20:39:04.548Z,english_26.wav,0,0,751,30,4,Mandarin,f,1,0.1,0.3460174,0.79762949
Shay,58,1,2024-04-17T20:39:04.548Z,english_26.wav,0,0,751,30,4,Mandarin,f,2,0.2,-72.33258957,0.93682052
Shay,58,1,2024-04-17T20:39:04.548Z,english_26.wav,0,0,751,30,4,Mandarin,f,3,0.3,67.09142092,1.42469209
Shay,58,1,2024-04-17T20:39:04.548Z,english_26.wav,0,0,751,30,4,Mandarin,f,4,0.32341667,16.00565239,1.17807545
Shay,59,1,2024-04-17T20:39:04.548Z,english_766.wav,0,1,487,30,4,Mandarin,f,0,0,-86.57417509,1.21737292
Shay,59,1,2024-04-17T20:39:04.548Z,english_766.wav,0,1,487,30,4,Mandarin,f,1,0.1,-67.75686223,1.61484435
Shay,59,1,2024-04-17T20:39:04.548Z,english_766.wav,0,1,487,30,4,Mandarin,f,2,0.2,74.21258041,1.47872362
Shay,59,1,2024-04-17T20:39:04.548Z,english_766.wav,0,1,487,30,4,Mandarin,f,3,0.3,65.20164426,1.81064247
Shay,59,1,2024-04-17T20:39:04.548Z,english_766.wav,0,1,487,30,4,Mandarin,f,4,0.32341667,-26.41371036,1.37776493
Shay,60,1,2024-04-17T20:39:04.548Z,english_405.wav,0,0,726,30,4,Mandarin,f,0,0,-94.88566807,1.97726842
Shay,60,1,2024-04-17T20:39:04.548Z,english_405.wav,0,0,726,30,4,Mandarin,f,1,0.1,45.39575719,1.2658567
Shay,60,1,2024-04-17T20:39:04.548Z,english_405.wav,0,0,726,30,4,Mandarin,f,2,0.2,-94.78509898,0.10443365
Shay,60,1,2024-04-17T20:39:04.548Z,english_405.wav,0,0,726,30,4,Mandarin,f,3,0.3,54.14618135,0.24635614
Shay,60,1,2024-04-17T20:39:04.548Z,english_405.wav,0,0,726,30,4,Mandarin,f,4,0.32341667,-20.18916124,0.76836832
Shay,61,1,2024-04-17T20:39:04.548Z,english_43.wav,0,0,617,30,4,Mandarin,f,0,0,22.40064366,1.74132857
Shay,61,1,2024-04-17T20:39:04.548Z,english_43.wav,0,0,617,30,4,Mandarin,f,1,0.1,-68.20152198,0.12763156
Shay,61,1,2024-04-17T20:39:04.548Z,english_43.wav,0,0,617,30,4,Mandarin,f,2,0.2,62.56231291,0.31420738
Shay,61,1,2024-04-17T20:39:04.548Z,english_43.wav,0,0,617,30,4,Mandarin,f,3,0.3,45.0736378,0.98572154
Shay,61,1,2024-04-17T20:39:04.548Z,english_43.wav,0,0,617,30,4,Mandarin,f,4,0.32341667,-36.46791656,0.91325677
Shay,62,1,2024-04-17T20:39:04.548Z,english_636.wav,0,1,1438,30,4,Mandarin,f,0,0,-20.37295141,1.69276631
Shay,62,1,2024-04-17T20:39:04.548Z,english_636.wav,0,1,1438,30,4,Mandarin,f,1,0.1,-84.7288786,1.69908726
Shay,62,1,2024-04-17T20:39:04.548Z,english_636.wav,0,1,1438,30,4,Mandarin,f,2,0.2,24.84265136,1.44836333
Shay,62,1,2024-04-17T20:39:04.548Z,english_636.wav,0,1,1438,30,4,Mandarin,f,3,0.3,-9.2443485,1.36647816
Shay,62,1,2024-04-17T20:39:04.548Z,english_636.wav,0,1,1438,30,4,Mandarin,f,4,0.32341667,49.04875774,0.88112598
Shay,63,1,2024-04-17T20:39:04.548Z,english_872.wav,0,0,692,30,4,Mandarin,f,0,0,0.56374655,0.10935802
Shay,63,1,2024-04-17T20:39:04.548Z,english_872.wav,0,0,692,30,4,Mandarin,f,1,0.1,-70.88107799,0.91778609
Shay,63,1,2024-04-17T20:39:04.548Z,english_872.wav,0,0,692,30,4,Mandarin,f,2,0.2,6.46677515,1.38740199
Shay,63,1,2024-04-17T20:39:04.548Z,english_872.wav,0,0,692,30,4,Mandarin,f,3,0.3,-23.51354109,0.12682507
Shay,63,1,2024-04-17T20:39:04.548Z,english_872.wav,0,0,692,30,4,Mandarin,f,4,0.32341667,81.64578493,0.71067476
Shay,64,1,2024-04-17T20:39:04.548Z,english_35.wav,0,0,779,30,4,Mandarin,f,0,0,-35.14158545,0.855771
Shay,64,1,2024-04-17T20:39:04.548Z,english_35.wav,0,0,779,30,4,Mandarin,f,1,0.1,-54.49669119,0.5452371
Shay,64,1,2024-04-17T20:39:04.548Z,english_35.wav,0,0,779,30,4,Mandarin,f,2,0.2,37.91149238,1.65995376
Shay,64,1,2024-04-17T20:39:04.548Z,english_35.wav,0,0,779,30,4,Mandarin,f,3,0.3,-55.38086503,0.74505496
Shay,64,1,2024-04-17T20:39:04.548Z,english_35.wav,0,0,779,30,4,Mandarin,f,4,0.32341667,54.77667999,0.83530932
Shay,65,1,2024-04-17T20:39:04.548Z,english_305.wav,0,0,559,30,4,Mandarin,f,0,0,-23.95553444,0.70401859
Shay,65,1,2024-04-17T20:39:04.548Z,english_305.wav,0,0,559,30,4,Mandarin,f,1,0.1,-97.95184299,0.00875292
Shay,65,1,2024-04-17T20:39:04.548Z,english_305.wav,0,0,559,30,4,Mandarin,f,2,0.2,95.23338475,1.8427633
Shay,65,1,2024-04-17T20:39:04.548Z,english_305.wav,0,0,559,30,4,Mandarin,f,3,0.3,10.74081096,1.83453859
Shay,65,1,2024-04-17T20:39:04.548Z,english_305.wav,0,0,559,30,4,Mandarin,f,4,0.32341667,24.9757793,1.77535614
Shay,66,1,2024-04-17T20:39:04.548Z,english_860.wav,0,1,1161,30,4,Mandarin,f,0,0,10.25066679,1.47817545
Shay,66,1,2024-04-17T20:39:04.548Z,english_860.wav,0,1,1161,30,4,Mandarin,f,1,0.1,55.87909831,1.32859058
Shay,66,1,2024-04-17T20:39:04.548Z,english_860.wav,0,1,1161,30,4,Mandarin,f,2,0.2,81.09373959,0.99201561
Shay,66,1,2024-04-17T20:39:04.548Z,english_860.wav,0,1,1161,30,4,Mandarin,f,3,0.3,15.52286826,0.3312489
Shay,66,1,2024-04-17T20:39:04.548Z,english_860.wav,0,1,1161,30,4,Mandarin,f,4,0.32341667,58.18702512,0.66001743
Shay,67,1,2024-04-17T20:39:04.548Z,english_797.wav,0,0,897,30,4,Mandarin,f,0,0,-10.77604935,1.75152448
Shay,67,1,2024-04-17T20:39:04.548Z,english_797.wav,0,0,897,30,4,Mandarin,f,1,0.1,76.52998448,0.25625033
Shay,67,1,2024-04-17T20:39:04.548Z,english_797.wav,0,0,897,30,4,Mandarin,f,2,0.2,-52.30950648,1.63910521
Shay,67,1,2024-04-17T20:39:04.548Z,english_797.wav,0,0,897,30,4,Mandarin,f,3,0.3,-19.27189704,1.44412191
Shay,67,1,2024-04-17T20:39:04.548Z,english_797.wav,0,0,897,30,4,Mandarin,f,4,0.32341667,-68.52312916,1.41513857
Shay,68,1,2024-04-17T20:39:04.548Z,english_436.wav,0,0,725,30,4,Mandarin,f,0,0,58.73131257,0.30497449
Shay,68,1,2024-04-17T20:39:04.548Z,english_436.wav,0,0,725,30,4,Mandarin,f,1,0.1,65.29204538,1.04665744
Shay,68,1,2024-04-17T20:39:04.548Z,english_436.wav,0,0,725,30,4,Mandarin,f,2,0.2,7.63213906,1.03883923
Shay,68,1,2024-04-17T20:39:04.548Z,english_436.wav,0,0,725,30,4,Mandarin,f,3,0.3,-2.54756362,0.97345352
Shay,68,1,2024-04-17T20:39:04.548Z,english_436.wav,0,0,725,30,4,Mandarin,f,4,0.32341667,-11.40614268,0.16121918
Shay,69,1,2024-04-17T20:39:04.548Z,english_645.wav,0,0,932,30,4,Mandarin,f,0,0,44.09023725,0.24999948
Shay,69,1,2024-04-17T20:39:04.548Z,english_645.wav,0,0,932,30,4,Mandarin,f,1,0.1,53.49741331,0.20669006
Shay,69,1,2024-04-17T20:39:04.548Z,english_645.wav,0,0,932,30,4,Mandarin,f,2,0.2,28.7784214,0.13451906
Shay,69,1,2024-04-17T20:39:04.548Z,english_645.wav,0,0,932,30,4,Mandarin,f,3,0.3,-38.38386911,0.64617788
Shay,69,1,2024-04-17T20:39:04.548Z,english_645.wav,0,0,932,30,4,Mandarin,f,4,0.32341667,30.31484035,0.83061833
Shay,70,1,2024-04-17T20:39:04.548Z,english_485.wav,0,0,474,30,4,Mandarin,f,0,0,-7.08941798,1.8206563
Shay,70,1,2024-04-17T20:39:04.548Z,english_485.wav,0,0,474,30,4,Mandarin,f,1,0.1,-70.64579204,0.10660577
Shay,70,1,2024-04-17T20:39:04.548Z,english_485.wav,0,0,474,30,4,Mandarin,f,2,0.2,23.79115045,1.92760945
Shay,70,1,2024-04-17T20:39:04.548Z,english_485.wav,0,0,474,30,4,Mandarin,f,3,0.3,0.80487994,0.77499174
Shay,70,1,2024-04-17T20:39:04.548Z,english_485.wav,0,0,474,30,4,Mandarin,f,4,0.32341667,4.72097057,1.20070888
Shay,71,1,2024-04-17T20:39:04.548Z,english_92.wav,0,0,356,30,4,Mandarin,f,0,0,31.88505953,1.50112375
Shay,71,1,2024-04-17T20:39:04.548Z,english_92.wav,0,0,356,30,4,Mandarin,f,1,0.1,-5.62534355,0.35596674
Shay,71,1,2024-04-17T20:39:04.548Z,english_92.wav,0,0,356,30,4,Mandarin,f,2,0.2,-66.19250112,1.12270031
Shay,71,1,2024-04-17T20:39:04.548Z,english_92.wav,0,0,356,30,4,Mandarin,f,3,0.3,-77.62644198,1.09837269
Shay,71,1,2024-04-17T20:39:04.548Z,english_92.wav,0,0,356,30,4,Mandarin,f,4,0.32341667,-66.61656061,1.16274455
Shay,72,1,2024-04-17T20:39:04.548Z,english_151.wav,0,1,535,30,4,Mandarin,f,0,0,-8.78950662,1.36403682
Shay,72,1,2024-04-17T20:39:04.548Z,english_151.wav,0,1,535,30,4,Mandarin,f,1,0.1,-1.70650264,1.76375426
Shay,72,1,2024-04-17T20:39:04.548Z,english_151.wav,0,1,535,30,4,Mandarin,f,2,0.2,-17.50286784,1.43087438
Shay,72,1,2024-04-17T20:39:04.548Z,english_151.wav,0,1,535,30,4,Mandarin,f,3,0.3,88.78233286,1.18017331
Shay,72,1,2024-04-17T20:39:04.548Z,english_151.wav,0,1,535,30,4,Mandarin,f,4,0.32341667,55.08117545,1.30400061
Shay,73,1,2024-04-17T20:39:04.548Z,english_258.wav,0,1,1100,30,4,Mandarin,f,0,0,-7.1133109,1.89026761
Shay,73,1,2024-04-17T20:39:04.548Z,english_258.wav,0,1,1100,30,4,Mandarin,f,1,0.1,44.58564752,1.79361992
Shay,73,1,2024-04-17T20:39:04.548Z,english_258.wav,0,1,1100,30,4,Mandarin,f,2,0.2,45.36800295,0.43687845
Shay,73,1,2024-04-17T20:39:04.548Z,english_258.wav,0,1,1100,30,4,Mandarin,f,3,0.3,25.81301737,0.04688612
Shay,73,1,2024-04-17T20:39:04.548Z,english_258.wav,0,1,1100,30,4,Mandarin,f,4,0.32341667,-77.97513924,0.52567924
Shay,74,1,2024-04-17T20:39:04.548Z,english_946.wav,0,1,1988,30,4,Mandarin,f,0,0,-74.23479435,1.22824298
Shay,74,1,2024-04-17T20:39:04.548Z,english_946.wav,0,1,1988,30,4,Mandarin,f,1,0.1,-11.3601526,0.85784227
Shay,74,1,2024-04-17T20:39:04.548Z,english_946.wav,0,1,1988,30,4,Mandarin,f,2,0.2,36.50675361,0.09585286
Shay,74,1,2024-04-17T20:39:04.548Z,english_946.wav,0,1,1988,30,4,Mandarin,f,3,0.3,-13.94845552,0.43829102
Shay,74,1,2024-04-17T20:39:04.548Z,english_946.wav,0,1,1988,30,4,Mandarin,f,4,0.32341667,-6.97265347,0.86422506
Shay,75,1,2024-04-17T20:39:04.548Z,english_272.wav,0,1,1715,30,4,Mandarin,f,0,0,61.82030971,1.51341556
Shay,75,1,2024-04-17T20:39:04.548Z,english_272.wav,0,1,1715,30,4,Mandarin,f,1,0.1,4.16580657,0.43290826
Shay,75,1,2024-04-17T20:39:04.548Z,english_272.wav,0,1,1715,30,4,Mandarin,f,2,0.2,-53.2567432,1.82734584
Shay,75,1,2024-04-17T20:39:04.548Z,english_272.wav,0,1,1715,30,4,Mandarin,f,3,0.3,-52.99830768,0.22094446
Shay,75,1,2024-04-17T20:39:04.548Z,english_272.wav,0,1,1715,30,4,Mandarin,f,4,0.32341667,-92.9943793,1.88040337
Shay,76,1,2024-04-17T20:39:04.548Z,english_274.wav,0,1,857,30,4,Mandarin,f,0,0,-30.61452779,0.78021116
Shay,76,1,2024-04-17T20:39:04.548Z,english_274.wav,0,1,857,30,4,Mandarin,f,1,0.1,-42.14612233,1.93993358
Shay,76,1,2024-04-17T20:39:04.548Z,english_274.wav,0,1,857,30,4,Mandarin,f,2,0.2,32.00602795,0.32963606
Shay,76,1,2024-04-17T20:39:04.548Z,english_274.wav,0,1,857,30,4,Mandarin,f,3,0.3,-37.74375581,1.46133782
Shay,76,1,2024-04-17T20:39:04.548Z,english_274.wav,0,1,857,30,4,Mandarin,f,4,0.32341667,-54.5397802,1.53178785
Shay,77,1,2024-04-17T20:39:04.548Z,english_22.wav,0,0,3024,30,4,Mandarin,f,0,0,78.11206964,1.48448967
Shay,77,1,2024-04-17T20:39:04.548Z,english_22.wav,0,0,3024,30,4,Mandarin,f,1,0.1,30.08823316,0.28770474
Shay,77,1,2024-04-17T20:39:04.548Z,english_22.wav,0,0,3024,30,4,Mandarin,f,2,0.2,62.70691674,1.03274311
Shay,77,1,2024-04-17T20:39:04.548Z,english_22.wav,0,0,3024,30,4,Mandarin,f,3,0.3,-69.9857022,0.45071415
Shay,77,1,2024-04-17T20:39:04.548Z,english_22.wav,0,0,3024,30,4,Mandarin,f,4,0.32341667,-1.96178027,0.30900593
Shay,78,1,2024-04-17T20:39:04.548Z,english_323.wav,0,1,481,30,4,Mandarin,f,0,0,92.33188111,1.59668922
Shay,78,1,2024-04-17T20:39:04.548Z,english_323.wav,0,1,481,30,4,Mandarin,f,1,0.1,4.22577609,1.75306106
Shay,78,1,2024-04-17T20:39:04.548Z,english_323.wav,0,1,481,30,4,Mandarin,f,2,0.2,-35.48560344,1.06071567
Shay,78,1,2024-04-17T20:39:04.548Z,english_323.wav,0,1,481,30,4,Mandarin,f,3,0.3,7.73763769,1.9328625
Shay,78,1,2024-04-17T20:39:04.548Z,english_323.wav,0,1,481,30,4,Mandarin,f,4,0.32341667,55.62458321,1.27347405
Shay,79,1,2024-04-17T20:39:04.548Z,english_985.wav,0,0,951,30,4,Mandarin,f,0,0,31.76144354,0.46805505
Shay,79,1,2024-04-17T20:39:04.548Z,english_985.wav,0,0,951,30,4,Mandarin,f,1,0.1,49.0534069,1.72857245
Shay,79,1,2024-04-17T20:39:04.548Z,english_985.wav,0,0,951,30,4,Mandarin,f,2,0.2,-59.14058353,0.05336254
Shay,79,1,2024-04-17T20:39:04.548Z,english_985.wav,0,0,951,30,4,Mandarin,f,3,0.3,-36.25561351,0.45417652
Shay,79,1,2024-04-17T20:39:04.548Z,english_985.wav,0,0,951,30,4,Mandarin,f,4,0.32341667,-53.50268286,1.33850641
Shay,80,1,2024-04-17T20:39:04.548Z,english_76.wav,0,0,937,30,4,Mandarin,f,0,0,24.78743387,1.26829138
Shay,80,1,2024-04-17T20:39:04.548Z,english_76.wav,0,0,937,30,4,Mandarin,f,1,0.1,-7.95135802,1.4446717
Shay,80,1,2024-04-17T20:39:04.548Z,english_76.wav,0,0,937,30,4,Mandarin,f,2,0.2,-9.56689875,0.88177173
Shay,80,1,2024-04-17T20:39:04.548Z,english_76.wav,0,0,937,30,4,Mandarin,f,3,0.3,-78.25819759,1.63003096
Shay,80,1,2024-04-17T20:39:04.548Z,english_76.wav,0,0,937,30,4,Mandarin,f,4,0.32341667,26.4311908,1.97074408
Shay,81,1,2024-04-17T20:39:04.548Z,english_852.wav,0,0,795,30,4,Mandarin,f,0,0,-59.21906832,1.76087743
Shay,81,1,2024-04-17T20:39:04.548Z,english_852.wav,0,0,795,30,4,Mandarin,f,1,0.1,5.96662808,0.85304022
Shay,81,1,2024-04-17T20:39:04.548Z,english_852.wav,0,0,795,30,4,Mandarin,f,2,0.2,12.29830648,0.5029047
Shay,81,1,2024-04-17T20:39:04.548Z,english_852.wav,0,0,795,30,4,Mandarin,f,3,0.3,-98.20735767,0.66544939
Shay,81,1,2024-04-17T20:39:04.548Z,english_852.wav,0,0,795,30,4,Mandarin,f,4,0.32341667,-0.5186354,0.26669214
Shay,82,1,2024-04-17T20:39:04.548Z,english_428.wav,0,0,885,30,4,Mandarin,f,0,0,-98.34466569,1.83106884
Shay,82,1,2024-04-17T20:39:04.548Z,english_428.wav,0,0,885,30,4,Mandarin,f,1,0.1,-10.51162175,1.34345266
Shay,82,1,2024-04-17T20:39:04.548Z,english_428.wav,0,0,885,30,4,Mandarin,f,2,0.2,97.93427859,0.65853672
Shay,82,1,2024-04-17T20:39:04.548Z,english_428.wav,0,0,885,30,4,Mandarin,f,3,0.3,35.61870537,1.28105878
Shay,82,1,2024-04-17T20:39:04.548Z,english_428.wav,0,0,885,30,4,Mandarin,f,4,0.32341667,-12.49352836,0.15324236
Shay,83,1,2024-04-17T20:39:04.548Z,english_380.wav,0,0,738,30,4,Mandarin,f,0,0,-44.61260121,1.04167661
Shay,83,1,2024-04-17T20:39:04.548Z,english_380.wav,0,0,738,30,4,Mandarin,f,1,0.1,-47.89967478,0.43386817
Shay,83,1,2024-04-17T20:39:04.548Z,english_380.wav,0,0,738,30,4,Mandarin,f,2,0.2,34.91352544,0.93219588
Shay,83,1,2024-04-17T20:39:04.548Z,english_380.wav,0,0,738,30,4,Mandarin,f,3,0.3,-71.89465654,0.8109376
Shay,83,1,2024-04-17T20:39:04.548Z,english_380.wav,0,0,738,30,4,Mandarin,f,4,0.32341667,84.67713906,0.64473949
Shay,84,1,2024-04-17T20:39:04.548Z,english_764.wav,0,0,537,30,4,Mandarin,f,0,0,7.00590276,1.84020442
Shay,84,1,2024-04-17T20:39:04.548Z,english_764.wav,0,0,537,30,4,Mandarin,f,1,0.1,-69.33047837,0.1607256
Shay,84,1,2024-04-17T20:39:04.548Z,english_764.wav,0,0,537,30,4,Mandarin,f,2,0.2,-20.89747671,1.70981587
Shay,84,1,2024-04-17T20:39:04.548Z,english_764.wav,0,0,537,30,4,Mandarin,f,3,0.3,-96.63564891,1.13854431
Shay,84,1,2024-04-17T20:39:04.548Z,english_764.wav,0,0,537,30,4,Mandarin,f,4,0.32341667,78.55111455,1.5536836
Shay,85,1,2024-04-17T20:39:04.548Z,english_49.wav,0,0,969,30,4,Mandarin,f,0,0,-6.08822071,0.36436507
Shay,85,1,2024-04-17T20:39:04.548Z,english_49.wav,0,0,969,30,4,Mandarin,f,1,0.1,-56.0367764,1.66948988
Shay,85,1,2024-04-17T20:39:04.548Z,english_49.wav,0,0,969,30,4,Mandarin,f,2,0.2,-51.95657584,1.20554654
Shay,85,1,2024-04-17T20:39:04.548Z,english_49.wav,0,0,969,30,4,Mandarin,f,3,0.3,-59.93208112,0.31084089
Shay,85,1,2024-04-17T20:39:04.548Z,english_49.wav,0,0,969,30,4,Mandarin,f,4,0.32341667,-7.85847813,0.44223059
Shay,86,1,2024-04-17T20:39:04.548Z,english_439.wav,0,0,591,30,4,Mandarin,f,0,0,-34.98153375,0.51703437
Shay,86,1,2024-04-17T20:39:04.548Z,english_439.wav,0,0,591,30,4,Mandarin,f,1,0.1,58.81829455,0.92552513
Shay,86,1,2024-04-17T20:39:04.548Z,english_439.wav,0,0,591,30,4,Mandarin,f,2,0.2,-39.64168408,1.94754337
Shay,86,1,2024-04-17T20:39:04.548Z,english_439.wav,0,0,591,30,4,Mandarin,f,3,0.3,-65.89684329,0.19153473
Shay,86,1,2024-04-17T20:39:04.548Z,english_439.wav,0,0,591,30,4,Mandarin,f,4,0.32341667,-18.09409032,1.29438445
Shay,87,1,2024-04-17T20:39:04.548Z,english_816.wav,0,0,554,30,4,Mandarin,f,0,0,-5.39935373,0.27372013
Shay,87,1,2024-04-17T20:39:04.548Z,english_816.wav,0,0,554,30,4,Mandarin,f,1,0.1,-58.12348851,1.23542608
Shay,87,1,2024-04-17T20:39:04.548Z,english_816.wav,0,0,554,30,4,Mandarin,f,2,0.2,-97.19740724,1.6956732
Shay,87,1,2024-04-17T20:39:04.548Z,english_816.wav,0,0,554,30,4,Mandarin,f,3,0.3,4.60418864,0.17466083
Shay,87,1,2024-04-17T20:39:04.548Z,english_816.wav,0,0,554,30,4,Mandarin,f,4,0.32341667,57.92285533,0.69657013
Shay,88,1,2024-04-17T20:39:04.548Z,english_210.wav,0,0,431,30,4,Mandarin,f,0,0,43.03172008,0.27268056
Shay,88,1,2024-04-17T20:39:04.548Z,english_210.wav,0,0,431,30,4,Mandarin,f,1,0.1,58.48529179,0.59270989
Shay,88,1,2024-04-17T20:39:04.548Z,english_210.wav,0,0,431,30,4,Mandarin,f,2,0.2,57.29337371,1.57355776
Shay,88,1,2024-04-17T20:39:04.548Z,english_210.wav,0,0,431,30,4,Mandarin,f,3,0.3,-45.34642936,1.97663548
Shay,88,1,2024-04-17T20:39:04.548Z,english_210.wav,0,0,431,30,4,Mandarin,f,4,0.32341667,-3.49486879,1.39997912
Shay,89,1,2024-04-17T20:39:04.548Z,english_13.wav,0,0,559,30,4,Mandarin,f,0,0,85.79405153,0.93145275
Shay,89,1,2024-04-17T20:39:04.548Z,english_13.wav,0,0,559,30,4,Mandarin,f,1,0.1,-22.00296346,0.69811424
Shay,89,1,2024-04-17T20:39:04.548Z,english_13.wav,0,0,559,30,4,Mandarin,f,2,0.2,45.89988476,1.08090206
Shay,89,1,2024-04-17T20:39:04.548Z,english_13.wav,0,0,559,30,4,Mandarin,f,3,0.3,-17.47250281,0.35305012
Shay,89,1,2024-04-17T20:39:04.548Z,english_13.wav,0,0,559,30,4,Mandarin,f,4,0.32341667,-30.34546067,0.65915907
Shay,90,1,2024-04-17T20:39:04.548Z,english_535.wav,0,0,425,30,4,Mandarin,f,0,0,-5.32882057,0.21055966
Shay,90,1,2024-04-17T20:39:04.548Z,english_535.wav,0,0,425,30,4,Mandarin,f,1,0.1,-34.98045039,0.89683134
Shay,90,1,2024-04-17T20:39:04.548Z,english_535.wav,0,0,425,30,4,Mandarin,f,2,0.2,30.10834221,1.11178172
Shay,90,1,2024-04-17T20:39:04.548Z,english_535.wav,0,0,425,30,4,Mandarin,f,3,0.3,-70.22542568,0.20123235
Shay,90,1,2024-04-17T20:39:04.548Z,english_535.wav,0,0,425,30,4,Mandarin,f,4,0.32341667,-73.0016054,0.99564794
Shay,91,1,2024-04-17T20:39:04.548Z,english_922.wav,0,0,482,30,4,Mandarin,f,0,0,-90.36253489,0.33253962
Shay,91,1,2024-04-17T20:39:04.548Z,english_922.wav,0,0,482,30,4,Mandarin,f,1,0.1,-6.38761956,1.51366693
Shay,91,1,2024-04-17T20:39:04.548Z,english_922.wav,0,0,482,30,4,Mandarin,f,2,0.2,-78.09661245,0.40049791
Shay,91,1,2024-04-17T20:39:04.548Z,english_922.wav,0,0,482,30,4,Mandarin,f,3,0.3,-92.75722173,1.29207892
Shay,91,1,2024-04-17T20:39:04.548Z,english_922.wav,0,0,482,30,4,Mandarin,f,4,0.32341667,-80.16719401,1.40400382
Shay,92,1,2024-04-17T20:39:04.548Z,english_989.wav,0,0,430,30,4,Mandarin,f,0,0,-51.1051603,1.00035195
Shay,92,1,2024-04-17T20:39:04.548Z,english_989.wav,0,0,430,30,4,Mandarin,f,1,0.1,-91.26717948,0.46124463
Shay,92,1,2024-04-17T20:39:04.548Z,english_989.wav,0,0,430,30,4,Mandarin,f,2,0.2,73.5145218,0.77735517
Shay,92,1,2024-04-17T20:39:04.548Z,english_989.wav,0,0,430,30,4,Mandarin,f,3,0.3,54.43703181,1.21549894
Shay,92,1,2024-04-17T20:39:04.548Z,english_989.wav,0,0,430,30,4,Mandarin,f,4,0.32341667,-36.95823638,0.33045291
Shay,93,1,2024-04-17T20:39:04.548Z,english_801.wav,0,0,425,30,4,Mandarin,f,0,0,66.50571345,0.19311528
Shay,93,1,2024-04-17T20:39:04.548Z,english_801.wav,0,0,425,30,4,Mandarin,f,1,0.1,-53.03260979,0.48683601
Shay,93,1,2024-04-17T20:39:04.548Z,english_801.wav,0,0,425,30,4,Mandarin,f,2,0.2,-3.89459646,1.16293258
Shay,93,1,2024-04-17T20:39:04.548Z,english_801.wav,0,0,425,30,4,Mandarin,f,3,0.3,8.32951864,1.55734707
Shay,93,1,2024-04-17T20:39:04.548Z,english_801.wav,0,0,425,30,4,Mandarin,f,4,0.32341667,-87.46806733,0.63471681
Shay,94,1,2024-04-17T20:39:04.548Z,english_928.wav,0,1,956,30,4,Mandarin,f,0,0,55.07207497,1.22706758
Shay,94,1,2024-04-17T20:39:04.548Z,english_928.wav,0,1,956,30,4,Mandarin,f,1,0.1,83.71672672,0.97206042
Shay,94,1,2024-04-17T20:39:04.548Z,english_928.wav,0,1,956,30,4,Mandarin,f,2,0.2,-43.28929986,0.16969859
Shay,94,1,2024-04-17T20:39:04.548Z,english_928.wav,0,1,956,30,4,Mandarin,f,3,0.3,-17.1692271,0.90092586
Shay,94,1,2024-04-17T20:39:04.548Z,english_928.wav,0,1,956,30,4,Mandarin,f,4,0.32341667,-36.644272,0.43024518
Shay,95,1,2024-04-17T20:39:04.548Z,english_965.wav,0,1,374,30,4,Mandarin,f,0,0,-19.49526798,1.71910172
Shay,95,1,2024-04-17T20:39:04.548Z,english_965.wav,0,1,374,30,4,Mandarin,f,1,0.1,-33.46093545,1.16323176
Shay,95,1,2024-04-17T20:39:04.548Z,english_965.wav,0,1,374,30,4,Mandarin,f,2,0.2,95.24809114,0.56514201
Shay,95,1,2024-04-17T20:39:04.548Z,english_965.wav,0,1,374,30,4,Mandarin,f,3,0.3,26.23968625,1.82539978
Shay,95,1,2024-04-17T20:39:04.548Z,english_965.wav,0,1,374,30,4,Mandarin,f,4,0.32341667,15.70217089,1.7659451
Shay,96,1,2024-04-17T20:39:04.548Z,english_204.wav,0,1,431,30,4,Mandarin,f,0,0,67.46317025,1.58701212
Shay,96,1,2024-04-17T20:39:04.548Z,english_204.wav,0,1,431,30,4,Mandarin,f,1,0.1,38.91463365,1.82178317
Shay,96,1,2024-04-17T20:39:04.548Z,english_204.wav,0,1,431,30,4,Mandarin,f,2,0.2,-85.28377865,1.60361911
Shay,96,1,2024-04-17T20:39:04.548Z,english_204.wav,0,1,431,30,4,Mandarin,f,3,0.3,55.65505401,0.21823774
Shay,96,1,2024-04-17T20:39:04.548Z,english_204.wav,0,1,431,30,4,Mandarin,f,4,0.32341667,56.32983288,0.04661671
Shay,97,1,2024-04-17T20:39:04.548Z,english_253.wav,0,1,437,30,4,Mandarin,f,0,0,12.9108365,0.20464585
Shay,97,1,2024-04-17T20:39:04.548Z,english_253.wav,0,1,437,30,4,Mandarin,f,1,0.1,-70.83420593,1.97412558
Shay,97,1,2024-04-17T20:39:04.548Z,english_253.wav,0,1,437,30,4,Mandarin,f,2,0.2,-6.13796162,1.12401504
Shay,97,1,2024-04-17T20:39:04.548Z,english_253.wav,0,1,437,30,4,Mandarin,f,3,0.3,38.03543053,1.75851492
Shay,97,1,2024-04-17T20:39:04.548Z,english_253.wav,0,1,437,30,4,Mandarin,f,4,0.32341667,-61.21147917,0.77953826
Shay,98,1,2024-04-17T20:39:04.548Z,english_344.wav,0,1,425,30,4,Mandarin,f,0,0,-81.18103124,1.80730522
Shay,98,1,2024-04-17T20:39:04.548Z,english_344.wav,0,1,425,30,4,Mandarin,f,1,0.1,-15.12635331,1.30606229
Shay,98,1,2024-04-17T20:39:04.548Z,english_344.wav,0,1,425,30,4,Mandarin,f,2,0.2,92.11407185,0.89739403
Shay,98,1,2024-04-17T20:39:04.548Z,english_344.wav,0,1,425,30,4,Mandarin,f,3,0.3,-26.28325028,0.17834637
Shay,98,1,2024-04-17T20:39:04.548Z,english_344.wav,0,1,425,30,4,Mandarin,f,4,0.32341667,-10.89648072,0.48618419
Shay,99,1,2024-04-17T20:39:04.548Z,english_387.wav,0,0,1174,30,4,Mandarin,f,0,0,14.25538659,0.59610882
Shay,99,1,2024-04-17T20:39:04.548Z,english_387.wav,0,0,1174,30,4,Mandarin,f,1,0.1,-5.8057983,0.93453474
Shay,99,1,2024-04-17T20:39:04.548Z,english_387.wav,0,0,1174,30,4,Mandarin,f,2,0.2,-2.59288607,1.87880123
Shay,99,1,2024-04-17T20:39:04.548Z,english_387.wav,0,0,1174,30,4,Mandarin,f,3,0.3,19.33055559,0.79709693
Shay,99,1,2024-04-17T20:39:04.548Z,english_387.wav,0,0,1174,30,4,Mandarin,f,4,0.32341667,-85.57173801,0.90161027
Shay,100,2,2024-04-17T20:41:24.161Z,english_904.wav,0,0,1424,30,4,Mandarin,f,0,0,54.28678019,0.96279628
Shay,100,2,2024-04-17T20:41:24.161Z,english_904.wav,0,0,1424,30,4,Mandarin,f,1,0.1,-13.24417266,0.20212872
Shay,100,2,2024-04-17T20:41:24.161Z,english_904.wav,0,0,1424,30,4,Mandarin,f,2,0.2,18.94666669,1.39381084
Shay,100,2,2024-04-17T20:41:24.161Z,english_904.wav,0,0,1424,30,4,Mandarin,f,3,0.3,-21.97018078,1.57516234
Shay,100,2,2024-04-17T20:41:24.161Z,english_904.wav,0,0,1424,30,4,Mandarin,f,4,0.32341667,4.05624244,0.97228596
Shay,101,2,2024-04-17T20:41:24.161Z,english_815.wav,0,0,392,30,4,Mandarin,f,0,0,-76.1669867,0.29426078
Shay,101,2,2024-04-17T20:41:24.161Z,english_815.wav,0,0,392,30,4,Mandarin,f,1,0.1,-40.517901,0.96858733
Shay,101,2,2024-04-17T20:41:24.161Z,english_815.wav,0,0,392,30,4,Mandarin,f,2,0.2,-46.68959253,0.83382199
Shay,101,2,2024-04-17T20:41:24.161Z,english_815.wav,0,0,392,30,4,Mandarin,f,3,0.3,-79.23468646,1.13727176
Shay,101,2,2024-04-17T20:41:24.161Z,english_815.wav,0,0,392,30,4,Mandarin,f,4,0.32341667,-63.63497058,0.09357312
Shay,102,2,2024-04-17T20:41:24.161Z,english_351.wav,0,0,264,30,4,Mandarin,f,0,0,-56.55455818,0.98366365
Shay,102,2,2024-04-17T20:41:24.161Z,english_351.wav,0,0,264,30,4,Mandarin,f,1,0.1,-81.1333892,1.13800808
Shay,102,2,2024-04-17T20:41:24.161Z,english_351.wav,0,0,264,30,4,Mandarin,f,2,0.2,70.95296343,1.04915948
Shay,102,2,2024-04-17T20:41:24.161Z,english_351.wav,0,0,264,30,4,Mandarin,f,3,0.3,-82.79021433,1.70890302
Shay,102,2,2024-04-17T20:41:24.161Z,english_351.wav,0,0,264,30,4,Mandarin,f,4,0.32341667,-21.34496407,1.83807055
Shay,103,2,2024-04-17T20:41:24.161Z,english_734.wav,0,0,270,30,4,Mandarin,f,0,0,23.12527103,1.15728247
Shay,103,2,2024-04-17T20:41:24.161Z,english_734.wav,0,0,270,30,4,Mandarin,f,1,0.1,70.97885261,1.10975856
Shay,103,2,2024-04-17T20:41:24.161Z,english_734.wav,0,0,270,30,4,Mandarin,f,2,0.2,-68.62860591,0.41126476
Shay,103,2,2024-04-17T20:41:24.161Z,english_734.wav,0,0,270,30,4,Mandarin,f,3,0.3,-14.81239301,1.45213782
Shay,103,2,2024-04-17T20:41:24.161Z,english_734.wav,0,0,270,30,4,Mandarin,f,4,0.32341667,-74.40513958,1.98917216
Shay,104,2,2024-04-17T20:41:24.161Z,english_721.wav,0,0,441,30,4,Mandarin,f,0,0,-1.67193172,0.23966059
Shay,104,2,2024-04-17T20:41:24.161Z,english_721.wav,0,0,441,30,4,Mandarin,f,1,0.1,23.81304459,1.61361986
Shay,104,2,2024-04-17T20:41:24.161Z,english_721.wav,0,0,441,30,4,Mandarin,f,2,0.2,94.27532923,0.58045828
Shay,104,2,2024-04-17T20:41:24.161Z,english_721.wav,0,0,441,30,4,Mandarin,f,3,0.3,10.08520391,1.63757532
Shay,104,2,2024-04-17T20:41:24.161Z,english_721.wav,0,0,441,30,4,Mandarin,f,4,0.32341667,-26.68837018,1.4581473
Shay,105,2,2024-04-17T20:41:24.161Z,english_571.wav,0,0,427,30,4,Mandarin,f,0,0,-42.92588422,0.65590276
Shay,105,2,2024-04-17T20:41:24.161Z,english_571.wav,0,0,427,30,4,Mandarin,f,1,0.1,-87.39276897,1.8306878
Shay,105,2,2024-04-17T20:41:24.161Z,english_571.wav,0,0,427,30,4,Mandarin,f,2,0.2,19.06282168,0.06889765
Shay,105,2,2024-04-17T20:41:24.161Z,english_571.wav,0,0,427,30,4,Mandarin,f,3,0.3,-99.30459792,0.29364209
Shay,105,2,2024-04-17T20:41:24.161Z,english_571.wav,0,0,427,30,4,Mandarin,f,4,0.32341667,41.25263337,1.388798
Shay,106,2,2024-04-17T20:41:24.161Z,english_899.wav,0,0,356,30,4,Mandarin,f,0,0,34.44970312,1.0262563
Shay,106,2,2024-04-17T20:41:24.161Z,english_899.wav,0,0,356,30,4,Mandarin,f,1,0.1,-73.97598586,0.5565938
Shay,106,2,2024-04-17T20:41:24.161Z,english_899.wav,0,0,356,30,4,Mandarin,f,2,0.2,4.84970015,0.08950317
Shay,106,2,2024-04-17T20:41:24.161Z,english_899.wav,0,0,356,30,4,Mandarin,f,3,0.3,25.99530817,1.10823657
Shay,106,2,2024-04-17T20:41:24.161Z,english_899.wav,0,0,356,30,4,Mandarin,f,4,0.32341667,7.0197251,1.27665612
Shay,107,2,2024-04-17T20:41:24.161Z,english_799.wav,0,0,936,30,4,Mandarin,f,0,0,-48.4958847,1.9233431
Shay,107,2,2024-04-17T20:41:24.161Z,english_799.wav,0,0,936,30,4,Mandarin,f,1,0.1,-9.52866418,1.11542891
Shay,107,2,2024-04-17T20:41:24.161Z,english_799.wav,0,0,936,30,4,Mandarin,f,2,0.2,1.94176449,0.95865462
Shay,107,2,2024-04-17T20:41:24.161Z,english_799.wav,0,0,936,30,4,Mandarin,f,3,0.3,5.71676827,0.6616034
Shay,107,2,2024-04-17T20:41:24.161Z,english_799.wav,0,0,936,30,4,Mandarin,f,4,0.32341667,30.27282792,1.91183458
Shay,108,2,2024-04-17T20:41:24.161Z,english_513.wav,0,0,731,30,4,Mandarin,f,0,0,76.78578212,0.02403043
Shay,108,2,2024-04-17T20:41:24.161Z,english_513.wav,0,0,731,30,4,Mandarin,f,1,0.1,20.42124481,0.85164369
Shay,108,2,2024-04-17T20:41:24.161Z,english_513.wav,0,0,731,30,4,Mandarin,f,2,0.2,83.32251122,1.08658436
Shay,108,2,2024-04-17T20:41:24.161Z,english_513.wav,0,0,731,30,4,Mandarin,f,3,0.3,47.28432413,0.40639055
Shay,108,2,2024-04-17T20:41:24.161Z,english_513.wav,0,0,731,30,4,Mandarin,f,4,0.32341667,-50.64117466,1.29336046
Shay,109,2,2024-04-17T20:41:24.161Z,english_683.wav,0,1,992,30,4,Mandarin,f,0,0,-73.37543508,1.70409633
Shay,109,2,2024-04-17T20:41:24.161Z,english_683.wav,0,1,992,30,4,Mandarin,f,1,0.1,66.4080647,1.25556383
Shay,109,2,2024-04-17T20:41:24.161Z,english_683.wav,0,1,992,30,4,Mandarin,f,2,0.2,46.46812351,0.87554738
Shay,109,2,2024-04-17T20:41:24.161Z,english_683.wav,0,1,992,30,4,Mandarin,f,3,0.3,71.67755016,1.32863005
Shay,109,2,2024-04-17T20:41:24.161Z,english_683.wav,0,1,992,30,4,Mandarin,f,4,0.32341667,2.86253031,0.20364682
Shay,110,2,2024-04-17T20:41:24.161Z,english_611.wav,0,1,776,30,4,Mandarin,f,0,0,4.04989913,1.48647041
Shay,110,2,2024-04-17T20:41:24.161Z,english_611.wav,0,1,776,30,4,Mandarin,f,1,0.1,-26.35519993,0.87297853
Shay,110,2,2024-04-17T20:41:24.161Z,english_611.wav,0,1,776,30,4,Mandarin,f,2,0.2,-41.22744209,0.91907267
Shay,110,2,2024-04-17T20:41:24.161Z,english_611.wav,0,1,776,30,4,Mandarin,f,3,0.3,-72.41198747,0.12624761
Shay,110,2,2024-04-17T20:41:24.161Z,english_611.wav,0,1,776,30,4,Mandarin,f,4,0.32341667,-60.09703168,0.964981
Shay,111,2,2024-04-17T20:41:24.161Z,english_256.wav,0,0,564,30,4,Mandarin,f,0,0,22.60769813,1.84037168
Shay,111,2,2024-04-17T20:41:24.161Z,english_256.wav,0,0,564,30,4,Mandarin,f,1,0.1,-95.01444593,0.47687766
Shay,111,2,2024-04-17T20:41:24.161Z,english_256.wav,0,0,564,30,4,Mandarin,f,2,0.2,-19.91310746,0.85339151
Shay,111,2,2024-04-17T20:41:24.161Z,english_256.wav,0,0,564,30,4,Mandarin,f,3,0.3,-6.39209363,0.75097161
Shay,111,2,2024-04-17T20:41:24.161Z,english_256.wav,0,0,564,30,4,Mandarin,f,4,0.32341667,24.02209282,1.98695073
Shay,112,2,2024-04-17T20:41:24.161Z,english_410.wav,0,0,379,30,4,Mandarin,f,0,0,-74.64506245,0.42358098
Shay,112,2,2024-04-17T20:41:24.161Z,english_410.wav,0,0,379,30,4,Mandarin,f,1,0.1,65.24401488,0.42526697
Shay,112,2,2024-04-17T20:41:24.161Z,english_410.wav,0,0,379,30,4,Mandarin,f,2,0.2,-65.86471953,1.12385183
Shay,112,2,2024-04-17T20:41:24.161Z,english_410.wav,0,0,379,30,4,Mandarin,f,3,0.3,98.79489106,0.33588109
Shay,112,2,2024-04-17T20:41:24.161Z,english_410.wav,0,0,379,30,4,Mandarin,f,4,0.32341667,14.95451541,1.7246864
Shay,113,2,2024-04-17T20:41:24.161Z,english_472.wav,0,0,682,30,4,Mandarin,f,0,0,-33.48324222,1.19367533
Shay,113,2,2024-04-17T20:41:24.161Z,english_472.wav,0,0,682,30,4,Mandarin,f,1,0.1,-52.47175565,0.64788551
Shay,113,2,2024-04-17T20:41:24.161Z,english_472.wav,0,0,682,30,4,Mandarin,f,2,0.2,-13.12063744,0.92970714
Shay,113,2,2024-04-17T20:41:24.161Z,english_472.wav,0,0,682,30,4,Mandarin,f,3,0.3,83.57117959,0.61503547
Shay,113,2,2024-04-17T20:41:24.161Z,english_472.wav,0,0,682,30,4,Mandarin,f,4,0.32341667,95.60610647,0.52013695
Shay,114,2,2024-04-17T20:41:24.161Z,english_918.wav,0,0,1346,30,4,Mandarin,f,0,0,-64.11083249,1.38668504
Shay,114,2,2024-04-17T20:41:24.161Z,english_918.wav,0,0,1346,30,4,Mandarin,f,1,0.1,75.84330997,1.4522357
Shay,114,2,2024-04-17T20:41:24.161Z,english_918.wav,0,0,1346,30,4,Mandarin,f,2,0.2,-30.10314186,1.37046734
Shay,114,2,2024-04-17T20:41:24.161Z,english_918.wav,0,0,1346,30,4,Mandarin,f,3,0.3,91.40385877,0.70209545
Shay,114,2,2024-04-17T20:41:24.161Z,english_918.wav,0,0,1346,30,4,Mandarin,f,4,0.32341667,-14.12068895,0.09881605
Shay,115,2,2024-04-17T20:41:24.161Z,english_209.wav,0,1,686,30,4,Mandarin,f,0,0,14.15361396,1.44232267
Shay,115,2,2024-04-17T20:41:24.161Z,english_209.wav,0,1,686,30,4,Mandarin,f,1,0.1,85.95109622,1.49291498
Shay,115,2,2024-04-17T20:41:24.161Z,english_209.wav,0,1,686,30,4,Mandarin,f,2,0.2,18.04804687,1.19611731
Shay,115,2,2024-04-17T20:41:24.161Z,english_209.wav,0,1,686,30,4,Mandarin,f,3,0.3,28.2522976,1.49647535
Shay,115,2,2024-04-17T20:41:24.161Z,english_209.wav,0,1,686,30,4,Mandarin,f,4,0.32341667,5.36776296,0.30324849
Shay,116,2,2024-04-17T20:41:24.161Z,english_504.wav,0,0,965,30,4,Mandarin,f,0,0,4.11468456,0.75379057
Shay,116,2,2024-04-17T20:41:24.161Z,english_504.wav,0,0,965,30,4,Mandarin,f,1,0.1,70.56620437,1.18348717
Shay,116,2,2024-04-17T20:41:24.161Z,english_504.wav,0,0,965,30,4,Mandarin,f,2,0.2,3.26767498,0.25360202
Shay,116,2,2024-04-17T20:41:24.161Z,english_504.wav,0,0,965,30,4,Mandarin,f,3,0.3,-3.14493553,1.87094491
Shay,116,2,2024-04-17T20:41:24.161Z,english_504.wav,0,0,965,30,4,Mandarin,f,4,0.32341667,43.57926014,0.110125
Shay,117,2,2024-04-17T20:41:24.161Z,english_434.wav,0,0,1249,30,4,Mandarin,f,0,0,-4.12787863,0.96421208
Shay,117,2,2024-04-17T20:41:24.161Z,english_434.wav,0,0,1249,30,4,Mandarin,f,1,0.1,-30.19441281,1.08561731
Shay,117,2,2024-04-17T20:41:24.161Z,english_434.wav,0,0,1249,30,4,Mandarin,f,2,0.2,41.04377471,1.46356301
Shay,117,2,2024-04-17T20:41:24.161Z,english_434.wav,0,0,1249,30,4,Mandarin,f,3,0.3,-32.43591961,0.25116585
Shay,117,2,2024-04-17T20:41:24.161Z,english_434.wav,0,0,1249,30,4,Mandarin,f,4,0.32341667,61.53108406,0.73120458
Shay,118,2,2024-04-17T20:41:24.161Z,english_902.wav,0,0,436,30,4,Mandarin,f,0,0,-4.27617126,0.16330526
Shay,118,2,2024-04-17T20:41:24.161Z,english_902.wav,0,0,436,30,4,Mandarin,f,1,0.1,-5.01127315,0.62492789
Shay,118,2,2024-04-17T20:41:24.161Z,english_902.wav,0,0,436,30,4,Mandarin,f,2,0.2,83.22080084,1.08638924
Shay,118,2,2024-04-17T20:41:24.161Z,english_902.wav,0,0,436,30,4,Mandarin,f,3,0.3,77.56473772,1.61764227
Shay,118,2,2024-04-17T20:41:24.161Z,english_902.wav,0,0,436,30,4,Mandarin,f,4,0.32341667,-13.02741535,1.72075309
Shay,119,2,2024-04-17T20:41:24.161Z,english_580.wav,0,0,521,30,4,Mandarin,f,0,0,92.13406767,1.93694744
Shay,119,2,2024-04-17T20:41:24.161Z,english_580.wav,0,0,521,30,4,Mandarin,f,1,0.1,-85.58685866,0.28773753
Shay,119,2,2024-04-17T20:41:24.161Z,english_580.wav,0,0,521,30,4,Mandarin,f,2,0.2,57.10945482,0.86433335
Shay,119,2,2024-04-17T20:41:24.161Z,english_580.wav,0,0,521,30,4,Mandarin,f,3,0.3,32.92004132,0.96651265
Shay,119,2,2024-04-17T20:41:24.161Z,english_580.wav,0,0,521,30,4,Mandarin,f,4,0.32341667,52.08708517,1.25003658
Shay,120,2,2024-04-17T20:41:24.161Z,english_5.wav,0,0,571,30,4,Mandarin,f,0,0,-15.92383461,0.27445408
Shay,120,2,2024-04-17T20:41:24.161Z,english_5.wav,0,0,571,30,4,Mandarin,f,1,0.1,-20.01914587,0.54328549
Shay,120,2,2024-04-17T20:41:24.161Z,english_5.wav,0,0,571,30,4,Mandarin,f,2,0.2,40.70457056,0.32172142
Shay,120,2,2024-04-17T20:41:24.161Z,english_5.wav,0,0,571,30,4,Mandarin,f,3,0.3,-94.67131236,1.15903644
Shay,120,2,2024-04-17T20:41:24.161Z,english_5.wav,0,0,571,30,4,Mandarin,f,4,0.32341667,-88.33027294,0.94870148
Shay,121,2,2024-04-17T20:41:24.161Z,english_523.wav,0,0,2038,30,4,Mandarin,f,0,0,8.07414344,0.20594791
Shay,121,2,2024-04-17T20:41:24.161Z,english_523.wav,0,0,2038,30,4,Mandarin,f,1,0.1,27.61667564,1.87511385
Shay,121,2,2024-04-17T20:41:24.161Z,english_523.wav,0,0,2038,30,4,Mandarin,f,2,0.2,12.25175146,0.19246655
Shay,121,2,2024-04-17T20:41:24.161Z,english_523.wav,0,0,2038,30,4,Mandarin,f,3,0.3,5.7333769,0.42766967
Shay,121,2,2024-04-17T20:41:24.161Z,english_523.wav,0,0,2038,30,4,Mandarin,f,4,0.32341667,77.72310536,1.43882185
Shay,122,2,2024-04-17T20:41:24.161Z,english_42.wav,0,1,697,30,4,Mandarin,f,0,0,-15.36487641,1.81244548
Shay,122,2,2024-04-17T20:41:24.161Z,english_42.wav,0,1,697,30,4,Mandarin,f,1,0.1,11.43696078,1.472484
Shay,122,2,2024-04-17T20:41:24.161Z,english_42.wav,0,1,697,30,4,Mandarin,f,2,0.2,34.58464447,0.21504119
Shay,122,2,2024-04-17T20:41:24.161Z,english_42.wav,0,1,697,30,4,Mandarin,f,3,0.3,68.67640378,0.80253652
Shay,122,2,2024-04-17T20:41:24.161Z,english_42.wav,0,1,697,30,4,Mandarin,f,4,0.32341667,-67.59461511,1.53231421
Shay,123,2,2024-04-17T20:41:24.161Z,english_178.wav,0,0,651,30,4,Mandarin,f,0,0,-14.41838744,0.71193749
Shay,123,2,2024-04-17T20:41:24.161Z,english_178.wav,0,0,651,30,4,Mandarin,f,1,0.1,64.59665955,0.54024543
Shay,123,2,2024-04-17T20:41:24.161Z,english_178.wav,0,0,651,30,4,Mandarin,f,2,0.2,-96.76492712,1.78065704
Shay,123,2,2024-04-17T20:41:24.161Z,english_178.wav,0,0,651,30,4,Mandarin,f,3,0.3,-50.00654232,1.40559917
Shay,123,2,2024-04-17T20:41:24.161Z,english_178.wav,0,0,651,30,4,Mandarin,f,4,0.32341667,42.56426636,0.99785593
Shay,124,2,2024-04-17T20:41:24.161Z,english_356.wav,0,0,1085,30,4,Mandarin,f,0,0,87.74309864,0.22820547
Shay,124,2,2024-04-17T20:41:24.161Z,english_356.wav,0,0,1085,30,4,Mandarin,f,1,0.1,-4.48264388,1.49009691
Shay,124,2,2024-04-17T20:41:24.161Z,english_356.wav,0,0,1085,30,4,Mandarin,f,2,0.2,90.19031952,1.39023362
Shay,124,2,2024-04-17T20:41:24.161Z,english_356.wav,0,0,1085,30,4,Mandarin,f,3,0.3,-69.40540064,1.78473098
Shay,124,2,2024-04-17T20:41:24.161Z,english_356.wav,0,0,1085,30,4,Mandarin,f,4,0.32341667,65.10278108,0.80628385
Shay,125,2,2024-04-17T20:41:24.161Z,english_498.wav,0,0,1078,30,4,Mandarin,f,0,0,2.49020902,0.78964515
Shay,125,2,2024-04-17T20:41:24.161Z,english_498.wav,0,0,1078,30,4,Mandarin,f,1,0.1,-20.55300452,0.24391593
Shay,125,2,2024-04-17T20:41:24.161Z,english_498.wav,0,0,1078,30,4,Mandarin,f,2,0.2,-34.14985779,0.11401041
Shay,125,2,2024-04-17T20:41:24.161Z,english_498.wav,0,0,1078,30,4,Mandarin,f,3,0.3,79.54997135,1.52582154
Shay,125,2,2024-04-17T20:41:24.161Z,english_498.wav,0,0,1078,30,4,Mandarin,f,4,0.32341667,20.54695207,0.62547878
Shay,126,2,2024-04-17T20:41:24.161Z,english_376.wav,0,1,1735,30,4,Mandarin,f,0,0,-10.66231765,0.83936518
Shay,126,2,2024-04-17T20:41:24.161Z,english_376.wav,0,1,1735,30,4,Mandarin,f,1,0.1,-53.95799634,1.7265478
Shay,126,2,2024-04-17T20:41:24.161Z,english_376.wav,0,1,1735,30,4,Mandarin,f,2,0.2,-44.60014177,0.44309389
Shay,126,2,2024-04-17T20:41:24.161Z,english_376.wav,0,1,1735,30,4,Mandarin,f,3,0.3,-84.32777745,1.91772458
Shay,126,2,2024-04-17T20:41:24.161Z,english_376.wav,0,1,1735,30,4,Mandarin,f,4,0.32341667,-2.76179289,0.76255227
Shay,127,2,2024-04-17T20:41:24.161Z,english_283.wav,0,0,529,30,4,Mandarin,f,0,0,-27.01977409,1.23470843
Shay,127,2,2024-04-17T20:41:24.161Z,english_283.wav,0,0,529,30,4,Mandarin,f,1,0.1,-58.6063919,0.41737987
Shay,127,2,2024-04-17T20:41:24.161Z,english_283.wav,0,0,529,30,4,Mandarin,f,2,0.2,36.15867228,0.64455365
Shay,127,2,2024-04-17T20:41:24.161Z,english_283.wav,0,0,529,30,4,Mandarin,f,3,0.3,-77.91689069,1.80541824
Shay,127,2,2024-04-17T20:41:24.161Z,english_283.wav,0,0,529,30,4,Mandarin,f,4,0.32341667,-77.99680679,1.86024907
Shay,128,2,2024-04-17T20:41:24.161Z,english_488.wav,0,0,1909,30,4,Mandarin,f,0,0,7.19120882,0.55609806
Shay,128,2,2024-04-17T20:41:24.161Z,english_488.wav,0,0,1909,30,4,Mandarin,f,1,0.1,11.64873536,1.36121935
Shay,128,2,2024-04-17T20:41:24.161Z,english_488.wav,0,0,1909,30,4,Mandarin,f,2,0.2,59.26032861,0.93872915
Shay,128,2,2024-04-17T20:41:24.161Z,english_488.wav,0,0,1909,30,4,Mandarin,f,3,0.3,-31.0631162,1.52041262
Shay,128,2,2024-04-17T20:41:24.161Z,english_488.wav,0,0,1909,30,4,Mandarin,f,4,0.32341667,23.8619583,1.83140972
Shay,129,2,2024-04-17T20:41:24.161Z,english_96.wav,0,0,616,30,4,Mandarin,f,0,0,-2.60251168,1.33849038
Shay,129,2,2024-04-17T20:41:24.161Z,english_96.wav,0,0,616,30,4,Mandarin,f,1,0.1,3.1808695,1.03790095
Shay,129,2,2024-04-17T20:41:24.161Z,english_96.wav,0,0,616,30,4,Mandarin,f,2,0.2,-93.89625608,0.32730996
Shay,129,2,2024-04-17T20:41:24.161Z,english_96.wav,0,0,616,30,4,Mandarin,f,3,0.3,22.03695444,1.15118519
Shay,129,2,2024-04-17T20:41:24.161Z,english_96.wav,0,0,616,30,4,Mandarin,f,4,0.32341667,89.13776591,1.37996061
Shay,130,2,2024-04-17T20:41:24.161Z,english_71.wav,0,0,490,30,4,Mandarin,f,0,0,-89.06637534,0.37218892
Shay,130,2,2024-04-17T20:41:24.161Z,english_71.wav,0,0,490,30,4,Mandarin,f,1,0.1,-28.638437,1.29479557
Shay,130,2,2024-04-17T20:41:24.161Z,english_71.wav,0,0,490,30,4,Mandarin,f,2,0.2,-8.31899436,1.34818575
Shay,130,2,2024-04-17T20:41:24.161Z,english_71.wav,0,0,490,30,4,Mandarin,f,3,0.3,67.7820648,1.24266832
Shay,130,2,2024-04-17T20:41:24.161Z,english_71.wav,0,0,490,30,4,Mandarin,f,4,0.32341667,4.09606073,1.38884894
Shay,131,2,2024-04-17T20:41:24.161Z,english_213.wav,0,0,429,30,4,Mandarin,f,0,0,-29.91874444,1.42031243
Shay,131,2,2024-04-17T20:41:24.161Z,english_213.wav,0,0,429,30,4,Mandarin,f,1,0.1,41.64704809,0.59218852
Shay,131,2,2024-04-17T20:41:24.161Z,english_213.wav,0,0,429,30,4,Mandarin,f,2,0.2,-87.11075848,1.10576613
Shay,131,2,2024-04-17T20:41:24.161Z,english_213.wav,0,0,429,30,4,Mandarin,f,3,0.3,-61.54877495,0.09529021
Shay,131,2,2024-04-17T20:41:24.161Z,english_213.wav,0,0,429,30,4,Mandarin,f,4,0.32341667,-34.29429643,1.15583312
Shay,132,2,2024-04-17T20:41:24.161Z,english_34.wav,0,1,1005,30,4,Mandarin,f,0,0,-48.07924103,1.44836266
Shay,132,2,2024-04-17T20:41:24.161Z,english_34.wav,0,1,1005,30,4,Mandarin,f,1,0.1,-64.84739183,1.89580324
Shay,132,2,2024-04-17T20:41:24.161Z,english_34.wav,0,1,1005,30,4,Mandarin,f,2,0.2,-20.81716265,0.64308549
Shay,132,2,2024-04-17T20:41:24.161Z,english_34.wav,0,1,1005,30,4,Mandarin,f,3,0.3,91.13652067,0.0848332
Shay,132,2,2024-04-17T20:41:24.161Z,english_34.wav,0,1,1005,30,4,Mandarin,f,4,0.32341667,-54.46543937,0.8036564
Shay,133,2,2024-04-17T20:41:24.161Z,english_822.wav,0,1,702,30,4,Mandarin,f,0,0,22.19463519,1.34957498
Shay,133,2,2024-04-17T20:41:24.161Z,english_822.wav,0,1,702,30,4,Mandarin,f,1,0.1,46.02970585,1.18534363
Shay,133,2,2024-04-17T20:41:24.161Z,english_822.wav,0,1,702,30,4,Mandarin,f,2,0.2,44.31281831,0.88966115
Shay,133,2,2024-04-17T20:41:24.161Z,english_822.wav,0,1,702,30,4,Mandarin,f,3,0.3,27.24156044,1.22476657
Shay,133,2,2024-04-17T20:41:24.161Z,english_822.wav,0,1,702,30,4,Mandarin,f,4,0.32341667,41.58842879,0.51847317
Shay,134,2,2024-04-17T20:41:24.161Z,english_237.wav,0,0,426,30,4,Mandarin,f,0,0,-40.35335157,0.42178982
Shay,134,2,2024-04-17T20:41:24.161Z,english_237.wav,0,0,426,30,4,Mandarin,f,1,0.1,42.86374565,0.6060796
Shay,134,2,2024-04-17T20:41:24.161Z,english_237.wav,0,0,426,30,4,Mandarin,f,2,0.2,7.79480372,0.58312984
Shay,134,2,2024-04-17T20:41:24.161Z,english_237.wav,0,0,426,30,4,Mandarin,f,3,0.3,-48.50613844,1.50499267
Shay,134,2,2024-04-17T20:41:24.161Z,english_237.wav,0,0,426,30,4,Mandarin,f,4,0.32341667,17.78174719,1.72211243
Shay,135,2,2024-04-17T20:41:24.161Z,english_549.wav,0,0,403,30,4,Mandarin,f,0,0,80.71270499,0.69011393
Shay,135,2,2024-04-17T20:41:24.161Z,english_549.wav,0,0,403,30,4,Mandarin,f,1,0.1,-71.31396277,1.1141308
Shay,135,2,2024-04-17T20:41:24.161Z,english_549.wav,0,0,403,30,4,Mandarin,f,2,0.2,48.34518996,0.72072674
Shay,135,2,2024-04-17T20:41:24.161Z,english_549.wav,0,0,403,30,4,Mandarin,f,3,0.3,-66.07502609,0.60045359
Shay,135,2,2024-04-17T20:41:24.161Z,english_549.wav,0,0,403,30,4,Mandarin,f,4,0.32341667,-52.28087662,0.77200176
Shay,136,2,2024-04-17T20:41:24.161Z,english_365.wav,0,0,292,30,4,Mandarin,f,0,0,58.11205919,0.53708026
Shay,136,2,2024-04-17T20:41:24.161Z,english_365.wav,0,0,292,30,4,Mandarin,f,1,0.1,-61.04014877,1.10456153
Shay,136,2,2024-04-17T20:41:24.161Z,english_365.wav,0,0,292,30,4,Mandarin,f,2,0.2,12.43042802,1.31731937
Shay,136,2,2024-04-17T20:41:24.161Z,english_365.wav,0,0,292,30,4,Mandarin,f,3,0.3,17.00746388,1.02387946
Shay,136,2,2024-04-17T20:41:24.161Z,english_365.wav,0,0,292,30,4,Mandarin,f,4,0.32341667,-69.10644956,1.31633463
Shay,137,2,2024-04-17T20:41:24.161Z,english_40.wav,0,0,452,30,4,Mandarin,f,0,0,20.98315678,0.33544846
Shay,137,2,2024-04-17T20:41:24.161Z,english_40.wav,0,0,452,30,4,Mandarin,f,1,0.1,80.64974175,0.81764939
Shay,137,2,2024-04-17T20:41:24.161Z,english_40.wav,0,0,452,30,4,Mandarin,f,2,0.2,5.38930518,0.17548883
Shay,137,2,2024-04-17T20:41:24.161Z,english_40.wav,0,0,452,30,4,Mandarin,f,3,0.3,18.83593916,0.83674413
Shay,137,2,2024-04-17T20:41:24.161Z,english_40.wav,0,0,452,30,4,Mandarin,f,4,0.32341667,-14.62145671,0.80890384
Shay,138,2,2024-04-17T20:41:24.161Z,english_974.wav,0,0,827,30,4,Mandarin,f,0,0,29.63575745,0.7371821
Shay,138,2,2024-04-17T20:41:24.161Z,english_974.wav,0,0,827,30,4,Mandarin,f,1,0.1,-49.63946334,1.15838362
Shay,138,2,2024-04-17T20:41:24.161Z,english_974.wav,0,0,827,30,4,Mandarin,f,2,0.2,87.75163431,1.66312363
Shay,138,2,2024-04-17T20:41:24.161Z,english_974.wav,0,0,827,30,4,Mandarin,f,3,0.3,-62.39844007,0.85783748
Shay,138,2,2024-04-17T20:41:24.161Z,english_974.wav,0,0,827,30,4,Mandarin,f,4,0.32341667,-98.5513891,1.53033297
Shay,139,2,2024-04-17T20:41:24.161Z,english_856.wav,0,0,1097,30,4,Mandarin,f,0,0,-44.08940674,1.51880133
Shay,139,2,2024-04-17T20:41:24.161Z,english_856.wav,0,0,1097,30,4,Mandarin,f,1,0.1,-25.77644107,0.99524475
Shay,139,2,2024-04-17T20:41:24.161Z,english_856.wav,0,0,1097,30,4,Mandarin,f,2,0.2,6.39263247,1.11391415
Shay,139,2,2024-04-17T20:41:24.161Z,english_856.wav,0,0,1097,30,4,Mandarin,f,3,0.3,92.67536145,0.95575529
Shay,139,2,2024-04-17T20:41:24.161Z,english_856.wav,0,0,1097,30,4,Mandarin,f,4,0.32341667,45.15991817,1.02944292
Shay,140,2,2024-04-17T20:41:24.161Z,english_203.wav,0,0,398,30,4,Mandarin,f,0,0,-22.28277813,1.31475846
Shay,140,2,2024-04-17T20:41:24.161Z,english_203.wav,0,0,398,30,4,Mandarin,f,1,0.1,13.21695477,1.08922412
Shay,140,2,2024-04-17T20:41:24.161Z,english_203.wav,0,0,398,30,4,Mandarin,f,2,0.2,63.23651974,0.55450355
Shay,140,2,2024-04-17T20:41:24.161Z,english_203.wav,0,0,398,30,4,Mandarin,f,3,0.3,-20.14830746,1.72034007
Shay,140,2,2024-04-17T20:41:24.161Z,english_203.wav,0,0,398,30,4,Mandarin,f,4,0.32341667,-78.55276631,0.92481053
Shay,141,2,2024-04-17T20:41:24.161Z,english_594.wav,0,0,212,30,4,Mandarin,f,0,0,-85.15725243,1.49995106
Shay,141,2,2024-04-17T20:41:24.161Z,english_594.wav,0,0,212,30,4,Mandarin,f,1,0.1,18.57908242,1.36683942
Shay,141,2,2024-04-17T20:41:24.161Z,english_594.wav,0,0,212,30,4,Mandarin,f,2,0.2,-52.1381203,1.31792707
Shay,141,2,2024-04-17T20:41:24.161Z,english_594.wav,0,0,212,30,4,Mandarin,f,3,0.3,77.56862162,0.76119001
Shay,141,2,2024-04-17T20:41:24.161Z,english_594.wav,0,0,212,30,4,Mandarin,f,4,0.32341667,89.7133381,1.77084997
Shay,142,2,2024-04-17T20:41:24.161Z,english_367.wav,0,0,210,30,4,Mandarin,f,0,0,69.68935346,1.12532443
Shay,142,2,2024-04-17T20:41:24.161Z,english_367.wav,0,0,210,30,4,Mandarin,f,1,0.1,-21.84293244,1.15903886
Shay,142,2,2024-04-17T20:41:24.161Z,english_367.wav,0,0,210,30,4,Mandarin,f,2,0.2,-22.40126322,1.68834661
Shay,142,2,2024-04-17T20:41:24.161Z,english_367.wav,0,0,210,30,4,Mandarin,f,3,0.3,-77.83415675,1.78966274
Shay,142,2,2024-04-17T20:41:24.161Z,english_367.wav,0,0,210,30,4,Mandarin,f,4,0.32341667,18.42522507,1.57311162
Shay,143,2,2024-04-17T20:41:24.161Z,english_670.wav,0,0,736,30,4,Mandarin,f,0,0,64.75672565,1.5535903
Shay,143,2,2024-04-17T20:41:24.161Z,english_670.wav,0,0,736,30,4,Mandarin,f,1,0.1,85.95156369,0.12522594
Shay,143,2,2024-04-17T20:41:24.161Z,english_670.wav,0,0,736,30,4,Mandarin,f,2,0.2,-44.32949438,0.22842632
Shay,143,2,2024-04-17T20:41:24.161Z,english_670.wav,0,0,736,30,4,Mandarin,f,3,0.3,22.57192219,0.17636502
Shay,143,2,2024-04-17T20:41:24.161Z,english_670.wav,0,0,736,30,4,Mandarin,f,4,0.32341667,34.74005277,0.16208776
Shay,144,2,2024-04-17T20:41:24.161Z,english_327.wav,0,0,451,30,4,Mandarin,f,0,0,-65.34261839,0.94624792
Shay,144,2,2024-04-17T20:41:24.161Z,english_327.wav,0,0,451,30,4,Mandarin,f,1,0.1,-88.88296173,0.88463276
Shay,144,2,2024-04-17T20:41:24.161Z,english_327.wav,0,0,451,30,4,Mandarin,f,2,0.2,-52.48624316,0.8064175
Shay,144,2,2024-04-17T20:41:24.161Z,english_327.wav,0,0,451,30,4,Mandarin,f,3,0.3,35.3894457,1.08656597
Shay,144,2,2024-04-17T20:41:24.161Z,english_327.wav,0,0,451,30,4,Mandarin,f,4,0.32341667,-31.26503482,0.95323019
Shay,145,2,2024-04-17T20:41:24.161Z,english_767.wav,0,0,291,30,4,Mandarin,f,0,0,29.63321135,0.17563718
Shay,145,2,2024-04-17T20:41:24.161Z,english_767.wav,0,0,291,30,4,Mandarin,f,1,0.1,-31.63783795,0.61981002
Shay,145,2,2024-04-17T20:41:24.161Z,english_767.wav,0,0,291,30,4,Mandarin,f,2,0.2,56.53254366,1.38773128
Shay,145,2,2024-04-17T20:41:24.161Z,english_767.wav,0,0,291,30,4,Mandarin,f,3,0.3,52.69149806,1.37795514
Shay,145,2,2024-04-17T20:41:24.161Z,english_767.wav,0,0,291,30,4,Mandarin,f,4,0.32341667,-0.8536295,1.97315338
Shay,146,2,2024-04-17T20:41:24.161Z,english_318.wav,0,0,477,30,4,Mandarin,f,0,0,40.16064427,0.11467793
Shay,146,2,2024-04-17T20:41:24.161Z,english_318.wav,0,0,477,30,4,Mandarin,f,1,0.1,-52.58874178,0.6224104
Shay,146,2,2024-04-17T20:41:24.161Z,english_318.wav,0,0,477,30,4,Mandarin,f,2,0.2,46.7653316,0.05328619
Shay,146,2,2024-04-17T20:41:24.161Z,english_318.wav,0,0,477,30,4,Mandarin,f,3,0.3,-41.44559589,0.01138238
Shay,146,2,2024-04-17T20:41:24.161Z,english_318.wav,0,0,477,30,4,Mandarin,f,4,0.32341667,-2.50443948,1.16020285
Shay,147,2,2024-04-17T20:41:24.161Z,english_358.wav,0,0,236,30,4,Mandarin,f,0,0,-24.40280242,0.64702298
Shay,147,2,2024-04-17T20:41:24.161Z,english_358.wav,0,0,236,30,4,Mandarin,f,1,0.1,62.18566088,0.86836285
Shay,147,2,2024-04-17T20:41:24.161Z,english_358.wav,0,0,236,30,4,Mandarin,f,2,0.2,5.26675109,1.05826104
Shay,147,2,2024-04-17T20:41:24.161Z,english_358.wav,0,0,236,30,4,Mandarin,f,3,0.3,-31.91571391,1.98011631
Shay,147,2,2024-04-17T20:41:24.161Z,english_358.wav,0,0,236,30,4,Mandarin,f,4,0.32341667,27.35112364,0.35058307
Shay,148,2,2024-04-17T20:41:24.161Z,english_691.wav,0,0,330,30,4,Mandarin,f,0,0,28.79078449,1.07683297
Shay,148,2,2024-04-17T20:41:24.161Z,english_691.wav,0,0,330,30,4,Mandarin,f,1,0.1,99.1184909,1.07376069
Shay,148,2,2024-04-17T20:41:24.161Z,english_691.wav,0,0,330,30,4,Mandarin,f,2,0.2,-54.13985733,0.28522735
Shay,148,2,2024-04-17T20:41:24.161Z,english_691.wav,0,0,330,30,4,Mandarin,f,3,0.3,-85.36319246,0.85701066
Shay,148,2,2024-04-17T20:41:24.161Z,english_691.wav,0,0,330,30,4,Mandarin,f,4,0.32341667,-73.61621094,1.71165398
Shay,149,2,2024-04-17T20:41:24.161Z,english_483.wav,0,0,360,30,4,Mandarin,f,0,0,-5.76716701,0.46419013
Shay,149,2,2024-04-17T20:41:24.161Z,english_483.wav,0,0,360,30,4,Mandarin,f,1,0.1,70.49761143,1.51640771
Shay,149,2,2024-04-17T20:41:24.161Z,english_483.wav,0,0,360,30,4,Mandarin,f,2,0.2,-45.60331281,0.16811565
Shay,149,2,2024-04-17T20:41:24.161Z,english_483.wav,0,0,360,30,4,Mandarin,f,3,0.3,83.6717315,0.53401791
Shay,149,2,2024-04-17T20:41:24.161Z,english_483.wav,0,0,360,30,4,Mandarin,f,4,0.32341667,-49.24362833,1.0404632
Shay,150,3,2024-04-17T20:45:09.171Z,english_91.wav,0,0,1079,30,4,Mandarin,f,0,0,-67.73951944,0.2772338
Shay,150,3,2024-04-17T20:45:09.171Z,english_91.wav,0,0,1079,30,4,Mandarin,f,1,0.1,83.83337034,0.0816757
Shay,150,3,2024-04-17T20:45:09.171Z,english_91.wav,0,0,1079,30,4,Mandarin,f,2,0.2,-12.75649653,0.92538416
Shay,150,3,2024-04-17T20:45:09.171Z,english_91.wav,0,0,1079,30,4,Mandarin,f,3,0.3,5.95502951,0.40714056
Shay,150,3,2024-04-17T20:45:09.171Z,english_91.wav,0,0,1079,30,4,Mandarin,f,4,0.32341667,59.56964586,1.8717525
Shay,151,3,2024-04-17T20:45:09.171Z,english_772.wav,0,1,342,30,4,Mandarin,f,0,0,-76.23750274,0.54712598
Shay,151,3,2024-04-17T20:45:09.171Z,english_772.wav,0,1,342,30,4,Mandarin,f,1,0.1,54.42820472,1.66698734
Shay,151,3,2024-04-17T20:45:09.171Z,english_772.wav,0,1,342,30,4,Mandarin,f,2,0.2,26.41325181,1.761061
Shay,151,3,2024-04-17T20:45:09.171Z,english_772.wav,0,1,342,30,4,Mandarin,f,3,0.3,14.10037165,1.80899506
Shay,151,3,2024-04-17T20:45:09.171Z,english_772.wav,0,1,342,30,4,Mandarin,f,4,0.32341667,-75.83605273,1.29882268
Shay,152,3,2024-04-17T20:45:09.171Z,english_737.wav,0,0,550,30,4,Mandarin,f,0,0,21.35751723,1.17499048
Shay,152,3,2024-04-17T20:45:09.171Z,english_737.wav,0,0,550,30,4,Mandarin,f,1,0.1,61.52152077,1.09581395
Shay,152,3,2024-04-17T20:45:09.171Z,english_737.wav,0,0,550,30,4,Mandarin,f,2,0.2,-29.75610596,0.62940412
Shay,152,3,2024-04-17T20:45:09.171Z,english_737.wav,0,0,550,30,4,Mandarin,f,3,0.3,-39.80249708,0.11793022
Shay,152,3,2024-04-17T20:45:09.171Z,english_737.wav,0,0,550,30,4,Mandarin,f,4,0.32341667,-14.64937497,0.62377861
Shay,153,3,2024-04-17T20:45:09.171Z,english_357.wav,0,0,457,30,4,Mandarin,f,0,0,76.35734026,1.14590216
Shay,153,3,2024-04-17T20:45:09.171Z,english_357.wav,0,0,457,30,4,Mandarin,f,1,0.1,-86.84267031,0.53472093
Shay,153,3,2024-04-17T20:45:09.171Z,english_357.wav,0,0,457,30,4,Mandarin,f,2,0.2,-64.6676431,0.54723503
Shay,153,3,2024-04-17T20:45:09.171Z,english_357.wav,0,0,457,30,4,Mandarin,f,3,0.3,-69.9472318,1.29334783
Shay,153,3,2024-04-17T20:45:09.171Z,english_357.wav,0,0,457,30,4,Mandarin,f,4,0.32341667,87.84988665,1.74725804
Shay,154,3,2024-04-17T20:45:09.171Z,english_557.wav,0,1,610,30,4,Mandarin,f,0,0,43.94308994,0.38165316
Shay,154,3,2024-04-17T20:45:09.171Z,english_557.wav,0,1,610,30,4,Mandarin,f,1,0.1,84.77773598,1.19567933
Shay,154,3,2024-04-17T20:45:09.171Z,english_557.wav,0,1,610,30,4,Mandarin,f,2,0.2,-14.75143777,1.35103773
Shay,154,3,2024-04-17T20:45:09.171Z,english_557.wav,0,1,610,30,4,Mandarin,f,3,0.3,-37.76141322,1.69174007
Shay,154,3,2024-04-17T20:45:09.171Z,english_557.wav,0,1,610,30,4,Mandarin,f,4,0.32341667,-5.99076179,0.4334092
Shay,155,3,2024-04-17T20:45:09.171Z,english_254.wav,0,1,850,30,4,Mandarin,f,0,0,-9.19838866,1.99657173
Shay,155,3,2024-04-17T20:45:09.171Z,english_254.wav,0,1,850,30,4,Mandarin,f,1,0.1,15.86633291,1.39044581
Shay,155,3,2024-04-17T20:45:09.171Z,english_254.wav,0,1,850,30,4,Mandarin,f,2,0.2,-42.67167238,1.09933375
Shay,155,3,2024-04-17T20:45:09.171Z,english_254.wav,0,1,850,30,4,Mandarin,f,3,0.3,-11.53254556,0.78821302
Shay,155,3,2024-04-17T20:45:09.171Z,english_254.wav,0,1,850,30,4,Mandarin,f,4,0.32341667,-12.27536806,0.39297423
Shay,156,3,2024-04-17T20:45:09.171Z,english_429.wav,0,0,1370,30,4,Mandarin,f,0,0,-70.82827187,0.34305232
Shay,156,3,2024-04-17T20:45:09.171Z,english_429.wav,0,0,1370,30,4,Mandarin,f,1,0.1,79.2644825,1.15525787
Shay,156,3,2024-04-17T20:45:09.171Z,english_429.wav,0,0,1370,30,4,Mandarin,f,2,0.2,14.29027084,1.85610569
Shay,156,3,2024-04-17T20:45:09.171Z,english_429.wav,0,0,1370,30,4,Mandarin,f,3,0.3,-47.65971945,0.19828098
Shay,156,3,2024-04-17T20:45:09.171Z,english_429.wav,0,0,1370,30,4,Mandarin,f,4,0.32341667,8.9954872,1.51767034
Shay,157,3,2024-04-17T20:45:09.171Z,english_732.wav,0,1,818,30,4,Mandarin,f,0,0,-12.49530298,1.28394154
Shay,157,3,2024-04-17T20:45:09.171Z,english_732.wav,0,1,818,30,4,Mandarin,f,1,0.1,77.35683448,1.95772399
Shay,157,3,2024-04-17T20:45:09.171Z,english_732.wav,0,1,818,30,4,Mandarin,f,2,0.2,46.14200593,1.14408971
Shay,157,3,2024-04-17T20:45:09.171Z,english_732.wav,0,1,818,30,4,Mandarin,f,3,0.3,-17.19403126,0.21034957
Shay,157,3,2024-04-17T20:45:09.171Z,english_732.wav,0,1,818,30,4,Mandarin,f,4,0.32341667,-81.60069167,0.50538316
Shay,158,3,2024-04-17T20:45:09.171Z,english_803.wav,0,0,440,30,4,Mandarin,f,0,0,8.73756077,1.22190991
Shay,158,3,2024-04-17T20:45:09.171Z,english_803.wav,0,0,440,30,4,Mandarin,f,1,0.1,-41.53503623,1.08276728
Shay,158,3,2024-04-17T20:45:09.171Z,english_803.wav,0,0,440,30,4,Mandarin,f,2,0.2,-84.76471985,1.59545905
Shay,158,3,2024-04-17T20:45:09.171Z,english_803.wav,0,0,440,30,4,Mandarin,f,3,0.3,-27.96408635,1.3875394
Shay,158,3,2024-04-17T20:45:09.171Z,english_803.wav,0,0,440,30,4,Mandarin,f,4,0.32341667,72.02290108,0.92287786
Shay,159,3,2024-04-17T20:45:09.171Z,english_303.wav,0,0,680,30,4,Mandarin,f,0,0,67.00540241,1.22520816
Shay,159,3,2024-04-17T20:45:09.171Z,english_303.wav,0,0,680,30,4,Mandarin,f,1,0.1,32.95821842,1.22732479
Shay,159,3,2024-04-17T20:45:09.171Z,english_303.wav,0,0,680,30,4,Mandarin,f,2,0.2,-23.67517146,0.54923068
Shay,159,3,2024-04-17T20:45:09.171Z,english_303.wav,0,0,680,30,4,Mandarin,f,3,0.3,-66.94926695,0.8977578
Shay,159,3,2024-04-17T20:45:09.171Z,english_303.wav,0,0,680,30,4,Mandarin,f,4,0.32341667,65.71723135,1.41807679
Shay,160,3,2024-04-17T20:45:09.171Z,english_891.wav,0,0,987,30,4,Mandarin,f,0,0,21.29241244,0.7419472
Shay,160,3,2024-04-17T20:45:09.171Z,english_891.wav,0,0,987,30,4,Mandarin,f,1,0.1,-1.23713702,1.09270952
Shay,160,3,2024-04-17T20:45:09.171Z,english_891.wav,0,0,987,30,4,Mandarin,f,2,0.2,-74.86460599,0.8129571
Shay,160,3,2024-04-17T20:45:09.171Z,english_891.wav,0,0,987,30,4,Mandarin,f,3,0.3,18.81587233,0.16019775
Shay,160,3,2024-04-17T20:45:09.171Z,english_891.wav,0,0,987,30,4,Mandarin,f,4,0.32341667,35.3489582,1.17476401
Shay,161,3,2024-04-17T20:45:09.171Z,english_876.wav,0,0,1711,30,4,Mandarin,f,0,0,-20.36884991,0.97958319
Shay,161,3,2024-04-17T20:45:09.171Z,english_876.wav,0,0,1711,30,4,Mandarin,f,1,0.1,-12.16725052,0.93484439
Shay,161,3,2024-04-17T20:45:09.171Z,english_876.wav,0,0,1711,30,4,Mandarin,f,2,0.2,-26.42868614,0.43422731
Shay,161,3,2024-04-17T20:45:09.171Z,english_876.wav,0,0,1711,30,4,Mandarin,f,3,0.3,-15.16942384,0.12359811
Shay,161,3,2024-04-17T20:45:09.171Z,english_876.wav,0,0,1711,30,4,Mandarin,f,4,0.32341667,-52.65446315,1.31629037
Shay,162,3,2024-04-17T20:45:09.171Z,english_746.wav,0,0,981,30,4,Mandarin,f,0,0,-1.32395796,1.72273729
Shay,162,3,2024-04-17T20:45:09.171Z,english_746.wav,0,0,981,30,4,Mandarin,f,1,0.1,-67.07117971,1.22961235
Shay,162,3,2024-04-17T20:45:09.171Z,english_746.wav,0,0,981,30,4,Mandarin,f,2,0.2,75.09604974,1.29107068
Shay,162,3,2024-04-17T20:45:09.171Z,english_746.wav,0,0,981,30,4,Mandarin,f,3,0.3,-48.59278454,1.34694816
Shay,162,3,2024-04-17T20:45:09.171Z,english_746.wav,0,0,981,30,4,Mandarin,f,4,0.32341667,-6.52080997,0.94274536
Shay,163,3,2024-04-17T20:45:09.171Z,english_195.wav,0,0,1010,30,4,Mandarin,f,0,0,88.76446124,0.85936173
Shay,163,3,2024-04-17T20:45:09.171Z,english_195.wav,0,0,1010,30,4,Mandarin,f,1,0.1,56.50909504,1.06337161
Shay,163,3,2024-04-17T20:45:09.171Z,english_195.wav,0,0,1010,30,4,Mandarin,f,2,0.2,-5.11157055,1.01766647
Shay,163,3,2024-04-17T20:45:09.171Z,english_195.wav,0,0,1010,30,4,Mandarin,f,3,0.3,14.19517065,1.03928052
Shay,163,3,2024-04-17T20:45:09.171Z,english_195.wav,0,0,1010,30,4,Mandarin,f,4,0.32341667,67.19148892,1.18131313
Shay,164,3,2024-04-17T20:45:09.171Z,english_394.wav,0,0,585,30,4,Mandarin,f,0,0,73.08757955,1.29313131
Shay,164,3,2024-04-17T20:45:09.171Z,english_394.wav,0,0,585,30,4,Mandarin,f,1,0.1,5.60908311,0.62691873
Shay,164,3,2024-04-17T20:45:09.171Z,english_394.wav,0,0,585,30,4,Mandarin,f,2,0.2,76.56705043,1.4938005
Shay,164,3,2024-04-17T20:45:09.171Z,english_394.wav,0,0,585,30,4,Mandarin,f,3,0.3,18.85166324,1.2266925
Shay,164,3,2024-04-17T20:45:09.171Z,english_394.wav,0,0,585,30,4,Mandarin,f,4,0.32341667,8.45052692,0.67844158
Shay,165,3,2024-04-17T20:45:09.171Z,english_600.wav,0,0,911,30,4,Mandarin,f,0,0,37.30285492,1.23507691
Shay,165,3,2024-04-17T20:45:09.171Z,english_600.wav,0,0,911,30,4,Mandarin,f,1,0.1,57.58729363,0.65453179
Shay,165,3,2024-04-17T20:45:09.171Z,english_600.wav,0,0,911,30,4,Mandarin,f,2,0.2,-74.33256695,1.70226061
Shay,165,3,2024-04-17T20:45:09.171Z,english_600.wav,0,0,911,30,4,Mandarin,f,3,0.3,-35.711252,0.4723836
Shay,165,3,2024-04-17T20:45:09.171Z,english_600.wav,0,0,911,30,4,Mandarin,f,4,0.32341667,3.54782198,0.49080622
Shay,166,3,2024-04-17T20:45:09.171Z,english_722.wav,0,0,442,30,4,Mandarin,f,0,0,56.33358757,0.09194264
Shay,166,3,2024-04-17T20:45:09.171Z,english_722.wav,0,0,442,30,4,Mandarin,f,1,0.1,-63.11389498,1.89550133
Shay,166,3,2024-04-17T20:45:09.171Z,english_722.wav,0,0,442,30,4,Mandarin,f,2,0.2,65.64746862,0.18403216
Shay,166,3,2024-04-17T20:45:09.171Z,english_722.wav,0,0,442,30,4,Mandarin,f,3,0.3,-93.10605514,1.23223326
Shay,166,3,2024-04-17T20:45:09.171Z,english_722.wav,0,0,442,30,4,Mandarin,f,4,0.32341667,-45.92743551,0.28331892
Shay,167,3,2024-04-17T20:45:09.171Z,english_546.wav,0,0,1260,30,4,Mandarin,f,0,0,81.21590514,1.56657823
Shay,167,3,2024-04-17T20:45:09.171Z,english_546.wav,0,0,1260,30,4,Mandarin,f,1,0.1,75.01018689,0.84038259
Shay,167,3,2024-04-17T20:45:09.171Z,english_546.wav,0,0,1260,30,4,Mandarin,f,2,0.2,15.56226302,0.00684501
Shay,167,3,2024-04-17T20:45:09.171Z,english_546.wav,0,0,1260,30,4,Mandarin,f,3,0.3,48.30886192,1.68157273
Shay,167,3,2024-04-17T20:45:09.171Z,english_546.wav,0,0,1260,30,4,Mandarin,f,4,0.32341667,18.80923499,1.09409739
Shay,168,3,2024-04-17T20:45:09.171Z,english_38.wav,0,0,393,30,4,Mandarin,f,0,0,-2.78484508,0.45448836
Shay,168,3,2024-04-17T20:45:09.171Z,english_38.wav,0,0,393,30,4,Mandarin,f,1,0.1,-57.68912839,0.86252605
Shay,168,3,2024-04-17T20:45:09.171Z,english_38.wav,0,0,393,30,4,Mandarin,f,2,0.2,-17.27242754,1.61904865
Shay,168,3,2024-04-17T20:45:09.171Z,english_38.wav,0,0,393,30,4,Mandarin,f,3,0.3,-2.64514482,1.39130822
Shay,168,3,2024-04-17T20:45:09.171Z,english_38.wav,0,0,393,30,4,Mandarin,f,4,0.32341667,55.14373267,1.59066599
Shay,169,3,2024-04-17T20:45:09.171Z,english_391.wav,0,0,448,30,4,Mandarin,f,0,0,67.64906061,0.41951577
Shay,169,3,2024-04-17T20:45:09.171Z,english_391.wav,0,0,448,30,4,Mandarin,f,1,0.1,79.28195584,0.03526883
Shay,169,3,2024-04-17T20:45:09.171Z,english_391.wav,0,0,448,30,4,Mandarin,f,2,0.2,62.27299227,0.81828659
Shay,169,3,2024-04-17T20:45:09.171Z,english_391.wav,0,0,448,30,4,Mandarin,f,3,0.3,-11.10764883,1.2900604
Shay,169,3,2024-04-17T20:45:09.171Z,english_391.wav,0,0,448,30,4,Mandarin,f,4,0.32341667,57.41338752,1.95373865
Shay,170,3,2024-04-17T20:45:09.171Z,english_108.wav,0,0,432,30,4,Mandarin,f,0,0,-20.69942707,0.77052949
Shay,170,3,2024-04-17T20:45:09.171Z,english_108.wav,0,0,432,30,4,Mandarin,f,1,0.1,-59.42152954,1.01445352
Shay,170,3,2024-04-17T20:45:09.171Z,english_108.wav,0,0,432,30,4,Mandarin,f,2,0.2,-8.09170222,0.42363715
Shay,170,3,2024-04-17T20:45:09.171Z,english_108.wav,0,0,432,30,4,Mandarin,f,3,0.3,21.99826779,1.45799831
Shay,170,3,2024-04-17T20:45:09.171Z,english_108.wav,0,0,432,30,4,Mandarin,f,4,0.32341667,56.38973361,1.71498507
Shay,171,3,2024-04-17T20:45:09.171Z,english_125.wav,0,0,487,30,4,Mandarin,f,0,0,-5.59692586,0.61478703
Shay,171,3,2024-04-17T20:45:09.171Z,english_125.wav,0,0,487,30,4,Mandarin,f,1,0.1,45.61970603,0.5852269
Shay,171,3,2024-04-17T20:45:09.171Z,english_125.wav,0,0,487,30,4,Mandarin,f,2,0.2,-80.48713695,1.26290546
Shay,171,3,2024-04-17T20:45:09.171Z,english_125.wav,0,0,487,30,4,Mandarin,f,3,0.3,76.65956808,1.54178375
Shay,171,3,2024-04-17T20:45:09.171Z,english_125.wav,0,0,487,30,4,Mandarin,f,4,0.32341667,-9.14506838,0.79261171
Shay,172,3,2024-04-17T20:45:09.171Z,english_631.wav,0,0,305,30,4,Mandarin,f,0,0,-74.37700429,0.77307226
Shay,172,3,2024-04-17T20:45:09.171Z,english_631.wav,0,0,305,30,4,Mandarin,f,1,0.1,-18.72790858,0.75923189
Shay,172,3,2024-04-17T20:45:09.171Z,english_631.wav,0,0,305,30,4,Mandarin,f,2,0.2,-40.03216697,1.00825659
Shay,172,3,2024-04-17T20:45:09.171Z,english_631.wav,0,0,305,30,4,Mandarin,f,3,0.3,-98.5967418,1.46579839
Shay,172,3,2024-04-17T20:45:09.171Z,english_631.wav,0,0,305,30,4,Mandarin,f,4,0.32341667,-41.89017921,0.34107994
Shay,173,3,2024-04-17T20:45:09.171Z,english_845.wav,0,0,456,30,4,Mandarin,f,0,0,-39.21264236,0.82761504
Shay,173,3,2024-04-17T20:45:09.171Z,english_845.wav,0,0,456,30,4,Mandarin,f,1,0.1,99.78041888,0.53375751
Shay,173,3,2024-04-17T20:45:09.171Z,english_845.wav,0,0,456,30,4,Mandarin,f,2,0.2,-59.29104422,1.24236426
Shay,173,3,2024-04-17T20:45:09.171Z,english_845.wav,0,0,456,30,4,Mandarin,f,3,0.3,57.0409613,1.27736464
Shay,173,3,2024-04-17T20:45:09.171Z,english_845.wav,0,0,456,30,4,Mandarin,f,4,0.32341667,-93.6361214,0.79024728
Shay,174,3,2024-04-17T20:45:09.171Z,english_228.wav,0,0,630,30,4,Mandarin,f,0,0,10.35680964,1.81276751
Shay,174,3,2024-04-17T20:45:09.171Z,english_228.wav,0,0,630,30,4,Mandarin,f,1,0.1,-84.53961792,0.9819477
Shay,174,3,2024-04-17T20:45:09.171Z,english_228.wav,0,0,630,30,4,Mandarin,f,2,0.2,38.41788342,1.68506606
Shay,174,3,2024-04-17T20:45:09.171Z,english_228.wav,0,0,630,30,4,Mandarin,f,3,0.3,-9.18015311,0.19219142
Shay,174,3,2024-04-17T20:45:09.171Z,english_228.wav,0,0,630,30,4,Mandarin,f,4,0.32341667,-12.25744947,1.99636764
Shay,175,3,2024-04-17T20:45:09.171Z,english_257.wav,0,1,810,30,4,Mandarin,f,0,0,-68.31428674,1.40239735
Shay,175,3,2024-04-17T20:45:09.171Z,english_257.wav,0,1,810,30,4,Mandarin,f,1,0.1,-13.90908686,1.49673114
Shay,175,3,2024-04-17T20:45:09.171Z,english_257.wav,0,1,810,30,4,Mandarin,f,2,0.2,54.08743226,1.07658057
Shay,175,3,2024-04-17T20:45:09.171Z,english_257.wav,0,1,810,30,4,Mandarin,f,3,0.3,-42.73693867,0.27427112
Shay,175,3,2024-04-17T20:45:09.171Z,english_257.wav,0,1,810,30,4,Mandarin,f,4,0.32341667,-1.03846516,1.90516482
Shay,176,3,2024-04-17T20:45:09.171Z,english_399.wav,0,1,498,30,4,Mandarin,f,0,0,77.00947727,0.99570417
Shay,176,3,2024-04-17T20:45:09.171Z,english_399.wav,0,1,498,30,4,Mandarin,f,1,0.1,68.68212777,1.08385584
Shay,176,3,2024-04-17T20:45:09.171Z,english_399.wav,0,1,498,30,4,Mandarin,f,2,0.2,29.89909441,0.2210854
Shay,176,3,2024-04-17T20:45:09.171Z,english_399.wav,0,1,498,30,4,Mandarin,f,3,0.3,-37.60275897,0.41623588
Shay,176,3,2024-04-17T20:45:09.171Z,english_399.wav,0,1,498,30,4,Mandarin,f,4,0.32341667,-61.49193386,0.38461981
Shay,177,3,2024-04-17T20:45:09.171Z,english_421.wav,0,0,439,30,4,Mandarin,f,0,0,25.39012861,1.47358925
Shay,177,3,2024-04-17T20:45:09.171Z,english_421.wav,0,0,439,30,4,Mandarin,f,1,0.1,49.11153532,1.20920516
Shay,177,3,2024-04-17T20:45:09.171Z,english_421.wav,0,0,439,30,4,Mandarin,f,2,0.2,38.93723883,0.72174872
Shay,177,3,2024-04-17T20:45:09.171Z,english_421.wav,0,0,439,30,4,Mandarin,f,3,0.3,-9.34286459,0.24556907
Shay,177,3,2024-04-17T20:45:09.171Z,english_421.wav,0,0,439,30,4,Mandarin,f,4,0.32341667,-9.28476392,0.87006143
Shay,178,3,2024-04-17T20:45:09.171Z,english_74.wav,0,0,382,30,4,Mandarin,f,0,0,86.29588785,1.196208
Shay,178,3,2024-04-17T20:45:09.171Z,english_74.wav,0,0,382,30,4,Mandarin,f,1,0.1,-14.52381687,1.63208143
Shay,178,3,2024-04-17T20:45:09.171Z,english_74.wav,0,0,382,30,4,Mandarin,f,2,0.2,77.94321906,0.46125368
Shay,178,3,2024-04-17T20:45:09.171Z,english_74.wav,0,0,382,30,4,Mandarin,f,3,0.3,-32.33104188,1.38278461
Shay,178,3,2024-04-17T20:45:09.171Z,english_74.wav,0,0,382,30,4,Mandarin,f,4,0.32341667,9.46602754,0.83147108
Shay,179,3,2024-04-17T20:45:09.171Z,english_980.wav,0,0,379,30,4,Mandarin,f,0,0,-32.33629208,1.21290567
Shay,179,3,2024-04-17T20:45:09.171Z,english_980.wav,0,0,379,30,4,Mandarin,f,1,0.1,-4.4140807,0.22350007
Shay,179,3,2024-04-17T20:45:09.171Z,english_980.wav,0,0,379,30,4,Mandarin,f,2,0.2,76.81412515,1.68078519
Shay,179,3,2024-04-17T20:45:09.171Z,english_980.wav,0,0,379,30,4,Mandarin,f,3,0.3,-16.24877133,0.16816052
Shay,179,3,2024-04-17T20:45:09.171Z,english_980.wav,0,0,379,30,4,Mandarin,f,4,0.32341667,-26.44128118,1.48722631
Shay,180,3,2024-04-17T20:45:09.171Z,english_785.wav,0,0,967,30,4,Mandarin,f,0,0,41.51350967,0.93543931
Shay,180,3,2024-04-17T20:45:09.171Z,english_785.wav,0,0,967,30,4,Mandarin,f,1,0.1,26.23517368,1.17819894
Shay,180,3,2024-04-17T20:45:09.171Z,english_785.wav,0,0,967,30,4,Mandarin,f,2,0.2,-12.63822228,1.98833146
Shay,180,3,2024-04-17T20:45:09.171Z,english_785.wav,0,0,967,30,4,Mandarin,f,3,0.3,-30.66588474,0.80021218
Shay,180,3,2024-04-17T20:45:09.171Z,english_785.wav,0,0,967,30,4,Mandarin,f,4,0.32341667,26.08399401,1.2737519
Shay,181,3,2024-04-17T20:45:09.171Z,english_9.wav,0,1,978,30,4,Mandarin,f,0,0,24.77706225,1.13145128
Shay,181,3,2024-04-17T20:45:09.171Z,english_9.wav,0,1,978,30,4,Mandarin,f,1,0.1,91.05524194,1.19326311
Shay,181,3,2024-04-17T20:45:09.171Z,english_9.wav,0,1,978,30,4,Mandarin,f,2,0.2,30.20964975,1.50029029
Shay,181,3,2024-04-17T20:45:09.171Z,english_9.wav,0,1,978,30,4,Mandarin,f,3,0.3,-69.66301283,1.4622179
Shay,181,3,2024-04-17T20:45:09.171Z,english_9.wav,0,1,978,30,4,Mandarin,f,4,0.32341667,-3.83240646,1.9316504
Shay,182,3,2024-04-17T20:45:09.171Z,english_137.wav,0,0,848,30,4,Mandarin,f,0,0,-81.54177422,0.16940048
Shay,182,3,2024-04-17T20:45:09.171Z,english_137.wav,0,0,848,30,4,Mandarin,f,1,0.1,48.50229113,1.33204053
Shay,182,3,2024-04-17T20:45:09.171Z,english_137.wav,0,0,848,30,4,Mandarin,f,2,0.2,-43.40912925,1.8593258
Shay,182,3,2024-04-17T20:45:09.171Z,english_137.wav,0,0,848,30,4,Mandarin,f,3,0.3,54.89578869,1.77805515
Shay,182,3,2024-04-17T20:45:09.171Z,english_137.wav,0,0,848,30,4,Mandarin,f,4,0.32341667,90.09778797,1.80981769
Shay,183,3,2024-04-17T20:45:09.171Z,english_944.wav,0,0,461,30,4,Mandarin,f,0,0,70.24274457,0.61048125
Shay,183,3,2024-04-17T20:45:09.171Z,english_944.wav,0,0,461,30,4,Mandarin,f,1,0.1,-48.79231442,1.63310511
Shay,183,3,2024-04-17T20:45:09.171Z,english_944.wav,0,0,461,30,4,Mandarin,f,2,0.2,-6.42324239,0.21687347
Shay,183,3,2024-04-17T20:45:09.171Z,english_944.wav,0,0,461,30,4,Mandarin,f,3,0.3,-7.7338836,0.45027042
Shay,183,3,2024-04-17T20:45:09.171Z,english_944.wav,0,0,461,30,4,Mandarin,f,4,0.32341667,69.46240638,0.90306897
Shay,184,3,2024-04-17T20:45:09.171Z,english_456.wav,0,0,467,30,4,Mandarin,f,0,0,43.57092671,0.12750432
Shay,184,3,2024-04-17T20:45:09.171Z,english_456.wav,0,0,467,30,4,Mandarin,f,1,0.1,59.73787768,0.97340157
Shay,184,3,2024-04-17T20:45:09.171Z,english_456.wav,0,0,467,30,4,Mandarin,f,2,0.2,82.18665257,0.43547726
Shay,184,3,2024-04-17T20:45:09.171Z,english_456.wav,0,0,467,30,4,Mandarin,f,3,0.3,84.09992258,1.17970357
Shay,184,3,2024-04-17T20:45:09.171Z,english_456.wav,0,0,467,30,4,Mandarin,f,4,0.32341667,14.68455092,0.64309566
Shay,185,3,2024-04-17T20:45:09.171Z,english_47.wav,0,0,433,30,4,Mandarin,f,0,0,70.62381491,1.36620222
Shay,185,3,2024-04-17T20:45:09.171Z,english_47.wav,0,0,433,30,4,Mandarin,f,1,0.1,-43.60565268,0.47559644
Shay,185,3,2024-04-17T20:45:09.171Z,english_47.wav,0,0,433,30,4,Mandarin,f,2,0.2,29.54670776,0.92078875
Shay,185,3,2024-04-17T20:45:09.171Z,english_47.wav,0,0,433,30,4,Mandarin,f,3,0.3,95.208653,0.83015506
Shay,185,3,2024-04-17T20:45:09.171Z,english_47.wav,0,0,433,30,4,Mandarin,f,4,0.32341667,-87.83630424,1.40747595
Shay,186,3,2024-04-17T20:45:09.171Z,english_779.wav,0,0,526,30,4,Mandarin,f,0,0,-66.48303018,1.22216448
Shay,186,3,2024-04-17T20:45:09.171Z,english_779.wav,0,0,526,30,4,Mandarin,f,1,0.1,55.33592885,1.30288261
Shay,186,3,2024-04-17T20:45:09.171Z,english_779.wav,0,0,526,30,4,Mandarin,f,2,0.2,67.38671669,0.25409759
Shay,186,3,2024-04-17T20:45:09.171Z,english_779.wav,0,0,526,30,4,Mandarin,f,3,0.3,65.49052189,1.76174581
Shay,186,3,2024-04-17T20:45:09.171Z,english_779.wav,0,0,526,30,4,Mandarin,f,4,0.32341667,-12.12955258,0.12280057
Shay,187,3,2024-04-17T20:45:09.171Z,english_180.wav,0,0,577,30,4,Mandarin,f,0,0,-79.96502932,0.84610218
Shay,187,3,2024-04-17T20:45:09.171Z,english_180.wav,0,0,577,30,4,Mandarin,f,1,0.1,33.21752916,1.88919334
Shay,187,3,2024-04-17T20:45:09.171Z,english_180.wav,0,0,577,30,4,Mandarin,f,2,0.2,-97.52705813,0.18699196
Shay,187,3,2024-04-17T20:45:09.171Z,english_180.wav,0,0,577,30,4,Mandarin,f,3,0.3,42.51331828,0.0366283
Shay,187,3,2024-04-17T20:45:09.171Z,english_180.wav,0,0,577,30,4,Mandarin,f,4,0.32341667,-42.98571984,0.95813987
Shay,188,3,2024-04-17T20:45:09.171Z,english_924.wav,0,0,395,30,4,Mandarin,f,0,0,63.64154058,1.83477076
Shay,188,3,2024-04-17T20:45:09.171Z,english_924.wav,0,0,395,30,4,Mandarin,f,1,0.1,-60.55254199,0.21366754
Shay,188,3,2024-04-17T20:45:09.171Z,english_924.wav,0,0,395,30,4,Mandarin,f,2,0.2,-47.94670646,1.07859551
Shay,188,3,2024-04-17T20:45:09.171Z,english_924.wav,0,0,395,30,4,Mandarin,f,3,0.3,-76.50696127,1.9507375
Shay,188,3,2024-04-17T20:45:09.171Z,english_924.wav,0,0,395,30,4,Mandarin,f,4,0.32341667,44.23103111,1.33476666
