subj,trial,block,date,stim,stim_order,response,rt,age,english,language,sex,param_index,segment,pitch,stretch
QH,0,0,2024-06-14T13:16:53.165Z,english_260.wav,0,0,4682,22,3,chinese,m,0,0,-45.73422918,1.75247731
QH,0,0,2024-06-14T13:16:53.165Z,english_260.wav,0,0,4682,22,3,chinese,m,1,0.1,-23.757295,1.29821829
QH,0,0,2024-06-14T13:16:53.165Z,english_260.wav,0,0,4682,22,3,chinese,m,2,0.2,-1.17180464,0.50372963
QH,0,0,2024-06-14T13:16:53.165Z,english_260.wav,0,0,4682,22,3,chinese,m,3,0.3,42.98000529,1.19905143
QH,0,0,2024-06-14T13:16:53.165Z,english_260.wav,0,0,4682,22,3,chinese,m,4,0.32341667,7.49715463,0.66690199
QH,1,0,2024-06-14T13:16:53.165Z,english_172.wav,0,0,5457,22,3,chinese,m,0,0,8.59493981,0.93080222
QH,1,0,2024-06-14T13:16:53.165Z,english_172.wav,0,0,5457,22,3,chinese,m,1,0.1,-56.34346079,0.53387901
QH,1,0,2024-06-14T13:16:53.165Z,english_172.wav,0,0,5457,22,3,chinese,m,2,0.2,-95.76423912,0.34406097
QH,1,0,2024-06-14T13:16:53.165Z,english_172.wav,0,0,5457,22,3,chinese,m,3,0.3,11.69646411,0.74935371
QH,1,0,2024-06-14T13:16:53.165Z,english_172.wav,0,0,5457,22,3,chinese,m,4,0.32341667,-55.10661496,0.42041327
QH,2,0,2024-06-14T13:16:53.165Z,english_264.wav,0,1,1462,22,3,chinese,m,0,0,16.10521774,1.02407609
QH,2,0,2024-06-14T13:16:53.165Z,english_264.wav,0,1,1462,22,3,chinese,m,1,0.1,-43.55481907,1.4393598
QH,2,0,2024-06-14T13:16:53.165Z,english_264.wav,0,1,1462,22,3,chinese,m,2,0.2,-16.87093852,1.31552174
QH,2,0,2024-06-14T13:16:53.165Z,english_264.wav,0,1,1462,22,3,chinese,m,3,0.3,-81.41755984,1.17516842
QH,2,0,2024-06-14T13:16:53.165Z,english_264.wav,0,1,1462,22,3,chinese,m,4,0.32341667,-76.00277997,0.613195
QH,3,0,2024-06-14T13:16:53.165Z,english_280.wav,0,0,6353,22,3,chinese,m,0,0,88.60957906,0.0301642
QH,3,0,2024-06-14T13:16:53.165Z,english_280.wav,0,0,6353,22,3,chinese,m,1,0.1,84.68226706,1.61205195
QH,3,0,2024-06-14T13:16:53.165Z,english_280.wav,0,0,6353,22,3,chinese,m,2,0.2,-77.43679957,1.42137195
QH,3,0,2024-06-14T13:16:53.165Z,english_280.wav,0,0,6353,22,3,chinese,m,3,0.3,45.11946934,1.73240953
QH,3,0,2024-06-14T13:16:53.165Z,english_280.wav,0,0,6353,22,3,chinese,m,4,0.32341667,-36.96988582,0.09602122
QH,4,0,2024-06-14T13:16:53.165Z,english_635.wav,0,0,6203,22,3,chinese,m,0,0,27.7169436,1.98702335
QH,4,0,2024-06-14T13:16:53.165Z,english_635.wav,0,0,6203,22,3,chinese,m,1,0.1,-44.8292656,1.27737447
QH,4,0,2024-06-14T13:16:53.165Z,english_635.wav,0,0,6203,22,3,chinese,m,2,0.2,67.97685769,0.57401651
QH,4,0,2024-06-14T13:16:53.165Z,english_635.wav,0,0,6203,22,3,chinese,m,3,0.3,82.0264667,0.46134276
QH,4,0,2024-06-14T13:16:53.165Z,english_635.wav,0,0,6203,22,3,chinese,m,4,0.32341667,84.34985253,0.71235155
QH,5,0,2024-06-14T13:16:53.165Z,english_449.wav,0,1,1457,22,3,chinese,m,0,0,-46.54576765,0.60085197
QH,5,0,2024-06-14T13:16:53.165Z,english_449.wav,0,1,1457,22,3,chinese,m,1,0.1,20.05422573,1.74901032
QH,5,0,2024-06-14T13:16:53.165Z,english_449.wav,0,1,1457,22,3,chinese,m,2,0.2,54.52400621,1.9506545
QH,5,0,2024-06-14T13:16:53.165Z,english_449.wav,0,1,1457,22,3,chinese,m,3,0.3,73.66855139,1.81044704
QH,5,0,2024-06-14T13:16:53.165Z,english_449.wav,0,1,1457,22,3,chinese,m,4,0.32341667,-1.88675615,0.93562966
QH,6,0,2024-06-14T13:16:53.165Z,english_342.wav,0,1,2179,22,3,chinese,m,0,0,78.00911228,0.99673345
QH,6,0,2024-06-14T13:16:53.165Z,english_342.wav,0,1,2179,22,3,chinese,m,1,0.1,-28.67768894,1.80563483
QH,6,0,2024-06-14T13:16:53.165Z,english_342.wav,0,1,2179,22,3,chinese,m,2,0.2,73.55618202,1.38552336
QH,6,0,2024-06-14T13:16:53.165Z,english_342.wav,0,1,2179,22,3,chinese,m,3,0.3,93.0509223,0.17145116
QH,6,0,2024-06-14T13:16:53.165Z,english_342.wav,0,1,2179,22,3,chinese,m,4,0.32341667,-2.74816459,0.15059009
QH,7,0,2024-06-14T13:16:53.165Z,english_37.wav,0,1,2772,22,3,chinese,m,0,0,-5.54999706,1.12257854
QH,7,0,2024-06-14T13:16:53.165Z,english_37.wav,0,1,2772,22,3,chinese,m,1,0.1,23.22206304,1.8669628
QH,7,0,2024-06-14T13:16:53.165Z,english_37.wav,0,1,2772,22,3,chinese,m,2,0.2,-57.36481589,0.39386712
QH,7,0,2024-06-14T13:16:53.165Z,english_37.wav,0,1,2772,22,3,chinese,m,3,0.3,58.0578648,1.21765674
QH,7,0,2024-06-14T13:16:53.165Z,english_37.wav,0,1,2772,22,3,chinese,m,4,0.32341667,66.03280024,0.74428952
QH,8,0,2024-06-14T13:16:53.165Z,english_68.wav,0,0,3144,22,3,chinese,m,0,0,-23.38152803,1.83565324
QH,8,0,2024-06-14T13:16:53.165Z,english_68.wav,0,0,3144,22,3,chinese,m,1,0.1,-36.0918901,0.35162477
QH,8,0,2024-06-14T13:16:53.165Z,english_68.wav,0,0,3144,22,3,chinese,m,2,0.2,65.46592862,1.10705723
QH,8,0,2024-06-14T13:16:53.165Z,english_68.wav,0,0,3144,22,3,chinese,m,3,0.3,48.57602628,1.09550925
QH,8,0,2024-06-14T13:16:53.165Z,english_68.wav,0,0,3144,22,3,chinese,m,4,0.32341667,-93.64245591,0.05753383
QH,9,0,2024-06-14T13:16:53.165Z,english_380.wav,0,1,2317,22,3,chinese,m,0,0,-44.61260121,1.04167661
QH,9,0,2024-06-14T13:16:53.165Z,english_380.wav,0,1,2317,22,3,chinese,m,1,0.1,-47.89967478,0.43386817
QH,9,0,2024-06-14T13:16:53.165Z,english_380.wav,0,1,2317,22,3,chinese,m,2,0.2,34.91352544,0.93219588
QH,9,0,2024-06-14T13:16:53.165Z,english_380.wav,0,1,2317,22,3,chinese,m,3,0.3,-71.89465654,0.8109376
QH,9,0,2024-06-14T13:16:53.165Z,english_380.wav,0,1,2317,22,3,chinese,m,4,0.32341667,84.67713906,0.64473949
QH,10,0,2024-06-14T13:16:53.165Z,english_377.wav,0,1,1067,22,3,chinese,m,0,0,74.10679581,1.90218841
QH,10,0,2024-06-14T13:16:53.165Z,english_377.wav,0,1,1067,22,3,chinese,m,1,0.1,-97.36412995,1.60160035
QH,10,0,2024-06-14T13:16:53.165Z,english_377.wav,0,1,1067,22,3,chinese,m,2,0.2,-84.25672888,1.668912
QH,10,0,2024-06-14T13:16:53.165Z,english_377.wav,0,1,1067,22,3,chinese,m,3,0.3,27.09308902,1.51590505
QH,10,0,2024-06-14T13:16:53.165Z,english_377.wav,0,1,1067,22,3,chinese,m,4,0.32341667,-12.33253686,0.99909344
QH,11,0,2024-06-14T13:25:55.793Z,english_458.wav,0,1,1996,22,3,chinese,m,0,0,-49.69821038,0.39452057
QH,11,0,2024-06-14T13:25:55.793Z,english_458.wav,0,1,1996,22,3,chinese,m,1,0.1,-49.80647014,1.24604375
QH,11,0,2024-06-14T13:25:55.793Z,english_458.wav,0,1,1996,22,3,chinese,m,2,0.2,11.98261521,0.42272405
QH,11,0,2024-06-14T13:25:55.793Z,english_458.wav,0,1,1996,22,3,chinese,m,3,0.3,59.43319096,0.21259233
QH,11,0,2024-06-14T13:25:55.793Z,english_458.wav,0,1,1996,22,3,chinese,m,4,0.32341667,-34.5671642,1.13235362
QH,12,0,2024-06-14T13:25:55.793Z,english_431.wav,0,1,3023,22,3,chinese,m,0,0,-28.91437381,1.3282391
QH,12,0,2024-06-14T13:25:55.793Z,english_431.wav,0,1,3023,22,3,chinese,m,1,0.1,30.6479342,1.9405757
QH,12,0,2024-06-14T13:25:55.793Z,english_431.wav,0,1,3023,22,3,chinese,m,2,0.2,41.25713347,1.67607787
QH,12,0,2024-06-14T13:25:55.793Z,english_431.wav,0,1,3023,22,3,chinese,m,3,0.3,9.19018397,0.62213613
QH,12,0,2024-06-14T13:25:55.793Z,english_431.wav,0,1,3023,22,3,chinese,m,4,0.32341667,-61.77590044,0.50881411
QH,13,0,2024-06-14T13:25:55.793Z,english_451.wav,0,0,695,22,3,chinese,m,0,0,-87.31297583,0.44823779
QH,13,0,2024-06-14T13:25:55.793Z,english_451.wav,0,0,695,22,3,chinese,m,1,0.1,-44.51362963,0.44678563
QH,13,0,2024-06-14T13:25:55.793Z,english_451.wav,0,0,695,22,3,chinese,m,2,0.2,-15.52945473,1.69444841
QH,13,0,2024-06-14T13:25:55.793Z,english_451.wav,0,0,695,22,3,chinese,m,3,0.3,11.70886435,0.18586344
QH,13,0,2024-06-14T13:25:55.793Z,english_451.wav,0,0,695,22,3,chinese,m,4,0.32341667,82.84342256,0.9677256
QH,14,0,2024-06-14T13:25:55.793Z,english_896.wav,0,0,1071,22,3,chinese,m,0,0,-76.63716622,1.08893336
QH,14,0,2024-06-14T13:25:55.793Z,english_896.wav,0,0,1071,22,3,chinese,m,1,0.1,-73.11298951,0.41748987
QH,14,0,2024-06-14T13:25:55.793Z,english_896.wav,0,0,1071,22,3,chinese,m,2,0.2,48.53347054,0.32012442
QH,14,0,2024-06-14T13:25:55.793Z,english_896.wav,0,0,1071,22,3,chinese,m,3,0.3,-4.46661278,0.63387312
QH,14,0,2024-06-14T13:25:55.793Z,english_896.wav,0,0,1071,22,3,chinese,m,4,0.32341667,-44.69533701,1.27766005
QH,15,0,2024-06-14T13:25:55.793Z,english_258.wav,0,1,583,22,3,chinese,m,0,0,-7.1133109,1.89026761
QH,15,0,2024-06-14T13:25:55.793Z,english_258.wav,0,1,583,22,3,chinese,m,1,0.1,44.58564752,1.79361992
QH,15,0,2024-06-14T13:25:55.793Z,english_258.wav,0,1,583,22,3,chinese,m,2,0.2,45.36800295,0.43687845
QH,15,0,2024-06-14T13:25:55.793Z,english_258.wav,0,1,583,22,3,chinese,m,3,0.3,25.81301737,0.04688612
QH,15,0,2024-06-14T13:25:55.793Z,english_258.wav,0,1,583,22,3,chinese,m,4,0.32341667,-77.97513924,0.52567924
QH,16,0,2024-06-14T13:25:55.793Z,english_842.wav,0,1,1339,22,3,chinese,m,0,0,-48.5952207,0.12382156
QH,16,0,2024-06-14T13:25:55.793Z,english_842.wav,0,1,1339,22,3,chinese,m,1,0.1,29.19485822,1.75564688
QH,16,0,2024-06-14T13:25:55.793Z,english_842.wav,0,1,1339,22,3,chinese,m,2,0.2,84.54328152,0.24815543
QH,16,0,2024-06-14T13:25:55.793Z,english_842.wav,0,1,1339,22,3,chinese,m,3,0.3,69.99994667,1.2885643
QH,16,0,2024-06-14T13:25:55.793Z,english_842.wav,0,1,1339,22,3,chinese,m,4,0.32341667,56.72069463,0.70518165
QH,17,0,2024-06-14T13:25:55.793Z,english_223.wav,0,1,964,22,3,chinese,m,0,0,-51.58222533,0.62889348
QH,17,0,2024-06-14T13:25:55.793Z,english_223.wav,0,1,964,22,3,chinese,m,1,0.1,-36.02700064,1.73736573
QH,17,0,2024-06-14T13:25:55.793Z,english_223.wav,0,1,964,22,3,chinese,m,2,0.2,-35.4915315,1.20130681
QH,17,0,2024-06-14T13:25:55.793Z,english_223.wav,0,1,964,22,3,chinese,m,3,0.3,1.26892628,0.53176439
QH,17,0,2024-06-14T13:25:55.793Z,english_223.wav,0,1,964,22,3,chinese,m,4,0.32341667,72.37143842,1.24562253
QH,18,0,2024-06-14T13:25:55.793Z,english_407.wav,0,1,1345,22,3,chinese,m,0,0,-13.68776922,0.77658743
QH,18,0,2024-06-14T13:25:55.793Z,english_407.wav,0,1,1345,22,3,chinese,m,1,0.1,-57.11899702,1.53398674
QH,18,0,2024-06-14T13:25:55.793Z,english_407.wav,0,1,1345,22,3,chinese,m,2,0.2,62.94325807,0.70379875
QH,18,0,2024-06-14T13:25:55.793Z,english_407.wav,0,1,1345,22,3,chinese,m,3,0.3,-27.77030003,0.72470084
QH,18,0,2024-06-14T13:25:55.793Z,english_407.wav,0,1,1345,22,3,chinese,m,4,0.32341667,-61.90605897,0.771678
QH,19,0,2024-06-14T13:25:55.793Z,english_665.wav,0,0,796,22,3,chinese,m,0,0,-25.08423312,1.80265724
QH,19,0,2024-06-14T13:25:55.793Z,english_665.wav,0,0,796,22,3,chinese,m,1,0.1,-88.66042782,0.10063576
QH,19,0,2024-06-14T13:25:55.793Z,english_665.wav,0,0,796,22,3,chinese,m,2,0.2,-73.67467666,0.92910111
QH,19,0,2024-06-14T13:25:55.793Z,english_665.wav,0,0,796,22,3,chinese,m,3,0.3,66.53606028,0.83814709
QH,19,0,2024-06-14T13:25:55.793Z,english_665.wav,0,0,796,22,3,chinese,m,4,0.32341667,-75.03630793,0.77033789
QH,20,0,2024-06-14T13:25:55.793Z,english_872.wav,0,0,1081,22,3,chinese,m,0,0,0.56374655,0.10935802
QH,20,0,2024-06-14T13:25:55.793Z,english_872.wav,0,0,1081,22,3,chinese,m,1,0.1,-70.88107799,0.91778609
QH,20,0,2024-06-14T13:25:55.793Z,english_872.wav,0,0,1081,22,3,chinese,m,2,0.2,6.46677515,1.38740199
QH,20,0,2024-06-14T13:25:55.793Z,english_872.wav,0,0,1081,22,3,chinese,m,3,0.3,-23.51354109,0.12682507
QH,20,0,2024-06-14T13:25:55.793Z,english_872.wav,0,0,1081,22,3,chinese,m,4,0.32341667,81.64578493,0.71067476
QH,21,0,2024-06-14T13:25:55.793Z,english_619.wav,0,1,618,22,3,chinese,m,0,0,38.53351318,1.25542912
QH,21,0,2024-06-14T13:25:55.793Z,english_619.wav,0,1,618,22,3,chinese,m,1,0.1,-11.21157995,0.83005785
QH,21,0,2024-06-14T13:25:55.793Z,english_619.wav,0,1,618,22,3,chinese,m,2,0.2,29.79887689,1.51254928
QH,21,0,2024-06-14T13:25:55.793Z,english_619.wav,0,1,618,22,3,chinese,m,3,0.3,48.6384615,0.37972577
QH,21,0,2024-06-14T13:25:55.793Z,english_619.wav,0,1,618,22,3,chinese,m,4,0.32341667,-66.5905708,0.44889873
QH,22,0,2024-06-14T13:25:55.793Z,english_602.wav,0,1,650,22,3,chinese,m,0,0,-53.18857274,1.95117352
QH,22,0,2024-06-14T13:25:55.793Z,english_602.wav,0,1,650,22,3,chinese,m,1,0.1,-52.96167371,1.1427253
QH,22,0,2024-06-14T13:25:55.793Z,english_602.wav,0,1,650,22,3,chinese,m,2,0.2,38.20784676,1.10694813
QH,22,0,2024-06-14T13:25:55.793Z,english_602.wav,0,1,650,22,3,chinese,m,3,0.3,46.0178344,0.8717932
QH,22,0,2024-06-14T13:25:55.793Z,english_602.wav,0,1,650,22,3,chinese,m,4,0.32341667,78.11630752,0.71626065
QH,23,0,2024-06-14T13:25:55.793Z,english_553.wav,0,1,441,22,3,chinese,m,0,0,-18.85071283,1.30647824
QH,23,0,2024-06-14T13:25:55.793Z,english_553.wav,0,1,441,22,3,chinese,m,1,0.1,56.72439372,1.55205535
QH,23,0,2024-06-14T13:25:55.793Z,english_553.wav,0,1,441,22,3,chinese,m,2,0.2,-32.51510613,1.79127341
QH,23,0,2024-06-14T13:25:55.793Z,english_553.wav,0,1,441,22,3,chinese,m,3,0.3,-81.56708954,0.1795284
QH,23,0,2024-06-14T13:25:55.793Z,english_553.wav,0,1,441,22,3,chinese,m,4,0.32341667,42.80590219,0.48805839
QH,24,0,2024-06-14T13:25:55.793Z,english_219.wav,0,0,494,22,3,chinese,m,0,0,38.40040381,1.09142553
QH,24,0,2024-06-14T13:25:55.793Z,english_219.wav,0,0,494,22,3,chinese,m,1,0.1,-26.23926727,0.5740428
QH,24,0,2024-06-14T13:25:55.793Z,english_219.wav,0,0,494,22,3,chinese,m,2,0.2,-57.67558578,1.19056911
QH,24,0,2024-06-14T13:25:55.793Z,english_219.wav,0,0,494,22,3,chinese,m,3,0.3,50.56926795,1.87089358
QH,24,0,2024-06-14T13:25:55.793Z,english_219.wav,0,0,494,22,3,chinese,m,4,0.32341667,64.39220397,1.06933149
QH,25,0,2024-06-14T13:25:55.793Z,english_285.wav,0,0,746,22,3,chinese,m,0,0,-19.0536712,1.18823065
QH,25,0,2024-06-14T13:25:55.793Z,english_285.wav,0,0,746,22,3,chinese,m,1,0.1,-63.15395986,1.010644
QH,25,0,2024-06-14T13:25:55.793Z,english_285.wav,0,0,746,22,3,chinese,m,2,0.2,-57.682926,0.4943662
QH,25,0,2024-06-14T13:25:55.793Z,english_285.wav,0,0,746,22,3,chinese,m,3,0.3,-56.52362331,0.66348991
QH,25,0,2024-06-14T13:25:55.793Z,english_285.wav,0,0,746,22,3,chinese,m,4,0.32341667,11.40665652,0.86242978
QH,26,0,2024-06-14T13:25:55.793Z,english_447.wav,0,0,569,22,3,chinese,m,0,0,38.77193801,0.52212734
QH,26,0,2024-06-14T13:25:55.793Z,english_447.wav,0,0,569,22,3,chinese,m,1,0.1,-3.53992528,0.58948567
QH,26,0,2024-06-14T13:25:55.793Z,english_447.wav,0,0,569,22,3,chinese,m,2,0.2,54.1888363,0.60662966
QH,26,0,2024-06-14T13:25:55.793Z,english_447.wav,0,0,569,22,3,chinese,m,3,0.3,-95.90180003,0.73195254
QH,26,0,2024-06-14T13:25:55.793Z,english_447.wav,0,0,569,22,3,chinese,m,4,0.32341667,48.32118178,0.21856551
QH,27,0,2024-06-14T13:25:55.793Z,english_296.wav,0,1,2031,22,3,chinese,m,0,0,-4.92142852,1.99305172
QH,27,0,2024-06-14T13:25:55.793Z,english_296.wav,0,1,2031,22,3,chinese,m,1,0.1,-5.74196289,0.92633133
QH,27,0,2024-06-14T13:25:55.793Z,english_296.wav,0,1,2031,22,3,chinese,m,2,0.2,76.26647078,0.44879969
QH,27,0,2024-06-14T13:25:55.793Z,english_296.wav,0,1,2031,22,3,chinese,m,3,0.3,-62.74030654,1.47417428
QH,27,0,2024-06-14T13:25:55.793Z,english_296.wav,0,1,2031,22,3,chinese,m,4,0.32341667,-60.661992,1.05571007
QH,28,0,2024-06-14T13:25:55.793Z,english_550.wav,0,0,717,22,3,chinese,m,0,0,19.46608022,0.78600887
QH,28,0,2024-06-14T13:25:55.793Z,english_550.wav,0,0,717,22,3,chinese,m,1,0.1,-94.3556307,1.03273328
QH,28,0,2024-06-14T13:25:55.793Z,english_550.wav,0,0,717,22,3,chinese,m,2,0.2,-80.90695222,0.36941932
QH,28,0,2024-06-14T13:25:55.793Z,english_550.wav,0,0,717,22,3,chinese,m,3,0.3,-65.36230075,0.47038634
QH,28,0,2024-06-14T13:25:55.793Z,english_550.wav,0,0,717,22,3,chinese,m,4,0.32341667,-18.45722395,0.11798167
QH,29,0,2024-06-14T13:25:55.793Z,english_528.wav,0,0,1000,22,3,chinese,m,0,0,34.31610554,1.55529168
QH,29,0,2024-06-14T13:25:55.793Z,english_528.wav,0,0,1000,22,3,chinese,m,1,0.1,28.08911917,0.29936297
QH,29,0,2024-06-14T13:25:55.793Z,english_528.wav,0,0,1000,22,3,chinese,m,2,0.2,-86.77613696,0.95155831
QH,29,0,2024-06-14T13:25:55.793Z,english_528.wav,0,0,1000,22,3,chinese,m,3,0.3,-45.45420678,1.46511459
QH,29,0,2024-06-14T13:25:55.793Z,english_528.wav,0,0,1000,22,3,chinese,m,4,0.32341667,-58.86275596,0.63923396
QH,30,0,2024-06-14T13:25:55.793Z,english_718.wav,0,1,2230,22,3,chinese,m,0,0,-62.54470118,0.40124114
QH,30,0,2024-06-14T13:25:55.793Z,english_718.wav,0,1,2230,22,3,chinese,m,1,0.1,-40.70811043,0.49945062
QH,30,0,2024-06-14T13:25:55.793Z,english_718.wav,0,1,2230,22,3,chinese,m,2,0.2,-11.25435391,1.54880463
QH,30,0,2024-06-14T13:25:55.793Z,english_718.wav,0,1,2230,22,3,chinese,m,3,0.3,-68.52161814,0.39118497
QH,30,0,2024-06-14T13:25:55.793Z,english_718.wav,0,1,2230,22,3,chinese,m,4,0.32341667,-77.89834334,0.07447668
QH,31,0,2024-06-14T13:25:55.793Z,english_902.wav,0,0,656,22,3,chinese,m,0,0,-4.27617126,0.16330526
QH,31,0,2024-06-14T13:25:55.793Z,english_902.wav,0,0,656,22,3,chinese,m,1,0.1,-5.01127315,0.62492789
QH,31,0,2024-06-14T13:25:55.793Z,english_902.wav,0,0,656,22,3,chinese,m,2,0.2,83.22080084,1.08638924
QH,31,0,2024-06-14T13:25:55.793Z,english_902.wav,0,0,656,22,3,chinese,m,3,0.3,77.56473772,1.61764227
QH,31,0,2024-06-14T13:25:55.793Z,english_902.wav,0,0,656,22,3,chinese,m,4,0.32341667,-13.02741535,1.72075309
QH,32,0,2024-06-14T13:25:55.793Z,english_638.wav,0,0,740,22,3,chinese,m,0,0,6.92468799,1.1702122
QH,32,0,2024-06-14T13:25:55.793Z,english_638.wav,0,0,740,22,3,chinese,m,1,0.1,52.10042521,0.51269982
QH,32,0,2024-06-14T13:25:55.793Z,english_638.wav,0,0,740,22,3,chinese,m,2,0.2,-39.07293948,0.1912204
QH,32,0,2024-06-14T13:25:55.793Z,english_638.wav,0,0,740,22,3,chinese,m,3,0.3,38.46029754,0.91406415
QH,32,0,2024-06-14T13:25:55.793Z,english_638.wav,0,0,740,22,3,chinese,m,4,0.32341667,-16.6630855,1.67689755
QH,33,0,2024-06-14T13:25:55.793Z,english_840.wav,0,0,512,22,3,chinese,m,0,0,-27.11425843,1.31301797
QH,33,0,2024-06-14T13:25:55.793Z,english_840.wav,0,0,512,22,3,chinese,m,1,0.1,-47.31494811,0.54280133
QH,33,0,2024-06-14T13:25:55.793Z,english_840.wav,0,0,512,22,3,chinese,m,2,0.2,-88.66887426,0.14090987
QH,33,0,2024-06-14T13:25:55.793Z,english_840.wav,0,0,512,22,3,chinese,m,3,0.3,7.86940595,0.11950116
QH,33,0,2024-06-14T13:25:55.793Z,english_840.wav,0,0,512,22,3,chinese,m,4,0.32341667,87.61758205,1.48166624
QH,34,0,2024-06-14T13:25:55.793Z,english_286.wav,0,1,791,22,3,chinese,m,0,0,-94.9495111,0.49849168
QH,34,0,2024-06-14T13:25:55.793Z,english_286.wav,0,1,791,22,3,chinese,m,1,0.1,-25.05656786,1.27672914
QH,34,0,2024-06-14T13:25:55.793Z,english_286.wav,0,1,791,22,3,chinese,m,2,0.2,59.61150177,0.14515846
QH,34,0,2024-06-14T13:25:55.793Z,english_286.wav,0,1,791,22,3,chinese,m,3,0.3,-32.97544875,1.67164973
QH,34,0,2024-06-14T13:25:55.793Z,english_286.wav,0,1,791,22,3,chinese,m,4,0.32341667,7.58095242,0.86492177
QH,35,0,2024-06-14T13:25:55.793Z,english_161.wav,0,1,516,22,3,chinese,m,0,0,16.17182642,0.80971259
QH,35,0,2024-06-14T13:25:55.793Z,english_161.wav,0,1,516,22,3,chinese,m,1,0.1,51.23408036,1.56168911
QH,35,0,2024-06-14T13:25:55.793Z,english_161.wav,0,1,516,22,3,chinese,m,2,0.2,56.55598601,0.91666403
QH,35,0,2024-06-14T13:25:55.793Z,english_161.wav,0,1,516,22,3,chinese,m,3,0.3,-25.08054758,1.93998208
QH,35,0,2024-06-14T13:25:55.793Z,english_161.wav,0,1,516,22,3,chinese,m,4,0.32341667,-70.36900789,0.76147365
QH,36,0,2024-06-14T13:25:55.793Z,english_719.wav,0,1,2583,22,3,chinese,m,0,0,-32.14306232,1.4431753
QH,36,0,2024-06-14T13:25:55.793Z,english_719.wav,0,1,2583,22,3,chinese,m,1,0.1,-81.40439332,0.46175707
QH,36,0,2024-06-14T13:25:55.793Z,english_719.wav,0,1,2583,22,3,chinese,m,2,0.2,-20.1172293,1.86886769
QH,36,0,2024-06-14T13:25:55.793Z,english_719.wav,0,1,2583,22,3,chinese,m,3,0.3,67.63048238,0.67969247
QH,36,0,2024-06-14T13:25:55.793Z,english_719.wav,0,1,2583,22,3,chinese,m,4,0.32341667,50.83305788,1.68151983
QH,37,0,2024-06-14T13:25:55.793Z,english_557.wav,0,1,1234,22,3,chinese,m,0,0,43.94308994,0.38165316
QH,37,0,2024-06-14T13:25:55.793Z,english_557.wav,0,1,1234,22,3,chinese,m,1,0.1,84.77773598,1.19567933
QH,37,0,2024-06-14T13:25:55.793Z,english_557.wav,0,1,1234,22,3,chinese,m,2,0.2,-14.75143777,1.35103773
QH,37,0,2024-06-14T13:25:55.793Z,english_557.wav,0,1,1234,22,3,chinese,m,3,0.3,-37.76141322,1.69174007
QH,37,0,2024-06-14T13:25:55.793Z,english_557.wav,0,1,1234,22,3,chinese,m,4,0.32341667,-5.99076179,0.4334092
QH,38,0,2024-06-14T13:25:55.793Z,english_734.wav,0,1,1156,22,3,chinese,m,0,0,23.12527103,1.15728247
QH,38,0,2024-06-14T13:25:55.793Z,english_734.wav,0,1,1156,22,3,chinese,m,1,0.1,70.97885261,1.10975856
QH,38,0,2024-06-14T13:25:55.793Z,english_734.wav,0,1,1156,22,3,chinese,m,2,0.2,-68.62860591,0.41126476
QH,38,0,2024-06-14T13:25:55.793Z,english_734.wav,0,1,1156,22,3,chinese,m,3,0.3,-14.81239301,1.45213782
QH,38,0,2024-06-14T13:25:55.793Z,english_734.wav,0,1,1156,22,3,chinese,m,4,0.32341667,-74.40513958,1.98917216
QH,39,0,2024-06-14T13:25:55.793Z,english_855.wav,0,1,1145,22,3,chinese,m,0,0,27.89321206,0.30262259
QH,39,0,2024-06-14T13:25:55.793Z,english_855.wav,0,1,1145,22,3,chinese,m,1,0.1,-46.00582393,1.40968126
QH,39,0,2024-06-14T13:25:55.793Z,english_855.wav,0,1,1145,22,3,chinese,m,2,0.2,35.37102385,0.80904714
QH,39,0,2024-06-14T13:25:55.793Z,english_855.wav,0,1,1145,22,3,chinese,m,3,0.3,-58.73762704,1.48943687
QH,39,0,2024-06-14T13:25:55.793Z,english_855.wav,0,1,1145,22,3,chinese,m,4,0.32341667,-46.78314799,1.29572868
QH,40,0,2024-06-14T13:25:55.793Z,english_654.wav,0,1,809,22,3,chinese,m,0,0,-97.13147194,0.91673578
QH,40,0,2024-06-14T13:25:55.793Z,english_654.wav,0,1,809,22,3,chinese,m,1,0.1,-81.37819023,1.23280851
QH,40,0,2024-06-14T13:25:55.793Z,english_654.wav,0,1,809,22,3,chinese,m,2,0.2,51.48571278,1.64688363
QH,40,0,2024-06-14T13:25:55.793Z,english_654.wav,0,1,809,22,3,chinese,m,3,0.3,54.00949099,1.75994168
QH,40,0,2024-06-14T13:25:55.793Z,english_654.wav,0,1,809,22,3,chinese,m,4,0.32341667,-95.1633683,0.20104411
QH,41,0,2024-06-14T13:25:55.793Z,english_134.wav,0,1,596,22,3,chinese,m,0,0,70.72156413,1.84700732
QH,41,0,2024-06-14T13:25:55.793Z,english_134.wav,0,1,596,22,3,chinese,m,1,0.1,-64.20531103,1.20878884
QH,41,0,2024-06-14T13:25:55.793Z,english_134.wav,0,1,596,22,3,chinese,m,2,0.2,35.7891913,0.51924654
QH,41,0,2024-06-14T13:25:55.793Z,english_134.wav,0,1,596,22,3,chinese,m,3,0.3,-77.33475241,1.95615398
QH,41,0,2024-06-14T13:25:55.793Z,english_134.wav,0,1,596,22,3,chinese,m,4,0.32341667,85.6978336,1.72102519
QH,42,0,2024-06-14T13:25:55.793Z,english_928.wav,0,0,1202,22,3,chinese,m,0,0,55.07207497,1.22706758
QH,42,0,2024-06-14T13:25:55.793Z,english_928.wav,0,0,1202,22,3,chinese,m,1,0.1,83.71672672,0.97206042
QH,42,0,2024-06-14T13:25:55.793Z,english_928.wav,0,0,1202,22,3,chinese,m,2,0.2,-43.28929986,0.16969859
QH,42,0,2024-06-14T13:25:55.793Z,english_928.wav,0,0,1202,22,3,chinese,m,3,0.3,-17.1692271,0.90092586
QH,42,0,2024-06-14T13:25:55.793Z,english_928.wav,0,0,1202,22,3,chinese,m,4,0.32341667,-36.644272,0.43024518
QH,43,0,2024-06-14T13:25:55.793Z,english_244.wav,0,1,505,22,3,chinese,m,0,0,-70.20374383,1.65134166
QH,43,0,2024-06-14T13:25:55.793Z,english_244.wav,0,1,505,22,3,chinese,m,1,0.1,67.84882107,1.23738837
QH,43,0,2024-06-14T13:25:55.793Z,english_244.wav,0,1,505,22,3,chinese,m,2,0.2,0.61676271,0.90147553
QH,43,0,2024-06-14T13:25:55.793Z,english_244.wav,0,1,505,22,3,chinese,m,3,0.3,-96.58934439,1.79293216
QH,43,0,2024-06-14T13:25:55.793Z,english_244.wav,0,1,505,22,3,chinese,m,4,0.32341667,-77.46985837,1.15013727
QH,44,0,2024-06-14T13:25:55.793Z,english_677.wav,0,0,1023,22,3,chinese,m,0,0,74.92499355,0.4070184
QH,44,0,2024-06-14T13:25:55.793Z,english_677.wav,0,0,1023,22,3,chinese,m,1,0.1,35.44886391,0.82737557
QH,44,0,2024-06-14T13:25:55.793Z,english_677.wav,0,0,1023,22,3,chinese,m,2,0.2,3.82146975,0.46436239
QH,44,0,2024-06-14T13:25:55.793Z,english_677.wav,0,0,1023,22,3,chinese,m,3,0.3,10.3543008,1.40426898
QH,44,0,2024-06-14T13:25:55.793Z,english_677.wav,0,0,1023,22,3,chinese,m,4,0.32341667,-53.94170103,1.42138659
QH,45,0,2024-06-14T13:25:55.793Z,english_50.wav,0,1,684,22,3,chinese,m,0,0,-72.72872807,1.68140442
QH,45,0,2024-06-14T13:25:55.793Z,english_50.wav,0,1,684,22,3,chinese,m,1,0.1,-88.33626222,1.82728433
QH,45,0,2024-06-14T13:25:55.793Z,english_50.wav,0,1,684,22,3,chinese,m,2,0.2,-2.18882928,0.80476824
QH,45,0,2024-06-14T13:25:55.793Z,english_50.wav,0,1,684,22,3,chinese,m,3,0.3,60.61456424,0.21215651
QH,45,0,2024-06-14T13:25:55.793Z,english_50.wav,0,1,684,22,3,chinese,m,4,0.32341667,95.28335061,1.87644163
QH,46,0,2024-06-14T13:25:55.793Z,english_726.wav,0,1,1032,22,3,chinese,m,0,0,76.65318619,0.71374833
QH,46,0,2024-06-14T13:25:55.793Z,english_726.wav,0,1,1032,22,3,chinese,m,1,0.1,62.97746083,1.94407191
QH,46,0,2024-06-14T13:25:55.793Z,english_726.wav,0,1,1032,22,3,chinese,m,2,0.2,-20.72245964,0.55951675
QH,46,0,2024-06-14T13:25:55.793Z,english_726.wav,0,1,1032,22,3,chinese,m,3,0.3,42.64953343,0.7826891
QH,46,0,2024-06-14T13:25:55.793Z,english_726.wav,0,1,1032,22,3,chinese,m,4,0.32341667,23.5514061,0.11592549
QH,47,0,2024-06-14T13:25:55.793Z,english_455.wav,0,0,793,22,3,chinese,m,0,0,16.09493262,0.21208686
QH,47,0,2024-06-14T13:25:55.793Z,english_455.wav,0,0,793,22,3,chinese,m,1,0.1,24.58982,1.0305564
QH,47,0,2024-06-14T13:25:55.793Z,english_455.wav,0,0,793,22,3,chinese,m,2,0.2,-59.31201859,1.53057992
QH,47,0,2024-06-14T13:25:55.793Z,english_455.wav,0,0,793,22,3,chinese,m,3,0.3,40.79603426,0.62599766
QH,47,0,2024-06-14T13:25:55.793Z,english_455.wav,0,0,793,22,3,chinese,m,4,0.32341667,-39.30035714,1.43054244
QH,48,0,2024-06-14T13:25:55.793Z,english_403.wav,0,0,2790,22,3,chinese,m,0,0,-92.65414009,1.93574734
QH,48,0,2024-06-14T13:25:55.793Z,english_403.wav,0,0,2790,22,3,chinese,m,1,0.1,75.99659731,0.36447309
QH,48,0,2024-06-14T13:25:55.793Z,english_403.wav,0,0,2790,22,3,chinese,m,2,0.2,-27.37801557,1.02888701
QH,48,0,2024-06-14T13:25:55.793Z,english_403.wav,0,0,2790,22,3,chinese,m,3,0.3,-80.04540334,0.02385722
QH,48,0,2024-06-14T13:25:55.793Z,english_403.wav,0,0,2790,22,3,chinese,m,4,0.32341667,30.50648557,1.40553938
QH,49,0,2024-06-14T13:25:55.793Z,english_854.wav,0,1,495,22,3,chinese,m,0,0,-3.2532791,1.78139632
QH,49,0,2024-06-14T13:25:55.793Z,english_854.wav,0,1,495,22,3,chinese,m,1,0.1,19.40039505,1.50161717
QH,49,0,2024-06-14T13:25:55.793Z,english_854.wav,0,1,495,22,3,chinese,m,2,0.2,-14.62360686,0.8978804
QH,49,0,2024-06-14T13:25:55.793Z,english_854.wav,0,1,495,22,3,chinese,m,3,0.3,-63.13820282,1.66267041
QH,49,0,2024-06-14T13:25:55.793Z,english_854.wav,0,1,495,22,3,chinese,m,4,0.32341667,44.42181264,1.68588082
QH,50,1,2024-06-14T13:25:55.793Z,english_192.wav,0,0,889,22,3,chinese,m,0,0,78.04280759,0.73118961
QH,50,1,2024-06-14T13:25:55.793Z,english_192.wav,0,0,889,22,3,chinese,m,1,0.1,-85.52188616,0.7164391
QH,50,1,2024-06-14T13:25:55.793Z,english_192.wav,0,0,889,22,3,chinese,m,2,0.2,-14.2601202,1.68273927
QH,50,1,2024-06-14T13:25:55.793Z,english_192.wav,0,0,889,22,3,chinese,m,3,0.3,29.76504865,0.51501418
QH,50,1,2024-06-14T13:25:55.793Z,english_192.wav,0,0,889,22,3,chinese,m,4,0.32341667,82.81048791,1.16986294
QH,51,1,2024-06-14T13:25:55.793Z,english_806.wav,0,1,3516,22,3,chinese,m,0,0,17.38837614,1.03842349
QH,51,1,2024-06-14T13:25:55.793Z,english_806.wav,0,1,3516,22,3,chinese,m,1,0.1,50.31160736,1.08461549
QH,51,1,2024-06-14T13:25:55.793Z,english_806.wav,0,1,3516,22,3,chinese,m,2,0.2,74.21499327,1.8436814
QH,51,1,2024-06-14T13:25:55.793Z,english_806.wav,0,1,3516,22,3,chinese,m,3,0.3,16.647622,1.85846725
QH,51,1,2024-06-14T13:25:55.793Z,english_806.wav,0,1,3516,22,3,chinese,m,4,0.32341667,27.12519974,1.15820289
QH,52,1,2024-06-14T13:25:55.793Z,english_239.wav,0,0,735,22,3,chinese,m,0,0,87.44943986,1.42022081
QH,52,1,2024-06-14T13:25:55.793Z,english_239.wav,0,0,735,22,3,chinese,m,1,0.1,50.09814929,0.64261102
QH,52,1,2024-06-14T13:25:55.793Z,english_239.wav,0,0,735,22,3,chinese,m,2,0.2,-20.91132269,0.17156284
QH,52,1,2024-06-14T13:25:55.793Z,english_239.wav,0,0,735,22,3,chinese,m,3,0.3,1.56869958,1.89365974
QH,52,1,2024-06-14T13:25:55.793Z,english_239.wav,0,0,735,22,3,chinese,m,4,0.32341667,15.23790706,1.86939691
QH,53,1,2024-06-14T13:36:22.927Z,english_978.wav,0,1,4174,22,3,chinese,m,0,0,-73.1961296,0.69168228
QH,53,1,2024-06-14T13:36:22.927Z,english_978.wav,0,1,4174,22,3,chinese,m,1,0.1,-56.98452675,1.28516196
QH,53,1,2024-06-14T13:36:22.927Z,english_978.wav,0,1,4174,22,3,chinese,m,2,0.2,1.81288897,1.00851945
QH,53,1,2024-06-14T13:36:22.927Z,english_978.wav,0,1,4174,22,3,chinese,m,3,0.3,-17.93803526,0.05981722
QH,53,1,2024-06-14T13:36:22.927Z,english_978.wav,0,1,4174,22,3,chinese,m,4,0.32341667,-33.17886565,1.89275203
QH,54,1,2024-06-14T13:36:22.927Z,english_65.wav,0,0,1580,22,3,chinese,m,0,0,-46.88015867,0.62230507
QH,54,1,2024-06-14T13:36:22.927Z,english_65.wav,0,0,1580,22,3,chinese,m,1,0.1,54.34027197,1.12355997
QH,54,1,2024-06-14T13:36:22.927Z,english_65.wav,0,0,1580,22,3,chinese,m,2,0.2,-65.46386729,1.0507031
QH,54,1,2024-06-14T13:36:22.927Z,english_65.wav,0,0,1580,22,3,chinese,m,3,0.3,-66.7533487,0.71238348
QH,54,1,2024-06-14T13:36:22.927Z,english_65.wav,0,0,1580,22,3,chinese,m,4,0.32341667,-12.18147599,0.41048607
QH,55,1,2024-06-14T13:36:22.927Z,english_616.wav,0,1,1926,22,3,chinese,m,0,0,-71.12360497,0.83412473
QH,55,1,2024-06-14T13:36:22.927Z,english_616.wav,0,1,1926,22,3,chinese,m,1,0.1,55.35355355,1.49185731
QH,55,1,2024-06-14T13:36:22.927Z,english_616.wav,0,1,1926,22,3,chinese,m,2,0.2,-15.85026512,1.32170209
QH,55,1,2024-06-14T13:36:22.927Z,english_616.wav,0,1,1926,22,3,chinese,m,3,0.3,-22.60587367,0.90458331
QH,55,1,2024-06-14T13:36:22.927Z,english_616.wav,0,1,1926,22,3,chinese,m,4,0.32341667,-45.64131884,1.17134835
QH,56,1,2024-06-14T13:36:22.927Z,english_85.wav,0,1,989,22,3,chinese,m,0,0,69.91092253,1.07696769
QH,56,1,2024-06-14T13:36:22.927Z,english_85.wav,0,1,989,22,3,chinese,m,1,0.1,90.04885235,1.65675227
QH,56,1,2024-06-14T13:36:22.927Z,english_85.wav,0,1,989,22,3,chinese,m,2,0.2,-54.471964,1.18566865
QH,56,1,2024-06-14T13:36:22.927Z,english_85.wav,0,1,989,22,3,chinese,m,3,0.3,-32.42862041,0.43131811
QH,56,1,2024-06-14T13:36:22.927Z,english_85.wav,0,1,989,22,3,chinese,m,4,0.32341667,-26.25094384,1.88641509
QH,57,1,2024-06-14T13:36:22.927Z,english_725.wav,0,0,582,22,3,chinese,m,0,0,26.80600371,0.25466557
QH,57,1,2024-06-14T13:36:22.927Z,english_725.wav,0,0,582,22,3,chinese,m,1,0.1,82.24352357,0.77088778
QH,57,1,2024-06-14T13:36:22.927Z,english_725.wav,0,0,582,22,3,chinese,m,2,0.2,-3.79901328,0.70697722
QH,57,1,2024-06-14T13:36:22.927Z,english_725.wav,0,0,582,22,3,chinese,m,3,0.3,68.54562933,1.24247197
QH,57,1,2024-06-14T13:36:22.927Z,english_725.wav,0,0,582,22,3,chinese,m,4,0.32341667,-39.79698803,1.34526742
QH,58,1,2024-06-14T13:36:22.927Z,english_742.wav,0,0,708,22,3,chinese,m,0,0,12.62363586,1.26368295
QH,58,1,2024-06-14T13:36:22.927Z,english_742.wav,0,0,708,22,3,chinese,m,1,0.1,23.02085171,0.7448394
QH,58,1,2024-06-14T13:36:22.927Z,english_742.wav,0,0,708,22,3,chinese,m,2,0.2,23.36423086,0.05261082
QH,58,1,2024-06-14T13:36:22.927Z,english_742.wav,0,0,708,22,3,chinese,m,3,0.3,97.70614946,1.01748925
QH,58,1,2024-06-14T13:36:22.927Z,english_742.wav,0,0,708,22,3,chinese,m,4,0.32341667,-25.72861775,0.88645775
QH,59,1,2024-06-14T13:36:22.927Z,english_139.wav,0,1,938,22,3,chinese,m,0,0,55.35526281,1.40478417
QH,59,1,2024-06-14T13:36:22.927Z,english_139.wav,0,1,938,22,3,chinese,m,1,0.1,-66.48550036,1.12007301
QH,59,1,2024-06-14T13:36:22.927Z,english_139.wav,0,1,938,22,3,chinese,m,2,0.2,21.45340352,1.58559909
QH,59,1,2024-06-14T13:36:22.927Z,english_139.wav,0,1,938,22,3,chinese,m,3,0.3,-32.80413748,1.13081383
QH,59,1,2024-06-14T13:36:22.927Z,english_139.wav,0,1,938,22,3,chinese,m,4,0.32341667,-77.32206638,0.38560717
QH,60,1,2024-06-14T13:36:22.927Z,english_47.wav,0,0,566,22,3,chinese,m,0,0,70.62381491,1.36620222
QH,60,1,2024-06-14T13:36:22.927Z,english_47.wav,0,0,566,22,3,chinese,m,1,0.1,-43.60565268,0.47559644
QH,60,1,2024-06-14T13:36:22.927Z,english_47.wav,0,0,566,22,3,chinese,m,2,0.2,29.54670776,0.92078875
QH,60,1,2024-06-14T13:36:22.927Z,english_47.wav,0,0,566,22,3,chinese,m,3,0.3,95.208653,0.83015506
QH,60,1,2024-06-14T13:36:22.927Z,english_47.wav,0,0,566,22,3,chinese,m,4,0.32341667,-87.83630424,1.40747595
QH,61,1,2024-06-14T13:36:22.927Z,english_957.wav,0,1,946,22,3,chinese,m,0,0,-8.34255742,0.77577071
QH,61,1,2024-06-14T13:36:22.927Z,english_957.wav,0,1,946,22,3,chinese,m,1,0.1,-36.8236739,1.35435363
QH,61,1,2024-06-14T13:36:22.927Z,english_957.wav,0,1,946,22,3,chinese,m,2,0.2,6.68978896,0.94592229
QH,61,1,2024-06-14T13:36:22.927Z,english_957.wav,0,1,946,22,3,chinese,m,3,0.3,-85.51463088,0.8988777
QH,61,1,2024-06-14T13:36:22.927Z,english_957.wav,0,1,946,22,3,chinese,m,4,0.32341667,-16.82289389,0.34403417
QH,62,1,2024-06-14T13:36:22.927Z,english_351.wav,0,1,540,22,3,chinese,m,0,0,-56.55455818,0.98366365
QH,62,1,2024-06-14T13:36:22.927Z,english_351.wav,0,1,540,22,3,chinese,m,1,0.1,-81.1333892,1.13800808
QH,62,1,2024-06-14T13:36:22.927Z,english_351.wav,0,1,540,22,3,chinese,m,2,0.2,70.95296343,1.04915948
QH,62,1,2024-06-14T13:36:22.927Z,english_351.wav,0,1,540,22,3,chinese,m,3,0.3,-82.79021433,1.70890302
QH,62,1,2024-06-14T13:36:22.927Z,english_351.wav,0,1,540,22,3,chinese,m,4,0.32341667,-21.34496407,1.83807055
QH,63,1,2024-06-14T13:39:08.226Z,english_971.wav,0,0,2695,22,3,chinese,m,0,0,27.0641734,0.01013217
QH,63,1,2024-06-14T13:39:08.226Z,english_971.wav,0,0,2695,22,3,chinese,m,1,0.1,-43.13434162,0.95424486
QH,63,1,2024-06-14T13:39:08.226Z,english_971.wav,0,0,2695,22,3,chinese,m,2,0.2,83.45364082,1.16332163
QH,63,1,2024-06-14T13:39:08.226Z,english_971.wav,0,0,2695,22,3,chinese,m,3,0.3,46.6736971,0.56494555
QH,63,1,2024-06-14T13:39:08.226Z,english_971.wav,0,0,2695,22,3,chinese,m,4,0.32341667,-28.9166607,0.73596031
QH,64,1,2024-06-14T13:39:08.226Z,english_606.wav,0,1,1047,22,3,chinese,m,0,0,-54.19201916,1.71730642
QH,64,1,2024-06-14T13:39:08.226Z,english_606.wav,0,1,1047,22,3,chinese,m,1,0.1,-9.49104439,0.42216081
QH,64,1,2024-06-14T13:39:08.226Z,english_606.wav,0,1,1047,22,3,chinese,m,2,0.2,1.17868262,1.31506394
QH,64,1,2024-06-14T13:39:08.226Z,english_606.wav,0,1,1047,22,3,chinese,m,3,0.3,-95.39718692,0.06922913
QH,64,1,2024-06-14T13:39:08.226Z,english_606.wav,0,1,1047,22,3,chinese,m,4,0.32341667,-48.659775,0.08316227
QH,65,1,2024-06-14T13:40:37.371Z,english_672.wav,0,1,1168,22,3,chinese,m,0,0,30.04022321,0.7872581
QH,65,1,2024-06-14T13:40:37.371Z,english_672.wav,0,1,1168,22,3,chinese,m,1,0.1,-49.20146972,1.24822874
QH,65,1,2024-06-14T13:40:37.371Z,english_672.wav,0,1,1168,22,3,chinese,m,2,0.2,68.57510342,1.0921985
QH,65,1,2024-06-14T13:40:37.371Z,english_672.wav,0,1,1168,22,3,chinese,m,3,0.3,46.99705545,1.42682896
QH,65,1,2024-06-14T13:40:37.371Z,english_672.wav,0,1,1168,22,3,chinese,m,4,0.32341667,-96.75951233,0.39437363
QH,66,1,2024-06-14T13:40:37.371Z,english_521.wav,0,0,659,22,3,chinese,m,0,0,-39.78859965,1.84590666
QH,66,1,2024-06-14T13:40:37.371Z,english_521.wav,0,0,659,22,3,chinese,m,1,0.1,94.65680132,0.33665341
QH,66,1,2024-06-14T13:40:37.371Z,english_521.wav,0,0,659,22,3,chinese,m,2,0.2,-68.68225016,1.01474729
QH,66,1,2024-06-14T13:40:37.371Z,english_521.wav,0,0,659,22,3,chinese,m,3,0.3,19.56493677,0.73624599
QH,66,1,2024-06-14T13:40:37.371Z,english_521.wav,0,0,659,22,3,chinese,m,4,0.32341667,69.42990376,1.4391639
QH,67,1,2024-06-14T13:41:55.275Z,english_796.wav,0,0,1033,22,3,chinese,m,0,0,57.52331511,0.93419081
QH,67,1,2024-06-14T13:41:55.275Z,english_796.wav,0,0,1033,22,3,chinese,m,1,0.1,-53.71774571,0.77950231
QH,67,1,2024-06-14T13:41:55.275Z,english_796.wav,0,0,1033,22,3,chinese,m,2,0.2,-36.09214461,0.54947466
QH,67,1,2024-06-14T13:41:55.275Z,english_796.wav,0,0,1033,22,3,chinese,m,3,0.3,23.21783142,1.69054841
QH,67,1,2024-06-14T13:41:55.275Z,english_796.wav,0,0,1033,22,3,chinese,m,4,0.32341667,-74.52171885,0.76047802
QH,68,1,2024-06-14T13:41:55.275Z,english_533.wav,0,1,1023,22,3,chinese,m,0,0,-10.36570298,0.10013008
QH,68,1,2024-06-14T13:41:55.275Z,english_533.wav,0,1,1023,22,3,chinese,m,1,0.1,-67.04420928,1.73583104
QH,68,1,2024-06-14T13:41:55.275Z,english_533.wav,0,1,1023,22,3,chinese,m,2,0.2,-31.24691396,1.00550506
QH,68,1,2024-06-14T13:41:55.275Z,english_533.wav,0,1,1023,22,3,chinese,m,3,0.3,-22.73912087,1.21009828
QH,68,1,2024-06-14T13:41:55.275Z,english_533.wav,0,1,1023,22,3,chinese,m,4,0.32341667,-4.63915005,1.69946188
QH,69,1,2024-06-14T13:43:19.545Z,english_897.wav,0,1,698,22,3,chinese,m,0,0,-6.17515852,1.45954458
QH,69,1,2024-06-14T13:43:19.545Z,english_897.wav,0,1,698,22,3,chinese,m,1,0.1,-25.56252799,1.4662158
QH,69,1,2024-06-14T13:43:19.545Z,english_897.wav,0,1,698,22,3,chinese,m,2,0.2,-51.51756482,1.09304129
QH,69,1,2024-06-14T13:43:19.545Z,english_897.wav,0,1,698,22,3,chinese,m,3,0.3,-57.3776393,1.17713492
QH,69,1,2024-06-14T13:43:19.545Z,english_897.wav,0,1,698,22,3,chinese,m,4,0.32341667,-65.82780913,1.23726335
QH,70,1,2024-06-14T13:43:19.545Z,english_990.wav,0,0,704,22,3,chinese,m,0,0,-17.98511021,0.6190444
QH,70,1,2024-06-14T13:43:19.545Z,english_990.wav,0,0,704,22,3,chinese,m,1,0.1,-90.3005676,0.77548775
QH,70,1,2024-06-14T13:43:19.545Z,english_990.wav,0,0,704,22,3,chinese,m,2,0.2,4.37005684,0.55013224
QH,70,1,2024-06-14T13:43:19.545Z,english_990.wav,0,0,704,22,3,chinese,m,3,0.3,83.93705034,0.66784051
QH,70,1,2024-06-14T13:43:19.545Z,english_990.wav,0,0,704,22,3,chinese,m,4,0.32341667,-36.57803625,0.32384409
QH,71,1,2024-06-14T13:43:19.545Z,english_129.wav,0,1,444,22,3,chinese,m,0,0,80.17800931,1.16690044
QH,71,1,2024-06-14T13:43:19.545Z,english_129.wav,0,1,444,22,3,chinese,m,1,0.1,6.7929614,1.89220933
QH,71,1,2024-06-14T13:43:19.545Z,english_129.wav,0,1,444,22,3,chinese,m,2,0.2,51.03188375,1.40122633
QH,71,1,2024-06-14T13:43:19.545Z,english_129.wav,0,1,444,22,3,chinese,m,3,0.3,-14.28174581,0.72131347
QH,71,1,2024-06-14T13:43:19.545Z,english_129.wav,0,1,444,22,3,chinese,m,4,0.32341667,32.60771632,1.30692003
QH,72,1,2024-06-14T13:43:19.545Z,english_889.wav,0,1,927,22,3,chinese,m,0,0,-92.0683747,0.69619005
QH,72,1,2024-06-14T13:43:19.545Z,english_889.wav,0,1,927,22,3,chinese,m,1,0.1,92.92883541,1.46059979
QH,72,1,2024-06-14T13:43:19.545Z,english_889.wav,0,1,927,22,3,chinese,m,2,0.2,-38.78028918,1.13034103
QH,72,1,2024-06-14T13:43:19.545Z,english_889.wav,0,1,927,22,3,chinese,m,3,0.3,33.48812202,1.0639125
QH,72,1,2024-06-14T13:43:19.545Z,english_889.wav,0,1,927,22,3,chinese,m,4,0.32341667,68.79643169,0.42066581
QH,73,1,2024-06-14T13:43:19.545Z,english_817.wav,0,0,858,22,3,chinese,m,0,0,58.06319333,0.77394069
QH,73,1,2024-06-14T13:43:19.545Z,english_817.wav,0,0,858,22,3,chinese,m,1,0.1,0.91206114,0.81778066
QH,73,1,2024-06-14T13:43:19.545Z,english_817.wav,0,0,858,22,3,chinese,m,2,0.2,-27.80824757,1.48752315
QH,73,1,2024-06-14T13:43:19.545Z,english_817.wav,0,0,858,22,3,chinese,m,3,0.3,-73.7491051,0.41888886
QH,73,1,2024-06-14T13:43:19.545Z,english_817.wav,0,0,858,22,3,chinese,m,4,0.32341667,69.75698508,0.93012443
QH,74,1,2024-06-14T13:43:19.545Z,english_250.wav,0,1,634,22,3,chinese,m,0,0,15.9272347,0.97372592
QH,74,1,2024-06-14T13:43:19.545Z,english_250.wav,0,1,634,22,3,chinese,m,1,0.1,-20.77070657,1.45189783
QH,74,1,2024-06-14T13:43:19.545Z,english_250.wav,0,1,634,22,3,chinese,m,2,0.2,-20.08480075,0.50513237
QH,74,1,2024-06-14T13:43:19.545Z,english_250.wav,0,1,634,22,3,chinese,m,3,0.3,-29.82576937,1.38910207
QH,74,1,2024-06-14T13:43:19.545Z,english_250.wav,0,1,634,22,3,chinese,m,4,0.32341667,87.83532187,1.51614456
QH,75,1,2024-06-14T13:43:19.545Z,english_130.wav,0,1,1889,22,3,chinese,m,0,0,-27.4951122,0.83907871
QH,75,1,2024-06-14T13:43:19.545Z,english_130.wav,0,1,1889,22,3,chinese,m,1,0.1,-38.07775804,1.38560413
QH,75,1,2024-06-14T13:43:19.545Z,english_130.wav,0,1,1889,22,3,chinese,m,2,0.2,-9.69340922,0.50531735
QH,75,1,2024-06-14T13:43:19.545Z,english_130.wav,0,1,1889,22,3,chinese,m,3,0.3,-88.09187015,0.53414674
QH,75,1,2024-06-14T13:43:19.545Z,english_130.wav,0,1,1889,22,3,chinese,m,4,0.32341667,-47.45461314,1.10107345
QH,76,1,2024-06-14T13:43:19.545Z,english_58.wav,0,0,2006,22,3,chinese,m,0,0,20.12478601,1.19415515
QH,76,1,2024-06-14T13:43:19.545Z,english_58.wav,0,0,2006,22,3,chinese,m,1,0.1,-22.60038942,0.26098942
QH,76,1,2024-06-14T13:43:19.545Z,english_58.wav,0,0,2006,22,3,chinese,m,2,0.2,34.38627512,1.99195241
QH,76,1,2024-06-14T13:43:19.545Z,english_58.wav,0,0,2006,22,3,chinese,m,3,0.3,30.90369434,0.42925074
QH,76,1,2024-06-14T13:43:19.545Z,english_58.wav,0,0,2006,22,3,chinese,m,4,0.32341667,11.39971337,0.50368767
QH,77,1,2024-06-14T13:43:19.545Z,english_324.wav,0,1,2180,22,3,chinese,m,0,0,49.07155908,0.10864525
QH,77,1,2024-06-14T13:43:19.545Z,english_324.wav,0,1,2180,22,3,chinese,m,1,0.1,-58.77252084,1.61132735
QH,77,1,2024-06-14T13:43:19.545Z,english_324.wav,0,1,2180,22,3,chinese,m,2,0.2,-55.40155542,0.60180616
QH,77,1,2024-06-14T13:43:19.545Z,english_324.wav,0,1,2180,22,3,chinese,m,3,0.3,19.02224292,0.93555132
QH,77,1,2024-06-14T13:43:19.545Z,english_324.wav,0,1,2180,22,3,chinese,m,4,0.32341667,21.20382854,0.34417591
QH,78,1,2024-06-14T13:43:19.545Z,english_871.wav,0,1,1268,22,3,chinese,m,0,0,84.63625516,0.21643415
QH,78,1,2024-06-14T13:43:19.545Z,english_871.wav,0,1,1268,22,3,chinese,m,1,0.1,-19.11058767,1.23538017
QH,78,1,2024-06-14T13:43:19.545Z,english_871.wav,0,1,1268,22,3,chinese,m,2,0.2,49.1497137,1.26375285
QH,78,1,2024-06-14T13:43:19.545Z,english_871.wav,0,1,1268,22,3,chinese,m,3,0.3,-83.07816512,0.03257235
QH,78,1,2024-06-14T13:43:19.545Z,english_871.wav,0,1,1268,22,3,chinese,m,4,0.32341667,11.22002909,1.90703832
QH,79,1,2024-06-14T13:43:19.545Z,english_257.wav,0,1,353,22,3,chinese,m,0,0,-68.31428674,1.40239735
QH,79,1,2024-06-14T13:43:19.545Z,english_257.wav,0,1,353,22,3,chinese,m,1,0.1,-13.90908686,1.49673114
QH,79,1,2024-06-14T13:43:19.545Z,english_257.wav,0,1,353,22,3,chinese,m,2,0.2,54.08743226,1.07658057
QH,79,1,2024-06-14T13:43:19.545Z,english_257.wav,0,1,353,22,3,chinese,m,3,0.3,-42.73693867,0.27427112
QH,79,1,2024-06-14T13:43:19.545Z,english_257.wav,0,1,353,22,3,chinese,m,4,0.32341667,-1.03846516,1.90516482
QH,80,1,2024-06-14T13:43:19.545Z,english_997.wav,0,0,740,22,3,chinese,m,0,0,93.4252615,0.4603395
QH,80,1,2024-06-14T13:43:19.545Z,english_997.wav,0,0,740,22,3,chinese,m,1,0.1,62.16088314,0.21654412
QH,80,1,2024-06-14T13:43:19.545Z,english_997.wav,0,0,740,22,3,chinese,m,2,0.2,-26.38638022,1.36234896
QH,80,1,2024-06-14T13:43:19.545Z,english_997.wav,0,0,740,22,3,chinese,m,3,0.3,89.15363163,1.07462804
QH,80,1,2024-06-14T13:43:19.545Z,english_997.wav,0,0,740,22,3,chinese,m,4,0.32341667,-25.83137337,0.84007196
QH,81,1,2024-06-14T13:43:19.545Z,english_117.wav,0,1,622,22,3,chinese,m,0,0,-98.72491255,1.42659946
QH,81,1,2024-06-14T13:43:19.545Z,english_117.wav,0,1,622,22,3,chinese,m,1,0.1,-15.15642563,1.64599539
QH,81,1,2024-06-14T13:43:19.545Z,english_117.wav,0,1,622,22,3,chinese,m,2,0.2,24.45806353,0.97767705
QH,81,1,2024-06-14T13:43:19.545Z,english_117.wav,0,1,622,22,3,chinese,m,3,0.3,-80.67224668,0.37962884
QH,81,1,2024-06-14T13:43:19.545Z,english_117.wav,0,1,622,22,3,chinese,m,4,0.32341667,-97.50349755,0.74274723
QH,82,1,2024-06-14T13:43:19.545Z,english_308.wav,0,0,452,22,3,chinese,m,0,0,71.04817524,1.27905886
QH,82,1,2024-06-14T13:43:19.545Z,english_308.wav,0,0,452,22,3,chinese,m,1,0.1,-29.23230128,0.28593244
QH,82,1,2024-06-14T13:43:19.545Z,english_308.wav,0,0,452,22,3,chinese,m,2,0.2,-23.90252129,0.87298087
QH,82,1,2024-06-14T13:43:19.545Z,english_308.wav,0,0,452,22,3,chinese,m,3,0.3,-20.50746627,0.50431278
QH,82,1,2024-06-14T13:43:19.545Z,english_308.wav,0,0,452,22,3,chinese,m,4,0.32341667,-25.31970697,1.06118321
QH,83,1,2024-06-14T13:43:19.545Z,english_30.wav,0,1,998,22,3,chinese,m,0,0,-18.5398728,0.31748681
QH,83,1,2024-06-14T13:43:19.545Z,english_30.wav,0,1,998,22,3,chinese,m,1,0.1,-67.34991207,1.82477139
QH,83,1,2024-06-14T13:43:19.545Z,english_30.wav,0,1,998,22,3,chinese,m,2,0.2,65.54879707,1.59992979
QH,83,1,2024-06-14T13:43:19.545Z,english_30.wav,0,1,998,22,3,chinese,m,3,0.3,30.88088319,0.89523729
QH,83,1,2024-06-14T13:43:19.545Z,english_30.wav,0,1,998,22,3,chinese,m,4,0.32341667,50.60550813,1.02052202
QH,84,1,2024-06-14T13:43:19.545Z,english_626.wav,0,0,736,22,3,chinese,m,0,0,4.25415757,0.7037323
QH,84,1,2024-06-14T13:43:19.545Z,english_626.wav,0,0,736,22,3,chinese,m,1,0.1,-41.27415217,1.26912647
QH,84,1,2024-06-14T13:43:19.545Z,english_626.wav,0,0,736,22,3,chinese,m,2,0.2,-74.74598363,0.17760594
QH,84,1,2024-06-14T13:43:19.545Z,english_626.wav,0,0,736,22,3,chinese,m,3,0.3,-15.94741517,1.12963497
QH,84,1,2024-06-14T13:43:19.545Z,english_626.wav,0,0,736,22,3,chinese,m,4,0.32341667,43.51897949,0.85087029
QH,85,1,2024-06-14T13:43:19.545Z,english_991.wav,0,0,673,22,3,chinese,m,0,0,-73.33762004,0.7279734
QH,85,1,2024-06-14T13:43:19.545Z,english_991.wav,0,0,673,22,3,chinese,m,1,0.1,-90.08677455,0.374322
QH,85,1,2024-06-14T13:43:19.545Z,english_991.wav,0,0,673,22,3,chinese,m,2,0.2,-98.84294029,0.98894361
QH,85,1,2024-06-14T13:43:19.545Z,english_991.wav,0,0,673,22,3,chinese,m,3,0.3,59.84972986,1.07774369
QH,85,1,2024-06-14T13:43:19.545Z,english_991.wav,0,0,673,22,3,chinese,m,4,0.32341667,21.03568625,0.51480923
QH,86,1,2024-06-14T13:43:19.545Z,english_586.wav,0,0,1305,22,3,chinese,m,0,0,-62.23642036,1.06144709
QH,86,1,2024-06-14T13:43:19.545Z,english_586.wav,0,0,1305,22,3,chinese,m,1,0.1,79.13201234,0.54207142
QH,86,1,2024-06-14T13:43:19.545Z,english_586.wav,0,0,1305,22,3,chinese,m,2,0.2,-89.54923437,0.72134233
QH,86,1,2024-06-14T13:43:19.545Z,english_586.wav,0,0,1305,22,3,chinese,m,3,0.3,-19.27573078,0.33417878
QH,86,1,2024-06-14T13:43:19.545Z,english_586.wav,0,0,1305,22,3,chinese,m,4,0.32341667,-62.71214645,1.54129631
QH,87,1,2024-06-14T13:43:19.545Z,english_243.wav,0,0,1587,22,3,chinese,m,0,0,-74.41503345,0.65151457
QH,87,1,2024-06-14T13:43:19.545Z,english_243.wav,0,0,1587,22,3,chinese,m,1,0.1,-16.65530333,0.20623253
QH,87,1,2024-06-14T13:43:19.545Z,english_243.wav,0,0,1587,22,3,chinese,m,2,0.2,-1.41224798,0.87153721
QH,87,1,2024-06-14T13:43:19.545Z,english_243.wav,0,0,1587,22,3,chinese,m,3,0.3,37.30419975,0.28583671
QH,87,1,2024-06-14T13:43:19.545Z,english_243.wav,0,0,1587,22,3,chinese,m,4,0.32341667,-3.40378668,1.90700275
QH,88,1,2024-06-14T13:43:19.545Z,english_632.wav,0,1,847,22,3,chinese,m,0,0,-56.22391322,1.21249895
QH,88,1,2024-06-14T13:43:19.545Z,english_632.wav,0,1,847,22,3,chinese,m,1,0.1,-47.59423942,0.39515719
QH,88,1,2024-06-14T13:43:19.545Z,english_632.wav,0,1,847,22,3,chinese,m,2,0.2,91.93727259,1.8528852
QH,88,1,2024-06-14T13:43:19.545Z,english_632.wav,0,1,847,22,3,chinese,m,3,0.3,-33.89646621,1.67254104
QH,88,1,2024-06-14T13:43:19.545Z,english_632.wav,0,1,847,22,3,chinese,m,4,0.32341667,46.88387871,1.21014685
QH,89,1,2024-06-14T13:43:19.545Z,english_462.wav,0,1,309,22,3,chinese,m,0,0,-35.73318704,1.53267708
QH,89,1,2024-06-14T13:43:19.545Z,english_462.wav,0,1,309,22,3,chinese,m,1,0.1,-5.65949109,1.98369384
QH,89,1,2024-06-14T13:43:19.545Z,english_462.wav,0,1,309,22,3,chinese,m,2,0.2,-49.47542688,1.31270994
QH,89,1,2024-06-14T13:43:19.545Z,english_462.wav,0,1,309,22,3,chinese,m,3,0.3,-98.18570674,1.26289606
QH,89,1,2024-06-14T13:43:19.545Z,english_462.wav,0,1,309,22,3,chinese,m,4,0.32341667,-16.34927785,1.36496903
QH,90,1,2024-06-14T13:43:19.545Z,english_735.wav,0,1,1080,22,3,chinese,m,0,0,51.40973306,0.29099813
QH,90,1,2024-06-14T13:43:19.545Z,english_735.wav,0,1,1080,22,3,chinese,m,1,0.1,-5.42867159,1.62833375
QH,90,1,2024-06-14T13:43:19.545Z,english_735.wav,0,1,1080,22,3,chinese,m,2,0.2,13.71146629,0.32849247
QH,90,1,2024-06-14T13:43:19.545Z,english_735.wav,0,1,1080,22,3,chinese,m,3,0.3,-14.17202169,0.46991549
QH,90,1,2024-06-14T13:43:19.545Z,english_735.wav,0,1,1080,22,3,chinese,m,4,0.32341667,14.98699592,0.51625305
QH,91,1,2024-06-14T13:43:19.545Z,english_440.wav,0,1,1292,22,3,chinese,m,0,0,44.70308901,1.51497438
QH,91,1,2024-06-14T13:43:19.545Z,english_440.wav,0,1,1292,22,3,chinese,m,1,0.1,-88.0257567,1.05972447
QH,91,1,2024-06-14T13:43:19.545Z,english_440.wav,0,1,1292,22,3,chinese,m,2,0.2,1.19893433,0.590820378
QH,91,1,2024-06-14T13:43:19.545Z,english_440.wav,0,1,1292,22,3,chinese,m,3,0.3,19.45485395,0.680586803
QH,91,1,2024-06-14T13:43:19.545Z,english_440.wav,0,1,1292,22,3,chinese,m,4,0.32341667,13.00088222,0.000618341324
QH,92,1,2024-06-14T13:43:19.545Z,english_803.wav,0,1,367,22,3,chinese,m,0,0,8.73756077,1.22190991
QH,92,1,2024-06-14T13:43:19.545Z,english_803.wav,0,1,367,22,3,chinese,m,1,0.1,-41.53503623,1.08276728
QH,92,1,2024-06-14T13:43:19.545Z,english_803.wav,0,1,367,22,3,chinese,m,2,0.2,-84.76471985,1.59545905
QH,92,1,2024-06-14T13:43:19.545Z,english_803.wav,0,1,367,22,3,chinese,m,3,0.3,-27.96408635,1.3875394
QH,92,1,2024-06-14T13:43:19.545Z,english_803.wav,0,1,367,22,3,chinese,m,4,0.32341667,72.02290108,0.92287786
QH,93,1,2024-06-14T13:43:19.545Z,english_498.wav,0,0,678,22,3,chinese,m,0,0,2.49020902,0.78964515
QH,93,1,2024-06-14T13:43:19.545Z,english_498.wav,0,0,678,22,3,chinese,m,1,0.1,-20.55300452,0.24391593
QH,93,1,2024-06-14T13:43:19.545Z,english_498.wav,0,0,678,22,3,chinese,m,2,0.2,-34.14985779,0.11401041
QH,93,1,2024-06-14T13:43:19.545Z,english_498.wav,0,0,678,22,3,chinese,m,3,0.3,79.54997135,1.52582154
QH,93,1,2024-06-14T13:43:19.545Z,english_498.wav,0,0,678,22,3,chinese,m,4,0.32341667,20.54695207,0.62547878
QH,94,1,2024-06-14T13:43:19.545Z,english_621.wav,0,1,786,22,3,chinese,m,0,0,-58.25251841,1.01186344
QH,94,1,2024-06-14T13:43:19.545Z,english_621.wav,0,1,786,22,3,chinese,m,1,0.1,21.8974524,1.03560921
QH,94,1,2024-06-14T13:43:19.545Z,english_621.wav,0,1,786,22,3,chinese,m,2,0.2,-22.03552483,0.97057504
QH,94,1,2024-06-14T13:43:19.545Z,english_621.wav,0,1,786,22,3,chinese,m,3,0.3,-56.80446909,1.33131235
QH,94,1,2024-06-14T13:43:19.545Z,english_621.wav,0,1,786,22,3,chinese,m,4,0.32341667,-23.41760562,0.49151525
QH,95,1,2024-06-14T13:43:19.545Z,english_456.wav,0,0,669,22,3,chinese,m,0,0,43.57092671,0.12750432
QH,95,1,2024-06-14T13:43:19.545Z,english_456.wav,0,0,669,22,3,chinese,m,1,0.1,59.73787768,0.97340157
QH,95,1,2024-06-14T13:43:19.545Z,english_456.wav,0,0,669,22,3,chinese,m,2,0.2,82.18665257,0.43547726
QH,95,1,2024-06-14T13:43:19.545Z,english_456.wav,0,0,669,22,3,chinese,m,3,0.3,84.09992258,1.17970357
QH,95,1,2024-06-14T13:43:19.545Z,english_456.wav,0,0,669,22,3,chinese,m,4,0.32341667,14.68455092,0.64309566
QH,96,1,2024-06-14T13:43:19.545Z,english_730.wav,0,1,886,22,3,chinese,m,0,0,12.15035978,0.91227818
QH,96,1,2024-06-14T13:43:19.545Z,english_730.wav,0,1,886,22,3,chinese,m,1,0.1,-56.22765555,1.17022701
QH,96,1,2024-06-14T13:43:19.545Z,english_730.wav,0,1,886,22,3,chinese,m,2,0.2,-53.26534685,0.58034143
QH,96,1,2024-06-14T13:43:19.545Z,english_730.wav,0,1,886,22,3,chinese,m,3,0.3,-25.75230742,1.9562998
QH,96,1,2024-06-14T13:43:19.545Z,english_730.wav,0,1,886,22,3,chinese,m,4,0.32341667,-73.04726616,1.99538846
QH,97,1,2024-06-14T13:43:19.545Z,english_610.wav,0,0,1506,22,3,chinese,m,0,0,-14.96432812,0.5672697
QH,97,1,2024-06-14T13:43:19.545Z,english_610.wav,0,0,1506,22,3,chinese,m,1,0.1,48.51886955,0.75156182
QH,97,1,2024-06-14T13:43:19.545Z,english_610.wav,0,0,1506,22,3,chinese,m,2,0.2,47.07358548,0.38846335
QH,97,1,2024-06-14T13:43:19.545Z,english_610.wav,0,0,1506,22,3,chinese,m,3,0.3,17.30383174,1.52072292
QH,97,1,2024-06-14T13:43:19.545Z,english_610.wav,0,0,1506,22,3,chinese,m,4,0.32341667,1.51764356,1.56024836
QH,98,1,2024-06-14T13:43:19.545Z,english_429.wav,0,0,389,22,3,chinese,m,0,0,-70.82827187,0.34305232
QH,98,1,2024-06-14T13:43:19.545Z,english_429.wav,0,0,389,22,3,chinese,m,1,0.1,79.2644825,1.15525787
QH,98,1,2024-06-14T13:43:19.545Z,english_429.wav,0,0,389,22,3,chinese,m,2,0.2,14.29027084,1.85610569
QH,98,1,2024-06-14T13:43:19.545Z,english_429.wav,0,0,389,22,3,chinese,m,3,0.3,-47.65971945,0.19828098
QH,98,1,2024-06-14T13:43:19.545Z,english_429.wav,0,0,389,22,3,chinese,m,4,0.32341667,8.9954872,1.51767034
QH,99,1,2024-06-14T13:43:19.545Z,english_753.wav,0,1,573,22,3,chinese,m,0,0,38.61944715,0.75641923
QH,99,1,2024-06-14T13:43:19.545Z,english_753.wav,0,1,573,22,3,chinese,m,1,0.1,-76.3398938,1.17320485
QH,99,1,2024-06-14T13:43:19.545Z,english_753.wav,0,1,573,22,3,chinese,m,2,0.2,-80.92813522,0.63072958
QH,99,1,2024-06-14T13:43:19.545Z,english_753.wav,0,1,573,22,3,chinese,m,3,0.3,-16.48508052,1.96252246
QH,99,1,2024-06-14T13:43:19.545Z,english_753.wav,0,1,573,22,3,chinese,m,4,0.32341667,16.23487259,1.97125296
QH,100,2,2024-06-14T13:43:19.545Z,english_881.wav,0,1,969,22,3,chinese,m,0,0,7.28069095,1.60234882
QH,100,2,2024-06-14T13:43:19.545Z,english_881.wav,0,1,969,22,3,chinese,m,1,0.1,-64.28928902,0.93497238
QH,100,2,2024-06-14T13:43:19.545Z,english_881.wav,0,1,969,22,3,chinese,m,2,0.2,-2.07432692,0.58107235
QH,100,2,2024-06-14T13:43:19.545Z,english_881.wav,0,1,969,22,3,chinese,m,3,0.3,51.5536886,1.34691236
QH,100,2,2024-06-14T13:43:19.545Z,english_881.wav,0,1,969,22,3,chinese,m,4,0.32341667,65.74991707,0.85842561
QH,101,2,2024-06-14T13:43:19.545Z,english_251.wav,0,1,798,22,3,chinese,m,0,0,-35.26640223,1.59441442
QH,101,2,2024-06-14T13:43:19.545Z,english_251.wav,0,1,798,22,3,chinese,m,1,0.1,-82.14936791,1.21410308
QH,101,2,2024-06-14T13:43:19.545Z,english_251.wav,0,1,798,22,3,chinese,m,2,0.2,39.53587687,0.89125894
QH,101,2,2024-06-14T13:43:19.545Z,english_251.wav,0,1,798,22,3,chinese,m,3,0.3,-75.44024907,0.14763688
QH,101,2,2024-06-14T13:43:19.545Z,english_251.wav,0,1,798,22,3,chinese,m,4,0.32341667,26.94148116,1.71797298
QH,102,2,2024-06-14T13:43:19.545Z,english_598.wav,0,0,953,22,3,chinese,m,0,0,4.26365523,0.04069017
QH,102,2,2024-06-14T13:43:19.545Z,english_598.wav,0,0,953,22,3,chinese,m,1,0.1,-29.634957,1.27980102
QH,102,2,2024-06-14T13:43:19.545Z,english_598.wav,0,0,953,22,3,chinese,m,2,0.2,-17.49120793,0.98781586
QH,102,2,2024-06-14T13:43:19.545Z,english_598.wav,0,0,953,22,3,chinese,m,3,0.3,-34.93876912,1.55939702
QH,102,2,2024-06-14T13:43:19.545Z,english_598.wav,0,0,953,22,3,chinese,m,4,0.32341667,49.49845506,1.74128412
QH,103,2,2024-06-14T13:43:19.545Z,english_424.wav,0,1,555,22,3,chinese,m,0,0,-7.44814198,1.7438251
QH,103,2,2024-06-14T13:43:19.545Z,english_424.wav,0,1,555,22,3,chinese,m,1,0.1,9.0703424,1.33993463
QH,103,2,2024-06-14T13:43:19.545Z,english_424.wav,0,1,555,22,3,chinese,m,2,0.2,-65.6005214,0.96535207
QH,103,2,2024-06-14T13:43:19.545Z,english_424.wav,0,1,555,22,3,chinese,m,3,0.3,79.88163057,0.39557207
QH,103,2,2024-06-14T13:43:19.545Z,english_424.wav,0,1,555,22,3,chinese,m,4,0.32341667,48.78273262,0.47346175
QH,104,2,2024-06-14T13:43:19.545Z,english_232.wav,0,0,1814,22,3,chinese,m,0,0,15.13134779,0.53160298
QH,104,2,2024-06-14T13:43:19.545Z,english_232.wav,0,0,1814,22,3,chinese,m,1,0.1,-49.29605083,0.4519978
QH,104,2,2024-06-14T13:43:19.545Z,english_232.wav,0,0,1814,22,3,chinese,m,2,0.2,59.10606455,0.39260156
QH,104,2,2024-06-14T13:43:19.545Z,english_232.wav,0,0,1814,22,3,chinese,m,3,0.3,48.81708847,0.4692084
QH,104,2,2024-06-14T13:43:19.545Z,english_232.wav,0,0,1814,22,3,chinese,m,4,0.32341667,14.83590121,0.46233459
QH,105,2,2024-06-14T13:51:34.365Z,english_668.wav,0,0,1022,22,3,chinese,m,0,0,48.8265236,0.43768829
QH,105,2,2024-06-14T13:51:34.365Z,english_668.wav,0,0,1022,22,3,chinese,m,1,0.1,97.68090991,0.31983773
QH,105,2,2024-06-14T13:51:34.365Z,english_668.wav,0,0,1022,22,3,chinese,m,2,0.2,47.50182685,1.24438546
QH,105,2,2024-06-14T13:51:34.365Z,english_668.wav,0,0,1022,22,3,chinese,m,3,0.3,81.7432518,0.49120307
QH,105,2,2024-06-14T13:51:34.365Z,english_668.wav,0,0,1022,22,3,chinese,m,4,0.32341667,28.08178094,0.60639718
QH,106,2,2024-06-14T13:51:34.365Z,english_919.wav,0,0,687,22,3,chinese,m,0,0,-78.03270024,1.18744007
QH,106,2,2024-06-14T13:51:34.365Z,english_919.wav,0,0,687,22,3,chinese,m,1,0.1,24.9634274,0.32639994
QH,106,2,2024-06-14T13:51:34.365Z,english_919.wav,0,0,687,22,3,chinese,m,2,0.2,-36.24618286,1.14830442
QH,106,2,2024-06-14T13:51:34.365Z,english_919.wav,0,0,687,22,3,chinese,m,3,0.3,-67.38261266,0.75322619
QH,106,2,2024-06-14T13:51:34.365Z,english_919.wav,0,0,687,22,3,chinese,m,4,0.32341667,86.21803917,0.69239757
QH,107,2,2024-06-14T13:51:34.365Z,english_905.wav,0,0,764,22,3,chinese,m,0,0,73.76258642,1.30259847
QH,107,2,2024-06-14T13:51:34.365Z,english_905.wav,0,0,764,22,3,chinese,m,1,0.1,49.84186991,0.15786419
QH,107,2,2024-06-14T13:51:34.365Z,english_905.wav,0,0,764,22,3,chinese,m,2,0.2,-84.55275191,0.47562292
QH,107,2,2024-06-14T13:51:34.365Z,english_905.wav,0,0,764,22,3,chinese,m,3,0.3,70.45460649,1.69272047
QH,107,2,2024-06-14T13:51:34.365Z,english_905.wav,0,0,764,22,3,chinese,m,4,0.32341667,-84.87734561,1.28570309
QH,108,2,2024-06-14T13:51:34.365Z,english_133.wav,0,0,1119,22,3,chinese,m,0,0,12.35833749,0.72635311
QH,108,2,2024-06-14T13:51:34.365Z,english_133.wav,0,0,1119,22,3,chinese,m,1,0.1,40.12315016,1.38782059
QH,108,2,2024-06-14T13:51:34.365Z,english_133.wav,0,0,1119,22,3,chinese,m,2,0.2,21.09458129,0.15947395
QH,108,2,2024-06-14T13:51:34.365Z,english_133.wav,0,0,1119,22,3,chinese,m,3,0.3,-98.82286682,0.28433836
QH,108,2,2024-06-14T13:51:34.365Z,english_133.wav,0,0,1119,22,3,chinese,m,4,0.32341667,-85.44748976,1.2581514
QH,109,2,2024-06-14T13:51:34.365Z,english_168.wav,0,1,1056,22,3,chinese,m,0,0,-69.10300998,1.14537751
QH,109,2,2024-06-14T13:51:34.365Z,english_168.wav,0,1,1056,22,3,chinese,m,1,0.1,-24.44784794,1.06854972
QH,109,2,2024-06-14T13:51:34.365Z,english_168.wav,0,1,1056,22,3,chinese,m,2,0.2,35.31321785,0.45192262
QH,109,2,2024-06-14T13:51:34.365Z,english_168.wav,0,1,1056,22,3,chinese,m,3,0.3,-41.77498511,0.2846318
QH,109,2,2024-06-14T13:51:34.365Z,english_168.wav,0,1,1056,22,3,chinese,m,4,0.32341667,19.92389913,0.9853942
QH,110,2,2024-06-14T13:51:34.365Z,english_948.wav,0,1,932,22,3,chinese,m,0,0,12.28616187,1.33435242
QH,110,2,2024-06-14T13:51:34.365Z,english_948.wav,0,1,932,22,3,chinese,m,1,0.1,33.44634687,1.33862855
QH,110,2,2024-06-14T13:51:34.365Z,english_948.wav,0,1,932,22,3,chinese,m,2,0.2,98.80566767,1.25876505
QH,110,2,2024-06-14T13:51:34.365Z,english_948.wav,0,1,932,22,3,chinese,m,3,0.3,-93.57044844,1.87938727
QH,110,2,2024-06-14T13:51:34.365Z,english_948.wav,0,1,932,22,3,chinese,m,4,0.32341667,-51.09398555,1.88731406
QH,111,2,2024-06-14T13:51:34.365Z,english_546.wav,0,0,638,22,3,chinese,m,0,0,81.21590514,1.56657823
QH,111,2,2024-06-14T13:51:34.365Z,english_546.wav,0,0,638,22,3,chinese,m,1,0.1,75.01018689,0.84038259
QH,111,2,2024-06-14T13:51:34.365Z,english_546.wav,0,0,638,22,3,chinese,m,2,0.2,15.56226302,0.00684501
QH,111,2,2024-06-14T13:51:34.365Z,english_546.wav,0,0,638,22,3,chinese,m,3,0.3,48.30886192,1.68157273
QH,111,2,2024-06-14T13:51:34.365Z,english_546.wav,0,0,638,22,3,chinese,m,4,0.32341667,18.80923499,1.09409739
QH,112,2,2024-06-14T13:51:34.365Z,english_740.wav,0,0,1006,22,3,chinese,m,0,0,17.63845752,0.65519257
QH,112,2,2024-06-14T13:51:34.365Z,english_740.wav,0,0,1006,22,3,chinese,m,1,0.1,36.88289119,0.996231
QH,112,2,2024-06-14T13:51:34.365Z,english_740.wav,0,0,1006,22,3,chinese,m,2,0.2,-63.85348159,0.85360158
QH,112,2,2024-06-14T13:51:34.365Z,english_740.wav,0,0,1006,22,3,chinese,m,3,0.3,-97.96670479,1.42654033
QH,112,2,2024-06-14T13:51:34.365Z,english_740.wav,0,0,1006,22,3,chinese,m,4,0.32341667,43.035587,1.01691569
QH,113,2,2024-06-14T13:51:34.365Z,english_846.wav,0,0,916,22,3,chinese,m,0,0,61.87306923,1.6800264
QH,113,2,2024-06-14T13:51:34.365Z,english_846.wav,0,0,916,22,3,chinese,m,1,0.1,-5.64177324,0.32387551
QH,113,2,2024-06-14T13:51:34.365Z,english_846.wav,0,0,916,22,3,chinese,m,2,0.2,86.75305487,0.09122421
QH,113,2,2024-06-14T13:51:34.365Z,english_846.wav,0,0,916,22,3,chinese,m,3,0.3,-27.71752308,0.55014386
QH,113,2,2024-06-14T13:51:34.365Z,english_846.wav,0,0,916,22,3,chinese,m,4,0.32341667,-26.78048177,0.82256102
QH,114,2,2024-06-14T13:51:34.365Z,english_208.wav,0,1,838,22,3,chinese,m,0,0,-16.36413188,1.19542909
QH,114,2,2024-06-14T13:51:34.365Z,english_208.wav,0,1,838,22,3,chinese,m,1,0.1,25.67725806,0.42717457
QH,114,2,2024-06-14T13:51:34.365Z,english_208.wav,0,1,838,22,3,chinese,m,2,0.2,15.43722313,1.01088833
QH,114,2,2024-06-14T13:51:34.365Z,english_208.wav,0,1,838,22,3,chinese,m,3,0.3,-39.3158007,1.09044814
QH,114,2,2024-06-14T13:51:34.365Z,english_208.wav,0,1,838,22,3,chinese,m,4,0.32341667,38.48956167,1.60091335
QH,115,2,2024-06-14T13:51:34.365Z,english_564.wav,0,0,847,22,3,chinese,m,0,0,-4.16228192,1.35245187
QH,115,2,2024-06-14T13:51:34.365Z,english_564.wav,0,0,847,22,3,chinese,m,1,0.1,-8.38376801,0.24798142
QH,115,2,2024-06-14T13:51:34.365Z,english_564.wav,0,0,847,22,3,chinese,m,2,0.2,52.82752554,1.26376743
QH,115,2,2024-06-14T13:51:34.365Z,english_564.wav,0,0,847,22,3,chinese,m,3,0.3,-92.64870354,0.73548171
QH,115,2,2024-06-14T13:51:34.365Z,english_564.wav,0,0,847,22,3,chinese,m,4,0.32341667,-48.86146536,0.1394123
QH,116,2,2024-06-14T13:51:34.365Z,english_539.wav,0,1,771,22,3,chinese,m,0,0,-67.77604021,0.83598486
QH,116,2,2024-06-14T13:51:34.365Z,english_539.wav,0,1,771,22,3,chinese,m,1,0.1,61.22104537,1.51877163
QH,116,2,2024-06-14T13:51:34.365Z,english_539.wav,0,1,771,22,3,chinese,m,2,0.2,38.09257369,1.73578169
QH,116,2,2024-06-14T13:51:34.365Z,english_539.wav,0,1,771,22,3,chinese,m,3,0.3,-20.76875757,0.52680037
QH,116,2,2024-06-14T13:51:34.365Z,english_539.wav,0,1,771,22,3,chinese,m,4,0.32341667,-47.71444482,1.99278149
QH,117,2,2024-06-14T13:51:34.365Z,english_886.wav,0,1,1665,22,3,chinese,m,0,0,52.0334205,0.43451348
QH,117,2,2024-06-14T13:51:34.365Z,english_886.wav,0,1,1665,22,3,chinese,m,1,0.1,-34.60142464,1.57387994
QH,117,2,2024-06-14T13:51:34.365Z,english_886.wav,0,1,1665,22,3,chinese,m,2,0.2,77.69993065,1.05416836
QH,117,2,2024-06-14T13:51:34.365Z,english_886.wav,0,1,1665,22,3,chinese,m,3,0.3,29.08950905,0.32554246
QH,117,2,2024-06-14T13:51:34.365Z,english_886.wav,0,1,1665,22,3,chinese,m,4,0.32341667,-98.8324779,1.85669509
QH,118,2,2024-06-14T13:51:34.365Z,english_124.wav,0,1,2224,22,3,chinese,m,0,0,-16.92140416,1.25482105
QH,118,2,2024-06-14T13:51:34.365Z,english_124.wav,0,1,2224,22,3,chinese,m,1,0.1,97.41289205,1.97830042
QH,118,2,2024-06-14T13:51:34.365Z,english_124.wav,0,1,2224,22,3,chinese,m,2,0.2,-78.49167412,1.09846955
QH,118,2,2024-06-14T13:51:34.365Z,english_124.wav,0,1,2224,22,3,chinese,m,3,0.3,-3.48618202,0.36540564
QH,118,2,2024-06-14T13:51:34.365Z,english_124.wav,0,1,2224,22,3,chinese,m,4,0.32341667,5.32047068,0.96325389
QH,119,2,2024-06-14T13:51:34.365Z,english_739.wav,0,1,968,22,3,chinese,m,0,0,-30.44662447,1.4086692
QH,119,2,2024-06-14T13:51:34.365Z,english_739.wav,0,1,968,22,3,chinese,m,1,0.1,-27.69908881,0.95518545
QH,119,2,2024-06-14T13:51:34.365Z,english_739.wav,0,1,968,22,3,chinese,m,2,0.2,25.08576745,1.0815723
QH,119,2,2024-06-14T13:51:34.365Z,english_739.wav,0,1,968,22,3,chinese,m,3,0.3,-20.92476775,0.08724184
QH,119,2,2024-06-14T13:51:34.365Z,english_739.wav,0,1,968,22,3,chinese,m,4,0.32341667,-46.92266257,1.12979104
QH,120,2,2024-06-14T13:51:34.365Z,english_769.wav,0,0,870,22,3,chinese,m,0,0,-12.68288087,1.59358978
QH,120,2,2024-06-14T13:51:34.365Z,english_769.wav,0,0,870,22,3,chinese,m,1,0.1,13.58895245,0.16681031
QH,120,2,2024-06-14T13:51:34.365Z,english_769.wav,0,0,870,22,3,chinese,m,2,0.2,-5.57429841,0.74292099
QH,120,2,2024-06-14T13:51:34.365Z,english_769.wav,0,0,870,22,3,chinese,m,3,0.3,-26.44516544,0.17250104
QH,120,2,2024-06-14T13:51:34.365Z,english_769.wav,0,0,870,22,3,chinese,m,4,0.32341667,85.93285426,0.16730253
QH,121,2,2024-06-14T13:51:34.365Z,english_800.wav,0,1,864,22,3,chinese,m,0,0,-9.91001254,0.13142639
QH,121,2,2024-06-14T13:51:34.365Z,english_800.wav,0,1,864,22,3,chinese,m,1,0.1,-86.79409322,1.71040153
QH,121,2,2024-06-14T13:51:34.365Z,english_800.wav,0,1,864,22,3,chinese,m,2,0.2,-27.39997365,0.18637657
QH,121,2,2024-06-14T13:51:34.365Z,english_800.wav,0,1,864,22,3,chinese,m,3,0.3,13.46737707,1.09766523
QH,121,2,2024-06-14T13:51:34.365Z,english_800.wav,0,1,864,22,3,chinese,m,4,0.32341667,-32.56208711,1.57940615
QH,122,2,2024-06-14T13:51:34.365Z,english_511.wav,0,1,888,22,3,chinese,m,0,0,-54.05076571,1.68448531
QH,122,2,2024-06-14T13:51:34.365Z,english_511.wav,0,1,888,22,3,chinese,m,1,0.1,58.21305336,0.64957271
QH,122,2,2024-06-14T13:51:34.365Z,english_511.wav,0,1,888,22,3,chinese,m,2,0.2,93.28984864,1.47534814
QH,122,2,2024-06-14T13:51:34.365Z,english_511.wav,0,1,888,22,3,chinese,m,3,0.3,-93.08437199,1.38615571
QH,122,2,2024-06-14T13:51:34.365Z,english_511.wav,0,1,888,22,3,chinese,m,4,0.32341667,48.49476441,0.71972648
QH,123,2,2024-06-14T13:51:34.365Z,english_558.wav,0,0,1235,22,3,chinese,m,0,0,-73.38624366,1.58797859
QH,123,2,2024-06-14T13:51:34.365Z,english_558.wav,0,0,1235,22,3,chinese,m,1,0.1,-42.42633216,1.10525313
QH,123,2,2024-06-14T13:51:34.365Z,english_558.wav,0,0,1235,22,3,chinese,m,2,0.2,15.99713578,0.42598769
QH,123,2,2024-06-14T13:51:34.365Z,english_558.wav,0,0,1235,22,3,chinese,m,3,0.3,-33.12568725,0.25629603
QH,123,2,2024-06-14T13:51:34.365Z,english_558.wav,0,0,1235,22,3,chinese,m,4,0.32341667,44.00446366,1.81995896
QH,124,2,2024-06-14T13:51:34.365Z,english_437.wav,0,0,821,22,3,chinese,m,0,0,61.91803223,0.36516876
QH,124,2,2024-06-14T13:51:34.365Z,english_437.wav,0,0,821,22,3,chinese,m,1,0.1,0.99543568,0.43500315
QH,124,2,2024-06-14T13:51:34.365Z,english_437.wav,0,0,821,22,3,chinese,m,2,0.2,-50.96874522,1.25398366
QH,124,2,2024-06-14T13:51:34.365Z,english_437.wav,0,0,821,22,3,chinese,m,3,0.3,-47.73319396,0.60570222
QH,124,2,2024-06-14T13:51:34.365Z,english_437.wav,0,0,821,22,3,chinese,m,4,0.32341667,15.35939938,0.97208355
QH,125,2,2024-06-14T13:51:34.365Z,english_376.wav,0,1,1017,22,3,chinese,m,0,0,-10.66231765,0.83936518
QH,125,2,2024-06-14T13:51:34.365Z,english_376.wav,0,1,1017,22,3,chinese,m,1,0.1,-53.95799634,1.7265478
QH,125,2,2024-06-14T13:51:34.365Z,english_376.wav,0,1,1017,22,3,chinese,m,2,0.2,-44.60014177,0.44309389
QH,125,2,2024-06-14T13:51:34.365Z,english_376.wav,0,1,1017,22,3,chinese,m,3,0.3,-84.32777745,1.91772458
QH,125,2,2024-06-14T13:51:34.365Z,english_376.wav,0,1,1017,22,3,chinese,m,4,0.32341667,-2.76179289,0.76255227
QH,126,2,2024-06-14T13:51:34.365Z,english_596.wav,0,0,1863,22,3,chinese,m,0,0,90.29147433,0.88361056
QH,126,2,2024-06-14T13:51:34.365Z,english_596.wav,0,0,1863,22,3,chinese,m,1,0.1,12.52853873,0.63799557
QH,126,2,2024-06-14T13:51:34.365Z,english_596.wav,0,0,1863,22,3,chinese,m,2,0.2,50.53853174,0.09787331
QH,126,2,2024-06-14T13:51:34.365Z,english_596.wav,0,0,1863,22,3,chinese,m,3,0.3,-77.3590695,1.15168959
QH,126,2,2024-06-14T13:51:34.365Z,english_596.wav,0,0,1863,22,3,chinese,m,4,0.32341667,-1.65440801,0.06773829
QH,127,2,2024-06-14T13:51:34.365Z,english_395.wav,0,1,934,22,3,chinese,m,0,0,12.69072165,1.18485033
QH,127,2,2024-06-14T13:51:34.365Z,english_395.wav,0,1,934,22,3,chinese,m,1,0.1,16.88915645,0.64230571
QH,127,2,2024-06-14T13:51:34.365Z,english_395.wav,0,1,934,22,3,chinese,m,2,0.2,49.23789678,0.95454364
QH,127,2,2024-06-14T13:51:34.365Z,english_395.wav,0,1,934,22,3,chinese,m,3,0.3,39.87613746,0.75997929
QH,127,2,2024-06-14T13:51:34.365Z,english_395.wav,0,1,934,22,3,chinese,m,4,0.32341667,70.90138048,1.50770695
QH,128,2,2024-06-14T13:51:34.365Z,english_238.wav,0,1,1055,22,3,chinese,m,0,0,87.78466979,1.0750983
QH,128,2,2024-06-14T13:51:34.365Z,english_238.wav,0,1,1055,22,3,chinese,m,1,0.1,65.39287108,0.03626896
QH,128,2,2024-06-14T13:51:34.365Z,english_238.wav,0,1,1055,22,3,chinese,m,2,0.2,-38.39100082,1.9832234
QH,128,2,2024-06-14T13:51:34.365Z,english_238.wav,0,1,1055,22,3,chinese,m,3,0.3,-20.01297649,0.17604691
QH,128,2,2024-06-14T13:51:34.365Z,english_238.wav,0,1,1055,22,3,chinese,m,4,0.32341667,78.31880556,1.61383808
QH,129,2,2024-06-14T13:51:34.365Z,english_60.wav,0,1,1470,22,3,chinese,m,0,0,82.53369854,0.66834278
QH,129,2,2024-06-14T13:51:34.365Z,english_60.wav,0,1,1470,22,3,chinese,m,1,0.1,60.14491878,1.16350573
QH,129,2,2024-06-14T13:51:34.365Z,english_60.wav,0,1,1470,22,3,chinese,m,2,0.2,-26.84704149,1.24827189
QH,129,2,2024-06-14T13:51:34.365Z,english_60.wav,0,1,1470,22,3,chinese,m,3,0.3,-19.8784386,0.70182905
QH,129,2,2024-06-14T13:51:34.365Z,english_60.wav,0,1,1470,22,3,chinese,m,4,0.32341667,-26.04492652,0.20173025
QH,130,2,2024-06-14T13:51:34.365Z,english_389.wav,0,1,649,22,3,chinese,m,0,0,36.16487693,1.25286497
QH,130,2,2024-06-14T13:51:34.365Z,english_389.wav,0,1,649,22,3,chinese,m,1,0.1,-97.36259769,1.31396789
QH,130,2,2024-06-14T13:51:34.365Z,english_389.wav,0,1,649,22,3,chinese,m,2,0.2,24.50411951,1.84060757
QH,130,2,2024-06-14T13:51:34.365Z,english_389.wav,0,1,649,22,3,chinese,m,3,0.3,43.1395046,0.64046023
QH,130,2,2024-06-14T13:51:34.365Z,english_389.wav,0,1,649,22,3,chinese,m,4,0.32341667,85.14605982,1.47992762
QH,131,2,2024-06-14T13:51:34.365Z,english_402.wav,0,1,449,22,3,chinese,m,0,0,-69.75327375,0.88104294
QH,131,2,2024-06-14T13:51:34.365Z,english_402.wav,0,1,449,22,3,chinese,m,1,0.1,-37.13247603,1.50830761
QH,131,2,2024-06-14T13:51:34.365Z,english_402.wav,0,1,449,22,3,chinese,m,2,0.2,95.06865819,0.86613458
QH,131,2,2024-06-14T13:51:34.365Z,english_402.wav,0,1,449,22,3,chinese,m,3,0.3,-83.65219271,1.46195184
QH,131,2,2024-06-14T13:51:34.365Z,english_402.wav,0,1,449,22,3,chinese,m,4,0.32341667,-39.65623645,1.78030697
QH,132,2,2024-06-14T13:51:34.365Z,english_18.wav,0,1,2252,22,3,chinese,m,0,0,-61.9567004,0.45038722
QH,132,2,2024-06-14T13:51:34.365Z,english_18.wav,0,1,2252,22,3,chinese,m,1,0.1,39.2027204,1.56185221
QH,132,2,2024-06-14T13:51:34.365Z,english_18.wav,0,1,2252,22,3,chinese,m,2,0.2,-0.0626834214,0.80652275
QH,132,2,2024-06-14T13:51:34.365Z,english_18.wav,0,1,2252,22,3,chinese,m,3,0.3,-72.2820301,0.39505163
QH,132,2,2024-06-14T13:51:34.365Z,english_18.wav,0,1,2252,22,3,chinese,m,4,0.323416667,-52.9459242,0.50402069
QH,133,2,2024-06-14T13:51:34.365Z,english_189.wav,0,0,706,22,3,chinese,m,0,0,-22.70456848,0.82906961
QH,133,2,2024-06-14T13:51:34.365Z,english_189.wav,0,0,706,22,3,chinese,m,1,0.1,-12.00888723,0.58408113
QH,133,2,2024-06-14T13:51:34.365Z,english_189.wav,0,0,706,22,3,chinese,m,2,0.2,15.14046376,0.19058783
QH,133,2,2024-06-14T13:51:34.365Z,english_189.wav,0,0,706,22,3,chinese,m,3,0.3,-19.30106293,0.57788611
QH,133,2,2024-06-14T13:51:34.365Z,english_189.wav,0,0,706,22,3,chinese,m,4,0.32341667,-20.57313834,0.32577637
QH,134,2,2024-06-14T13:51:34.365Z,english_259.wav,0,1,653,22,3,chinese,m,0,0,7.90187791,1.3064553
QH,134,2,2024-06-14T13:51:34.365Z,english_259.wav,0,1,653,22,3,chinese,m,1,0.1,31.67295647,1.01100372
QH,134,2,2024-06-14T13:51:34.365Z,english_259.wav,0,1,653,22,3,chinese,m,2,0.2,-53.65780041,0.35520266
QH,134,2,2024-06-14T13:51:34.365Z,english_259.wav,0,1,653,22,3,chinese,m,3,0.3,-72.94929757,1.35187683
QH,134,2,2024-06-14T13:51:34.365Z,english_259.wav,0,1,653,22,3,chinese,m,4,0.32341667,58.35152721,1.39599087
QH,135,2,2024-06-14T13:51:34.365Z,english_107.wav,0,1,728,22,3,chinese,m,0,0,-19.24931684,0.69122185
QH,135,2,2024-06-14T13:51:34.365Z,english_107.wav,0,1,728,22,3,chinese,m,1,0.1,24.04874113,0.13674094
QH,135,2,2024-06-14T13:51:34.365Z,english_107.wav,0,1,728,22,3,chinese,m,2,0.2,59.01955179,1.47608642
QH,135,2,2024-06-14T13:51:34.365Z,english_107.wav,0,1,728,22,3,chinese,m,3,0.3,49.74315823,1.52525824
QH,135,2,2024-06-14T13:51:34.365Z,english_107.wav,0,1,728,22,3,chinese,m,4,0.32341667,-75.23844627,0.11985114
QH,136,2,2024-06-14T13:51:34.365Z,english_468.wav,0,1,1299,22,3,chinese,m,0,0,-33.82586043,0.35164089
QH,136,2,2024-06-14T13:51:34.365Z,english_468.wav,0,1,1299,22,3,chinese,m,1,0.1,-42.55840131,0.20114733
QH,136,2,2024-06-14T13:51:34.365Z,english_468.wav,0,1,1299,22,3,chinese,m,2,0.2,-36.6492295,1.40729654
QH,136,2,2024-06-14T13:51:34.365Z,english_468.wav,0,1,1299,22,3,chinese,m,3,0.3,39.91321296,0.04300573
QH,136,2,2024-06-14T13:51:34.365Z,english_468.wav,0,1,1299,22,3,chinese,m,4,0.32341667,54.14936319,1.79642733
QH,137,2,2024-06-14T13:51:34.365Z,english_80.wav,0,1,1536,22,3,chinese,m,0,0,33.21374474,1.09809668
QH,137,2,2024-06-14T13:51:34.365Z,english_80.wav,0,1,1536,22,3,chinese,m,1,0.1,-72.2618742,1.73594877
QH,137,2,2024-06-14T13:51:34.365Z,english_80.wav,0,1,1536,22,3,chinese,m,2,0.2,-29.44860443,0.30037535
QH,137,2,2024-06-14T13:51:34.365Z,english_80.wav,0,1,1536,22,3,chinese,m,3,0.3,-33.36418129,0.36613598
QH,137,2,2024-06-14T13:51:34.365Z,english_80.wav,0,1,1536,22,3,chinese,m,4,0.32341667,-65.11319145,0.50687614
QH,138,2,2024-06-14T14:00:39.796Z,english_986.wav,0,1,932,22,3,chinese,m,0,0,36.93997263,1.7539978
QH,138,2,2024-06-14T14:00:39.796Z,english_986.wav,0,1,932,22,3,chinese,m,1,0.1,-76.80061303,1.40735445
QH,138,2,2024-06-14T14:00:39.796Z,english_986.wav,0,1,932,22,3,chinese,m,2,0.2,60.8418497,0.62226098
QH,138,2,2024-06-14T14:00:39.796Z,english_986.wav,0,1,932,22,3,chinese,m,3,0.3,-27.90828951,0.48175931
QH,138,2,2024-06-14T14:00:39.796Z,english_986.wav,0,1,932,22,3,chinese,m,4,0.32341667,99.51838141,1.5918282
QH,139,2,2024-06-14T14:00:39.796Z,english_160.wav,0,1,1357,22,3,chinese,m,0,0,2.54964477,0.54357393
QH,139,2,2024-06-14T14:00:39.796Z,english_160.wav,0,1,1357,22,3,chinese,m,1,0.1,26.84692557,1.29343216
QH,139,2,2024-06-14T14:00:39.796Z,english_160.wav,0,1,1357,22,3,chinese,m,2,0.2,72.58457191,0.42070854
QH,139,2,2024-06-14T14:00:39.796Z,english_160.wav,0,1,1357,22,3,chinese,m,3,0.3,-6.94481249,1.04489529
QH,139,2,2024-06-14T14:00:39.796Z,english_160.wav,0,1,1357,22,3,chinese,m,4,0.32341667,35.80656171,0.26802137
QH,140,2,2024-06-14T14:00:39.796Z,english_931.wav,0,1,413,22,3,chinese,m,0,0,-78.99767873,0.72988395
QH,140,2,2024-06-14T14:00:39.796Z,english_931.wav,0,1,413,22,3,chinese,m,1,0.1,-34.67093685,1.40858855
QH,140,2,2024-06-14T14:00:39.796Z,english_931.wav,0,1,413,22,3,chinese,m,2,0.2,2.25144273,1.82787629
QH,140,2,2024-06-14T14:00:39.796Z,english_931.wav,0,1,413,22,3,chinese,m,3,0.3,-93.87287365,1.51045502
QH,140,2,2024-06-14T14:00:39.796Z,english_931.wav,0,1,413,22,3,chinese,m,4,0.32341667,57.8562517,1.42241625
QH,141,2,2024-06-14T14:00:39.796Z,english_306.wav,0,1,405,22,3,chinese,m,0,0,-78.46406697,1.96625377
QH,141,2,2024-06-14T14:00:39.796Z,english_306.wav,0,1,405,22,3,chinese,m,1,0.1,-60.64765069,1.9128761
QH,141,2,2024-06-14T14:00:39.796Z,english_306.wav,0,1,405,22,3,chinese,m,2,0.2,41.654101,0.92284414
QH,141,2,2024-06-14T14:00:39.796Z,english_306.wav,0,1,405,22,3,chinese,m,3,0.3,58.45609749,1.12546267
QH,141,2,2024-06-14T14:00:39.796Z,english_306.wav,0,1,405,22,3,chinese,m,4,0.32341667,-89.32145871,0.77622038
QH,142,2,2024-06-14T14:00:39.796Z,english_720.wav,0,1,1296,22,3,chinese,m,0,0,85.23240719,1.23446246
QH,142,2,2024-06-14T14:00:39.796Z,english_720.wav,0,1,1296,22,3,chinese,m,1,0.1,78.65958559,0.77382892
QH,142,2,2024-06-14T14:00:39.796Z,english_720.wav,0,1,1296,22,3,chinese,m,2,0.2,-56.45174874,0.48705718
QH,142,2,2024-06-14T14:00:39.796Z,english_720.wav,0,1,1296,22,3,chinese,m,3,0.3,71.88898266,1.42335328
QH,142,2,2024-06-14T14:00:39.796Z,english_720.wav,0,1,1296,22,3,chinese,m,4,0.32341667,-9.13482,1.32495619
QH,143,2,2024-06-14T14:00:39.796Z,english_663.wav,0,1,475,22,3,chinese,m,0,0,55.84438863,1.29444713
QH,143,2,2024-06-14T14:00:39.796Z,english_663.wav,0,1,475,22,3,chinese,m,1,0.1,-89.02249371,0.90215198
QH,143,2,2024-06-14T14:00:39.796Z,english_663.wav,0,1,475,22,3,chinese,m,2,0.2,-13.61345685,1.61104603
QH,143,2,2024-06-14T14:00:39.796Z,english_663.wav,0,1,475,22,3,chinese,m,3,0.3,14.50375693,0.31375715
QH,143,2,2024-06-14T14:00:39.796Z,english_663.wav,0,1,475,22,3,chinese,m,4,0.32341667,80.63633164,1.01784406
QH,144,2,2024-06-14T14:00:39.796Z,english_12.wav,0,0,857,22,3,chinese,m,0,0,48.33680056,1.48429429
QH,144,2,2024-06-14T14:00:39.796Z,english_12.wav,0,0,857,22,3,chinese,m,1,0.1,27.41870997,0.15715938
QH,144,2,2024-06-14T14:00:39.796Z,english_12.wav,0,0,857,22,3,chinese,m,2,0.2,-39.95667364,0.62940339
QH,144,2,2024-06-14T14:00:39.796Z,english_12.wav,0,0,857,22,3,chinese,m,3,0.3,73.52964836,0.05281398
QH,144,2,2024-06-14T14:00:39.796Z,english_12.wav,0,0,857,22,3,chinese,m,4,0.32341667,-36.35494906,1.6412938
QH,145,2,2024-06-14T14:00:39.796Z,english_891.wav,0,1,730,22,3,chinese,m,0,0,21.29241244,0.7419472
QH,145,2,2024-06-14T14:00:39.796Z,english_891.wav,0,1,730,22,3,chinese,m,1,0.1,-1.23713702,1.09270952
QH,145,2,2024-06-14T14:00:39.796Z,english_891.wav,0,1,730,22,3,chinese,m,2,0.2,-74.86460599,0.8129571
QH,145,2,2024-06-14T14:00:39.796Z,english_891.wav,0,1,730,22,3,chinese,m,3,0.3,18.81587233,0.16019775
QH,145,2,2024-06-14T14:00:39.796Z,english_891.wav,0,1,730,22,3,chinese,m,4,0.32341667,35.3489582,1.17476401
QH,146,2,2024-06-14T14:00:39.796Z,english_967.wav,0,1,2193,22,3,chinese,m,0,0,-33.19777689,0.76720641
QH,146,2,2024-06-14T14:00:39.796Z,english_967.wav,0,1,2193,22,3,chinese,m,1,0.1,83.84847924,1.4094361
QH,146,2,2024-06-14T14:00:39.796Z,english_967.wav,0,1,2193,22,3,chinese,m,2,0.2,81.27362124,0.74435637
QH,146,2,2024-06-14T14:00:39.796Z,english_967.wav,0,1,2193,22,3,chinese,m,3,0.3,22.78466805,0.29904584
QH,146,2,2024-06-14T14:00:39.796Z,english_967.wav,0,1,2193,22,3,chinese,m,4,0.32341667,16.56894366,0.47687807
QH,147,2,2024-06-14T14:00:39.796Z,english_121.wav,0,1,1701,22,3,chinese,m,0,0,-30.24687583,0.23154591
QH,147,2,2024-06-14T14:00:39.796Z,english_121.wav,0,1,1701,22,3,chinese,m,1,0.1,-28.09260766,0.6680997
QH,147,2,2024-06-14T14:00:39.796Z,english_121.wav,0,1,1701,22,3,chinese,m,2,0.2,-29.54951374,1.79539672
QH,147,2,2024-06-14T14:00:39.796Z,english_121.wav,0,1,1701,22,3,chinese,m,3,0.3,-37.35286973,0.57554739
QH,147,2,2024-06-14T14:00:39.796Z,english_121.wav,0,1,1701,22,3,chinese,m,4,0.32341667,58.68529554,1.8709958
QH,148,2,2024-06-14T14:00:39.796Z,english_912.wav,0,1,634,22,3,chinese,m,0,0,-43.64864707,0.87210048
QH,148,2,2024-06-14T14:00:39.796Z,english_912.wav,0,1,634,22,3,chinese,m,1,0.1,94.54433808,1.43243955
QH,148,2,2024-06-14T14:00:39.796Z,english_912.wav,0,1,634,22,3,chinese,m,2,0.2,67.98324072,1.49899487
QH,148,2,2024-06-14T14:00:39.796Z,english_912.wav,0,1,634,22,3,chinese,m,3,0.3,9.27329172,0.42663795
QH,148,2,2024-06-14T14:00:39.796Z,english_912.wav,0,1,634,22,3,chinese,m,4,0.32341667,-55.44973818,0.19299009
QH,149,2,2024-06-14T14:00:39.796Z,english_254.wav,0,1,313,22,3,chinese,m,0,0,-9.19838866,1.99657173
QH,149,2,2024-06-14T14:00:39.796Z,english_254.wav,0,1,313,22,3,chinese,m,1,0.1,15.86633291,1.39044581
QH,149,2,2024-06-14T14:00:39.796Z,english_254.wav,0,1,313,22,3,chinese,m,2,0.2,-42.67167238,1.09933375
QH,149,2,2024-06-14T14:00:39.796Z,english_254.wav,0,1,313,22,3,chinese,m,3,0.3,-11.53254556,0.78821302
QH,149,2,2024-06-14T14:00:39.796Z,english_254.wav,0,1,313,22,3,chinese,m,4,0.32341667,-12.27536806,0.39297423
QH,150,3,2024-06-14T14:00:39.796Z,english_330.wav,0,1,1938,22,3,chinese,m,0,0,-66.0623823,1.84658225
QH,150,3,2024-06-14T14:00:39.796Z,english_330.wav,0,1,1938,22,3,chinese,m,1,0.1,-90.7862333,0.94726644
QH,150,3,2024-06-14T14:00:39.796Z,english_330.wav,0,1,1938,22,3,chinese,m,2,0.2,-0.00810713819,1.52006519
QH,150,3,2024-06-14T14:00:39.796Z,english_330.wav,0,1,1938,22,3,chinese,m,3,0.3,-61.2450651,1.63286843
QH,150,3,2024-06-14T14:00:39.796Z,english_330.wav,0,1,1938,22,3,chinese,m,4,0.323416667,-0.344586516,1.74173618
QH,151,3,2024-06-14T14:00:39.796Z,english_687.wav,0,0,2568,22,3,chinese,m,0,0,86.90300909,0.475784
QH,151,3,2024-06-14T14:00:39.796Z,english_687.wav,0,0,2568,22,3,chinese,m,1,0.1,79.71843279,0.40603367
QH,151,3,2024-06-14T14:00:39.796Z,english_687.wav,0,0,2568,22,3,chinese,m,2,0.2,34.94433723,0.97706088
QH,151,3,2024-06-14T14:00:39.796Z,english_687.wav,0,0,2568,22,3,chinese,m,3,0.3,-45.53952821,0.65075382
QH,151,3,2024-06-14T14:00:39.796Z,english_687.wav,0,0,2568,22,3,chinese,m,4,0.32341667,63.0204093,0.93918167
QH,152,3,2024-06-14T14:00:39.796Z,english_34.wav,0,1,1249,22,3,chinese,m,0,0,-48.07924103,1.44836266
QH,152,3,2024-06-14T14:00:39.796Z,english_34.wav,0,1,1249,22,3,chinese,m,1,0.1,-64.84739183,1.89580324
QH,152,3,2024-06-14T14:00:39.796Z,english_34.wav,0,1,1249,22,3,chinese,m,2,0.2,-20.81716265,0.64308549
QH,152,3,2024-06-14T14:00:39.796Z,english_34.wav,0,1,1249,22,3,chinese,m,3,0.3,91.13652067,0.0848332
QH,152,3,2024-06-14T14:00:39.796Z,english_34.wav,0,1,1249,22,3,chinese,m,4,0.32341667,-54.46543937,0.8036564
QH,153,3,2024-06-14T14:00:39.796Z,english_524.wav,0,0,996,22,3,chinese,m,0,0,-67.97449296,0.75247726
QH,153,3,2024-06-14T14:00:39.796Z,english_524.wav,0,0,996,22,3,chinese,m,1,0.1,11.07328714,0.25589602
QH,153,3,2024-06-14T14:00:39.796Z,english_524.wav,0,0,996,22,3,chinese,m,2,0.2,-43.89657964,0.70559599
QH,153,3,2024-06-14T14:00:39.796Z,english_524.wav,0,0,996,22,3,chinese,m,3,0.3,-41.15015074,0.70218971
QH,153,3,2024-06-14T14:00:39.796Z,english_524.wav,0,0,996,22,3,chinese,m,4,0.32341667,-33.76804681,0.11352048
QH,154,3,2024-06-14T14:00:39.796Z,english_706.wav,0,1,824,22,3,chinese,m,0,0,-14.02426606,0.18721001
QH,154,3,2024-06-14T14:00:39.796Z,english_706.wav,0,1,824,22,3,chinese,m,1,0.1,23.81630209,0.48464851
QH,154,3,2024-06-14T14:00:39.796Z,english_706.wav,0,1,824,22,3,chinese,m,2,0.2,94.24266466,1.46456973
QH,154,3,2024-06-14T14:00:39.796Z,english_706.wav,0,1,824,22,3,chinese,m,3,0.3,20.03642156,0.11403632
QH,154,3,2024-06-14T14:00:39.796Z,english_706.wav,0,1,824,22,3,chinese,m,4,0.32341667,57.92570785,0.61389372
QH,155,3,2024-06-14T14:00:39.796Z,english_446.wav,0,1,1078,22,3,chinese,m,0,0,-50.90487531,0.84721497
QH,155,3,2024-06-14T14:00:39.796Z,english_446.wav,0,1,1078,22,3,chinese,m,1,0.1,77.9515464,0.90863808
QH,155,3,2024-06-14T14:00:39.796Z,english_446.wav,0,1,1078,22,3,chinese,m,2,0.2,12.96913102,0.45582271
QH,155,3,2024-06-14T14:00:39.796Z,english_446.wav,0,1,1078,22,3,chinese,m,3,0.3,31.20275809,0.65529325
QH,155,3,2024-06-14T14:00:39.796Z,english_446.wav,0,1,1078,22,3,chinese,m,4,0.32341667,-30.39700356,0.08422993
QH,156,3,2024-06-14T14:00:39.796Z,english_300.wav,0,1,909,22,3,chinese,m,0,0,-57.32903368,1.31106943
QH,156,3,2024-06-14T14:00:39.796Z,english_300.wav,0,1,909,22,3,chinese,m,1,0.1,-14.80176218,1.36432179
QH,156,3,2024-06-14T14:00:39.796Z,english_300.wav,0,1,909,22,3,chinese,m,2,0.2,17.32090115,1.9756976
QH,156,3,2024-06-14T14:00:39.796Z,english_300.wav,0,1,909,22,3,chinese,m,3,0.3,9.38584248,1.38621255
QH,156,3,2024-06-14T14:00:39.796Z,english_300.wav,0,1,909,22,3,chinese,m,4,0.32341667,-54.58865419,1.60203422
QH,157,3,2024-06-14T14:00:39.796Z,english_933.wav,0,1,710,22,3,chinese,m,0,0,-48.12258855,1.54767366
QH,157,3,2024-06-14T14:00:39.796Z,english_933.wav,0,1,710,22,3,chinese,m,1,0.1,27.26905516,0.30219473
QH,157,3,2024-06-14T14:00:39.796Z,english_933.wav,0,1,710,22,3,chinese,m,2,0.2,0.35087756,1.50410475
QH,157,3,2024-06-14T14:00:39.796Z,english_933.wav,0,1,710,22,3,chinese,m,3,0.3,94.96402149,1.44820406
QH,157,3,2024-06-14T14:00:39.796Z,english_933.wav,0,1,710,22,3,chinese,m,4,0.32341667,61.52669097,0.05049928
QH,158,3,2024-06-14T14:06:22.833Z,english_288.wav,0,1,821,22,3,chinese,m,0,0,35.15100251,1.01330681
QH,158,3,2024-06-14T14:06:22.833Z,english_288.wav,0,1,821,22,3,chinese,m,1,0.1,49.55485069,0.90213232
QH,158,3,2024-06-14T14:06:22.833Z,english_288.wav,0,1,821,22,3,chinese,m,2,0.2,28.604189,1.8181607
QH,158,3,2024-06-14T14:06:22.833Z,english_288.wav,0,1,821,22,3,chinese,m,3,0.3,38.59633835,1.82579698
QH,158,3,2024-06-14T14:06:22.833Z,english_288.wav,0,1,821,22,3,chinese,m,4,0.32341667,-98.9026904,0.14571105
QH,159,3,2024-06-14T14:06:22.833Z,english_432.wav,0,1,1453,22,3,chinese,m,0,0,34.04923955,0.51661687
QH,159,3,2024-06-14T14:06:22.833Z,english_432.wav,0,1,1453,22,3,chinese,m,1,0.1,-20.16773507,0.2259012
QH,159,3,2024-06-14T14:06:22.833Z,english_432.wav,0,1,1453,22,3,chinese,m,2,0.2,58.06800811,1.98214485
QH,159,3,2024-06-14T14:06:22.833Z,english_432.wav,0,1,1453,22,3,chinese,m,3,0.3,46.82268278,1.23025235
QH,159,3,2024-06-14T14:06:22.833Z,english_432.wav,0,1,1453,22,3,chinese,m,4,0.32341667,16.04458546,1.72803009
QH,160,3,2024-06-14T14:06:22.833Z,english_890.wav,0,1,2139,22,3,chinese,m,0,0,-68.21158685,0.82535308
QH,160,3,2024-06-14T14:06:22.833Z,english_890.wav,0,1,2139,22,3,chinese,m,1,0.1,-83.19360642,1.79167423
QH,160,3,2024-06-14T14:06:22.833Z,english_890.wav,0,1,2139,22,3,chinese,m,2,0.2,79.13343252,0.78297904
QH,160,3,2024-06-14T14:06:22.833Z,english_890.wav,0,1,2139,22,3,chinese,m,3,0.3,80.54326003,0.23441015
QH,160,3,2024-06-14T14:06:22.833Z,english_890.wav,0,1,2139,22,3,chinese,m,4,0.32341667,-30.48737523,1.41044901
QH,161,3,2024-06-14T14:06:22.833Z,english_289.wav,0,1,1489,22,3,chinese,m,0,0,-55.97739865,0.95213243
QH,161,3,2024-06-14T14:06:22.833Z,english_289.wav,0,1,1489,22,3,chinese,m,1,0.1,-97.9801122,0.81858491
QH,161,3,2024-06-14T14:06:22.833Z,english_289.wav,0,1,1489,22,3,chinese,m,2,0.2,44.28679287,1.16094748
QH,161,3,2024-06-14T14:06:22.833Z,english_289.wav,0,1,1489,22,3,chinese,m,3,0.3,-74.0895039,0.92969459
QH,161,3,2024-06-14T14:06:22.833Z,english_289.wav,0,1,1489,22,3,chinese,m,4,0.32341667,-44.25845537,0.41504245
QH,162,3,2024-06-14T14:06:22.833Z,english_11.wav,0,0,1165,22,3,chinese,m,0,0,-20.45826732,1.19869378
QH,162,3,2024-06-14T14:06:22.833Z,english_11.wav,0,0,1165,22,3,chinese,m,1,0.1,-31.26113472,0.2059713
QH,162,3,2024-06-14T14:06:22.833Z,english_11.wav,0,0,1165,22,3,chinese,m,2,0.2,84.03210455,0.62296143
QH,162,3,2024-06-14T14:06:22.833Z,english_11.wav,0,0,1165,22,3,chinese,m,3,0.3,30.35463164,1.49781179
QH,162,3,2024-06-14T14:06:22.833Z,english_11.wav,0,0,1165,22,3,chinese,m,4,0.32341667,-63.36217442,0.18750748
QH,163,3,2024-06-14T14:06:22.833Z,english_927.wav,0,1,966,22,3,chinese,m,0,0,81.66311017,1.3783001
QH,163,3,2024-06-14T14:06:22.833Z,english_927.wav,0,1,966,22,3,chinese,m,1,0.1,0.87570902,0.51323502
QH,163,3,2024-06-14T14:06:22.833Z,english_927.wav,0,1,966,22,3,chinese,m,2,0.2,-59.21619647,0.98265958
QH,163,3,2024-06-14T14:06:22.833Z,english_927.wav,0,1,966,22,3,chinese,m,3,0.3,-57.6787773,0.30790993
QH,163,3,2024-06-14T14:06:22.833Z,english_927.wav,0,1,966,22,3,chinese,m,4,0.32341667,-30.87043146,1.17222751
QH,164,3,2024-06-14T14:06:22.833Z,english_929.wav,0,0,1510,22,3,chinese,m,0,0,29.19700723,1.75028237
QH,164,3,2024-06-14T14:06:22.833Z,english_929.wav,0,0,1510,22,3,chinese,m,1,0.1,15.63825327,0.16776534
QH,164,3,2024-06-14T14:06:22.833Z,english_929.wav,0,0,1510,22,3,chinese,m,2,0.2,3.65085895,0.15899819
QH,164,3,2024-06-14T14:06:22.833Z,english_929.wav,0,0,1510,22,3,chinese,m,3,0.3,-91.18848108,0.41497916
QH,164,3,2024-06-14T14:06:22.833Z,english_929.wav,0,0,1510,22,3,chinese,m,4,0.32341667,53.29025089,0.946821
QH,165,3,2024-06-14T14:06:22.833Z,english_581.wav,0,0,1934,22,3,chinese,m,0,0,-4.1565262,0.01704603
QH,165,3,2024-06-14T14:06:22.833Z,english_581.wav,0,0,1934,22,3,chinese,m,1,0.1,84.55344465,1.32903406
QH,165,3,2024-06-14T14:06:22.833Z,english_581.wav,0,0,1934,22,3,chinese,m,2,0.2,-57.45750027,1.58046526
QH,165,3,2024-06-14T14:06:22.833Z,english_581.wav,0,0,1934,22,3,chinese,m,3,0.3,-14.35569009,1.16633299
QH,165,3,2024-06-14T14:06:22.833Z,english_581.wav,0,0,1934,22,3,chinese,m,4,0.32341667,-54.33758456,1.20758605
QH,166,3,2024-06-14T14:06:22.833Z,english_61.wav,0,1,1485,22,3,chinese,m,0,0,-58.73450167,1.5196582
QH,166,3,2024-06-14T14:06:22.833Z,english_61.wav,0,1,1485,22,3,chinese,m,1,0.1,-68.77732169,0.79346499
QH,166,3,2024-06-14T14:06:22.833Z,english_61.wav,0,1,1485,22,3,chinese,m,2,0.2,-61.07430116,0.90548432
QH,166,3,2024-06-14T14:06:22.833Z,english_61.wav,0,1,1485,22,3,chinese,m,3,0.3,-87.12791991,1.71431728
QH,166,3,2024-06-14T14:06:22.833Z,english_61.wav,0,1,1485,22,3,chinese,m,4,0.32341667,47.32358741,0.57778581
QH,167,3,2024-06-14T14:09:11.778Z,english_469.wav,0,1,651,22,3,chinese,m,0,0,-12.92877168,0.59007764
QH,167,3,2024-06-14T14:09:11.778Z,english_469.wav,0,1,651,22,3,chinese,m,1,0.1,-67.35237443,1.36577084
QH,167,3,2024-06-14T14:09:11.778Z,english_469.wav,0,1,651,22,3,chinese,m,2,0.2,-70.76493751,1.86337992
QH,167,3,2024-06-14T14:09:11.778Z,english_469.wav,0,1,651,22,3,chinese,m,3,0.3,86.785725,1.85233296
QH,167,3,2024-06-14T14:09:11.778Z,english_469.wav,0,1,651,22,3,chinese,m,4,0.32341667,-36.33255728,1.108986
QH,168,3,2024-06-14T14:09:11.778Z,english_980.wav,0,0,861,22,3,chinese,m,0,0,-32.33629208,1.21290567
QH,168,3,2024-06-14T14:09:11.778Z,english_980.wav,0,0,861,22,3,chinese,m,1,0.1,-4.4140807,0.22350007
QH,168,3,2024-06-14T14:09:11.778Z,english_980.wav,0,0,861,22,3,chinese,m,2,0.2,76.81412515,1.68078519
QH,168,3,2024-06-14T14:09:11.778Z,english_980.wav,0,0,861,22,3,chinese,m,3,0.3,-16.24877133,0.16816052
QH,168,3,2024-06-14T14:09:11.778Z,english_980.wav,0,0,861,22,3,chinese,m,4,0.32341667,-26.44128118,1.48722631
QH,169,3,2024-06-14T14:09:11.778Z,english_201.wav,0,1,1914,22,3,chinese,m,0,0,-11.66329209,1.59313322
QH,169,3,2024-06-14T14:09:11.778Z,english_201.wav,0,1,1914,22,3,chinese,m,1,0.1,-73.85436231,1.78385616
QH,169,3,2024-06-14T14:09:11.778Z,english_201.wav,0,1,1914,22,3,chinese,m,2,0.2,-12.5199597,0.57641365
QH,169,3,2024-06-14T14:09:11.778Z,english_201.wav,0,1,1914,22,3,chinese,m,3,0.3,-44.18013019,1.54371285
QH,169,3,2024-06-14T14:09:11.778Z,english_201.wav,0,1,1914,22,3,chinese,m,4,0.32341667,47.68284229,1.11944384
QH,170,3,2024-06-14T14:09:11.778Z,english_824.wav,0,1,869,22,3,chinese,m,0,0,80.46503136,1.43025592
QH,170,3,2024-06-14T14:09:11.778Z,english_824.wav,0,1,869,22,3,chinese,m,1,0.1,-48.668347,0.89138167
QH,170,3,2024-06-14T14:09:11.778Z,english_824.wav,0,1,869,22,3,chinese,m,2,0.2,37.27765876,1.91281619
QH,170,3,2024-06-14T14:09:11.778Z,english_824.wav,0,1,869,22,3,chinese,m,3,0.3,-91.29945309,0.71335031
QH,170,3,2024-06-14T14:09:11.778Z,english_824.wav,0,1,869,22,3,chinese,m,4,0.32341667,14.46507007,0.89780818
QH,171,3,2024-06-14T14:09:11.778Z,english_499.wav,0,1,905,22,3,chinese,m,0,0,-62.75547094,0.4212983
QH,171,3,2024-06-14T14:09:11.778Z,english_499.wav,0,1,905,22,3,chinese,m,1,0.1,28.73361796,1.54082224
QH,171,3,2024-06-14T14:09:11.778Z,english_499.wav,0,1,905,22,3,chinese,m,2,0.2,-71.86053711,1.07919976
QH,171,3,2024-06-14T14:09:11.778Z,english_499.wav,0,1,905,22,3,chinese,m,3,0.3,-44.40399931,1.20425095
QH,171,3,2024-06-14T14:09:11.778Z,english_499.wav,0,1,905,22,3,chinese,m,4,0.32341667,-2.72335033,0.4618338
QH,172,3,2024-06-14T14:09:11.778Z,english_681.wav,0,1,722,22,3,chinese,m,0,0,65.45313908,1.43173201
QH,172,3,2024-06-14T14:09:11.778Z,english_681.wav,0,1,722,22,3,chinese,m,1,0.1,23.22224239,1.64604346
QH,172,3,2024-06-14T14:09:11.778Z,english_681.wav,0,1,722,22,3,chinese,m,2,0.2,44.35096717,0.82186037
QH,172,3,2024-06-14T14:09:11.778Z,english_681.wav,0,1,722,22,3,chinese,m,3,0.3,67.45757963,0.26689352
QH,172,3,2024-06-14T14:09:11.778Z,english_681.wav,0,1,722,22,3,chinese,m,4,0.32341667,55.5822091,1.64490636
QH,173,3,2024-06-14T14:09:11.778Z,english_113.wav,0,1,1852,22,3,chinese,m,0,0,8.7952765,0.51001639
QH,173,3,2024-06-14T14:09:11.778Z,english_113.wav,0,1,1852,22,3,chinese,m,1,0.1,91.94692023,1.45766025
QH,173,3,2024-06-14T14:09:11.778Z,english_113.wav,0,1,1852,22,3,chinese,m,2,0.2,-6.68088057,1.25674442
QH,173,3,2024-06-14T14:09:11.778Z,english_113.wav,0,1,1852,22,3,chinese,m,3,0.3,38.28142065,1.93213547
QH,173,3,2024-06-14T14:09:11.778Z,english_113.wav,0,1,1852,22,3,chinese,m,4,0.32341667,-37.19939988,0.45590133
QH,174,3,2024-06-14T14:09:11.778Z,english_673.wav,0,0,1254,22,3,chinese,m,0,0,-57.74220233,1.16794182
QH,174,3,2024-06-14T14:09:11.778Z,english_673.wav,0,0,1254,22,3,chinese,m,1,0.1,51.69168463,0.24005868
QH,174,3,2024-06-14T14:09:11.778Z,english_673.wav,0,0,1254,22,3,chinese,m,2,0.2,32.71998218,1.1491536
QH,174,3,2024-06-14T14:09:11.778Z,english_673.wav,0,0,1254,22,3,chinese,m,3,0.3,1.53841214,1.59180477
QH,174,3,2024-06-14T14:09:11.778Z,english_673.wav,0,0,1254,22,3,chinese,m,4,0.32341667,-95.68622946,1.00634228
QH,175,3,2024-06-14T14:09:11.778Z,english_327.wav,0,0,1631,22,3,chinese,m,0,0,-65.34261839,0.94624792
QH,175,3,2024-06-14T14:09:11.778Z,english_327.wav,0,0,1631,22,3,chinese,m,1,0.1,-88.88296173,0.88463276
QH,175,3,2024-06-14T14:09:11.778Z,english_327.wav,0,0,1631,22,3,chinese,m,2,0.2,-52.48624316,0.8064175
QH,175,3,2024-06-14T14:09:11.778Z,english_327.wav,0,0,1631,22,3,chinese,m,3,0.3,35.3894457,1.08656597
QH,175,3,2024-06-14T14:09:11.778Z,english_327.wav,0,0,1631,22,3,chinese,m,4,0.32341667,-31.26503482,0.95323019
QH,176,3,2024-06-14T14:09:11.778Z,english_323.wav,0,1,810,22,3,chinese,m,0,0,92.33188111,1.59668922
QH,176,3,2024-06-14T14:09:11.778Z,english_323.wav,0,1,810,22,3,chinese,m,1,0.1,4.22577609,1.75306106
QH,176,3,2024-06-14T14:09:11.778Z,english_323.wav,0,1,810,22,3,chinese,m,2,0.2,-35.48560344,1.06071567
QH,176,3,2024-06-14T14:09:11.778Z,english_323.wav,0,1,810,22,3,chinese,m,3,0.3,7.73763769,1.9328625
QH,176,3,2024-06-14T14:09:11.778Z,english_323.wav,0,1,810,22,3,chinese,m,4,0.32341667,55.62458321,1.27347405
QH,177,3,2024-06-14T14:09:11.778Z,english_733.wav,0,1,492,22,3,chinese,m,0,0,-77.09135463,1.21028291
QH,177,3,2024-06-14T14:09:11.778Z,english_733.wav,0,1,492,22,3,chinese,m,1,0.1,-30.68901019,1.14931675
QH,177,3,2024-06-14T14:09:11.778Z,english_733.wav,0,1,492,22,3,chinese,m,2,0.2,-27.18135709,1.68866455
QH,177,3,2024-06-14T14:09:11.778Z,english_733.wav,0,1,492,22,3,chinese,m,3,0.3,-10.74804936,0.29390693
QH,177,3,2024-06-14T14:09:11.778Z,english_733.wav,0,1,492,22,3,chinese,m,4,0.32341667,-57.14773718,0.43305962
QH,178,3,2024-06-14T14:09:11.778Z,english_837.wav,0,1,897,22,3,chinese,m,0,0,-10.72674788,0.56055933
QH,178,3,2024-06-14T14:09:11.778Z,english_837.wav,0,1,897,22,3,chinese,m,1,0.1,33.60933966,1.16716927
QH,178,3,2024-06-14T14:09:11.778Z,english_837.wav,0,1,897,22,3,chinese,m,2,0.2,-1.37827911,1.02731607
QH,178,3,2024-06-14T14:09:11.778Z,english_837.wav,0,1,897,22,3,chinese,m,3,0.3,29.3498758,1.96665864
QH,178,3,2024-06-14T14:09:11.778Z,english_837.wav,0,1,897,22,3,chinese,m,4,0.32341667,31.86641091,0.45425732
QH,179,3,2024-06-14T14:09:11.778Z,english_382.wav,0,0,1186,22,3,chinese,m,0,0,-83.35497559,1.24516413
QH,179,3,2024-06-14T14:09:11.778Z,english_382.wav,0,0,1186,22,3,chinese,m,1,0.1,7.83115402,0.59675254
QH,179,3,2024-06-14T14:09:11.778Z,english_382.wav,0,0,1186,22,3,chinese,m,2,0.2,77.46115257,0.61036026
QH,179,3,2024-06-14T14:09:11.778Z,english_382.wav,0,0,1186,22,3,chinese,m,3,0.3,89.755233,1.95554414
QH,179,3,2024-06-14T14:09:11.778Z,english_382.wav,0,0,1186,22,3,chinese,m,4,0.32341667,-36.08570956,1.60845727
QH,180,3,2024-06-14T14:09:11.778Z,english_693.wav,0,1,887,22,3,chinese,m,0,0,-83.71635172,0.35753224
QH,180,3,2024-06-14T14:09:11.778Z,english_693.wav,0,1,887,22,3,chinese,m,1,0.1,32.46406691,1.09553371
QH,180,3,2024-06-14T14:09:11.778Z,english_693.wav,0,1,887,22,3,chinese,m,2,0.2,8.27548994,1.67166692
QH,180,3,2024-06-14T14:09:11.778Z,english_693.wav,0,1,887,22,3,chinese,m,3,0.3,15.80660539,1.61413862
QH,180,3,2024-06-14T14:09:11.778Z,english_693.wav,0,1,887,22,3,chinese,m,4,0.32341667,74.32681132,1.90943184
QH,181,3,2024-06-14T14:09:11.778Z,english_361.wav,0,0,826,22,3,chinese,m,0,0,47.37783877,1.2281625
QH,181,3,2024-06-14T14:09:11.778Z,english_361.wav,0,0,826,22,3,chinese,m,1,0.1,41.96620543,0.32170701
QH,181,3,2024-06-14T14:09:11.778Z,english_361.wav,0,0,826,22,3,chinese,m,2,0.2,-99.83447432,0.41267147
QH,181,3,2024-06-14T14:09:11.778Z,english_361.wav,0,0,826,22,3,chinese,m,3,0.3,-83.75612903,0.32528287
QH,181,3,2024-06-14T14:09:11.778Z,english_361.wav,0,0,826,22,3,chinese,m,4,0.32341667,99.31228573,0.29737668
QH,182,3,2024-06-14T14:09:11.778Z,english_370.wav,0,1,712,22,3,chinese,m,0,0,-90.17078727,0.17796458
QH,182,3,2024-06-14T14:09:11.778Z,english_370.wav,0,1,712,22,3,chinese,m,1,0.1,-71.99280791,1.08934715
QH,182,3,2024-06-14T14:09:11.778Z,english_370.wav,0,1,712,22,3,chinese,m,2,0.2,-13.60727202,1.05914244
QH,182,3,2024-06-14T14:09:11.778Z,english_370.wav,0,1,712,22,3,chinese,m,3,0.3,-0.93192742,1.87852505
QH,182,3,2024-06-14T14:09:11.778Z,english_370.wav,0,1,712,22,3,chinese,m,4,0.32341667,33.27852394,1.24161401
QH,183,3,2024-06-14T14:09:11.778Z,english_353.wav,0,0,1811,22,3,chinese,m,0,0,51.44050484,0.16518243
QH,183,3,2024-06-14T14:09:11.778Z,english_353.wav,0,0,1811,22,3,chinese,m,1,0.1,-8.32491594,1.32533476
QH,183,3,2024-06-14T14:09:11.778Z,english_353.wav,0,0,1811,22,3,chinese,m,2,0.2,-53.32966552,0.41923861
QH,183,3,2024-06-14T14:09:11.778Z,english_353.wav,0,0,1811,22,3,chinese,m,3,0.3,68.29246543,1.87374553
QH,183,3,2024-06-14T14:09:11.778Z,english_353.wav,0,0,1811,22,3,chinese,m,4,0.32341667,-32.22441747,1.13071195
QH,184,3,2024-06-14T14:09:11.778Z,english_318.wav,0,0,1014,22,3,chinese,m,0,0,40.16064427,0.11467793
QH,184,3,2024-06-14T14:09:11.778Z,english_318.wav,0,0,1014,22,3,chinese,m,1,0.1,-52.58874178,0.6224104
QH,184,3,2024-06-14T14:09:11.778Z,english_318.wav,0,0,1014,22,3,chinese,m,2,0.2,46.7653316,0.05328619
QH,184,3,2024-06-14T14:09:11.778Z,english_318.wav,0,0,1014,22,3,chinese,m,3,0.3,-41.44559589,0.01138238
QH,184,3,2024-06-14T14:09:11.778Z,english_318.wav,0,0,1014,22,3,chinese,m,4,0.32341667,-2.50443948,1.16020285
QH,185,3,2024-06-14T14:09:11.778Z,english_410.wav,0,0,1972,22,3,chinese,m,0,0,-74.64506245,0.42358098
QH,185,3,2024-06-14T14:09:11.778Z,english_410.wav,0,0,1972,22,3,chinese,m,1,0.1,65.24401488,0.42526697
QH,185,3,2024-06-14T14:09:11.778Z,english_410.wav,0,0,1972,22,3,chinese,m,2,0.2,-65.86471953,1.12385183
QH,185,3,2024-06-14T14:09:11.778Z,english_410.wav,0,0,1972,22,3,chinese,m,3,0.3,98.79489106,0.33588109
QH,185,3,2024-06-14T14:09:11.778Z,english_410.wav,0,0,1972,22,3,chinese,m,4,0.32341667,14.95451541,1.7246864
QH,186,3,2024-06-14T14:09:11.778Z,english_171.wav,0,1,879,22,3,chinese,m,0,0,13.65984607,0.71637608
QH,186,3,2024-06-14T14:09:11.778Z,english_171.wav,0,1,879,22,3,chinese,m,1,0.1,70.55092655,1.80826384
QH,186,3,2024-06-14T14:09:11.778Z,english_171.wav,0,1,879,22,3,chinese,m,2,0.2,57.57935127,0.47277884
QH,186,3,2024-06-14T14:09:11.778Z,english_171.wav,0,1,879,22,3,chinese,m,3,0.3,-55.35579571,1.22036711
QH,186,3,2024-06-14T14:09:11.778Z,english_171.wav,0,1,879,22,3,chinese,m,4,0.32341667,13.04572565,0.00907712
QH,187,3,2024-06-14T14:09:11.778Z,english_998.wav,0,0,1892,22,3,chinese,m,0,0,-57.03196796,0.0179282
QH,187,3,2024-06-14T14:09:11.778Z,english_998.wav,0,0,1892,22,3,chinese,m,1,0.1,-12.93623633,1.72217412
QH,187,3,2024-06-14T14:09:11.778Z,english_998.wav,0,0,1892,22,3,chinese,m,2,0.2,-24.63186366,0.91011795
QH,187,3,2024-06-14T14:09:11.778Z,english_998.wav,0,0,1892,22,3,chinese,m,3,0.3,-10.49750637,1.24282972
QH,187,3,2024-06-14T14:09:11.778Z,english_998.wav,0,0,1892,22,3,chinese,m,4,0.32341667,22.76793653,0.40520665
QH,188,3,2024-06-14T14:09:11.778Z,english_536.wav,0,1,654,22,3,chinese,m,0,0,19.16157828,1.0914138
QH,188,3,2024-06-14T14:09:11.778Z,english_536.wav,0,1,654,22,3,chinese,m,1,0.1,-70.44875328,1.55996729
QH,188,3,2024-06-14T14:09:11.778Z,english_536.wav,0,1,654,22,3,chinese,m,2,0.2,9.3844651,1.22014226
QH,188,3,2024-06-14T14:09:11.778Z,english_536.wav,0,1,654,22,3,chinese,m,3,0.3,54.79833109,0.24268308
QH,188,3,2024-06-14T14:09:11.778Z,english_536.wav,0,1,654,22,3,chinese,m,4,0.32341667,-43.58683919,1.12643869
QH,189,3,2024-06-14T14:09:11.778Z,english_629.wav,0,0,902,22,3,chinese,m,0,0,76.68747977,0.56482572
QH,189,3,2024-06-14T14:09:11.778Z,english_629.wav,0,0,902,22,3,chinese,m,1,0.1,72.0676039,0.14075004
QH,189,3,2024-06-14T14:09:11.778Z,english_629.wav,0,0,902,22,3,chinese,m,2,0.2,-3.42071834,0.80885654
QH,189,3,2024-06-14T14:09:11.778Z,english_629.wav,0,0,902,22,3,chinese,m,3,0.3,-75.36993348,1.43133267
QH,189,3,2024-06-14T14:09:11.778Z,english_629.wav,0,0,902,22,3,chinese,m,4,0.32341667,-15.4233884,0.14234351
QH,190,3,2024-06-14T14:09:11.778Z,english_615.wav,0,1,542,22,3,chinese,m,0,0,76.05955912,1.68553334
QH,190,3,2024-06-14T14:09:11.778Z,english_615.wav,0,1,542,22,3,chinese,m,1,0.1,54.62950786,1.5058876
QH,190,3,2024-06-14T14:09:11.778Z,english_615.wav,0,1,542,22,3,chinese,m,2,0.2,-31.02204933,1.66676809
QH,190,3,2024-06-14T14:09:11.778Z,english_615.wav,0,1,542,22,3,chinese,m,3,0.3,-3.27946314,1.09840801
QH,190,3,2024-06-14T14:09:11.778Z,english_615.wav,0,1,542,22,3,chinese,m,4,0.32341667,51.350795,0.25314986
QH,191,3,2024-06-14T14:09:11.778Z,english_332.wav,0,0,829,22,3,chinese,m,0,0,-51.41680869,1.58782391
QH,191,3,2024-06-14T14:09:11.778Z,english_332.wav,0,0,829,22,3,chinese,m,1,0.1,4.985172,0.72138411
QH,191,3,2024-06-14T14:09:11.778Z,english_332.wav,0,0,829,22,3,chinese,m,2,0.2,88.20327684,1.12265768
QH,191,3,2024-06-14T14:09:11.778Z,english_332.wav,0,0,829,22,3,chinese,m,3,0.3,-58.40734817,0.23569111
QH,191,3,2024-06-14T14:09:11.778Z,english_332.wav,0,0,829,22,3,chinese,m,4,0.32341667,68.30800912,1.23583309
QH,192,3,2024-06-14T14:09:11.778Z,english_922.wav,0,1,491,22,3,chinese,m,0,0,-90.36253489,0.33253962
QH,192,3,2024-06-14T14:09:11.778Z,english_922.wav,0,1,491,22,3,chinese,m,1,0.1,-6.38761956,1.51366693
QH,192,3,2024-06-14T14:09:11.778Z,english_922.wav,0,1,491,22,3,chinese,m,2,0.2,-78.09661245,0.40049791
QH,192,3,2024-06-14T14:09:11.778Z,english_922.wav,0,1,491,22,3,chinese,m,3,0.3,-92.75722173,1.29207892
QH,192,3,2024-06-14T14:09:11.778Z,english_922.wav,0,1,491,22,3,chinese,m,4,0.32341667,-80.16719401,1.40400382
QH,193,3,2024-06-14T14:09:11.778Z,english_391.wav,0,0,688,22,3,chinese,m,0,0,67.64906061,0.41951577
QH,193,3,2024-06-14T14:09:11.778Z,english_391.wav,0,0,688,22,3,chinese,m,1,0.1,79.28195584,0.03526883
QH,193,3,2024-06-14T14:09:11.778Z,english_391.wav,0,0,688,22,3,chinese,m,2,0.2,62.27299227,0.81828659
QH,193,3,2024-06-14T14:09:11.778Z,english_391.wav,0,0,688,22,3,chinese,m,3,0.3,-11.10764883,1.2900604
