subj,trial,block,date,stim,stim_order,response,rt,age,english,language,sex,param_index,segment,pitch,stretch
WH,0,0,2024-06-14T05:29:55.141Z,english_887.wav,0,0,3029,,,,,0,0,21.36154006,0.58574694
WH,0,0,2024-06-14T05:29:55.141Z,english_887.wav,0,0,3029,,,,,1,0.1,-21.46213737,0.48413962
WH,0,0,2024-06-14T05:29:55.141Z,english_887.wav,0,0,3029,,,,,2,0.2,-45.53850124,1.16923549
WH,0,0,2024-06-14T05:29:55.141Z,english_887.wav,0,0,3029,,,,,3,0.3,-75.36110743,1.46190157
WH,0,0,2024-06-14T05:29:55.141Z,english_887.wav,0,0,3029,,,,,4,0.32341667,-96.67184991,0.00789239
WH,1,0,2024-06-14T05:29:55.141Z,english_548.wav,0,1,1703,,,,,0,0,19.39315344,0.41811488
WH,1,0,2024-06-14T05:29:55.141Z,english_548.wav,0,1,1703,,,,,1,0.1,82.09582914,1.70384437
WH,1,0,2024-06-14T05:29:55.141Z,english_548.wav,0,1,1703,,,,,2,0.2,-65.55781301,1.82142436
WH,1,0,2024-06-14T05:29:55.141Z,english_548.wav,0,1,1703,,,,,3,0.3,-5.02691035,1.13784798
WH,1,0,2024-06-14T05:29:55.141Z,english_548.wav,0,1,1703,,,,,4,0.32341667,62.63141303,1.73168063
WH,2,0,2024-06-14T05:29:55.141Z,english_483.wav,0,1,649,,,,,0,0,-5.76716701,0.46419013
WH,2,0,2024-06-14T05:29:55.141Z,english_483.wav,0,1,649,,,,,1,0.1,70.49761143,1.51640771
WH,2,0,2024-06-14T05:29:55.141Z,english_483.wav,0,1,649,,,,,2,0.2,-45.60331281,0.16811565
WH,2,0,2024-06-14T05:29:55.141Z,english_483.wav,0,1,649,,,,,3,0.3,83.6717315,0.53401791
WH,2,0,2024-06-14T05:29:55.141Z,english_483.wav,0,1,649,,,,,4,0.32341667,-49.24362833,1.0404632
WH,3,0,2024-06-14T05:29:55.141Z,english_580.wav,0,1,683,,,,,0,0,92.13406767,1.93694744
WH,3,0,2024-06-14T05:29:55.141Z,english_580.wav,0,1,683,,,,,1,0.1,-85.58685866,0.28773753
WH,3,0,2024-06-14T05:29:55.141Z,english_580.wav,0,1,683,,,,,2,0.2,57.10945482,0.86433335
WH,3,0,2024-06-14T05:29:55.141Z,english_580.wav,0,1,683,,,,,3,0.3,32.92004132,0.96651265
WH,3,0,2024-06-14T05:29:55.141Z,english_580.wav,0,1,683,,,,,4,0.32341667,52.08708517,1.25003658
WH,4,0,2024-06-14T05:29:55.141Z,english_676.wav,0,1,769,,,,,0,0,3.93099148,1.7716209
WH,4,0,2024-06-14T05:29:55.141Z,english_676.wav,0,1,769,,,,,1,0.1,73.76311644,1.97281878
WH,4,0,2024-06-14T05:29:55.141Z,english_676.wav,0,1,769,,,,,2,0.2,-26.92634129,1.42487848
WH,4,0,2024-06-14T05:29:55.141Z,english_676.wav,0,1,769,,,,,3,0.3,51.70874443,1.45099775
WH,4,0,2024-06-14T05:29:55.141Z,english_676.wav,0,1,769,,,,,4,0.32341667,-48.7675791,1.84822532
WH,5,0,2024-06-14T05:29:55.141Z,english_694.wav,0,0,1414,,,,,0,0,-79.88370205,0.99496101
WH,5,0,2024-06-14T05:29:55.141Z,english_694.wav,0,0,1414,,,,,1,0.1,-58.02841319,0.06406007
WH,5,0,2024-06-14T05:29:55.141Z,english_694.wav,0,0,1414,,,,,2,0.2,-50.54988317,0.5055253
WH,5,0,2024-06-14T05:29:55.141Z,english_694.wav,0,0,1414,,,,,3,0.3,-20.79864769,0.19498426
WH,5,0,2024-06-14T05:29:55.141Z,english_694.wav,0,0,1414,,,,,4,0.32341667,-73.64916114,0.36410653
WH,6,0,2024-06-14T05:29:55.141Z,english_403.wav,0,0,833,,,,,0,0,-92.65414009,1.93574734
WH,6,0,2024-06-14T05:29:55.141Z,english_403.wav,0,0,833,,,,,1,0.1,75.99659731,0.36447309
WH,6,0,2024-06-14T05:29:55.141Z,english_403.wav,0,0,833,,,,,2,0.2,-27.37801557,1.02888701
WH,6,0,2024-06-14T05:29:55.141Z,english_403.wav,0,0,833,,,,,3,0.3,-80.04540334,0.02385722
WH,6,0,2024-06-14T05:29:55.141Z,english_403.wav,0,0,833,,,,,4,0.32341667,30.50648557,1.40553938
WH,7,0,2024-06-14T05:29:55.141Z,english_347.wav,0,0,668,,,,,0,0,34.89178431,1.32203506
WH,7,0,2024-06-14T05:29:55.141Z,english_347.wav,0,0,668,,,,,1,0.1,53.24978685,0.28714436
WH,7,0,2024-06-14T05:29:55.141Z,english_347.wav,0,0,668,,,,,2,0.2,4.11185022,1.66093526
WH,7,0,2024-06-14T05:29:55.141Z,english_347.wav,0,0,668,,,,,3,0.3,89.26663646,1.29826057
WH,7,0,2024-06-14T05:29:55.141Z,english_347.wav,0,0,668,,,,,4,0.32341667,-53.02646266,0.05504814
WH,8,0,2024-06-14T05:29:55.141Z,english_199.wav,0,0,740,,,,,0,0,-24.89956817,0.07306367
WH,8,0,2024-06-14T05:29:55.141Z,english_199.wav,0,0,740,,,,,1,0.1,-48.49200931,0.10334581
WH,8,0,2024-06-14T05:29:55.141Z,english_199.wav,0,0,740,,,,,2,0.2,-89.66548778,1.49062114
WH,8,0,2024-06-14T05:29:55.141Z,english_199.wav,0,0,740,,,,,3,0.3,29.20785813,0.36717513
WH,8,0,2024-06-14T05:29:55.141Z,english_199.wav,0,0,740,,,,,4,0.32341667,-88.68286362,1.33179809
WH,9,0,2024-06-14T05:29:55.141Z,english_805.wav,0,1,665,,,,,0,0,-11.97504695,0.06029378
WH,9,0,2024-06-14T05:29:55.141Z,english_805.wav,0,1,665,,,,,1,0.1,96.82911573,0.81391401
WH,9,0,2024-06-14T05:29:55.141Z,english_805.wav,0,1,665,,,,,2,0.2,7.51835152,1.33531055
WH,9,0,2024-06-14T05:29:55.141Z,english_805.wav,0,1,665,,,,,3,0.3,2.47378187,1.7608484
WH,9,0,2024-06-14T05:29:55.141Z,english_805.wav,0,1,665,,,,,4,0.32341667,-43.26336213,1.4289718
WH,10,0,2024-06-14T05:29:55.141Z,english_508.wav,0,1,1470,,,,,0,0,-21.23116318,1.79614382
WH,10,0,2024-06-14T05:29:55.141Z,english_508.wav,0,1,1470,,,,,1,0.1,-27.56583205,0.60449395
WH,10,0,2024-06-14T05:29:55.141Z,english_508.wav,0,1,1470,,,,,2,0.2,64.21774851,0.56582153
WH,10,0,2024-06-14T05:29:55.141Z,english_508.wav,0,1,1470,,,,,3,0.3,-9.24056951,1.01665474
WH,10,0,2024-06-14T05:29:55.141Z,english_508.wav,0,1,1470,,,,,4,0.32341667,-9.74670904,0.78905044
WH,11,0,2024-06-14T05:29:55.141Z,english_532.wav,0,1,809,,,,,0,0,-19.59321792,1.69826346
WH,11,0,2024-06-14T05:29:55.141Z,english_532.wav,0,1,809,,,,,1,0.1,84.44945775,1.19849103
WH,11,0,2024-06-14T05:29:55.141Z,english_532.wav,0,1,809,,,,,2,0.2,-5.6477907,0.05164805
WH,11,0,2024-06-14T05:29:55.141Z,english_532.wav,0,1,809,,,,,3,0.3,-66.11375502,0.74129516
WH,11,0,2024-06-14T05:29:55.141Z,english_532.wav,0,1,809,,,,,4,0.32341667,-46.16722618,0.11393119
WH,12,0,2024-06-14T05:29:55.141Z,english_834.wav,0,0,630,,,,,0,0,-64.94927172,0.98752234
WH,12,0,2024-06-14T05:29:55.141Z,english_834.wav,0,0,630,,,,,1,0.1,49.61052881,1.31122352
WH,12,0,2024-06-14T05:29:55.141Z,english_834.wav,0,0,630,,,,,2,0.2,-25.04715585,0.09065599
WH,12,0,2024-06-14T05:29:55.141Z,english_834.wav,0,0,630,,,,,3,0.3,95.09819394,1.07854905
WH,12,0,2024-06-14T05:29:55.141Z,english_834.wav,0,0,630,,,,,4,0.32341667,84.16953653,1.76453498
WH,13,0,2024-06-14T05:29:55.141Z,english_138.wav,0,1,468,,,,,0,0,-79.80620147,0.37063564
WH,13,0,2024-06-14T05:29:55.141Z,english_138.wav,0,1,468,,,,,1,0.1,-15.42889109,0.81801141
WH,13,0,2024-06-14T05:29:55.141Z,english_138.wav,0,1,468,,,,,2,0.2,-88.31677226,0.0634538
WH,13,0,2024-06-14T05:29:55.141Z,english_138.wav,0,1,468,,,,,3,0.3,26.6486106,1.85131452
WH,13,0,2024-06-14T05:29:55.141Z,english_138.wav,0,1,468,,,,,4,0.32341667,-42.18894711,1.66059024
WH,14,0,2024-06-14T05:29:55.141Z,english_856.wav,0,0,636,,,,,0,0,-44.08940674,1.51880133
WH,14,0,2024-06-14T05:29:55.141Z,english_856.wav,0,0,636,,,,,1,0.1,-25.77644107,0.99524475
WH,14,0,2024-06-14T05:29:55.141Z,english_856.wav,0,0,636,,,,,2,0.2,6.39263247,1.11391415
WH,14,0,2024-06-14T05:29:55.141Z,english_856.wav,0,0,636,,,,,3,0.3,92.67536145,0.95575529
WH,14,0,2024-06-14T05:29:55.141Z,english_856.wav,0,0,636,,,,,4,0.32341667,45.15991817,1.02944292
WH,15,0,2024-06-14T05:29:55.141Z,english_911.wav,0,1,519,,,,,0,0,62.6913709,0.89860539
WH,15,0,2024-06-14T05:29:55.141Z,english_911.wav,0,1,519,,,,,1,0.1,-28.7089255,0.06791792
WH,15,0,2024-06-14T05:29:55.141Z,english_911.wav,0,1,519,,,,,2,0.2,-71.03383871,1.00076401
WH,15,0,2024-06-14T05:29:55.141Z,english_911.wav,0,1,519,,,,,3,0.3,93.02773855,1.24961505
WH,15,0,2024-06-14T05:29:55.141Z,english_911.wav,0,1,519,,,,,4,0.32341667,93.73973981,1.26639778
WH,16,0,2024-06-14T05:29:55.141Z,english_435.wav,0,0,481,,,,,0,0,-61.49548479,0.36819492
WH,16,0,2024-06-14T05:29:55.141Z,english_435.wav,0,0,481,,,,,1,0.1,18.53940612,1.77990606
WH,16,0,2024-06-14T05:29:55.141Z,english_435.wav,0,0,481,,,,,2,0.2,-39.20879804,1.09377229
WH,16,0,2024-06-14T05:29:55.141Z,english_435.wav,0,0,481,,,,,3,0.3,-30.66509024,1.98213584
WH,16,0,2024-06-14T05:29:55.141Z,english_435.wav,0,0,481,,,,,4,0.32341667,7.07056367,0.5936591
WH,17,0,2024-06-14T05:29:55.141Z,english_947.wav,0,1,230,,,,,0,0,73.13113362,0.1925557
WH,17,0,2024-06-14T05:29:55.141Z,english_947.wav,0,1,230,,,,,1,0.1,-55.13077299,1.89478059
WH,17,0,2024-06-14T05:29:55.141Z,english_947.wav,0,1,230,,,,,2,0.2,59.32217849,0.99662771
WH,17,0,2024-06-14T05:29:55.141Z,english_947.wav,0,1,230,,,,,3,0.3,-71.25946194,0.61263341
WH,17,0,2024-06-14T05:29:55.141Z,english_947.wav,0,1,230,,,,,4,0.32341667,39.2274254,0.46373334
WH,18,0,2024-06-14T05:29:55.141Z,english_61.wav,0,0,345,,,,,0,0,-58.73450167,1.5196582
WH,18,0,2024-06-14T05:29:55.141Z,english_61.wav,0,0,345,,,,,1,0.1,-68.77732169,0.79346499
WH,18,0,2024-06-14T05:29:55.141Z,english_61.wav,0,0,345,,,,,2,0.2,-61.07430116,0.90548432
WH,18,0,2024-06-14T05:29:55.141Z,english_61.wav,0,0,345,,,,,3,0.3,-87.12791991,1.71431728
WH,18,0,2024-06-14T05:29:55.141Z,english_61.wav,0,0,345,,,,,4,0.32341667,47.32358741,0.57778581
WH,19,0,2024-06-14T05:29:55.141Z,english_952.wav,0,1,422,,,,,0,0,64.91746033,1.00586425
WH,19,0,2024-06-14T05:29:55.141Z,english_952.wav,0,1,422,,,,,1,0.1,-25.84234774,1.28790365
WH,19,0,2024-06-14T05:29:55.141Z,english_952.wav,0,1,422,,,,,2,0.2,60.30097417,1.6668124
WH,19,0,2024-06-14T05:29:55.141Z,english_952.wav,0,1,422,,,,,3,0.3,-98.0606555,1.44616756
WH,19,0,2024-06-14T05:29:55.141Z,english_952.wav,0,1,422,,,,,4,0.32341667,-77.98984902,0.15831209
WH,20,0,2024-06-14T05:29:55.141Z,english_566.wav,0,1,819,,,,,0,0,70.56000247,1.04698608
WH,20,0,2024-06-14T05:29:55.141Z,english_566.wav,0,1,819,,,,,1,0.1,-0.18246418,1.13826263
WH,20,0,2024-06-14T05:29:55.141Z,english_566.wav,0,1,819,,,,,2,0.2,-23.7188651,1.91259561
WH,20,0,2024-06-14T05:29:55.141Z,english_566.wav,0,1,819,,,,,3,0.3,12.5469797,1.08561121
WH,20,0,2024-06-14T05:29:55.141Z,english_566.wav,0,1,819,,,,,4,0.32341667,-84.37997634,1.98926692
WH,21,0,2024-06-14T05:29:55.141Z,english_155.wav,0,1,1025,,,,,0,0,53.87474094,1.93436975
WH,21,0,2024-06-14T05:29:55.141Z,english_155.wav,0,1,1025,,,,,1,0.1,74.81745726,0.64472983
WH,21,0,2024-06-14T05:29:55.141Z,english_155.wav,0,1,1025,,,,,2,0.2,8.25192738,1.6098708
WH,21,0,2024-06-14T05:29:55.141Z,english_155.wav,0,1,1025,,,,,3,0.3,-52.88121257,1.15705679
WH,21,0,2024-06-14T05:29:55.141Z,english_155.wav,0,1,1025,,,,,4,0.32341667,48.31209788,0.66500292
WH,22,0,2024-06-14T05:29:55.141Z,english_280.wav,0,0,1530,,,,,0,0,88.60957906,0.0301642
WH,22,0,2024-06-14T05:29:55.141Z,english_280.wav,0,0,1530,,,,,1,0.1,84.68226706,1.61205195
WH,22,0,2024-06-14T05:29:55.141Z,english_280.wav,0,0,1530,,,,,2,0.2,-77.43679957,1.42137195
WH,22,0,2024-06-14T05:29:55.141Z,english_280.wav,0,0,1530,,,,,3,0.3,45.11946934,1.73240953
WH,22,0,2024-06-14T05:29:55.141Z,english_280.wav,0,0,1530,,,,,4,0.32341667,-36.96988582,0.09602122
WH,23,0,2024-06-14T05:29:55.141Z,english_539.wav,0,1,338,,,,,0,0,-67.77604021,0.83598486
WH,23,0,2024-06-14T05:29:55.141Z,english_539.wav,0,1,338,,,,,1,0.1,61.22104537,1.51877163
WH,23,0,2024-06-14T05:29:55.141Z,english_539.wav,0,1,338,,,,,2,0.2,38.09257369,1.73578169
WH,23,0,2024-06-14T05:29:55.141Z,english_539.wav,0,1,338,,,,,3,0.3,-20.76875757,0.52680037
WH,23,0,2024-06-14T05:29:55.141Z,english_539.wav,0,1,338,,,,,4,0.32341667,-47.71444482,1.99278149
WH,24,0,2024-06-14T05:29:55.141Z,english_318.wav,0,1,757,,,,,0,0,40.16064427,0.11467793
WH,24,0,2024-06-14T05:29:55.141Z,english_318.wav,0,1,757,,,,,1,0.1,-52.58874178,0.6224104
WH,24,0,2024-06-14T05:29:55.141Z,english_318.wav,0,1,757,,,,,2,0.2,46.7653316,0.05328619
WH,24,0,2024-06-14T05:29:55.141Z,english_318.wav,0,1,757,,,,,3,0.3,-41.44559589,0.01138238
WH,24,0,2024-06-14T05:29:55.141Z,english_318.wav,0,1,757,,,,,4,0.32341667,-2.50443948,1.16020285
WH,25,0,2024-06-14T05:29:55.141Z,english_858.wav,0,1,853,,,,,0,0,45.12570132,0.50395823
WH,25,0,2024-06-14T05:29:55.141Z,english_858.wav,0,1,853,,,,,1,0.1,-46.71359417,1.50658612
WH,25,0,2024-06-14T05:29:55.141Z,english_858.wav,0,1,853,,,,,2,0.2,-60.32464978,0.86887416
WH,25,0,2024-06-14T05:29:55.141Z,english_858.wav,0,1,853,,,,,3,0.3,-70.46241098,0.20520469
WH,25,0,2024-06-14T05:29:55.141Z,english_858.wav,0,1,853,,,,,4,0.32341667,76.51169453,1.05885662
WH,26,0,2024-06-14T05:29:55.141Z,english_359.wav,0,1,858,,,,,0,0,95.13315851,1.5844105
WH,26,0,2024-06-14T05:29:55.141Z,english_359.wav,0,1,858,,,,,1,0.1,95.71495863,0.46491803
WH,26,0,2024-06-14T05:29:55.141Z,english_359.wav,0,1,858,,,,,2,0.2,4.56295435,1.17107987
WH,26,0,2024-06-14T05:29:55.141Z,english_359.wav,0,1,858,,,,,3,0.3,-11.93773809,0.63485582
WH,26,0,2024-06-14T05:29:55.141Z,english_359.wav,0,1,858,,,,,4,0.32341667,-75.72789111,0.10666132
WH,27,0,2024-06-14T05:29:55.141Z,english_915.wav,0,0,819,,,,,0,0,40.39704719,0.11203387
WH,27,0,2024-06-14T05:29:55.141Z,english_915.wav,0,0,819,,,,,1,0.1,-77.86782689,0.449249
WH,27,0,2024-06-14T05:29:55.141Z,english_915.wav,0,0,819,,,,,2,0.2,21.84672988,0.02407483
WH,27,0,2024-06-14T05:29:55.141Z,english_915.wav,0,0,819,,,,,3,0.3,-56.0972156,1.6502756
WH,27,0,2024-06-14T05:29:55.141Z,english_915.wav,0,0,819,,,,,4,0.32341667,65.00594456,0.65362707
WH,28,0,2024-06-14T05:29:55.141Z,english_579.wav,0,1,766,,,,,0,0,78.52989573,1.74799876
WH,28,0,2024-06-14T05:29:55.141Z,english_579.wav,0,1,766,,,,,1,0.1,-26.17758211,0.36264633
WH,28,0,2024-06-14T05:29:55.141Z,english_579.wav,0,1,766,,,,,2,0.2,-65.60231522,1.15645327
WH,28,0,2024-06-14T05:29:55.141Z,english_579.wav,0,1,766,,,,,3,0.3,-66.03357835,1.81639149
WH,28,0,2024-06-14T05:29:55.141Z,english_579.wav,0,1,766,,,,,4,0.32341667,-36.23940811,1.38509752
WH,29,0,2024-06-14T05:29:55.141Z,english_615.wav,0,1,642,,,,,0,0,76.05955912,1.68553334
WH,29,0,2024-06-14T05:29:55.141Z,english_615.wav,0,1,642,,,,,1,0.1,54.62950786,1.5058876
WH,29,0,2024-06-14T05:29:55.141Z,english_615.wav,0,1,642,,,,,2,0.2,-31.02204933,1.66676809
WH,29,0,2024-06-14T05:29:55.141Z,english_615.wav,0,1,642,,,,,3,0.3,-3.27946314,1.09840801
WH,29,0,2024-06-14T05:29:55.141Z,english_615.wav,0,1,642,,,,,4,0.32341667,51.350795,0.25314986
WH,30,0,2024-06-14T05:29:55.141Z,english_402.wav,0,1,453,,,,,0,0,-69.75327375,0.88104294
WH,30,0,2024-06-14T05:29:55.141Z,english_402.wav,0,1,453,,,,,1,0.1,-37.13247603,1.50830761
WH,30,0,2024-06-14T05:29:55.141Z,english_402.wav,0,1,453,,,,,2,0.2,95.06865819,0.86613458
WH,30,0,2024-06-14T05:29:55.141Z,english_402.wav,0,1,453,,,,,3,0.3,-83.65219271,1.46195184
WH,30,0,2024-06-14T05:29:55.141Z,english_402.wav,0,1,453,,,,,4,0.32341667,-39.65623645,1.78030697
WH,31,0,2024-06-14T05:29:55.141Z,english_245.wav,0,1,365,,,,,0,0,74.89239003,1.30710747
WH,31,0,2024-06-14T05:29:55.141Z,english_245.wav,0,1,365,,,,,1,0.1,41.98679172,0.93119149
WH,31,0,2024-06-14T05:29:55.141Z,english_245.wav,0,1,365,,,,,2,0.2,99.42105985,1.84379828
WH,31,0,2024-06-14T05:29:55.141Z,english_245.wav,0,1,365,,,,,3,0.3,-75.11958538,1.72828743
WH,31,0,2024-06-14T05:29:55.141Z,english_245.wav,0,1,365,,,,,4,0.32341667,-62.10664415,0.50124118
WH,32,0,2024-06-14T05:29:55.141Z,english_693.wav,0,1,658,,,,,0,0,-83.71635172,0.35753224
WH,32,0,2024-06-14T05:29:55.141Z,english_693.wav,0,1,658,,,,,1,0.1,32.46406691,1.09553371
WH,32,0,2024-06-14T05:29:55.141Z,english_693.wav,0,1,658,,,,,2,0.2,8.27548994,1.67166692
WH,32,0,2024-06-14T05:29:55.141Z,english_693.wav,0,1,658,,,,,3,0.3,15.80660539,1.61413862
WH,32,0,2024-06-14T05:29:55.141Z,english_693.wav,0,1,658,,,,,4,0.32341667,74.32681132,1.90943184
WH,33,0,2024-06-14T05:29:55.141Z,english_972.wav,0,1,397,,,,,0,0,-87.82800068,1.28286493
WH,33,0,2024-06-14T05:29:55.141Z,english_972.wav,0,1,397,,,,,1,0.1,-25.45661385,0.89058027
WH,33,0,2024-06-14T05:29:55.141Z,english_972.wav,0,1,397,,,,,2,0.2,2.95853851,1.4716374
WH,33,0,2024-06-14T05:29:55.141Z,english_972.wav,0,1,397,,,,,3,0.3,84.61583696,0.6386035
WH,33,0,2024-06-14T05:29:55.141Z,english_972.wav,0,1,397,,,,,4,0.32341667,42.95706616,1.51056083
WH,34,0,2024-06-14T05:29:55.141Z,english_884.wav,0,1,344,,,,,0,0,77.1498115,1.83268558
WH,34,0,2024-06-14T05:29:55.141Z,english_884.wav,0,1,344,,,,,1,0.1,10.32602389,0.76817862
WH,34,0,2024-06-14T05:29:55.141Z,english_884.wav,0,1,344,,,,,2,0.2,4.15464736,1.59331573
WH,34,0,2024-06-14T05:29:55.141Z,english_884.wav,0,1,344,,,,,3,0.3,21.19252889,0.58913169
WH,34,0,2024-06-14T05:29:55.141Z,english_884.wav,0,1,344,,,,,4,0.32341667,-7.11336122,0.81393531
WH,35,0,2024-06-14T05:29:55.141Z,english_434.wav,0,1,412,,,,,0,0,-4.12787863,0.96421208
WH,35,0,2024-06-14T05:29:55.141Z,english_434.wav,0,1,412,,,,,1,0.1,-30.19441281,1.08561731
WH,35,0,2024-06-14T05:29:55.141Z,english_434.wav,0,1,412,,,,,2,0.2,41.04377471,1.46356301
WH,35,0,2024-06-14T05:29:55.141Z,english_434.wav,0,1,412,,,,,3,0.3,-32.43591961,0.25116585
WH,35,0,2024-06-14T05:29:55.141Z,english_434.wav,0,1,412,,,,,4,0.32341667,61.53108406,0.73120458
WH,36,0,2024-06-14T05:29:55.141Z,english_633.wav,0,1,335,,,,,0,0,-53.72283933,1.23998369
WH,36,0,2024-06-14T05:29:55.141Z,english_633.wav,0,1,335,,,,,1,0.1,14.71438877,1.35266241
WH,36,0,2024-06-14T05:29:55.141Z,english_633.wav,0,1,335,,,,,2,0.2,95.18630031,0.66132985
WH,36,0,2024-06-14T05:29:55.141Z,english_633.wav,0,1,335,,,,,3,0.3,96.89096157,0.52728002
WH,36,0,2024-06-14T05:29:55.141Z,english_633.wav,0,1,335,,,,,4,0.32341667,8.38596779,1.4824282
WH,37,0,2024-06-14T05:29:55.141Z,english_186.wav,0,1,1064,,,,,0,0,-54.7664391,1.87021502
WH,37,0,2024-06-14T05:29:55.141Z,english_186.wav,0,1,1064,,,,,1,0.1,-8.4263529,1.36390049
WH,37,0,2024-06-14T05:29:55.141Z,english_186.wav,0,1,1064,,,,,2,0.2,6.22451559,1.69942617
WH,37,0,2024-06-14T05:29:55.141Z,english_186.wav,0,1,1064,,,,,3,0.3,-12.35671223,1.8066537
WH,37,0,2024-06-14T05:29:55.141Z,english_186.wav,0,1,1064,,,,,4,0.32341667,86.21839615,1.2511354
WH,38,0,2024-06-14T05:29:55.141Z,english_669.wav,0,0,965,,,,,0,0,-58.38123624,0.53455866
WH,38,0,2024-06-14T05:29:55.141Z,english_669.wav,0,0,965,,,,,1,0.1,-80.20155876,0.64376179
WH,38,0,2024-06-14T05:29:55.141Z,english_669.wav,0,0,965,,,,,2,0.2,-25.59737246,0.76694756
WH,38,0,2024-06-14T05:29:55.141Z,english_669.wav,0,0,965,,,,,3,0.3,-30.25633946,1.36842807
WH,38,0,2024-06-14T05:29:55.141Z,english_669.wav,0,0,965,,,,,4,0.32341667,-70.78768349,0.06434218
WH,39,0,2024-06-14T05:29:55.141Z,english_708.wav,0,1,818,,,,,0,0,-27.19248895,0.74061838
WH,39,0,2024-06-14T05:29:55.141Z,english_708.wav,0,1,818,,,,,1,0.1,84.25795725,1.13599963
WH,39,0,2024-06-14T05:29:55.141Z,english_708.wav,0,1,818,,,,,2,0.2,-19.19551503,1.10086254
WH,39,0,2024-06-14T05:29:55.141Z,english_708.wav,0,1,818,,,,,3,0.3,29.88012033,0.53054382
WH,39,0,2024-06-14T05:29:55.141Z,english_708.wav,0,1,818,,,,,4,0.32341667,46.0858662,1.51974387
WH,40,0,2024-06-14T05:29:55.141Z,english_910.wav,0,1,286,,,,,0,0,-5.78748479,0.61840584
WH,40,0,2024-06-14T05:29:55.141Z,english_910.wav,0,1,286,,,,,1,0.1,25.040103,1.20431928
WH,40,0,2024-06-14T05:29:55.141Z,english_910.wav,0,1,286,,,,,2,0.2,-40.66398147,1.66594732
WH,40,0,2024-06-14T05:29:55.141Z,english_910.wav,0,1,286,,,,,3,0.3,-99.21011725,0.99007018
WH,40,0,2024-06-14T05:29:55.141Z,english_910.wav,0,1,286,,,,,4,0.32341667,30.82754841,0.23705338
WH,41,0,2024-06-14T05:29:55.141Z,english_899.wav,0,1,298,,,,,0,0,34.44970312,1.0262563
WH,41,0,2024-06-14T05:29:55.141Z,english_899.wav,0,1,298,,,,,1,0.1,-73.97598586,0.5565938
WH,41,0,2024-06-14T05:29:55.141Z,english_899.wav,0,1,298,,,,,2,0.2,4.84970015,0.08950317
WH,41,0,2024-06-14T05:29:55.141Z,english_899.wav,0,1,298,,,,,3,0.3,25.99530817,1.10823657
WH,41,0,2024-06-14T05:29:55.141Z,english_899.wav,0,1,298,,,,,4,0.32341667,7.0197251,1.27665612
WH,42,0,2024-06-14T05:29:55.141Z,english_342.wav,0,1,525,,,,,0,0,78.00911228,0.99673345
WH,42,0,2024-06-14T05:29:55.141Z,english_342.wav,0,1,525,,,,,1,0.1,-28.67768894,1.80563483
WH,42,0,2024-06-14T05:29:55.141Z,english_342.wav,0,1,525,,,,,2,0.2,73.55618202,1.38552336
WH,42,0,2024-06-14T05:29:55.141Z,english_342.wav,0,1,525,,,,,3,0.3,93.0509223,0.17145116
WH,42,0,2024-06-14T05:29:55.141Z,english_342.wav,0,1,525,,,,,4,0.32341667,-2.74816459,0.15059009
WH,43,0,2024-06-14T05:29:55.141Z,english_659.wav,0,0,1018,,,,,0,0,-86.13080632,0.77157019
WH,43,0,2024-06-14T05:29:55.141Z,english_659.wav,0,0,1018,,,,,1,0.1,39.51927718,1.34569204
WH,43,0,2024-06-14T05:29:55.141Z,english_659.wav,0,0,1018,,,,,2,0.2,-6.22185106,0.71695874
WH,43,0,2024-06-14T05:29:55.141Z,english_659.wav,0,0,1018,,,,,3,0.3,5.64287294,1.04110125
WH,43,0,2024-06-14T05:29:55.141Z,english_659.wav,0,0,1018,,,,,4,0.32341667,47.08694279,1.84115141
WH,44,0,2024-06-14T05:29:55.141Z,english_233.wav,0,1,395,,,,,0,0,-3.83672366,0.89757337
WH,44,0,2024-06-14T05:29:55.141Z,english_233.wav,0,1,395,,,,,1,0.1,-39.8423846,0.76715273
WH,44,0,2024-06-14T05:29:55.141Z,english_233.wav,0,1,395,,,,,2,0.2,85.69163348,1.38961473
WH,44,0,2024-06-14T05:29:55.141Z,english_233.wav,0,1,395,,,,,3,0.3,40.61484277,0.78787282
WH,44,0,2024-06-14T05:29:55.141Z,english_233.wav,0,1,395,,,,,4,0.32341667,-44.9800047,0.48224738
WH,45,0,2024-06-14T05:29:55.141Z,english_854.wav,0,0,706,,,,,0,0,-3.2532791,1.78139632
WH,45,0,2024-06-14T05:29:55.141Z,english_854.wav,0,0,706,,,,,1,0.1,19.40039505,1.50161717
WH,45,0,2024-06-14T05:29:55.141Z,english_854.wav,0,0,706,,,,,2,0.2,-14.62360686,0.8978804
WH,45,0,2024-06-14T05:29:55.141Z,english_854.wav,0,0,706,,,,,3,0.3,-63.13820282,1.66267041
WH,45,0,2024-06-14T05:29:55.141Z,english_854.wav,0,0,706,,,,,4,0.32341667,44.42181264,1.68588082
WH,46,0,2024-06-14T05:29:55.141Z,english_973.wav,0,1,1104,,,,,0,0,67.86183821,1.19015671
WH,46,0,2024-06-14T05:29:55.141Z,english_973.wav,0,1,1104,,,,,1,0.1,19.68291271,0.58574514
WH,46,0,2024-06-14T05:29:55.141Z,english_973.wav,0,1,1104,,,,,2,0.2,97.35795082,0.11672587
WH,46,0,2024-06-14T05:29:55.141Z,english_973.wav,0,1,1104,,,,,3,0.3,-17.83494635,0.43523095
WH,46,0,2024-06-14T05:29:55.141Z,english_973.wav,0,1,1104,,,,,4,0.32341667,-53.451809,1.74630461
WH,47,0,2024-06-14T05:29:55.141Z,english_189.wav,0,0,1204,,,,,0,0,-22.70456848,0.82906961
WH,47,0,2024-06-14T05:29:55.141Z,english_189.wav,0,0,1204,,,,,1,0.1,-12.00888723,0.58408113
WH,47,0,2024-06-14T05:29:55.141Z,english_189.wav,0,0,1204,,,,,2,0.2,15.14046376,0.19058783
WH,47,0,2024-06-14T05:29:55.141Z,english_189.wav,0,0,1204,,,,,3,0.3,-19.30106293,0.57788611
WH,47,0,2024-06-14T05:29:55.141Z,english_189.wav,0,0,1204,,,,,4,0.32341667,-20.57313834,0.32577637
WH,48,0,2024-06-14T05:29:55.141Z,english_394.wav,0,1,718,,,,,0,0,73.08757955,1.29313131
WH,48,0,2024-06-14T05:29:55.141Z,english_394.wav,0,1,718,,,,,1,0.1,5.60908311,0.62691873
WH,48,0,2024-06-14T05:29:55.141Z,english_394.wav,0,1,718,,,,,2,0.2,76.56705043,1.4938005
WH,48,0,2024-06-14T05:29:55.141Z,english_394.wav,0,1,718,,,,,3,0.3,18.85166324,1.2266925
WH,48,0,2024-06-14T05:29:55.141Z,english_394.wav,0,1,718,,,,,4,0.32341667,8.45052692,0.67844158
WH,49,0,2024-06-14T05:29:55.141Z,english_757.wav,0,1,1025,,,,,0,0,-71.37581006,0.57944866
WH,49,0,2024-06-14T05:29:55.141Z,english_757.wav,0,1,1025,,,,,1,0.1,-34.89028362,1.76833087
WH,49,0,2024-06-14T05:29:55.141Z,english_757.wav,0,1,1025,,,,,2,0.2,97.72444176,0.43040584
WH,49,0,2024-06-14T05:29:55.141Z,english_757.wav,0,1,1025,,,,,3,0.3,8.64322444,1.84780211
WH,49,0,2024-06-14T05:29:55.141Z,english_757.wav,0,1,1025,,,,,4,0.32341667,-59.15215987,0.21714226
WH,50,1,2024-06-14T05:29:55.141Z,english_73.wav,0,1,729,,,,,0,0,-73.49165063,1.41947215
WH,50,1,2024-06-14T05:29:55.141Z,english_73.wav,0,1,729,,,,,1,0.1,65.54847429,1.68852165
WH,50,1,2024-06-14T05:29:55.141Z,english_73.wav,0,1,729,,,,,2,0.2,-55.11967081,0.59259525
WH,50,1,2024-06-14T05:29:55.141Z,english_73.wav,0,1,729,,,,,3,0.3,68.77466141,0.85140805
WH,50,1,2024-06-14T05:29:55.141Z,english_73.wav,0,1,729,,,,,4,0.32341667,-37.79888894,1.17745107
WH,51,1,2024-06-14T05:29:55.141Z,english_298.wav,0,1,567,,,,,0,0,-71.75530507,0.91890611
WH,51,1,2024-06-14T05:29:55.141Z,english_298.wav,0,1,567,,,,,1,0.1,76.25876358,0.7322353
WH,51,1,2024-06-14T05:29:55.141Z,english_298.wav,0,1,567,,,,,2,0.2,11.95102224,0.50601445
WH,51,1,2024-06-14T05:29:55.141Z,english_298.wav,0,1,567,,,,,3,0.3,79.91037795,0.41160049
WH,51,1,2024-06-14T05:29:55.141Z,english_298.wav,0,1,567,,,,,4,0.32341667,30.12462174,0.81223035
WH,52,1,2024-06-14T05:29:55.141Z,english_778.wav,0,1,944,,,,,0,0,99.37283207,0.92158405
WH,52,1,2024-06-14T05:29:55.141Z,english_778.wav,0,1,944,,,,,1,0.1,61.02900927,1.90392814
WH,52,1,2024-06-14T05:29:55.141Z,english_778.wav,0,1,944,,,,,2,0.2,-43.89505842,0.34916702
WH,52,1,2024-06-14T05:29:55.141Z,english_778.wav,0,1,944,,,,,3,0.3,-6.51139434,1.21087231
WH,52,1,2024-06-14T05:29:55.141Z,english_778.wav,0,1,944,,,,,4,0.32341667,-98.37213751,0.72140227
WH,53,1,2024-06-14T05:29:55.141Z,english_803.wav,0,0,842,,,,,0,0,8.73756077,1.22190991
WH,53,1,2024-06-14T05:29:55.141Z,english_803.wav,0,0,842,,,,,1,0.1,-41.53503623,1.08276728
WH,53,1,2024-06-14T05:29:55.141Z,english_803.wav,0,0,842,,,,,2,0.2,-84.76471985,1.59545905
WH,53,1,2024-06-14T05:29:55.141Z,english_803.wav,0,0,842,,,,,3,0.3,-27.96408635,1.3875394
WH,53,1,2024-06-14T05:29:55.141Z,english_803.wav,0,0,842,,,,,4,0.32341667,72.02290108,0.92287786
WH,54,1,2024-06-14T05:29:55.141Z,english_140.wav,0,0,982,,,,,0,0,-63.97366245,1.49783115
WH,54,1,2024-06-14T05:29:55.141Z,english_140.wav,0,0,982,,,,,1,0.1,-84.90656008,1.37250299
WH,54,1,2024-06-14T05:29:55.141Z,english_140.wav,0,0,982,,,,,2,0.2,93.42782744,0.10650492
WH,54,1,2024-06-14T05:29:55.141Z,english_140.wav,0,0,982,,,,,3,0.3,11.57634117,0.84315206
WH,54,1,2024-06-14T05:29:55.141Z,english_140.wav,0,0,982,,,,,4,0.32341667,80.35905055,1.26233419
WH,55,1,2024-06-14T05:29:55.141Z,english_742.wav,0,0,599,,,,,0,0,12.62363586,1.26368295
WH,55,1,2024-06-14T05:29:55.141Z,english_742.wav,0,0,599,,,,,1,0.1,23.02085171,0.7448394
WH,55,1,2024-06-14T05:29:55.141Z,english_742.wav,0,0,599,,,,,2,0.2,23.36423086,0.05261082
WH,55,1,2024-06-14T05:29:55.141Z,english_742.wav,0,0,599,,,,,3,0.3,97.70614946,1.01748925
WH,55,1,2024-06-14T05:29:55.141Z,english_742.wav,0,0,599,,,,,4,0.32341667,-25.72861775,0.88645775
WH,56,1,2024-06-14T05:29:55.141Z,english_121.wav,0,1,4015,,,,,0,0,-30.24687583,0.23154591
WH,56,1,2024-06-14T05:29:55.141Z,english_121.wav,0,1,4015,,,,,1,0.1,-28.09260766,0.6680997
WH,56,1,2024-06-14T05:29:55.141Z,english_121.wav,0,1,4015,,,,,2,0.2,-29.54951374,1.79539672
WH,56,1,2024-06-14T05:29:55.141Z,english_121.wav,0,1,4015,,,,,3,0.3,-37.35286973,0.57554739
WH,56,1,2024-06-14T05:29:55.141Z,english_121.wav,0,1,4015,,,,,4,0.32341667,58.68529554,1.8709958
WH,57,1,2024-06-14T05:29:55.141Z,english_655.wav,0,0,1114,,,,,0,0,84.9811401,1.09123398
WH,57,1,2024-06-14T05:29:55.141Z,english_655.wav,0,0,1114,,,,,1,0.1,70.1996811,0.51840547
WH,57,1,2024-06-14T05:29:55.141Z,english_655.wav,0,0,1114,,,,,2,0.2,-5.60681941,0.58569322
WH,57,1,2024-06-14T05:29:55.141Z,english_655.wav,0,0,1114,,,,,3,0.3,-33.00324328,1.11132849
WH,57,1,2024-06-14T05:29:55.141Z,english_655.wav,0,0,1114,,,,,4,0.32341667,24.65490624,0.28465301
WH,58,1,2024-06-14T05:29:55.141Z,english_270.wav,0,1,731,,,,,0,0,-54.89328754,1.02368747
WH,58,1,2024-06-14T05:29:55.141Z,english_270.wav,0,1,731,,,,,1,0.1,-41.12345733,1.74263534
WH,58,1,2024-06-14T05:29:55.141Z,english_270.wav,0,1,731,,,,,2,0.2,79.03328036,0.45342006
WH,58,1,2024-06-14T05:29:55.141Z,english_270.wav,0,1,731,,,,,3,0.3,-87.71335894,1.29911503
WH,58,1,2024-06-14T05:29:55.141Z,english_270.wav,0,1,731,,,,,4,0.32341667,-48.20373708,0.95859349
WH,59,1,2024-06-14T05:29:55.141Z,english_813.wav,0,1,635,,,,,0,0,55.66932548,1.32885027
WH,59,1,2024-06-14T05:29:55.141Z,english_813.wav,0,1,635,,,,,1,0.1,81.68960615,1.76450173
WH,59,1,2024-06-14T05:29:55.141Z,english_813.wav,0,1,635,,,,,2,0.2,55.75765178,0.71046445
WH,59,1,2024-06-14T05:29:55.141Z,english_813.wav,0,1,635,,,,,3,0.3,-1.25572602,1.00431818
WH,59,1,2024-06-14T05:29:55.141Z,english_813.wav,0,1,635,,,,,4,0.32341667,95.15429199,0.60962601
WH,60,1,2024-06-14T05:29:55.141Z,english_392.wav,0,1,442,,,,,0,0,-12.90562814,1.13144201
WH,60,1,2024-06-14T05:29:55.141Z,english_392.wav,0,1,442,,,,,1,0.1,-1.29416779,0.98893381
WH,60,1,2024-06-14T05:29:55.141Z,english_392.wav,0,1,442,,,,,2,0.2,-53.34155903,0.07204825
WH,60,1,2024-06-14T05:29:55.141Z,english_392.wav,0,1,442,,,,,3,0.3,-48.65153398,1.52779633
WH,60,1,2024-06-14T05:29:55.141Z,english_392.wav,0,1,442,,,,,4,0.32341667,-43.47653164,1.32355089
WH,61,1,2024-06-14T05:29:55.141Z,english_142.wav,0,1,343,,,,,0,0,-46.59943425,0.40064358
WH,61,1,2024-06-14T05:29:55.141Z,english_142.wav,0,1,343,,,,,1,0.1,63.17145436,0.61162855
WH,61,1,2024-06-14T05:29:55.141Z,english_142.wav,0,1,343,,,,,2,0.2,73.87775976,0.23189939
WH,61,1,2024-06-14T05:29:55.141Z,english_142.wav,0,1,343,,,,,3,0.3,-84.55157756,1.54635995
WH,61,1,2024-06-14T05:29:55.141Z,english_142.wav,0,1,343,,,,,4,0.32341667,20.35536038,1.86221744
WH,62,1,2024-06-14T05:29:55.141Z,english_891.wav,0,0,748,,,,,0,0,21.29241244,0.7419472
WH,62,1,2024-06-14T05:29:55.141Z,english_891.wav,0,0,748,,,,,1,0.1,-1.23713702,1.09270952
WH,62,1,2024-06-14T05:29:55.141Z,english_891.wav,0,0,748,,,,,2,0.2,-74.86460599,0.8129571
WH,62,1,2024-06-14T05:29:55.141Z,english_891.wav,0,0,748,,,,,3,0.3,18.81587233,0.16019775
WH,62,1,2024-06-14T05:29:55.141Z,english_891.wav,0,0,748,,,,,4,0.32341667,35.3489582,1.17476401
WH,63,1,2024-06-14T05:29:55.141Z,english_355.wav,0,0,650,,,,,0,0,33.6784286,1.28512049
WH,63,1,2024-06-14T05:29:55.141Z,english_355.wav,0,0,650,,,,,1,0.1,30.74796889,1.04729355
WH,63,1,2024-06-14T05:29:55.141Z,english_355.wav,0,0,650,,,,,2,0.2,71.39310534,0.74339822
WH,63,1,2024-06-14T05:29:55.141Z,english_355.wav,0,0,650,,,,,3,0.3,38.16266559,0.86152361
WH,63,1,2024-06-14T05:29:55.141Z,english_355.wav,0,0,650,,,,,4,0.32341667,-39.8799084,1.83215587
WH,64,1,2024-06-14T05:29:55.141Z,english_451.wav,0,1,356,,,,,0,0,-87.31297583,0.44823779
WH,64,1,2024-06-14T05:29:55.141Z,english_451.wav,0,1,356,,,,,1,0.1,-44.51362963,0.44678563
WH,64,1,2024-06-14T05:29:55.141Z,english_451.wav,0,1,356,,,,,2,0.2,-15.52945473,1.69444841
WH,64,1,2024-06-14T05:29:55.141Z,english_451.wav,0,1,356,,,,,3,0.3,11.70886435,0.18586344
WH,64,1,2024-06-14T05:29:55.141Z,english_451.wav,0,1,356,,,,,4,0.32341667,82.84342256,0.9677256
WH,65,1,2024-06-14T05:29:55.141Z,english_307.wav,0,1,337,,,,,0,0,-38.93106299,1.91951228
WH,65,1,2024-06-14T05:29:55.141Z,english_307.wav,0,1,337,,,,,1,0.1,-30.40144858,0.50419792
WH,65,1,2024-06-14T05:29:55.141Z,english_307.wav,0,1,337,,,,,2,0.2,2.19081651,0.76602689
WH,65,1,2024-06-14T05:29:55.141Z,english_307.wav,0,1,337,,,,,3,0.3,30.82741361,0.59904457
WH,65,1,2024-06-14T05:29:55.141Z,english_307.wav,0,1,337,,,,,4,0.32341667,46.9007513,1.94941235
WH,66,1,2024-06-14T05:29:55.141Z,english_994.wav,0,1,1255,,,,,0,0,53.6083957,1.72152032
WH,66,1,2024-06-14T05:29:55.141Z,english_994.wav,0,1,1255,,,,,1,0.1,62.5650281,0.97077126
WH,66,1,2024-06-14T05:29:55.141Z,english_994.wav,0,1,1255,,,,,2,0.2,91.00734213,1.1154275
WH,66,1,2024-06-14T05:29:55.141Z,english_994.wav,0,1,1255,,,,,3,0.3,-14.6853323,0.93534142
WH,66,1,2024-06-14T05:29:55.141Z,english_994.wav,0,1,1255,,,,,4,0.32341667,42.94025292,1.51312842
WH,67,1,2024-06-14T05:29:55.141Z,english_384.wav,0,0,705,,,,,0,0,-38.96228733,0.34616893
WH,67,1,2024-06-14T05:29:55.141Z,english_384.wav,0,0,705,,,,,1,0.1,2.386347,0.04115024
WH,67,1,2024-06-14T05:29:55.141Z,english_384.wav,0,0,705,,,,,2,0.2,48.26486793,0.35900131
WH,67,1,2024-06-14T05:29:55.141Z,english_384.wav,0,0,705,,,,,3,0.3,-48.11903655,1.58519606
WH,67,1,2024-06-14T05:29:55.141Z,english_384.wav,0,0,705,,,,,4,0.32341667,19.29531145,0.95531857
WH,68,1,2024-06-14T05:29:55.141Z,english_769.wav,0,0,955,,,,,0,0,-12.68288087,1.59358978
WH,68,1,2024-06-14T05:29:55.141Z,english_769.wav,0,0,955,,,,,1,0.1,13.58895245,0.16681031
WH,68,1,2024-06-14T05:29:55.141Z,english_769.wav,0,0,955,,,,,2,0.2,-5.57429841,0.74292099
WH,68,1,2024-06-14T05:29:55.141Z,english_769.wav,0,0,955,,,,,3,0.3,-26.44516544,0.17250104
WH,68,1,2024-06-14T05:29:55.141Z,english_769.wav,0,0,955,,,,,4,0.32341667,85.93285426,0.16730253
WH,69,1,2024-06-14T05:29:55.141Z,english_874.wav,0,1,832,,,,,0,0,32.94582558,0.77720789
WH,69,1,2024-06-14T05:29:55.141Z,english_874.wav,0,1,832,,,,,1,0.1,73.76521909,1.44852608
WH,69,1,2024-06-14T05:29:55.141Z,english_874.wav,0,1,832,,,,,2,0.2,-83.94992572,1.18086928
WH,69,1,2024-06-14T05:29:55.141Z,english_874.wav,0,1,832,,,,,3,0.3,-61.86791133,0.75042975
WH,69,1,2024-06-14T05:29:55.141Z,english_874.wav,0,1,832,,,,,4,0.32341667,-94.71312943,1.11461748
WH,70,1,2024-06-14T05:29:55.141Z,english_96.wav,0,1,442,,,,,0,0,-2.60251168,1.33849038
WH,70,1,2024-06-14T05:29:55.141Z,english_96.wav,0,1,442,,,,,1,0.1,3.1808695,1.03790095
WH,70,1,2024-06-14T05:29:55.141Z,english_96.wav,0,1,442,,,,,2,0.2,-93.89625608,0.32730996
WH,70,1,2024-06-14T05:29:55.141Z,english_96.wav,0,1,442,,,,,3,0.3,22.03695444,1.15118519
WH,70,1,2024-06-14T05:29:55.141Z,english_96.wav,0,1,442,,,,,4,0.32341667,89.13776591,1.37996061
WH,71,1,2024-06-14T05:29:55.141Z,english_163.wav,0,0,842,,,,,0,0,-28.85321754,1.43434597
WH,71,1,2024-06-14T05:29:55.141Z,english_163.wav,0,0,842,,,,,1,0.1,9.37410395,1.75766865
WH,71,1,2024-06-14T05:29:55.141Z,english_163.wav,0,0,842,,,,,2,0.2,-43.22266742,0.90391943
WH,71,1,2024-06-14T05:29:55.141Z,english_163.wav,0,0,842,,,,,3,0.3,48.63715122,1.21743426
WH,71,1,2024-06-14T05:29:55.141Z,english_163.wav,0,0,842,,,,,4,0.32341667,-94.22333204,1.8516503
WH,72,1,2024-06-14T05:29:55.141Z,english_399.wav,0,0,1458,,,,,0,0,77.00947727,0.99570417
WH,72,1,2024-06-14T05:29:55.141Z,english_399.wav,0,0,1458,,,,,1,0.1,68.68212777,1.08385584
WH,72,1,2024-06-14T05:29:55.141Z,english_399.wav,0,0,1458,,,,,2,0.2,29.89909441,0.2210854
WH,72,1,2024-06-14T05:29:55.141Z,english_399.wav,0,0,1458,,,,,3,0.3,-37.60275897,0.41623588
WH,72,1,2024-06-14T05:29:55.141Z,english_399.wav,0,0,1458,,,,,4,0.32341667,-61.49193386,0.38461981
WH,73,1,2024-06-14T05:29:55.141Z,english_335.wav,0,0,738,,,,,0,0,2.73277154,0.73564724
WH,73,1,2024-06-14T05:29:55.141Z,english_335.wav,0,0,738,,,,,1,0.1,-7.1950175,0.15546095
WH,73,1,2024-06-14T05:29:55.141Z,english_335.wav,0,0,738,,,,,2,0.2,60.45920583,0.90435367
WH,73,1,2024-06-14T05:29:55.141Z,english_335.wav,0,0,738,,,,,3,0.3,-26.91989021,0.56661996
WH,73,1,2024-06-14T05:29:55.141Z,english_335.wav,0,0,738,,,,,4,0.32341667,-2.30142169,1.21763394
WH,74,1,2024-06-14T05:29:55.141Z,english_16.wav,0,1,559,,,,,0,0,-86.84797814,0.47796166
WH,74,1,2024-06-14T05:29:55.141Z,english_16.wav,0,1,559,,,,,1,0.1,29.78439304,1.82902446
WH,74,1,2024-06-14T05:29:55.141Z,english_16.wav,0,1,559,,,,,2,0.2,93.37667148,1.57835565
WH,74,1,2024-06-14T05:29:55.141Z,english_16.wav,0,1,559,,,,,3,0.3,-84.28086854,0.98546729
WH,74,1,2024-06-14T05:29:55.141Z,english_16.wav,0,1,559,,,,,4,0.32341667,-8.77302982,0.88950072
WH,75,1,2024-06-14T05:29:55.141Z,english_365.wav,0,1,650,,,,,0,0,58.11205919,0.53708026
WH,75,1,2024-06-14T05:29:55.141Z,english_365.wav,0,1,650,,,,,1,0.1,-61.04014877,1.10456153
WH,75,1,2024-06-14T05:29:55.141Z,english_365.wav,0,1,650,,,,,2,0.2,12.43042802,1.31731937
WH,75,1,2024-06-14T05:29:55.141Z,english_365.wav,0,1,650,,,,,3,0.3,17.00746388,1.02387946
WH,75,1,2024-06-14T05:29:55.141Z,english_365.wav,0,1,650,,,,,4,0.32341667,-69.10644956,1.31633463
WH,76,1,2024-06-14T05:29:55.141Z,english_863.wav,0,1,968,,,,,0,0,52.03013683,1.83111202
WH,76,1,2024-06-14T05:29:55.141Z,english_863.wav,0,1,968,,,,,1,0.1,21.53783975,0.9779226
WH,76,1,2024-06-14T05:29:55.141Z,english_863.wav,0,1,968,,,,,2,0.2,-42.8061331,1.19089157
WH,76,1,2024-06-14T05:29:55.141Z,english_863.wav,0,1,968,,,,,3,0.3,-9.69253087,0.269847
WH,76,1,2024-06-14T05:29:55.141Z,english_863.wav,0,1,968,,,,,4,0.32341667,56.44290307,0.87913369
WH,77,1,2024-06-14T05:29:55.141Z,english_592.wav,0,0,1313,,,,,0,0,-77.34060672,0.96869857
WH,77,1,2024-06-14T05:29:55.141Z,english_592.wav,0,0,1313,,,,,1,0.1,27.41551815,1.75134411
WH,77,1,2024-06-14T05:29:55.141Z,english_592.wav,0,0,1313,,,,,2,0.2,-17.47445882,1.41680483
WH,77,1,2024-06-14T05:29:55.141Z,english_592.wav,0,0,1313,,,,,3,0.3,-61.08462212,1.07260777
WH,77,1,2024-06-14T05:29:55.141Z,english_592.wav,0,0,1313,,,,,4,0.32341667,74.7675789,0.73150904
WH,78,1,2024-06-14T05:29:55.141Z,english_660.wav,0,0,1031,,,,,0,0,-18.17224728,0.25133372
WH,78,1,2024-06-14T05:29:55.141Z,english_660.wav,0,0,1031,,,,,1,0.1,-51.94390165,0.1756709
WH,78,1,2024-06-14T05:29:55.141Z,english_660.wav,0,0,1031,,,,,2,0.2,-79.57293034,0.660284
WH,78,1,2024-06-14T05:29:55.141Z,english_660.wav,0,0,1031,,,,,3,0.3,67.99606973,1.08301436
WH,78,1,2024-06-14T05:29:55.141Z,english_660.wav,0,0,1031,,,,,4,0.32341667,-2.00416122,0.81155284
WH,79,1,2024-06-14T05:29:55.141Z,english_352.wav,0,1,567,,,,,0,0,71.64354449,0.18312459
WH,79,1,2024-06-14T05:29:55.141Z,english_352.wav,0,1,567,,,,,1,0.1,53.2516906,1.19991438
WH,79,1,2024-06-14T05:29:55.141Z,english_352.wav,0,1,567,,,,,2,0.2,28.90726554,1.21095973
WH,79,1,2024-06-14T05:29:55.141Z,english_352.wav,0,1,567,,,,,3,0.3,-49.8940387,1.61067418
WH,79,1,2024-06-14T05:29:55.141Z,english_352.wav,0,1,567,,,,,4,0.32341667,21.76832357,1.26376439
WH,80,1,2024-06-14T05:29:55.141Z,english_627.wav,0,0,865,,,,,0,0,-53.99355102,0.04887222
WH,80,1,2024-06-14T05:29:55.141Z,english_627.wav,0,0,865,,,,,1,0.1,-3.03417463,0.14119608
WH,80,1,2024-06-14T05:29:55.141Z,english_627.wav,0,0,865,,,,,2,0.2,83.9257281,0.97350107
WH,80,1,2024-06-14T05:29:55.141Z,english_627.wav,0,0,865,,,,,3,0.3,52.52073868,0.6697358
WH,80,1,2024-06-14T05:29:55.141Z,english_627.wav,0,0,865,,,,,4,0.32341667,-13.85481025,0.92660526
WH,81,1,2024-06-14T05:29:55.141Z,english_564.wav,0,0,685,,,,,0,0,-4.16228192,1.35245187
WH,81,1,2024-06-14T05:29:55.141Z,english_564.wav,0,0,685,,,,,1,0.1,-8.38376801,0.24798142
WH,81,1,2024-06-14T05:29:55.141Z,english_564.wav,0,0,685,,,,,2,0.2,52.82752554,1.26376743
WH,81,1,2024-06-14T05:29:55.141Z,english_564.wav,0,0,685,,,,,3,0.3,-92.64870354,0.73548171
WH,81,1,2024-06-14T05:29:55.141Z,english_564.wav,0,0,685,,,,,4,0.32341667,-48.86146536,0.1394123
WH,82,1,2024-06-14T05:29:55.141Z,english_706.wav,0,0,164,,,,,0,0,-14.02426606,0.18721001
WH,82,1,2024-06-14T05:29:55.141Z,english_706.wav,0,0,164,,,,,1,0.1,23.81630209,0.48464851
WH,82,1,2024-06-14T05:29:55.141Z,english_706.wav,0,0,164,,,,,2,0.2,94.24266466,1.46456973
WH,82,1,2024-06-14T05:29:55.141Z,english_706.wav,0,0,164,,,,,3,0.3,20.03642156,0.11403632
WH,82,1,2024-06-14T05:29:55.141Z,english_706.wav,0,0,164,,,,,4,0.32341667,57.92570785,0.61389372
WH,83,1,2024-06-14T05:29:55.141Z,english_553.wav,0,1,953,,,,,0,0,-18.85071283,1.30647824
WH,83,1,2024-06-14T05:29:55.141Z,english_553.wav,0,1,953,,,,,1,0.1,56.72439372,1.55205535
WH,83,1,2024-06-14T05:29:55.141Z,english_553.wav,0,1,953,,,,,2,0.2,-32.51510613,1.79127341
WH,83,1,2024-06-14T05:29:55.141Z,english_553.wav,0,1,953,,,,,3,0.3,-81.56708954,0.1795284
WH,83,1,2024-06-14T05:29:55.141Z,english_553.wav,0,1,953,,,,,4,0.32341667,42.80590219,0.48805839
WH,84,1,2024-06-14T05:29:55.141Z,english_819.wav,0,1,626,,,,,0,0,56.56933068,1.61805944
WH,84,1,2024-06-14T05:29:55.141Z,english_819.wav,0,1,626,,,,,1,0.1,16.98960986,1.69207785
WH,84,1,2024-06-14T05:29:55.141Z,english_819.wav,0,1,626,,,,,2,0.2,-13.59600893,1.33633205
WH,84,1,2024-06-14T05:29:55.141Z,english_819.wav,0,1,626,,,,,3,0.3,79.1710335,0.49452457
WH,84,1,2024-06-14T05:29:55.141Z,english_819.wav,0,1,626,,,,,4,0.32341667,25.34620926,1.97134574
WH,85,1,2024-06-14T05:29:55.141Z,english_719.wav,0,1,972,,,,,0,0,-32.14306232,1.4431753
WH,85,1,2024-06-14T05:29:55.141Z,english_719.wav,0,1,972,,,,,1,0.1,-81.40439332,0.46175707
WH,85,1,2024-06-14T05:29:55.141Z,english_719.wav,0,1,972,,,,,2,0.2,-20.1172293,1.86886769
WH,85,1,2024-06-14T05:29:55.141Z,english_719.wav,0,1,972,,,,,3,0.3,67.63048238,0.67969247
WH,85,1,2024-06-14T05:29:55.141Z,english_719.wav,0,1,972,,,,,4,0.32341667,50.83305788,1.68151983
WH,86,1,2024-06-14T05:29:55.141Z,english_152.wav,0,1,1866,,,,,0,0,-21.97873044,1.75752799
WH,86,1,2024-06-14T05:29:55.141Z,english_152.wav,0,1,1866,,,,,1,0.1,85.66675034,1.21467008
WH,86,1,2024-06-14T05:29:55.141Z,english_152.wav,0,1,1866,,,,,2,0.2,-66.57447909,0.82299352
WH,86,1,2024-06-14T05:29:55.141Z,english_152.wav,0,1,1866,,,,,3,0.3,-33.8772441,0.48869868
WH,86,1,2024-06-14T05:29:55.141Z,english_152.wav,0,1,1866,,,,,4,0.32341667,-46.50239179,0.31705885
WH,87,1,2024-06-14T05:29:55.141Z,english_827.wav,0,1,201,,,,,0,0,-49.24128803,1.70838213
WH,87,1,2024-06-14T05:29:55.141Z,english_827.wav,0,1,201,,,,,1,0.1,62.6158679,0.88048656
WH,87,1,2024-06-14T05:29:55.141Z,english_827.wav,0,1,201,,,,,2,0.2,-85.72053716,1.47530841
WH,87,1,2024-06-14T05:29:55.141Z,english_827.wav,0,1,201,,,,,3,0.3,-65.54354982,0.04991031
WH,87,1,2024-06-14T05:29:55.141Z,english_827.wav,0,1,201,,,,,4,0.32341667,-42.30235352,0.1531298
WH,88,1,2024-06-14T05:29:55.141Z,english_680.wav,0,0,259,,,,,0,0,93.24972168,1.89994278
WH,88,1,2024-06-14T05:29:55.141Z,english_680.wav,0,0,259,,,,,1,0.1,21.55707386,1.06559033
WH,88,1,2024-06-14T05:29:55.141Z,english_680.wav,0,0,259,,,,,2,0.2,-58.84044748,0.79606997
WH,88,1,2024-06-14T05:29:55.141Z,english_680.wav,0,0,259,,,,,3,0.3,-13.55367876,0.35899559
WH,88,1,2024-06-14T05:29:55.141Z,english_680.wav,0,0,259,,,,,4,0.32341667,17.98073729,1.50925573
WH,89,1,2024-06-14T05:29:55.141Z,english_279.wav,0,1,827,,,,,0,0,-20.90398108,0.60114424
WH,89,1,2024-06-14T05:29:55.141Z,english_279.wav,0,1,827,,,,,1,0.1,98.83098338,0.92336304
WH,89,1,2024-06-14T05:29:55.141Z,english_279.wav,0,1,827,,,,,2,0.2,-95.37608427,1.39045705
WH,89,1,2024-06-14T05:29:55.141Z,english_279.wav,0,1,827,,,,,3,0.3,-52.65380993,0.64938935
WH,89,1,2024-06-14T05:29:55.141Z,english_279.wav,0,1,827,,,,,4,0.32341667,47.72500112,1.57478054
WH,90,1,2024-06-14T05:29:55.141Z,english_665.wav,0,0,306,,,,,0,0,-25.08423312,1.80265724
WH,90,1,2024-06-14T05:29:55.141Z,english_665.wav,0,0,306,,,,,1,0.1,-88.66042782,0.10063576
WH,90,1,2024-06-14T05:29:55.141Z,english_665.wav,0,0,306,,,,,2,0.2,-73.67467666,0.92910111
WH,90,1,2024-06-14T05:29:55.141Z,english_665.wav,0,0,306,,,,,3,0.3,66.53606028,0.83814709
WH,90,1,2024-06-14T05:29:55.141Z,english_665.wav,0,0,306,,,,,4,0.32341667,-75.03630793,0.77033789
WH,91,1,2024-06-14T05:29:55.141Z,english_125.wav,0,1,232,,,,,0,0,-5.59692586,0.61478703
WH,91,1,2024-06-14T05:29:55.141Z,english_125.wav,0,1,232,,,,,1,0.1,45.61970603,0.5852269
WH,91,1,2024-06-14T05:29:55.141Z,english_125.wav,0,1,232,,,,,2,0.2,-80.48713695,1.26290546
WH,91,1,2024-06-14T05:29:55.141Z,english_125.wav,0,1,232,,,,,3,0.3,76.65956808,1.54178375
WH,91,1,2024-06-14T05:29:55.141Z,english_125.wav,0,1,232,,,,,4,0.32341667,-9.14506838,0.79261171
WH,92,1,2024-06-14T05:29:55.141Z,english_547.wav,0,0,699,,,,,0,0,30.48969685,1.04682874
WH,92,1,2024-06-14T05:29:55.141Z,english_547.wav,0,0,699,,,,,1,0.1,-38.27442703,0.75017858
WH,92,1,2024-06-14T05:29:55.141Z,english_547.wav,0,0,699,,,,,2,0.2,29.58442849,0.7996645
WH,92,1,2024-06-14T05:29:55.141Z,english_547.wav,0,0,699,,,,,3,0.3,-4.27268154,1.92102789
WH,92,1,2024-06-14T05:29:55.141Z,english_547.wav,0,0,699,,,,,4,0.32341667,58.02076364,1.77056707
WH,93,1,2024-06-14T05:29:55.141Z,english_908.wav,0,0,427,,,,,0,0,48.62867987,1.27180628
WH,93,1,2024-06-14T05:29:55.141Z,english_908.wav,0,0,427,,,,,1,0.1,15.18588807,0.65893562
WH,93,1,2024-06-14T05:29:55.141Z,english_908.wav,0,0,427,,,,,2,0.2,-42.37345339,1.07678682
WH,93,1,2024-06-14T05:29:55.141Z,english_908.wav,0,0,427,,,,,3,0.3,10.74033392,1.66111239
WH,93,1,2024-06-14T05:29:55.141Z,english_908.wav,0,0,427,,,,,4,0.32341667,-40.14378972,0.30218678
WH,94,1,2024-06-14T05:29:55.141Z,english_281.wav,0,0,273,,,,,0,0,-55.42099824,1.64310908
WH,94,1,2024-06-14T05:29:55.141Z,english_281.wav,0,0,273,,,,,1,0.1,30.44020676,0.76997124
WH,94,1,2024-06-14T05:29:55.141Z,english_281.wav,0,0,273,,,,,2,0.2,53.34739709,0.1940809
WH,94,1,2024-06-14T05:29:55.141Z,english_281.wav,0,0,273,,,,,3,0.3,-32.26512488,0.25794937
WH,94,1,2024-06-14T05:29:55.141Z,english_281.wav,0,0,273,,,,,4,0.32341667,-59.86883114,1.27043487
WH,95,1,2024-06-14T05:29:55.141Z,english_993.wav,0,0,212,,,,,0,0,-66.15449332,1.17508471
WH,95,1,2024-06-14T05:29:55.141Z,english_993.wav,0,0,212,,,,,1,0.1,33.08083728,0.94744004
WH,95,1,2024-06-14T05:29:55.141Z,english_993.wav,0,0,212,,,,,2,0.2,51.46479562,0.74931244
WH,95,1,2024-06-14T05:29:55.141Z,english_993.wav,0,0,212,,,,,3,0.3,-80.58676237,0.35628979
WH,95,1,2024-06-14T05:29:55.141Z,english_993.wav,0,0,212,,,,,4,0.32341667,81.97884737,1.25416847
WH,96,1,2024-06-14T05:29:55.141Z,english_168.wav,0,0,267,,,,,0,0,-69.10300998,1.14537751
WH,96,1,2024-06-14T05:29:55.141Z,english_168.wav,0,0,267,,,,,1,0.1,-24.44784794,1.06854972
WH,96,1,2024-06-14T05:29:55.141Z,english_168.wav,0,0,267,,,,,2,0.2,35.31321785,0.45192262
WH,96,1,2024-06-14T05:29:55.141Z,english_168.wav,0,0,267,,,,,3,0.3,-41.77498511,0.2846318
WH,96,1,2024-06-14T05:29:55.141Z,english_168.wav,0,0,267,,,,,4,0.32341667,19.92389913,0.9853942
WH,97,1,2024-06-14T05:29:55.141Z,english_642.wav,0,0,519,,,,,0,0,31.40946548,0.21393667
WH,97,1,2024-06-14T05:29:55.141Z,english_642.wav,0,0,519,,,,,1,0.1,4.73018903,1.31302396
WH,97,1,2024-06-14T05:29:55.141Z,english_642.wav,0,0,519,,,,,2,0.2,85.2390777,0.95537026
WH,97,1,2024-06-14T05:29:55.141Z,english_642.wav,0,0,519,,,,,3,0.3,-59.81643451,1.00167733
WH,97,1,2024-06-14T05:29:55.141Z,english_642.wav,0,0,519,,,,,4,0.32341667,-42.92691369,0.89750156
WH,98,1,2024-06-14T05:29:55.141Z,english_594.wav,0,1,888,,,,,0,0,-85.15725243,1.49995106
WH,98,1,2024-06-14T05:29:55.141Z,english_594.wav,0,1,888,,,,,1,0.1,18.57908242,1.36683942
WH,98,1,2024-06-14T05:29:55.141Z,english_594.wav,0,1,888,,,,,2,0.2,-52.1381203,1.31792707
WH,98,1,2024-06-14T05:29:55.141Z,english_594.wav,0,1,888,,,,,3,0.3,77.56862162,0.76119001
WH,98,1,2024-06-14T05:29:55.141Z,english_594.wav,0,1,888,,,,,4,0.32341667,89.7133381,1.77084997
WH,99,1,2024-06-14T05:29:55.141Z,english_750.wav,0,1,600,,,,,0,0,54.68497377,0.76623701
WH,99,1,2024-06-14T05:29:55.141Z,english_750.wav,0,1,600,,,,,1,0.1,0.91792919,1.58478782
WH,99,1,2024-06-14T05:29:55.141Z,english_750.wav,0,1,600,,,,,2,0.2,-67.69423006,0.74884996
WH,99,1,2024-06-14T05:29:55.141Z,english_750.wav,0,1,600,,,,,3,0.3,20.92985273,0.15814923
WH,99,1,2024-06-14T05:29:55.141Z,english_750.wav,0,1,600,,,,,4,0.32341667,-39.60032316,1.58320499
WH,100,2,2024-06-14T05:29:55.141Z,english_331.wav,0,1,942,,,,,0,0,12.66323204,1.93220763
WH,100,2,2024-06-14T05:29:55.141Z,english_331.wav,0,1,942,,,,,1,0.1,-81.78605138,1.48237299
WH,100,2,2024-06-14T05:29:55.141Z,english_331.wav,0,1,942,,,,,2,0.2,59.07546792,1.15413743
WH,100,2,2024-06-14T05:29:55.141Z,english_331.wav,0,1,942,,,,,3,0.3,-83.73170191,1.02182823
WH,100,2,2024-06-14T05:29:55.141Z,english_331.wav,0,1,942,,,,,4,0.32341667,3.10587362,0.81670354
WH,101,2,2024-06-14T05:29:55.141Z,english_177.wav,0,0,1037,,,,,0,0,87.98258728,1.54790065
WH,101,2,2024-06-14T05:29:55.141Z,english_177.wav,0,0,1037,,,,,1,0.1,87.12011565,0.90861448
WH,101,2,2024-06-14T05:29:55.141Z,english_177.wav,0,0,1037,,,,,2,0.2,-29.82518494,0.58649069
WH,101,2,2024-06-14T05:29:55.141Z,english_177.wav,0,0,1037,,,,,3,0.3,54.38835911,0.51296238
WH,101,2,2024-06-14T05:29:55.141Z,english_177.wav,0,0,1037,,,,,4,0.32341667,53.98423531,1.78492888
WH,102,2,2024-06-14T05:29:55.141Z,english_544.wav,0,0,785,,,,,0,0,96.80704334,1.85115917
WH,102,2,2024-06-14T05:29:55.141Z,english_544.wav,0,0,785,,,,,1,0.1,70.5198752,0.8718407
WH,102,2,2024-06-14T05:29:55.141Z,english_544.wav,0,0,785,,,,,2,0.2,78.21609099,1.82238935
WH,102,2,2024-06-14T05:29:55.141Z,english_544.wav,0,0,785,,,,,3,0.3,-95.7752672,0.25719172
WH,102,2,2024-06-14T05:29:55.141Z,english_544.wav,0,0,785,,,,,4,0.32341667,-56.58918052,0.72929157
WH,103,2,2024-06-14T05:29:55.141Z,english_386.wav,0,1,475,,,,,0,0,74.56899624,1.79299743
WH,103,2,2024-06-14T05:29:55.141Z,english_386.wav,0,1,475,,,,,1,0.1,25.94107183,0.16071221
WH,103,2,2024-06-14T05:29:55.141Z,english_386.wav,0,1,475,,,,,2,0.2,41.2839149,0.21721497
WH,103,2,2024-06-14T05:29:55.141Z,english_386.wav,0,1,475,,,,,3,0.3,14.47866495,1.22036918
WH,103,2,2024-06-14T05:29:55.141Z,english_386.wav,0,1,475,,,,,4,0.32341667,-14.73959674,1.81871952
WH,104,2,2024-06-14T05:29:55.141Z,english_184.wav,0,1,513,,,,,0,0,29.65201825,1.69567788
WH,104,2,2024-06-14T05:29:55.141Z,english_184.wav,0,1,513,,,,,1,0.1,16.48348791,1.26735627
WH,104,2,2024-06-14T05:29:55.141Z,english_184.wav,0,1,513,,,,,2,0.2,3.77448983,0.95352895
WH,104,2,2024-06-14T05:29:55.141Z,english_184.wav,0,1,513,,,,,3,0.3,62.87502431,1.7991474
WH,104,2,2024-06-14T05:29:55.141Z,english_184.wav,0,1,513,,,,,4,0.32341667,-8.82418577,0.98992659
WH,105,2,2024-06-14T05:29:55.141Z,english_133.wav,0,0,1016,,,,,0,0,12.35833749,0.72635311
WH,105,2,2024-06-14T05:29:55.141Z,english_133.wav,0,0,1016,,,,,1,0.1,40.12315016,1.38782059
WH,105,2,2024-06-14T05:29:55.141Z,english_133.wav,0,0,1016,,,,,2,0.2,21.09458129,0.15947395
WH,105,2,2024-06-14T05:29:55.141Z,english_133.wav,0,0,1016,,,,,3,0.3,-98.82286682,0.28433836
WH,105,2,2024-06-14T05:29:55.141Z,english_133.wav,0,0,1016,,,,,4,0.32341667,-85.44748976,1.2581514
WH,106,2,2024-06-14T05:29:55.141Z,english_739.wav,0,0,992,,,,,0,0,-30.44662447,1.4086692
WH,106,2,2024-06-14T05:29:55.141Z,english_739.wav,0,0,992,,,,,1,0.1,-27.69908881,0.95518545
WH,106,2,2024-06-14T05:29:55.141Z,english_739.wav,0,0,992,,,,,2,0.2,25.08576745,1.0815723
WH,106,2,2024-06-14T05:29:55.141Z,english_739.wav,0,0,992,,,,,3,0.3,-20.92476775,0.08724184
WH,106,2,2024-06-14T05:29:55.141Z,english_739.wav,0,0,992,,,,,4,0.32341667,-46.92266257,1.12979104
WH,107,2,2024-06-14T05:29:55.141Z,english_790.wav,0,1,843,,,,,0,0,51.18493756,0.66657869
WH,107,2,2024-06-14T05:29:55.141Z,english_790.wav,0,1,843,,,,,1,0.1,-64.70105349,0.91857876
WH,107,2,2024-06-14T05:29:55.141Z,english_790.wav,0,1,843,,,,,2,0.2,-90.57968214,1.26779222
WH,107,2,2024-06-14T05:29:55.141Z,english_790.wav,0,1,843,,,,,3,0.3,-94.64625917,1.54144859
WH,107,2,2024-06-14T05:29:55.141Z,english_790.wav,0,1,843,,,,,4,0.32341667,-38.85953331,1.32367104
WH,108,2,2024-06-14T05:29:55.141Z,english_923.wav,0,0,969,,,,,0,0,-0.59122564,1.19594648
WH,108,2,2024-06-14T05:29:55.141Z,english_923.wav,0,0,969,,,,,1,0.1,-5.70499959,1.05419104
WH,108,2,2024-06-14T05:29:55.141Z,english_923.wav,0,0,969,,,,,2,0.2,-29.88927864,0.73000078
WH,108,2,2024-06-14T05:29:55.141Z,english_923.wav,0,0,969,,,,,3,0.3,-82.02126299,1.36390543
WH,108,2,2024-06-14T05:29:55.141Z,english_923.wav,0,0,969,,,,,4,0.32341667,16.89967319,1.13865732
WH,109,2,2024-06-14T05:29:55.141Z,english_996.wav,0,0,935,,,,,0,0,-71.70531914,1.36459419
WH,109,2,2024-06-14T05:29:55.141Z,english_996.wav,0,0,935,,,,,1,0.1,-47.61419544,0.5051745
WH,109,2,2024-06-14T05:29:55.141Z,english_996.wav,0,0,935,,,,,2,0.2,48.0330823,1.09957376
WH,109,2,2024-06-14T05:29:55.141Z,english_996.wav,0,0,935,,,,,3,0.3,34.27821317,0.27950682
WH,109,2,2024-06-14T05:29:55.141Z,english_996.wav,0,0,935,,,,,4,0.32341667,-72.4662587,0.22836241
WH,110,2,2024-06-14T05:29:55.141Z,english_175.wav,0,0,1245,,,,,0,0,-88.83902874,0.00773228
WH,110,2,2024-06-14T05:29:55.141Z,english_175.wav,0,0,1245,,,,,1,0.1,8.60564456,1.6431495
WH,110,2,2024-06-14T05:29:55.141Z,english_175.wav,0,0,1245,,,,,2,0.2,7.189218,0.24882977
WH,110,2,2024-06-14T05:29:55.141Z,english_175.wav,0,0,1245,,,,,3,0.3,-2.31675389,1.20663028
WH,110,2,2024-06-14T05:29:55.141Z,english_175.wav,0,0,1245,,,,,4,0.32341667,-21.56803319,0.57172188
WH,111,2,2024-06-14T05:29:55.141Z,english_518.wav,0,0,754,,,,,0,0,52.37511869,0.23824141
WH,111,2,2024-06-14T05:29:55.141Z,english_518.wav,0,0,754,,,,,1,0.1,-33.3490586,0.80559068
WH,111,2,2024-06-14T05:29:55.141Z,english_518.wav,0,0,754,,,,,2,0.2,-71.20035434,1.24725456
WH,111,2,2024-06-14T05:29:55.141Z,english_518.wav,0,0,754,,,,,3,0.3,6.23243823,1.01334401
WH,111,2,2024-06-14T05:29:55.141Z,english_518.wav,0,0,754,,,,,4,0.32341667,-29.48660546,1.51264586
WH,112,2,2024-06-14T05:29:55.141Z,english_751.wav,0,1,260,,,,,0,0,45.03630887,0.43450625
WH,112,2,2024-06-14T05:29:55.141Z,english_751.wav,0,1,260,,,,,1,0.1,46.59103402,1.30072592
WH,112,2,2024-06-14T05:29:55.141Z,english_751.wav,0,1,260,,,,,2,0.2,-30.90440374,1.20093797
WH,112,2,2024-06-14T05:29:55.141Z,english_751.wav,0,1,260,,,,,3,0.3,-61.26470289,0.81911259
WH,112,2,2024-06-14T05:29:55.141Z,english_751.wav,0,1,260,,,,,4,0.32341667,34.91384756,0.19140491
WH,113,2,2024-06-14T05:29:55.141Z,english_711.wav,0,1,428,,,,,0,0,40.88671478,0.99029016
WH,113,2,2024-06-14T05:29:55.141Z,english_711.wav,0,1,428,,,,,1,0.1,9.07407961,0.54320223
WH,113,2,2024-06-14T05:29:55.141Z,english_711.wav,0,1,428,,,,,2,0.2,-23.01321115,1.60107
WH,113,2,2024-06-14T05:29:55.141Z,english_711.wav,0,1,428,,,,,3,0.3,-10.85681813,1.574764
WH,113,2,2024-06-14T05:29:55.141Z,english_711.wav,0,1,428,,,,,4,0.32341667,87.87195083,1.34863725
WH,114,2,2024-06-14T05:29:55.141Z,english_598.wav,0,1,893,,,,,0,0,4.26365523,0.04069017
WH,114,2,2024-06-14T05:29:55.141Z,english_598.wav,0,1,893,,,,,1,0.1,-29.634957,1.27980102
WH,114,2,2024-06-14T05:29:55.141Z,english_598.wav,0,1,893,,,,,2,0.2,-17.49120793,0.98781586
WH,114,2,2024-06-14T05:29:55.141Z,english_598.wav,0,1,893,,,,,3,0.3,-34.93876912,1.55939702
WH,114,2,2024-06-14T05:29:55.141Z,english_598.wav,0,1,893,,,,,4,0.32341667,49.49845506,1.74128412
WH,115,2,2024-06-14T05:29:55.141Z,english_867.wav,0,1,1000,,,,,0,0,9.0283109,0.25019481
WH,115,2,2024-06-14T05:29:55.141Z,english_867.wav,0,1,1000,,,,,1,0.1,6.96107974,0.62311927
WH,115,2,2024-06-14T05:29:55.141Z,english_867.wav,0,1,1000,,,,,2,0.2,14.88339172,1.78918939
WH,115,2,2024-06-14T05:29:55.141Z,english_867.wav,0,1,1000,,,,,3,0.3,-2.73093064,1.34945049
WH,115,2,2024-06-14T05:29:55.141Z,english_867.wav,0,1,1000,,,,,4,0.32341667,-85.27526638,0.75720604
WH,116,2,2024-06-14T05:29:55.141Z,english_966.wav,0,1,880,,,,,0,0,23.00954068,1.02848684
WH,116,2,2024-06-14T05:29:55.141Z,english_966.wav,0,1,880,,,,,1,0.1,-2.7733657,1.22612364
WH,116,2,2024-06-14T05:29:55.141Z,english_966.wav,0,1,880,,,,,2,0.2,-6.00176123,0.03461529
WH,116,2,2024-06-14T05:29:55.141Z,english_966.wav,0,1,880,,,,,3,0.3,-64.80320904,0.22357585
WH,116,2,2024-06-14T05:29:55.141Z,english_966.wav,0,1,880,,,,,4,0.32341667,94.15296916,0.55383001
WH,117,2,2024-06-14T05:29:55.141Z,english_29.wav,0,1,1552,,,,,0,0,-2.71310826,1.50712016
WH,117,2,2024-06-14T05:29:55.141Z,english_29.wav,0,1,1552,,,,,1,0.1,17.7201972,0.83644439
WH,117,2,2024-06-14T05:29:55.141Z,english_29.wav,0,1,1552,,,,,2,0.2,-20.17501418,0.76078741
WH,117,2,2024-06-14T05:29:55.141Z,english_29.wav,0,1,1552,,,,,3,0.3,12.48271646,0.17009155
WH,117,2,2024-06-14T05:29:55.141Z,english_29.wav,0,1,1552,,,,,4,0.32341667,29.42079391,1.26727983
WH,118,2,2024-06-14T05:29:55.141Z,english_521.wav,0,0,646,,,,,0,0,-39.78859965,1.84590666
WH,118,2,2024-06-14T05:29:55.141Z,english_521.wav,0,0,646,,,,,1,0.1,94.65680132,0.33665341
WH,118,2,2024-06-14T05:29:55.141Z,english_521.wav,0,0,646,,,,,2,0.2,-68.68225016,1.01474729
WH,118,2,2024-06-14T05:29:55.141Z,english_521.wav,0,0,646,,,,,3,0.3,19.56493677,0.73624599
WH,118,2,2024-06-14T05:29:55.141Z,english_521.wav,0,0,646,,,,,4,0.32341667,69.42990376,1.4391639
WH,119,2,2024-06-14T05:29:55.141Z,english_474.wav,0,0,417,,,,,0,0,42.88606971,0.87351765
WH,119,2,2024-06-14T05:29:55.141Z,english_474.wav,0,0,417,,,,,1,0.1,6.82691085,1.08551449
WH,119,2,2024-06-14T05:29:55.141Z,english_474.wav,0,0,417,,,,,2,0.2,-33.80031927,1.99847166
WH,119,2,2024-06-14T05:29:55.141Z,english_474.wav,0,0,417,,,,,3,0.3,-97.18672796,0.27470298
WH,119,2,2024-06-14T05:29:55.141Z,english_474.wav,0,0,417,,,,,4,0.32341667,-4.7462475,0.02962094
WH,120,2,2024-06-14T05:29:55.141Z,english_741.wav,0,0,543,,,,,0,0,-74.62614727,1.92216761
WH,120,2,2024-06-14T05:29:55.141Z,english_741.wav,0,0,543,,,,,1,0.1,33.834367,1.50741835
WH,120,2,2024-06-14T05:29:55.141Z,english_741.wav,0,0,543,,,,,2,0.2,-60.21329901,0.74273648
WH,120,2,2024-06-14T05:29:55.141Z,english_741.wav,0,0,543,,,,,3,0.3,-95.39639135,0.98175705
WH,120,2,2024-06-14T05:29:55.141Z,english_741.wav,0,0,543,,,,,4,0.32341667,3.10560698,0.9878567
WH,121,2,2024-06-14T05:29:55.141Z,english_463.wav,0,0,232,,,,,0,0,-17.89775534,1.84132871
WH,121,2,2024-06-14T05:29:55.141Z,english_463.wav,0,0,232,,,,,1,0.1,-21.51631701,1.66361617
WH,121,2,2024-06-14T05:29:55.141Z,english_463.wav,0,0,232,,,,,2,0.2,-12.53951077,0.64060514
WH,121,2,2024-06-14T05:29:55.141Z,english_463.wav,0,0,232,,,,,3,0.3,33.47501925,1.01091097
WH,121,2,2024-06-14T05:29:55.141Z,english_463.wav,0,0,232,,,,,4,0.32341667,-93.09525534,0.69499506
WH,122,2,2024-06-14T05:29:55.141Z,english_205.wav,0,0,349,,,,,0,0,55.03693902,1.41699591
WH,122,2,2024-06-14T05:29:55.141Z,english_205.wav,0,0,349,,,,,1,0.1,59.05347117,0.25749205
WH,122,2,2024-06-14T05:29:55.141Z,english_205.wav,0,0,349,,,,,2,0.2,-51.93258482,1.78695407
WH,122,2,2024-06-14T05:29:55.141Z,english_205.wav,0,0,349,,,,,3,0.3,-18.66886592,0.11157042
WH,122,2,2024-06-14T05:29:55.141Z,english_205.wav,0,0,349,,,,,4,0.32341667,-25.16213195,1.74030417
WH,123,2,2024-06-14T05:29:55.141Z,english_661.wav,0,0,1762,,,,,0,0,14.15805194,1.06290545
WH,123,2,2024-06-14T05:29:55.141Z,english_661.wav,0,0,1762,,,,,1,0.1,-77.97020538,1.12952287
WH,123,2,2024-06-14T05:29:55.141Z,english_661.wav,0,0,1762,,,,,2,0.2,-31.78835068,1.47556517
WH,123,2,2024-06-14T05:29:55.141Z,english_661.wav,0,0,1762,,,,,3,0.3,1.84085651,0.41137052
WH,123,2,2024-06-14T05:29:55.141Z,english_661.wav,0,0,1762,,,,,4,0.32341667,31.49677972,1.48872703
WH,124,2,2024-06-14T05:29:55.141Z,english_27.wav,0,0,923,,,,,0,0,-6.18374659,1.89085405
WH,124,2,2024-06-14T05:29:55.141Z,english_27.wav,0,0,923,,,,,1,0.1,32.21095844,0.80138328
WH,124,2,2024-06-14T05:29:55.141Z,english_27.wav,0,0,923,,,,,2,0.2,21.02729748,1.01248602
WH,124,2,2024-06-14T05:29:55.141Z,english_27.wav,0,0,923,,,,,3,0.3,4.79829383,1.67412938
WH,124,2,2024-06-14T05:29:55.141Z,english_27.wav,0,0,923,,,,,4,0.32341667,-70.7577659,0.3387802
WH,125,2,2024-06-14T05:29:55.141Z,english_817.wav,0,1,906,,,,,0,0,58.06319333,0.77394069
WH,125,2,2024-06-14T05:29:55.141Z,english_817.wav,0,1,906,,,,,1,0.1,0.91206114,0.81778066
WH,125,2,2024-06-14T05:29:55.141Z,english_817.wav,0,1,906,,,,,2,0.2,-27.80824757,1.48752315
WH,125,2,2024-06-14T05:29:55.141Z,english_817.wav,0,1,906,,,,,3,0.3,-73.7491051,0.41888886
WH,125,2,2024-06-14T05:29:55.141Z,english_817.wav,0,1,906,,,,,4,0.32341667,69.75698508,0.93012443
WH,126,2,2024-06-14T05:29:55.141Z,english_906.wav,0,1,590,,,,,0,0,-40.48589107,1.22436898
WH,126,2,2024-06-14T05:29:55.141Z,english_906.wav,0,1,590,,,,,1,0.1,47.48995475,1.54823641
WH,126,2,2024-06-14T05:29:55.141Z,english_906.wav,0,1,590,,,,,2,0.2,-46.73743802,1.02590908
WH,126,2,2024-06-14T05:29:55.141Z,english_906.wav,0,1,590,,,,,3,0.3,-97.96557374,1.74877791
WH,126,2,2024-06-14T05:29:55.141Z,english_906.wav,0,1,590,,,,,4,0.32341667,18.48293991,0.76585735
WH,127,2,2024-06-14T05:29:55.141Z,english_475.wav,0,0,503,,,,,0,0,-68.25626322,0.40988158
WH,127,2,2024-06-14T05:29:55.141Z,english_475.wav,0,0,503,,,,,1,0.1,-56.46648788,1.90107213
WH,127,2,2024-06-14T05:29:55.141Z,english_475.wav,0,0,503,,,,,2,0.2,49.77560279,0.54721615
WH,127,2,2024-06-14T05:29:55.141Z,english_475.wav,0,0,503,,,,,3,0.3,-41.74178488,1.80730726
WH,127,2,2024-06-14T05:29:55.141Z,english_475.wav,0,0,503,,,,,4,0.32341667,-60.3255454,0.11427958
WH,128,2,2024-06-14T05:29:55.141Z,english_737.wav,0,0,568,,,,,0,0,21.35751723,1.17499048
WH,128,2,2024-06-14T05:29:55.141Z,english_737.wav,0,0,568,,,,,1,0.1,61.52152077,1.09581395
WH,128,2,2024-06-14T05:29:55.141Z,english_737.wav,0,0,568,,,,,2,0.2,-29.75610596,0.62940412
WH,128,2,2024-06-14T05:29:55.141Z,english_737.wav,0,0,568,,,,,3,0.3,-39.80249708,0.11793022
WH,128,2,2024-06-14T05:29:55.141Z,english_737.wav,0,0,568,,,,,4,0.32341667,-14.64937497,0.62377861
WH,129,2,2024-06-14T05:29:55.141Z,english_577.wav,0,0,467,,,,,0,0,0.60742169,1.18439754
WH,129,2,2024-06-14T05:29:55.141Z,english_577.wav,0,0,467,,,,,1,0.1,-16.75441018,1.17258894
WH,129,2,2024-06-14T05:29:55.141Z,english_577.wav,0,0,467,,,,,2,0.2,32.29278586,0.00832478
WH,129,2,2024-06-14T05:29:55.141Z,english_577.wav,0,0,467,,,,,3,0.3,94.63733595,1.24529525
WH,129,2,2024-06-14T05:29:55.141Z,english_577.wav,0,0,467,,,,,4,0.32341667,-75.78119055,0.24980342
WH,130,2,2024-06-14T05:29:55.141Z,english_144.wav,0,0,942,,,,,0,0,-68.95587174,0.23806678
WH,130,2,2024-06-14T05:29:55.141Z,english_144.wav,0,0,942,,,,,1,0.1,-74.16141139,0.77020267
WH,130,2,2024-06-14T05:29:55.141Z,english_144.wav,0,0,942,,,,,2,0.2,-19.31034794,0.33858197
WH,130,2,2024-06-14T05:29:55.141Z,english_144.wav,0,0,942,,,,,3,0.3,-77.96768175,1.42512122
WH,130,2,2024-06-14T05:29:55.141Z,english_144.wav,0,0,942,,,,,4,0.32341667,3.46911061,0.57629619
WH,131,2,2024-06-14T05:29:55.141Z,english_467.wav,0,0,488,,,,,0,0,-0.54983343,1.824027
WH,131,2,2024-06-14T05:29:55.141Z,english_467.wav,0,0,488,,,,,1,0.1,-84.54516502,1.06295632
WH,131,2,2024-06-14T05:29:55.141Z,english_467.wav,0,0,488,,,,,2,0.2,54.30123894,1.09976952
WH,131,2,2024-06-14T05:29:55.141Z,english_467.wav,0,0,488,,,,,3,0.3,-82.00368026,1.11766566
WH,131,2,2024-06-14T05:29:55.141Z,english_467.wav,0,0,488,,,,,4,0.32341667,-54.10816942,0.44824559
WH,132,2,2024-06-14T05:29:55.141Z,english_965.wav,0,1,173,,,,,0,0,-19.49526798,1.71910172
WH,132,2,2024-06-14T05:29:55.141Z,english_965.wav,0,1,173,,,,,1,0.1,-33.46093545,1.16323176
WH,132,2,2024-06-14T05:29:55.141Z,english_965.wav,0,1,173,,,,,2,0.2,95.24809114,0.56514201
WH,132,2,2024-06-14T05:29:55.141Z,english_965.wav,0,1,173,,,,,3,0.3,26.23968625,1.82539978
WH,132,2,2024-06-14T05:29:55.141Z,english_965.wav,0,1,173,,,,,4,0.32341667,15.70217089,1.7659451
WH,133,2,2024-06-14T05:29:55.141Z,english_861.wav,0,0,305,,,,,0,0,-30.19921015,0.56503536
WH,133,2,2024-06-14T05:29:55.141Z,english_861.wav,0,0,305,,,,,1,0.1,75.2433288,1.43622494
WH,133,2,2024-06-14T05:29:55.141Z,english_861.wav,0,0,305,,,,,2,0.2,-49.47813624,1.73497671
WH,133,2,2024-06-14T05:29:55.141Z,english_861.wav,0,0,305,,,,,3,0.3,86.59581665,0.70763908
WH,133,2,2024-06-14T05:29:55.141Z,english_861.wav,0,0,305,,,,,4,0.32341667,58.40562581,1.29518241
WH,134,2,2024-06-14T05:29:55.141Z,english_901.wav,0,1,515,,,,,0,0,-14.81770559,1.5194741
WH,134,2,2024-06-14T05:29:55.141Z,english_901.wav,0,1,515,,,,,1,0.1,-27.73561163,1.98674938
WH,134,2,2024-06-14T05:29:55.141Z,english_901.wav,0,1,515,,,,,2,0.2,-22.44015454,0.54356598
WH,134,2,2024-06-14T05:29:55.141Z,english_901.wav,0,1,515,,,,,3,0.3,-41.34815185,1.30497628
WH,134,2,2024-06-14T05:29:55.141Z,english_901.wav,0,1,515,,,,,4,0.32341667,10.13492358,0.61526789
WH,135,2,2024-06-14T05:29:55.141Z,english_860.wav,0,0,483,,,,,0,0,10.25066679,1.47817545
WH,135,2,2024-06-14T05:29:55.141Z,english_860.wav,0,0,483,,,,,1,0.1,55.87909831,1.32859058
WH,135,2,2024-06-14T05:29:55.141Z,english_860.wav,0,0,483,,,,,2,0.2,81.09373959,0.99201561
WH,135,2,2024-06-14T05:29:55.141Z,english_860.wav,0,0,483,,,,,3,0.3,15.52286826,0.3312489
WH,135,2,2024-06-14T05:29:55.141Z,english_860.wav,0,0,483,,,,,4,0.32341667,58.18702512,0.66001743
WH,136,2,2024-06-14T05:29:55.141Z,english_974.wav,0,0,339,,,,,0,0,29.63575745,0.7371821
WH,136,2,2024-06-14T05:29:55.141Z,english_974.wav,0,0,339,,,,,1,0.1,-49.63946334,1.15838362
WH,136,2,2024-06-14T05:29:55.141Z,english_974.wav,0,0,339,,,,,2,0.2,87.75163431,1.66312363
WH,136,2,2024-06-14T05:29:55.141Z,english_974.wav,0,0,339,,,,,3,0.3,-62.39844007,0.85783748
WH,136,2,2024-06-14T05:29:55.141Z,english_974.wav,0,0,339,,,,,4,0.32341667,-98.5513891,1.53033297
WH,137,2,2024-06-14T05:29:55.141Z,english_377.wav,0,1,495,,,,,0,0,74.10679581,1.90218841
WH,137,2,2024-06-14T05:29:55.141Z,english_377.wav,0,1,495,,,,,1,0.1,-97.36412995,1.60160035
WH,137,2,2024-06-14T05:29:55.141Z,english_377.wav,0,1,495,,,,,2,0.2,-84.25672888,1.668912
WH,137,2,2024-06-14T05:29:55.141Z,english_377.wav,0,1,495,,,,,3,0.3,27.09308902,1.51590505
WH,137,2,2024-06-14T05:29:55.141Z,english_377.wav,0,1,495,,,,,4,0.32341667,-12.33253686,0.99909344
WH,138,2,2024-06-14T05:29:55.141Z,english_763.wav,0,0,1297,,,,,0,0,64.63144232,0.7800836
WH,138,2,2024-06-14T05:29:55.141Z,english_763.wav,0,0,1297,,,,,1,0.1,8.86346429,1.26656169
WH,138,2,2024-06-14T05:29:55.141Z,english_763.wav,0,0,1297,,,,,2,0.2,32.79569159,1.93170043
WH,138,2,2024-06-14T05:29:55.141Z,english_763.wav,0,0,1297,,,,,3,0.3,10.55051177,0.29422641
WH,138,2,2024-06-14T05:29:55.141Z,english_763.wav,0,0,1297,,,,,4,0.32341667,6.38738619,1.43860225
WH,139,2,2024-06-14T05:29:55.141Z,english_871.wav,0,0,297,,,,,0,0,84.63625516,0.21643415
WH,139,2,2024-06-14T05:29:55.141Z,english_871.wav,0,0,297,,,,,1,0.1,-19.11058767,1.23538017
WH,139,2,2024-06-14T05:29:55.141Z,english_871.wav,0,0,297,,,,,2,0.2,49.1497137,1.26375285
WH,139,2,2024-06-14T05:29:55.141Z,english_871.wav,0,0,297,,,,,3,0.3,-83.07816512,0.03257235
WH,139,2,2024-06-14T05:29:55.141Z,english_871.wav,0,0,297,,,,,4,0.32341667,11.22002909,1.90703832
WH,140,2,2024-06-14T05:29:55.141Z,english_431.wav,0,0,844,,,,,0,0,-28.91437381,1.3282391
WH,140,2,2024-06-14T05:29:55.141Z,english_431.wav,0,0,844,,,,,1,0.1,30.6479342,1.9405757
WH,140,2,2024-06-14T05:29:55.141Z,english_431.wav,0,0,844,,,,,2,0.2,41.25713347,1.67607787
WH,140,2,2024-06-14T05:29:55.141Z,english_431.wav,0,0,844,,,,,3,0.3,9.19018397,0.62213613
WH,140,2,2024-06-14T05:29:55.141Z,english_431.wav,0,0,844,,,,,4,0.32341667,-61.77590044,0.50881411
WH,141,2,2024-06-14T05:29:55.141Z,english_572.wav,0,1,123,,,,,0,0,-16.16189062,1.82210005
WH,141,2,2024-06-14T05:29:55.141Z,english_572.wav,0,1,123,,,,,1,0.1,-40.8511413,0.80249033
WH,141,2,2024-06-14T05:29:55.141Z,english_572.wav,0,1,123,,,,,2,0.2,-77.3747243,0.69959732
WH,141,2,2024-06-14T05:29:55.141Z,english_572.wav,0,1,123,,,,,3,0.3,87.62803369,0.43311894
WH,141,2,2024-06-14T05:29:55.141Z,english_572.wav,0,1,123,,,,,4,0.32341667,81.6005998,1.25204325
WH,142,2,2024-06-14T05:29:55.141Z,english_95.wav,0,0,1102,,,,,0,0,-9.17523314,0.73915747
WH,142,2,2024-06-14T05:29:55.141Z,english_95.wav,0,0,1102,,,,,1,0.1,-95.16832451,1.01172325
WH,142,2,2024-06-14T05:29:55.141Z,english_95.wav,0,0,1102,,,,,2,0.2,-21.6130257,1.19817679
WH,142,2,2024-06-14T05:29:55.141Z,english_95.wav,0,0,1102,,,,,3,0.3,0.51006416,1.53285694
WH,142,2,2024-06-14T05:29:55.141Z,english_95.wav,0,0,1102,,,,,4,0.32341667,43.00131518,1.08383215
WH,143,2,2024-06-14T05:29:55.141Z,english_919.wav,0,0,601,,,,,0,0,-78.03270024,1.18744007
WH,143,2,2024-06-14T05:29:55.141Z,english_919.wav,0,0,601,,,,,1,0.1,24.9634274,0.32639994
WH,143,2,2024-06-14T05:29:55.141Z,english_919.wav,0,0,601,,,,,2,0.2,-36.24618286,1.14830442
WH,143,2,2024-06-14T05:29:55.141Z,english_919.wav,0,0,601,,,,,3,0.3,-67.38261266,0.75322619
WH,143,2,2024-06-14T05:29:55.141Z,english_919.wav,0,0,601,,,,,4,0.32341667,86.21803917,0.69239757
WH,144,2,2024-06-14T05:29:55.141Z,english_366.wav,0,1,880,,,,,0,0,30.08929792,0.87054072
WH,144,2,2024-06-14T05:29:55.141Z,english_366.wav,0,1,880,,,,,1,0.1,-17.9139155,0.34658018
WH,144,2,2024-06-14T05:29:55.141Z,english_366.wav,0,1,880,,,,,2,0.2,-66.75779592,0.49970414
WH,144,2,2024-06-14T05:29:55.141Z,english_366.wav,0,1,880,,,,,3,0.3,77.64459909,1.94720887
WH,144,2,2024-06-14T05:29:55.141Z,english_366.wav,0,1,880,,,,,4,0.32341667,72.64294537,1.76390144
WH,145,2,2024-06-14T05:29:55.141Z,english_203.wav,0,1,249,,,,,0,0,-22.28277813,1.31475846
WH,145,2,2024-06-14T05:29:55.141Z,english_203.wav,0,1,249,,,,,1,0.1,13.21695477,1.08922412
WH,145,2,2024-06-14T05:29:55.141Z,english_203.wav,0,1,249,,,,,2,0.2,63.23651974,0.55450355
WH,145,2,2024-06-14T05:29:55.141Z,english_203.wav,0,1,249,,,,,3,0.3,-20.14830746,1.72034007
WH,145,2,2024-06-14T05:29:55.141Z,english_203.wav,0,1,249,,,,,4,0.32341667,-78.55276631,0.92481053
WH,146,2,2024-06-14T05:29:55.141Z,english_329.wav,0,1,205,,,,,0,0,-48.89108629,1.2424848
WH,146,2,2024-06-14T05:29:55.141Z,english_329.wav,0,1,205,,,,,1,0.1,55.67852038,1.73811564
WH,146,2,2024-06-14T05:29:55.141Z,english_329.wav,0,1,205,,,,,2,0.2,48.16827585,0.4928271
WH,146,2,2024-06-14T05:29:55.141Z,english_329.wav,0,1,205,,,,,3,0.3,73.70818564,0.68407289
WH,146,2,2024-06-14T05:29:55.141Z,english_329.wav,0,1,205,,,,,4,0.32341667,85.70797026,1.92917435
WH,147,2,2024-06-14T05:29:55.141Z,english_429.wav,0,1,1005,,,,,0,0,-70.82827187,0.34305232
WH,147,2,2024-06-14T05:29:55.141Z,english_429.wav,0,1,1005,,,,,1,0.1,79.2644825,1.15525787
WH,147,2,2024-06-14T05:29:55.141Z,english_429.wav,0,1,1005,,,,,2,0.2,14.29027084,1.85610569
WH,147,2,2024-06-14T05:29:55.141Z,english_429.wav,0,1,1005,,,,,3,0.3,-47.65971945,0.19828098
WH,147,2,2024-06-14T05:29:55.141Z,english_429.wav,0,1,1005,,,,,4,0.32341667,8.9954872,1.51767034
WH,148,2,2024-06-14T05:29:55.141Z,english_574.wav,0,0,684,,,,,0,0,53.128433,0.28349694
WH,148,2,2024-06-14T05:29:55.141Z,english_574.wav,0,0,684,,,,,1,0.1,70.24248151,0.66519348
WH,148,2,2024-06-14T05:29:55.141Z,english_574.wav,0,0,684,,,,,2,0.2,47.13290739,1.25768036
WH,148,2,2024-06-14T05:29:55.141Z,english_574.wav,0,0,684,,,,,3,0.3,52.31480293,1.43482954
WH,148,2,2024-06-14T05:29:55.141Z,english_574.wav,0,0,684,,,,,4,0.32341667,-33.06438127,1.23350688
WH,149,2,2024-06-14T05:29:55.141Z,english_705.wav,0,1,998,,,,,0,0,3.76426423,0.9500377
WH,149,2,2024-06-14T05:29:55.141Z,english_705.wav,0,1,998,,,,,1,0.1,90.96696755,0.74173997
WH,149,2,2024-06-14T05:29:55.141Z,english_705.wav,0,1,998,,,,,2,0.2,-32.86898574,1.78776637
WH,149,2,2024-06-14T05:29:55.141Z,english_705.wav,0,1,998,,,,,3,0.3,-21.12550784,0.8178788
WH,149,2,2024-06-14T05:29:55.141Z,english_705.wav,0,1,998,,,,,4,0.32341667,39.74077299,1.54913024
WH,150,3,2024-06-14T05:29:55.141Z,english_178.wav,0,1,319,,,,,0,0,-14.41838744,0.71193749
WH,150,3,2024-06-14T05:29:55.141Z,english_178.wav,0,1,319,,,,,1,0.1,64.59665955,0.54024543
WH,150,3,2024-06-14T05:29:55.141Z,english_178.wav,0,1,319,,,,,2,0.2,-96.76492712,1.78065704
WH,150,3,2024-06-14T05:29:55.141Z,english_178.wav,0,1,319,,,,,3,0.3,-50.00654232,1.40559917
WH,150,3,2024-06-14T05:29:55.141Z,english_178.wav,0,1,319,,,,,4,0.32341667,42.56426636,0.99785593
WH,151,3,2024-06-14T05:29:55.141Z,english_962.wav,0,0,384,,,,,0,0,-55.512918,1.78332996
WH,151,3,2024-06-14T05:29:55.141Z,english_962.wav,0,0,384,,,,,1,0.1,90.34773129,1.25956614
WH,151,3,2024-06-14T05:29:55.141Z,english_962.wav,0,0,384,,,,,2,0.2,-3.10818459,0.72891593
WH,151,3,2024-06-14T05:29:55.141Z,english_962.wav,0,0,384,,,,,3,0.3,50.27619033,1.49954356
WH,151,3,2024-06-14T05:29:55.141Z,english_962.wav,0,0,384,,,,,4,0.32341667,-47.3196173,0.96339983
WH,152,3,2024-06-14T05:29:55.141Z,english_756.wav,0,1,605,,,,,0,0,-75.60908863,1.29894989
WH,152,3,2024-06-14T05:29:55.141Z,english_756.wav,0,1,605,,,,,1,0.1,-4.30259752,0.61363685
WH,152,3,2024-06-14T05:29:55.141Z,english_756.wav,0,1,605,,,,,2,0.2,20.94377522,1.41793961
WH,152,3,2024-06-14T05:29:55.141Z,english_756.wav,0,1,605,,,,,3,0.3,10.45062111,1.73528762
WH,152,3,2024-06-14T05:29:55.141Z,english_756.wav,0,1,605,,,,,4,0.32341667,86.50209298,0.4791473
WH,153,3,2024-06-14T05:29:55.141Z,english_667.wav,0,1,845,,,,,0,0,-36.96649028,1.3014101
WH,153,3,2024-06-14T05:29:55.141Z,english_667.wav,0,1,845,,,,,1,0.1,9.08709827,0.05882523
WH,153,3,2024-06-14T05:29:55.141Z,english_667.wav,0,1,845,,,,,2,0.2,85.36553945,1.428997
WH,153,3,2024-06-14T05:29:55.141Z,english_667.wav,0,1,845,,,,,3,0.3,-41.19556041,1.2429303
WH,153,3,2024-06-14T05:29:55.141Z,english_667.wav,0,1,845,,,,,4,0.32341667,-31.79783786,0.97363261
WH,154,3,2024-06-14T05:29:55.141Z,english_479.wav,0,0,529,,,,,0,0,74.98268857,0.98081986
WH,154,3,2024-06-14T05:29:55.141Z,english_479.wav,0,0,529,,,,,1,0.1,16.03290679,0.71187618
WH,154,3,2024-06-14T05:29:55.141Z,english_479.wav,0,0,529,,,,,2,0.2,78.97784812,0.27050369
WH,154,3,2024-06-14T05:29:55.141Z,english_479.wav,0,0,529,,,,,3,0.3,-15.63843586,1.15797271
WH,154,3,2024-06-14T05:29:55.141Z,english_479.wav,0,0,529,,,,,4,0.32341667,42.04802753,1.51318639
WH,155,3,2024-06-14T05:29:55.141Z,english_118.wav,0,1,496,,,,,0,0,-46.26080879,0.77156844
WH,155,3,2024-06-14T05:29:55.141Z,english_118.wav,0,1,496,,,,,1,0.1,-14.63576669,0.55135676
WH,155,3,2024-06-14T05:29:55.141Z,english_118.wav,0,1,496,,,,,2,0.2,85.04541628,0.92804695
WH,155,3,2024-06-14T05:29:55.141Z,english_118.wav,0,1,496,,,,,3,0.3,-49.31762638,1.40435072
WH,155,3,2024-06-14T05:29:55.141Z,english_118.wav,0,1,496,,,,,4,0.32341667,16.64479416,1.67291824
WH,156,3,2024-06-14T05:29:55.141Z,english_522.wav,0,1,755,,,,,0,0,11.68148217,0.44643579
WH,156,3,2024-06-14T05:29:55.141Z,english_522.wav,0,1,755,,,,,1,0.1,-74.55265788,0.16885459
WH,156,3,2024-06-14T05:29:55.141Z,english_522.wav,0,1,755,,,,,2,0.2,95.15954448,1.67161326
WH,156,3,2024-06-14T05:29:55.141Z,english_522.wav,0,1,755,,,,,3,0.3,-17.14209769,0.53349848
WH,156,3,2024-06-14T05:29:55.141Z,english_522.wav,0,1,755,,,,,4,0.32341667,-35.38302731,0.4645726
WH,157,3,2024-06-14T05:29:55.141Z,english_98.wav,0,1,1439,,,,,0,0,-23.07451683,0.55932234
WH,157,3,2024-06-14T05:29:55.141Z,english_98.wav,0,1,1439,,,,,1,0.1,58.83766866,1.03192869
WH,157,3,2024-06-14T05:29:55.141Z,english_98.wav,0,1,1439,,,,,2,0.2,75.90401246,1.16154403
WH,157,3,2024-06-14T05:29:55.141Z,english_98.wav,0,1,1439,,,,,3,0.3,-86.31256295,0.50819795
WH,157,3,2024-06-14T05:29:55.141Z,english_98.wav,0,1,1439,,,,,4,0.32341667,26.17624316,1.94690859
WH,158,3,2024-06-14T05:29:55.141Z,english_450.wav,0,0,770,,,,,0,0,32.75253923,1.28767958
WH,158,3,2024-06-14T05:29:55.141Z,english_450.wav,0,0,770,,,,,1,0.1,-95.51335644,1.7262356
WH,158,3,2024-06-14T05:29:55.141Z,english_450.wav,0,0,770,,,,,2,0.2,34.87485597,0.97567272
WH,158,3,2024-06-14T05:29:55.141Z,english_450.wav,0,0,770,,,,,3,0.3,-23.91285283,1.94639387
WH,158,3,2024-06-14T05:29:55.141Z,english_450.wav,0,0,770,,,,,4,0.32341667,-8.67870007,1.78958339
WH,159,3,2024-06-14T05:29:55.141Z,english_243.wav,0,1,870,,,,,0,0,-74.41503345,0.65151457
WH,159,3,2024-06-14T05:29:55.141Z,english_243.wav,0,1,870,,,,,1,0.1,-16.65530333,0.20623253
WH,159,3,2024-06-14T05:29:55.141Z,english_243.wav,0,1,870,,,,,2,0.2,-1.41224798,0.87153721
WH,159,3,2024-06-14T05:29:55.141Z,english_243.wav,0,1,870,,,,,3,0.3,37.30419975,0.28583671
WH,159,3,2024-06-14T05:29:55.141Z,english_243.wav,0,1,870,,,,,4,0.32341667,-3.40378668,1.90700275
WH,160,3,2024-06-14T05:29:55.141Z,english_425.wav,0,0,800,,,,,0,0,52.16022051,1.95369626
WH,160,3,2024-06-14T05:29:55.141Z,english_425.wav,0,0,800,,,,,1,0.1,-4.0342476,0.01224448
WH,160,3,2024-06-14T05:29:55.141Z,english_425.wav,0,0,800,,,,,2,0.2,71.82190917,1.45838463
WH,160,3,2024-06-14T05:29:55.141Z,english_425.wav,0,0,800,,,,,3,0.3,77.8432037,1.1656734
WH,160,3,2024-06-14T05:29:55.141Z,english_425.wav,0,0,800,,,,,4,0.32341667,29.14791909,1.54078916
WH,161,3,2024-06-14T05:29:55.141Z,english_257.wav,0,1,581,,,,,0,0,-68.31428674,1.40239735
WH,161,3,2024-06-14T05:29:55.141Z,english_257.wav,0,1,581,,,,,1,0.1,-13.90908686,1.49673114
WH,161,3,2024-06-14T05:29:55.141Z,english_257.wav,0,1,581,,,,,2,0.2,54.08743226,1.07658057
WH,161,3,2024-06-14T05:29:55.141Z,english_257.wav,0,1,581,,,,,3,0.3,-42.73693867,0.27427112
WH,161,3,2024-06-14T05:29:55.141Z,english_257.wav,0,1,581,,,,,4,0.32341667,-1.03846516,1.90516482
WH,162,3,2024-06-14T05:29:55.141Z,english_412.wav,0,0,872,,,,,0,0,-82.38375592,0.41347899
WH,162,3,2024-06-14T05:29:55.141Z,english_412.wav,0,0,872,,,,,1,0.1,-35.89348303,0.05505218
WH,162,3,2024-06-14T05:29:55.141Z,english_412.wav,0,0,872,,,,,2,0.2,-78.50422887,1.28972039
WH,162,3,2024-06-14T05:29:55.141Z,english_412.wav,0,0,872,,,,,3,0.3,8.19618882,0.97331843
WH,162,3,2024-06-14T05:29:55.141Z,english_412.wav,0,0,872,,,,,4,0.32341667,88.30694734,0.22558246
WH,163,3,2024-06-14T05:29:55.141Z,english_744.wav,0,1,789,,,,,0,0,43.39686976,0.75505854
WH,163,3,2024-06-14T05:29:55.141Z,english_744.wav,0,1,789,,,,,1,0.1,-61.67573043,1.01311725
WH,163,3,2024-06-14T05:29:55.141Z,english_744.wav,0,1,789,,,,,2,0.2,0.51873183,0.73457108
WH,163,3,2024-06-14T05:29:55.141Z,english_744.wav,0,1,789,,,,,3,0.3,12.88130512,0.90154102
WH,163,3,2024-06-14T05:29:55.141Z,english_744.wav,0,1,789,,,,,4,0.32341667,57.31714449,1.01338509
WH,164,3,2024-06-14T05:29:55.141Z,english_26.wav,0,1,895,,,,,0,0,54.38966875,1.86679487
WH,164,3,2024-06-14T05:29:55.141Z,english_26.wav,0,1,895,,,,,1,0.1,0.3460174,0.79762949
WH,164,3,2024-06-14T05:29:55.141Z,english_26.wav,0,1,895,,,,,2,0.2,-72.33258957,0.93682052
WH,164,3,2024-06-14T05:29:55.141Z,english_26.wav,0,1,895,,,,,3,0.3,67.09142092,1.42469209
WH,164,3,2024-06-14T05:29:55.141Z,english_26.wav,0,1,895,,,,,4,0.32341667,16.00565239,1.17807545
WH,165,3,2024-06-14T05:29:55.141Z,english_808.wav,0,0,511,,,,,0,0,23.02589628,1.07384277
WH,165,3,2024-06-14T05:29:55.141Z,english_808.wav,0,0,511,,,,,1,0.1,10.58817829,1.3919179
WH,165,3,2024-06-14T05:29:55.141Z,english_808.wav,0,0,511,,,,,2,0.2,36.77134597,0.54960524
WH,165,3,2024-06-14T05:29:55.141Z,english_808.wav,0,0,511,,,,,3,0.3,-30.31603221,1.95871365
WH,165,3,2024-06-14T05:29:55.141Z,english_808.wav,0,0,511,,,,,4,0.32341667,9.74764343,0.79150541
WH,166,3,2024-06-14T05:29:55.141Z,english_84.wav,0,1,460,,,,,0,0,-42.35488886,0.45116064
WH,166,3,2024-06-14T05:29:55.141Z,english_84.wav,0,1,460,,,,,1,0.1,17.86576323,1.91320005
WH,166,3,2024-06-14T05:29:55.141Z,english_84.wav,0,1,460,,,,,2,0.2,-56.36172821,1.53140363
WH,166,3,2024-06-14T05:29:55.141Z,english_84.wav,0,1,460,,,,,3,0.3,69.8537656,0.53091011
WH,166,3,2024-06-14T05:29:55.141Z,english_84.wav,0,1,460,,,,,4,0.32341667,-47.30652012,1.59279301
WH,167,3,2024-06-14T05:29:55.141Z,english_299.wav,0,0,157,,,,,0,0,-2.55977829,0.95716625
WH,167,3,2024-06-14T05:29:55.141Z,english_299.wav,0,0,157,,,,,1,0.1,1.77446255,1.43363845
WH,167,3,2024-06-14T05:29:55.141Z,english_299.wav,0,0,157,,,,,2,0.2,-18.83457859,1.1421669
WH,167,3,2024-06-14T05:29:55.141Z,english_299.wav,0,0,157,,,,,3,0.3,-71.88845024,1.57148089
WH,167,3,2024-06-14T05:29:55.141Z,english_299.wav,0,0,157,,,,,4,0.32341667,99.76623745,1.70410623
WH,168,3,2024-06-14T05:29:55.141Z,english_684.wav,0,1,92,,,,,0,0,0.36394418,1.65924935
WH,168,3,2024-06-14T05:29:55.141Z,english_684.wav,0,1,92,,,,,1,0.1,28.47964645,1.32149406
WH,168,3,2024-06-14T05:29:55.141Z,english_684.wav,0,1,92,,,,,2,0.2,60.47995017,0.32417562
WH,168,3,2024-06-14T05:29:55.141Z,english_684.wav,0,1,92,,,,,3,0.3,-33.43266819,1.42108385
WH,168,3,2024-06-14T05:29:55.141Z,english_684.wav,0,1,92,,,,,4,0.32341667,-31.86672206,1.29243289
WH,169,3,2024-06-14T05:29:55.141Z,english_795.wav,0,1,1650,,,,,0,0,39.36518311,1.47453336
WH,169,3,2024-06-14T05:29:55.141Z,english_795.wav,0,1,1650,,,,,1,0.1,16.50141431,0.29075574
WH,169,3,2024-06-14T05:29:55.141Z,english_795.wav,0,1,1650,,,,,2,0.2,54.87860026,1.88174141
WH,169,3,2024-06-14T05:29:55.141Z,english_795.wav,0,1,1650,,,,,3,0.3,61.09971909,0.27471403
WH,169,3,2024-06-14T05:29:55.141Z,english_795.wav,0,1,1650,,,,,4,0.32341667,4.28490532,0.11399574
WH,170,3,2024-06-14T05:29:55.141Z,english_621.wav,0,1,456,,,,,0,0,-58.25251841,1.01186344
WH,170,3,2024-06-14T05:29:55.141Z,english_621.wav,0,1,456,,,,,1,0.1,21.8974524,1.03560921
WH,170,3,2024-06-14T05:29:55.141Z,english_621.wav,0,1,456,,,,,2,0.2,-22.03552483,0.97057504
WH,170,3,2024-06-14T05:29:55.141Z,english_621.wav,0,1,456,,,,,3,0.3,-56.80446909,1.33131235
WH,170,3,2024-06-14T05:29:55.141Z,english_621.wav,0,1,456,,,,,4,0.32341667,-23.41760562,0.49151525
WH,171,3,2024-06-14T05:29:55.141Z,english_631.wav,0,1,227,,,,,0,0,-74.37700429,0.77307226
WH,171,3,2024-06-14T05:29:55.141Z,english_631.wav,0,1,227,,,,,1,0.1,-18.72790858,0.75923189
WH,171,3,2024-06-14T05:29:55.141Z,english_631.wav,0,1,227,,,,,2,0.2,-40.03216697,1.00825659
WH,171,3,2024-06-14T05:29:55.141Z,english_631.wav,0,1,227,,,,,3,0.3,-98.5967418,1.46579839
WH,171,3,2024-06-14T05:29:55.141Z,english_631.wav,0,1,227,,,,,4,0.32341667,-41.89017921,0.34107994
WH,172,3,2024-06-14T05:29:55.141Z,english_907.wav,0,1,175,,,,,0,0,13.97638225,0.68575839
WH,172,3,2024-06-14T05:29:55.141Z,english_907.wav,0,1,175,,,,,1,0.1,36.81481791,1.58611259
WH,172,3,2024-06-14T05:29:55.141Z,english_907.wav,0,1,175,,,,,2,0.2,1.21651202,1.59547025
WH,172,3,2024-06-14T05:29:55.141Z,english_907.wav,0,1,175,,,,,3,0.3,35.47405672,0.75888392
WH,172,3,2024-06-14T05:29:55.141Z,english_907.wav,0,1,175,,,,,4,0.32341667,-27.93760057,0.06937964
WH,173,3,2024-06-14T05:29:55.141Z,english_67.wav,0,1,74,,,,,0,0,70.16279698,0.73199358
WH,173,3,2024-06-14T05:29:55.141Z,english_67.wav,0,1,74,,,,,1,0.1,33.8182948,0.88382403
WH,173,3,2024-06-14T05:29:55.141Z,english_67.wav,0,1,74,,,,,2,0.2,-49.10498957,1.67993254
WH,173,3,2024-06-14T05:29:55.141Z,english_67.wav,0,1,74,,,,,3,0.3,-4.93823124,0.24455532
WH,173,3,2024-06-14T05:29:55.141Z,english_67.wav,0,1,74,,,,,4,0.32341667,24.09614703,1.99747442
WH,174,3,2024-06-14T05:29:55.141Z,english_338.wav,0,1,604,,,,,0,0,-22.40965878,1.93572195
WH,174,3,2024-06-14T05:29:55.141Z,english_338.wav,0,1,604,,,,,1,0.1,-10.16153496,1.78994992
WH,174,3,2024-06-14T05:29:55.141Z,english_338.wav,0,1,604,,,,,2,0.2,-50.2449588,1.38134059
WH,174,3,2024-06-14T05:29:55.141Z,english_338.wav,0,1,604,,,,,3,0.3,14.05674122,1.78462007
WH,174,3,2024-06-14T05:29:55.141Z,english_338.wav,0,1,604,,,,,4,0.32341667,-78.35339858,1.2607094
WH,175,3,2024-06-14T05:29:55.141Z,english_166.wav,0,1,382,,,,,0,0,37.27670025,1.42766663
WH,175,3,2024-06-14T05:29:55.141Z,english_166.wav,0,1,382,,,,,1,0.1,34.38847046,0.72731767
WH,175,3,2024-06-14T05:29:55.141Z,english_166.wav,0,1,382,,,,,2,0.2,49.91842175,1.80608275
WH,175,3,2024-06-14T05:29:55.141Z,english_166.wav,0,1,382,,,,,3,0.3,56.9541748,1.91598421
WH,175,3,2024-06-14T05:29:55.141Z,english_166.wav,0,1,382,,,,,4,0.32341667,10.97290623,1.21084105
WH,176,3,2024-06-14T05:29:55.141Z,english_758.wav,0,0,521,,,,,0,0,-56.29380511,1.72966744
WH,176,3,2024-06-14T05:29:55.141Z,english_758.wav,0,0,521,,,,,1,0.1,1.29517397,1.20455484
WH,176,3,2024-06-14T05:29:55.141Z,english_758.wav,0,0,521,,,,,2,0.2,49.77366466,0.98441853
WH,176,3,2024-06-14T05:29:55.141Z,english_758.wav,0,0,521,,,,,3,0.3,51.49077837,0.78323536
WH,176,3,2024-06-14T05:29:55.141Z,english_758.wav,0,0,521,,,,,4,0.32341667,80.19813303,1.88107652
WH,177,3,2024-06-14T05:29:55.141Z,english_868.wav,0,0,489,,,,,0,0,-32.61379415,0.76599538
WH,177,3,2024-06-14T05:29:55.141Z,english_868.wav,0,0,489,,,,,1,0.1,-13.61007492,0.34348987
WH,177,3,2024-06-14T05:29:55.141Z,english_868.wav,0,0,489,,,,,2,0.2,-35.23756027,0.26787397
WH,177,3,2024-06-14T05:29:55.141Z,english_868.wav,0,0,489,,,,,3,0.3,83.12333319,0.46343078
WH,177,3,2024-06-14T05:29:55.141Z,english_868.wav,0,0,489,,,,,4,0.32341667,62.80865362,1.59158725
WH,178,3,2024-06-14T05:29:55.141Z,english_830.wav,0,0,206,,,,,0,0,2.63258607,0.89301132
WH,178,3,2024-06-14T05:29:55.141Z,english_830.wav,0,0,206,,,,,1,0.1,-31.8387274,1.32560067
WH,178,3,2024-06-14T05:29:55.141Z,english_830.wav,0,0,206,,,,,2,0.2,-6.78563658,1.08718884
WH,178,3,2024-06-14T05:29:55.141Z,english_830.wav,0,0,206,,,,,3,0.3,-57.52390495,0.53430446
WH,178,3,2024-06-14T05:29:55.141Z,english_830.wav,0,0,206,,,,,4,0.32341667,51.13575953,0.53816607
WH,179,3,2024-06-14T05:29:55.141Z,english_240.wav,0,1,29,,,,,0,0,-96.55121617,1.04823872
WH,179,3,2024-06-14T05:29:55.141Z,english_240.wav,0,1,29,,,,,1,0.1,73.99435309,1.11556714
WH,179,3,2024-06-14T05:29:55.141Z,english_240.wav,0,1,29,,,,,2,0.2,-27.17256968,0.68795106
WH,179,3,2024-06-14T05:29:55.141Z,english_240.wav,0,1,29,,,,,3,0.3,-2.05185553,1.30325309
WH,179,3,2024-06-14T05:29:55.141Z,english_240.wav,0,1,29,,,,,4,0.32341667,80.37406519,0.86977317
WH,180,3,2024-06-14T05:29:55.141Z,english_558.wav,0,1,147,,,,,0,0,-73.38624366,1.58797859
WH,180,3,2024-06-14T05:29:55.141Z,english_558.wav,0,1,147,,,,,1,0.1,-42.42633216,1.10525313
WH,180,3,2024-06-14T05:29:55.141Z,english_558.wav,0,1,147,,,,,2,0.2,15.99713578,0.42598769
WH,180,3,2024-06-14T05:29:55.141Z,english_558.wav,0,1,147,,,,,3,0.3,-33.12568725,0.25629603
WH,180,3,2024-06-14T05:29:55.141Z,english_558.wav,0,1,147,,,,,4,0.32341667,44.00446366,1.81995896
WH,181,3,2024-06-14T05:29:55.141Z,english_888.wav,0,1,474,,,,,0,0,-75.11317729,0.15619421
WH,181,3,2024-06-14T05:29:55.141Z,english_888.wav,0,1,474,,,,,1,0.1,-15.41916561,1.45351631
WH,181,3,2024-06-14T05:29:55.141Z,english_888.wav,0,1,474,,,,,2,0.2,30.82770832,1.60154734
WH,181,3,2024-06-14T05:29:55.141Z,english_888.wav,0,1,474,,,,,3,0.3,69.72581111,1.09787436
WH,181,3,2024-06-14T05:29:55.141Z,english_888.wav,0,1,474,,,,,4,0.32341667,-21.6620698,1.3760261
WH,182,3,2024-06-14T05:29:55.141Z,english_668.wav,0,1,502,,,,,0,0,48.8265236,0.43768829
WH,182,3,2024-06-14T05:29:55.141Z,english_668.wav,0,1,502,,,,,1,0.1,97.68090991,0.31983773
WH,182,3,2024-06-14T05:29:55.141Z,english_668.wav,0,1,502,,,,,2,0.2,47.50182685,1.24438546
WH,182,3,2024-06-14T05:29:55.141Z,english_668.wav,0,1,502,,,,,3,0.3,81.7432518,0.49120307
WH,182,3,2024-06-14T05:29:55.141Z,english_668.wav,0,1,502,,,,,4,0.32341667,28.08178094,0.60639718
WH,183,3,2024-06-14T05:29:55.141Z,english_368.wav,0,1,142,,,,,0,0,-25.00542805,1.03431482
WH,183,3,2024-06-14T05:29:55.141Z,english_368.wav,0,1,142,,,,,1,0.1,-48.20991773,0.92366821
WH,183,3,2024-06-14T05:29:55.141Z,english_368.wav,0,1,142,,,,,2,0.2,-51.83604218,0.34019883
WH,183,3,2024-06-14T05:29:55.141Z,english_368.wav,0,1,142,,,,,3,0.3,14.57062672,1.21184807
WH,183,3,2024-06-14T05:29:55.141Z,english_368.wav,0,1,142,,,,,4,0.32341667,-26.77020505,0.81530657
WH,184,3,2024-06-14T05:29:55.141Z,english_786.wav,0,1,396,,,,,0,0,50.77560123,0.9907589
WH,184,3,2024-06-14T05:29:55.141Z,english_786.wav,0,1,396,,,,,1,0.1,-87.08435808,0.48193409
WH,184,3,2024-06-14T05:29:55.141Z,english_786.wav,0,1,396,,,,,2,0.2,-36.07136163,1.01949061
WH,184,3,2024-06-14T05:29:55.141Z,english_786.wav,0,1,396,,,,,3,0.3,98.77618087,1.06334926
WH,184,3,2024-06-14T05:29:55.141Z,english_786.wav,0,1,396,,,,,4,0.32341667,86.70070823,0.94164836
WH,185,3,2024-06-14T05:29:55.141Z,english_122.wav,0,1,64,,,,,0,0,64.29837997,0.06121643
WH,185,3,2024-06-14T05:29:55.141Z,english_122.wav,0,1,64,,,,,1,0.1,-6.72103776,1.56183773
WH,185,3,2024-06-14T05:29:55.141Z,english_122.wav,0,1,64,,,,,2,0.2,34.67911304,1.3577209
WH,185,3,2024-06-14T05:29:55.141Z,english_122.wav,0,1,64,,,,,3,0.3,25.29178735,0.94012362
WH,185,3,2024-06-14T05:29:55.141Z,english_122.wav,0,1,64,,,,,4,0.32341667,-20.34954259,1.04570986
WH,186,3,2024-06-14T05:29:55.141Z,english_428.wav,0,0,1057,,,,,0,0,-98.34466569,1.83106884
WH,186,3,2024-06-14T05:29:55.141Z,english_428.wav,0,0,1057,,,,,1,0.1,-10.51162175,1.34345266
WH,186,3,2024-06-14T05:29:55.141Z,english_428.wav,0,0,1057,,,,,2,0.2,97.93427859,0.65853672
WH,186,3,2024-06-14T05:29:55.141Z,english_428.wav,0,0,1057,,,,,3,0.3,35.61870537,1.28105878
WH,186,3,2024-06-14T05:29:55.141Z,english_428.wav,0,0,1057,,,,,4,0.32341667,-12.49352836,0.15324236
WH,187,3,2024-06-14T05:29:55.141Z,english_588.wav,0,0,123,,,,,0,0,99.95047602,0.54608042
WH,187,3,2024-06-14T05:29:55.141Z,english_588.wav,0,0,123,,,,,1,0.1,6.8401109,0.86340392
WH,187,3,2024-06-14T05:29:55.141Z,english_588.wav,0,0,123,,,,,2,0.2,-15.9093749,0.01522231
WH,187,3,2024-06-14T05:29:55.141Z,english_588.wav,0,0,123,,,,,3,0.3,-95.80500507,0.86017392
WH,187,3,2024-06-14T05:29:55.141Z,english_588.wav,0,0,123,,,,,4,0.32341667,23.59255786,0.36914066
WH,188,3,2024-06-14T05:29:55.141Z,english_559.wav,0,1,918,,,,,0,0,72.91796617,0.28347303
WH,188,3,2024-06-14T05:29:55.141Z,english_559.wav,0,1,918,,,,,1,0.1,49.0763932,0.33705515
WH,188,3,2024-06-14T05:29:55.141Z,english_559.wav,0,1,918,,,,,2,0.2,37.36372944,1.25665906
WH,188,3,2024-06-14T05:29:55.141Z,english_559.wav,0,1,918,,,,,3,0.3,62.8744144,0.42135622
WH,188,3,2024-06-14T05:29:55.141Z,english_559.wav,0,1,918,,,,,4,0.32341667,-70.24316133,0.44445559
WH,189,3,2024-06-14T05:29:55.141Z,english_486.wav,0,1,1000,,,,,0,0,31.41997184,1.22599644
WH,189,3,2024-06-14T05:29:55.141Z,english_486.wav,0,1,1000,,,,,1,0.1,58.03480486,1.4547445
WH,189,3,2024-06-14T05:29:55.141Z,english_486.wav,0,1,1000,,,,,2,0.2,-62.84801238,0.27967606
WH,189,3,2024-06-14T05:29:55.141Z,english_486.wav,0,1,1000,,,,,3,0.3,10.62451678,0.02065399
WH,189,3,2024-06-14T05:29:55.141Z,english_486.wav,0,1,1000,,,,,4,0.32341667,10.31835057,0.3128479
WH,190,3,2024-06-14T05:29:55.141Z,english_378.wav,0,1,1570,,,,,0,0,13.37832971,0.65677047
WH,190,3,2024-06-14T05:29:55.141Z,english_378.wav,0,1,1570,,,,,1,0.1,17.37931074,1.74134092
WH,190,3,2024-06-14T05:29:55.141Z,english_378.wav,0,1,1570,,,,,2,0.2,10.9554113,0.67897054
WH,190,3,2024-06-14T05:29:55.141Z,english_378.wav,0,1,1570,,,,,3,0.3,-24.86891171,1.20159635
WH,190,3,2024-06-14T05:29:55.141Z,english_378.wav,0,1,1570,,,,,4,0.32341667,7.89965194,0.27053006
WH,191,3,2024-06-14T05:29:55.141Z,english_8.wav,0,1,635,,,,,0,0,-11.83025711,1.51300734
WH,191,3,2024-06-14T05:29:55.141Z,english_8.wav,0,1,635,,,,,1,0.1,8.7470631,0.24000547
WH,191,3,2024-06-14T05:29:55.141Z,english_8.wav,0,1,635,,,,,2,0.2,-15.41843982,1.17952525
WH,191,3,2024-06-14T05:29:55.141Z,english_8.wav,0,1,635,,,,,3,0.3,-87.7437633,1.57032258
WH,191,3,2024-06-14T05:29:55.141Z,english_8.wav,0,1,635,,,,,4,0.32341667,-40.85253846,0.7584977
WH,192,3,2024-06-14T05:29:55.141Z,english_223.wav,0,1,606,,,,,0,0,-51.58222533,0.62889348
WH,192,3,2024-06-14T05:29:55.141Z,english_223.wav,0,1,606,,,,,1,0.1,-36.02700064,1.73736573
WH,192,3,2024-06-14T05:29:55.141Z,english_223.wav,0,1,606,,,,,2,0.2,-35.4915315,1.20130681
WH,192,3,2024-06-14T05:29:55.141Z,english_223.wav,0,1,606,,,,,3,0.3,1.26892628,0.53176439
WH,192,3,2024-06-14T05:29:55.141Z,english_223.wav,0,1,606,,,,,4,0.32341667,72.37143842,1.24562253
WH,193,3,2024-06-14T05:29:55.141Z,english_872.wav,0,0,393,,,,,0,0,0.56374655,0.10935802
WH,193,3,2024-06-14T05:29:55.141Z,english_872.wav,0,0,393,,,,,1,0.1,-70.88107799,0.91778609
WH,193,3,2024-06-14T05:29:55.141Z,english_872.wav,0,0,393,,,,,2,0.2,6.46677515,1.38740199
WH,193,3,2024-06-14T05:29:55.141Z,english_872.wav,0,0,393,,,,,3,0.3,-23.51354109,0.12682507
WH,193,3,2024-06-14T05:29:55.141Z,english_872.wav,0,0,393,,,,,4,0.32341667,81.64578493,0.71067476
WH,194,3,2024-06-14T05:29:55.141Z,english_453.wav,0,0,365,,,,,0,0,-60.23429987,1.87756573
WH,194,3,2024-06-14T05:29:55.141Z,english_453.wav,0,0,365,,,,,1,0.1,80.38725697,0.94070469
WH,194,3,2024-06-14T05:29:55.141Z,english_453.wav,0,0,365,,,,,2,0.2,66.16689695,1.71191258
WH,194,3,2024-06-14T05:29:55.141Z,english_453.wav,0,0,365,,,,,3,0.3,-59.46214637,0.56012011
WH,194,3,2024-06-14T05:29:55.141Z,english_453.wav,0,0,365,,,,,4,0.32341667,-39.76201882,0.35119419
WH,195,3,2024-06-14T05:29:55.141Z,english_447.wav,0,0,1358,,,,,0,0,38.77193801,0.52212734
WH,195,3,2024-06-14T05:29:55.141Z,english_447.wav,0,0,1358,,,,,1,0.1,-3.53992528,0.58948567
WH,195,3,2024-06-14T05:29:55.141Z,english_447.wav,0,0,1358,,,,,2,0.2,54.1888363,0.60662966
WH,195,3,2024-06-14T05:29:55.141Z,english_447.wav,0,0,1358,,,,,3,0.3,-95.90180003,0.73195254
WH,195,3,2024-06-14T05:29:55.141Z,english_447.wav,0,0,1358,,,,,4,0.32341667,48.32118178,0.21856551
WH,196,3,2024-06-14T05:29:55.141Z,english_540.wav,0,0,776,,,,,0,0,-46.6752609,1.16352469
WH,196,3,2024-06-14T05:29:55.141Z,english_540.wav,0,0,776,,,,,1,0.1,-93.20209644,0.0234781
WH,196,3,2024-06-14T05:29:55.141Z,english_540.wav,0,0,776,,,,,2,0.2,64.96419662,0.05926191
WH,196,3,2024-06-14T05:29:55.141Z,english_540.wav,0,0,776,,,,,3,0.3,-12.16484387,1.47406284
WH,196,3,2024-06-14T05:29:55.141Z,english_540.wav,0,0,776,,,,,4,0.32341667,-44.34688232,0.60104864
WH,197,3,2024-06-14T05:29:55.141Z,english_852.wav,0,0,509,,,,,0,0,-59.21906832,1.76087743
WH,197,3,2024-06-14T05:29:55.141Z,english_852.wav,0,0,509,,,,,1,0.1,5.96662808,0.85304022
WH,197,3,2024-06-14T05:29:55.141Z,english_852.wav,0,0,509,,,,,2,0.2,12.29830648,0.5029047
WH,197,3,2024-06-14T05:29:55.141Z,english_852.wav,0,0,509,,,,,3,0.3,-98.20735767,0.66544939
WH,197,3,2024-06-14T05:29:55.141Z,english_852.wav,0,0,509,,,,,4,0.32341667,-0.5186354,0.26669214
WH,198,3,2024-06-14T05:29:55.141Z,english_526.wav,0,0,1203,,,,,0,0,-32.34532461,0.924261
WH,198,3,2024-06-14T05:29:55.141Z,english_526.wav,0,0,1203,,,,,1,0.1,-46.6208459,0.25414499
WH,198,3,2024-06-14T05:29:55.141Z,english_526.wav,0,0,1203,,,,,2,0.2,-42.84927068,1.01925886
WH,198,3,2024-06-14T05:29:55.141Z,english_526.wav,0,0,1203,,,,,3,0.3,3.47643827,0.65966822
WH,198,3,2024-06-14T05:29:55.141Z,english_526.wav,0,0,1203,,,,,4,0.32341667,52.79087598,1.50872035
WH,199,3,2024-06-14T05:29:55.141Z,english_489.wav,0,0,588,,,,,0,0,5.7057461,0.60142671
WH,199,3,2024-06-14T05:29:55.141Z,english_489.wav,0,0,588,,,,,1,0.1,-88.87009038,1.38499056
WH,199,3,2024-06-14T05:29:55.141Z,english_489.wav,0,0,588,,,,,2,0.2,73.69789316,0.38073994
WH,199,3,2024-06-14T05:29:55.141Z,english_489.wav,0,0,588,,,,,3,0.3,8.66804208,0.90212706
WH,199,3,2024-06-14T05:29:55.141Z,english_489.wav,0,0,588,,,,,4,0.32341667,-19.53009002,1.00729778
WH,200,4,2024-06-14T05:29:55.141Z,english_357.wav,0,0,382,,,,,0,0,76.35734026,1.14590216
WH,200,4,2024-06-14T05:29:55.141Z,english_357.wav,0,0,382,,,,,1,0.1,-86.84267031,0.53472093
WH,200,4,2024-06-14T05:29:55.141Z,english_357.wav,0,0,382,,,,,2,0.2,-64.6676431,0.54723503
WH,200,4,2024-06-14T05:29:55.141Z,english_357.wav,0,0,382,,,,,3,0.3,-69.9472318,1.29334783
WH,200,4,2024-06-14T05:29:55.141Z,english_357.wav,0,0,382,,,,,4,0.32341667,87.84988665,1.74725804
WH,201,4,2024-06-14T05:29:55.141Z,english_913.wav,0,0,150,,,,,0,0,27.9375346,0.72243167
WH,201,4,2024-06-14T05:29:55.141Z,english_913.wav,0,0,150,,,,,1,0.1,41.67879689,1.59129257
WH,201,4,2024-06-14T05:29:55.141Z,english_913.wav,0,0,150,,,,,2,0.2,-50.96955224,1.19382874
WH,201,4,2024-06-14T05:29:55.141Z,english_913.wav,0,0,150,,,,,3,0.3,93.1868058,0.86840853
WH,201,4,2024-06-14T05:29:55.141Z,english_913.wav,0,0,150,,,,,4,0.32341667,83.79752677,0.21021697
WH,202,4,2024-06-14T05:29:55.141Z,english_43.wav,0,0,211,,,,,0,0,22.40064366,1.74132857
WH,202,4,2024-06-14T05:29:55.141Z,english_43.wav,0,0,211,,,,,1,0.1,-68.20152198,0.12763156
WH,202,4,2024-06-14T05:29:55.141Z,english_43.wav,0,0,211,,,,,2,0.2,62.56231291,0.31420738
WH,202,4,2024-06-14T05:29:55.141Z,english_43.wav,0,0,211,,,,,3,0.3,45.0736378,0.98572154
WH,202,4,2024-06-14T05:29:55.141Z,english_43.wav,0,0,211,,,,,4,0.32341667,-36.46791656,0.91325677
WH,203,4,2024-06-14T05:29:55.141Z,english_777.wav,0,1,175,,,,,0,0,-69.33808121,1.41371967
WH,203,4,2024-06-14T05:29:55.141Z,english_777.wav,0,1,175,,,,,1,0.1,83.00406244,0.89293833
WH,203,4,2024-06-14T05:29:55.141Z,english_777.wav,0,1,175,,,,,2,0.2,52.8456083,0.52129979
WH,203,4,2024-06-14T05:29:55.141Z,english_777.wav,0,1,175,,,,,3,0.3,-67.57367145,0.31704889
WH,203,4,2024-06-14T05:29:55.141Z,english_777.wav,0,1,175,,,,,4,0.32341667,44.30015735,0.90388625
WH,204,4,2024-06-14T05:29:55.141Z,english_53.wav,0,0,176,,,,,0,0,5.97237457,0.42230306
WH,204,4,2024-06-14T05:29:55.141Z,english_53.wav,0,0,176,,,,,1,0.1,-76.12131912,0.60624646
WH,204,4,2024-06-14T05:29:55.141Z,english_53.wav,0,0,176,,,,,2,0.2,55.18337216,0.26369256
WH,204,4,2024-06-14T05:29:55.141Z,english_53.wav,0,0,176,,,,,3,0.3,70.32610425,1.07400525
WH,204,4,2024-06-14T05:29:55.141Z,english_53.wav,0,0,176,,,,,4,0.32341667,26.40450832,0.2721545
WH,205,4,2024-06-14T05:29:55.141Z,english_111.wav,0,0,236,,,,,0,0,43.12539807,1.84745579
WH,205,4,2024-06-14T05:29:55.141Z,english_111.wav,0,0,236,,,,,1,0.1,63.99665526,0.92577031
WH,205,4,2024-06-14T05:29:55.141Z,english_111.wav,0,0,236,,,,,2,0.2,86.04570556,0.31264784
WH,205,4,2024-06-14T05:29:55.141Z,english_111.wav,0,0,236,,,,,3,0.3,-25.76798659,0.89352032
WH,205,4,2024-06-14T05:29:55.141Z,english_111.wav,0,0,236,,,,,4,0.32341667,-36.14422463,0.32138535
WH,206,4,2024-06-14T05:29:55.141Z,english_979.wav,0,0,591,,,,,0,0,-1.00654814,1.61411081
WH,206,4,2024-06-14T05:29:55.141Z,english_979.wav,0,0,591,,,,,1,0.1,18.39835707,1.30464512
WH,206,4,2024-06-14T05:29:55.141Z,english_979.wav,0,0,591,,,,,2,0.2,-42.91789413,0.93120215
WH,206,4,2024-06-14T05:29:55.141Z,english_979.wav,0,0,591,,,,,3,0.3,-58.29527223,0.87145212
WH,206,4,2024-06-14T05:29:55.141Z,english_979.wav,0,0,591,,,,,4,0.32341667,86.14740424,1.17332389
WH,207,4,2024-06-14T05:29:55.141Z,english_752.wav,0,1,1094,,,,,0,0,-89.50526135,1.26833375
WH,207,4,2024-06-14T05:29:55.141Z,english_752.wav,0,1,1094,,,,,1,0.1,16.42916277,1.25445964
WH,207,4,2024-06-14T05:29:55.141Z,english_752.wav,0,1,1094,,,,,2,0.2,-62.11724863,1.84048801
WH,207,4,2024-06-14T05:29:55.141Z,english_752.wav,0,1,1094,,,,,3,0.3,-22.7839786,0.96813738
WH,207,4,2024-06-14T05:29:55.141Z,english_752.wav,0,1,1094,,,,,4,0.32341667,21.77934146,1.95604557
WH,208,4,2024-06-14T05:29:55.141Z,english_941.wav,0,0,135,,,,,0,0,88.25484185,1.5236155
WH,208,4,2024-06-14T05:29:55.141Z,english_941.wav,0,0,135,,,,,1,0.1,29.23312353,0.93469446
WH,208,4,2024-06-14T05:29:55.141Z,english_941.wav,0,0,135,,,,,2,0.2,-73.60888885,0.44203051
WH,208,4,2024-06-14T05:29:55.141Z,english_941.wav,0,0,135,,,,,3,0.3,-38.35663254,1.28625712
WH,208,4,2024-06-14T05:29:55.141Z,english_941.wav,0,0,135,,,,,4,0.32341667,-37.21470774,1.264942
WH,209,4,2024-06-14T05:29:55.141Z,english_344.wav,0,0,259,,,,,0,0,-81.18103124,1.80730522
WH,209,4,2024-06-14T05:29:55.141Z,english_344.wav,0,0,259,,,,,1,0.1,-15.12635331,1.30606229
WH,209,4,2024-06-14T05:29:55.141Z,english_344.wav,0,0,259,,,,,2,0.2,92.11407185,0.89739403
WH,209,4,2024-06-14T05:29:55.141Z,english_344.wav,0,0,259,,,,,3,0.3,-26.28325028,0.17834637
WH,209,4,2024-06-14T05:29:55.141Z,english_344.wav,0,0,259,,,,,4,0.32341667,-10.89648072,0.48618419
WH,210,4,2024-06-14T05:29:55.141Z,english_794.wav,0,0,155,,,,,0,0,5.57967757,1.6157291
WH,210,4,2024-06-14T05:29:55.141Z,english_794.wav,0,0,155,,,,,1,0.1,-3.8737546,0.80008436
WH,210,4,2024-06-14T05:29:55.141Z,english_794.wav,0,0,155,,,,,2,0.2,-24.29943164,0.69881068
WH,210,4,2024-06-14T05:29:55.141Z,english_794.wav,0,0,155,,,,,3,0.3,3.56417137,1.55658335
WH,210,4,2024-06-14T05:29:55.141Z,english_794.wav,0,0,155,,,,,4,0.32341667,-13.30357118,1.787412
WH,211,4,2024-06-14T05:29:55.141Z,english_407.wav,0,1,103,,,,,0,0,-13.68776922,0.77658743
WH,211,4,2024-06-14T05:29:55.141Z,english_407.wav,0,1,103,,,,,1,0.1,-57.11899702,1.53398674
WH,211,4,2024-06-14T05:29:55.141Z,english_407.wav,0,1,103,,,,,2,0.2,62.94325807,0.70379875
WH,211,4,2024-06-14T05:29:55.141Z,english_407.wav,0,1,103,,,,,3,0.3,-27.77030003,0.72470084
WH,211,4,2024-06-14T05:29:55.141Z,english_407.wav,0,1,103,,,,,4,0.32341667,-61.90605897,0.771678
WH,212,4,2024-06-14T05:29:55.141Z,english_937.wav,0,1,1409,,,,,0,0,76.77394395,1.55370699
WH,212,4,2024-06-14T05:29:55.141Z,english_937.wav,0,1,1409,,,,,1,0.1,49.33576264,1.82028848
WH,212,4,2024-06-14T05:29:55.141Z,english_937.wav,0,1,1409,,,,,2,0.2,-87.39935237,1.42487505
WH,212,4,2024-06-14T05:29:55.141Z,english_937.wav,0,1,1409,,,,,3,0.3,11.02170053,0.87896062
WH,212,4,2024-06-14T05:29:55.141Z,english_937.wav,0,1,1409,,,,,4,0.32341667,91.99381322,0.96516852
WH,213,4,2024-06-14T05:29:55.141Z,english_283.wav,0,0,1239,,,,,0,0,-27.01977409,1.23470843
WH,213,4,2024-06-14T05:29:55.141Z,english_283.wav,0,0,1239,,,,,1,0.1,-58.6063919,0.41737987
WH,213,4,2024-06-14T05:29:55.141Z,english_283.wav,0,0,1239,,,,,2,0.2,36.15867228,0.64455365
WH,213,4,2024-06-14T05:29:55.141Z,english_283.wav,0,0,1239,,,,,3,0.3,-77.91689069,1.80541824
WH,213,4,2024-06-14T05:29:55.141Z,english_283.wav,0,0,1239,,,,,4,0.32341667,-77.99680679,1.86024907
WH,214,4,2024-06-14T05:29:55.141Z,english_278.wav,0,1,1963,,,,,0,0,-49.55521664,0.96598769
WH,214,4,2024-06-14T05:29:55.141Z,english_278.wav,0,1,1963,,,,,1,0.1,60.24292507,1.32709354
WH,214,4,2024-06-14T05:29:55.141Z,english_278.wav,0,1,1963,,,,,2,0.2,34.32984246,0.84496159
WH,214,4,2024-06-14T05:29:55.141Z,english_278.wav,0,1,1963,,,,,3,0.3,91.69210883,1.50157491
WH,214,4,2024-06-14T05:29:55.141Z,english_278.wav,0,1,1963,,,,,4,0.32341667,78.84715657,1.85534648
WH,215,4,2024-06-14T05:29:55.141Z,english_801.wav,0,0,1056,,,,,0,0,66.50571345,0.19311528
WH,215,4,2024-06-14T05:29:55.141Z,english_801.wav,0,0,1056,,,,,1,0.1,-53.03260979,0.48683601
WH,215,4,2024-06-14T05:29:55.141Z,english_801.wav,0,0,1056,,,,,2,0.2,-3.89459646,1.16293258
WH,215,4,2024-06-14T05:29:55.141Z,english_801.wav,0,0,1056,,,,,3,0.3,8.32951864,1.55734707
WH,215,4,2024-06-14T05:29:55.141Z,english_801.wav,0,0,1056,,,,,4,0.32341667,-87.46806733,0.63471681
WH,216,4,2024-06-14T05:29:55.141Z,english_657.wav,0,0,784,,,,,0,0,30.03208284,1.42095662
WH,216,4,2024-06-14T05:29:55.141Z,english_657.wav,0,0,784,,,,,1,0.1,-5.57127058,1.29790323
WH,216,4,2024-06-14T05:29:55.141Z,english_657.wav,0,0,784,,,,,2,0.2,9.55793083,0.51612643
WH,216,4,2024-06-14T05:29:55.141Z,english_657.wav,0,0,784,,,,,3,0.3,3.39766504,0.37671101
WH,216,4,2024-06-14T05:29:55.141Z,english_657.wav,0,0,784,,,,,4,0.32341667,84.38659916,1.20124021
WH,217,4,2024-06-14T05:29:55.141Z,english_503.wav,0,1,177,,,,,0,0,-62.81458057,1.15988152
WH,217,4,2024-06-14T05:29:55.141Z,english_503.wav,0,1,177,,,,,1,0.1,17.97702429,0.58853345
WH,217,4,2024-06-14T05:29:55.141Z,english_503.wav,0,1,177,,,,,2,0.2,-8.2980926,1.29983279
