subj,trial,block,date,stim,stim_order,response,rt,age,english,language,sex,param_index,segment,pitch,stretch
ZBW_1337,0,0,2024-06-20T05:37:51.810Z,english_203.wav,0,0,2389,,,,,0,0,-22.28277813,1.31475846
ZBW_1337,0,0,2024-06-20T05:37:51.810Z,english_203.wav,0,0,2389,,,,,1,0.1,13.21695477,1.08922412
ZBW_1337,0,0,2024-06-20T05:37:51.810Z,english_203.wav,0,0,2389,,,,,2,0.2,63.23651974,0.55450355
ZBW_1337,0,0,2024-06-20T05:37:51.810Z,english_203.wav,0,0,2389,,,,,3,0.3,-20.14830746,1.72034007
ZBW_1337,0,0,2024-06-20T05:37:51.810Z,english_203.wav,0,0,2389,,,,,4,0.32341667,-78.55276631,0.92481053
ZBW_1337,1,0,2024-06-20T05:37:51.810Z,english_293.wav,0,0,3311,,,,,0,0,-22.15906653,1.76366583
ZBW_1337,1,0,2024-06-20T05:37:51.810Z,english_293.wav,0,0,3311,,,,,1,0.1,-88.62057809,0.55660069
ZBW_1337,1,0,2024-06-20T05:37:51.810Z,english_293.wav,0,0,3311,,,,,2,0.2,-18.47979893,1.17282558
ZBW_1337,1,0,2024-06-20T05:37:51.810Z,english_293.wav,0,0,3311,,,,,3,0.3,-74.2852497,0.49477424
ZBW_1337,1,0,2024-06-20T05:37:51.810Z,english_293.wav,0,0,3311,,,,,4,0.32341667,59.45323022,0.66659794
ZBW_1337,2,0,2024-06-20T05:37:51.810Z,english_811.wav,0,1,989,,,,,0,0,-51.03425556,1.55055496
ZBW_1337,2,0,2024-06-20T05:37:51.810Z,english_811.wav,0,1,989,,,,,1,0.1,22.81695275,1.74830484
ZBW_1337,2,0,2024-06-20T05:37:51.810Z,english_811.wav,0,1,989,,,,,2,0.2,73.06623682,1.24661488
ZBW_1337,2,0,2024-06-20T05:37:51.810Z,english_811.wav,0,1,989,,,,,3,0.3,-9.17693151,0.09792889
ZBW_1337,2,0,2024-06-20T05:37:51.810Z,english_811.wav,0,1,989,,,,,4,0.32341667,79.97760745,0.03735929
ZBW_1337,3,0,2024-06-20T05:37:51.810Z,english_746.wav,0,0,3604,,,,,0,0,-1.32395796,1.72273729
ZBW_1337,3,0,2024-06-20T05:37:51.810Z,english_746.wav,0,0,3604,,,,,1,0.1,-67.07117971,1.22961235
ZBW_1337,3,0,2024-06-20T05:37:51.810Z,english_746.wav,0,0,3604,,,,,2,0.2,75.09604974,1.29107068
ZBW_1337,3,0,2024-06-20T05:37:51.810Z,english_746.wav,0,0,3604,,,,,3,0.3,-48.59278454,1.34694816
ZBW_1337,3,0,2024-06-20T05:37:51.810Z,english_746.wav,0,0,3604,,,,,4,0.32341667,-6.52080997,0.94274536
ZBW_1337,4,0,2024-06-20T05:37:51.810Z,english_939.wav,0,0,929,,,,,0,0,-23.2558256,0.1774722
ZBW_1337,4,0,2024-06-20T05:37:51.810Z,english_939.wav,0,0,929,,,,,1,0.1,-16.62065377,0.56271239
ZBW_1337,4,0,2024-06-20T05:37:51.810Z,english_939.wav,0,0,929,,,,,2,0.2,-49.54734698,1.42782479
ZBW_1337,4,0,2024-06-20T05:37:51.810Z,english_939.wav,0,0,929,,,,,3,0.3,22.82101289,0.76516147
ZBW_1337,4,0,2024-06-20T05:37:51.810Z,english_939.wav,0,0,929,,,,,4,0.32341667,28.63490654,1.70219777
ZBW_1337,5,0,2024-06-20T05:37:51.810Z,english_14.wav,0,0,1202,,,,,0,0,98.00979643,0.92494293
ZBW_1337,5,0,2024-06-20T05:37:51.810Z,english_14.wav,0,0,1202,,,,,1,0.1,-39.90204919,0.80403915
ZBW_1337,5,0,2024-06-20T05:37:51.810Z,english_14.wav,0,0,1202,,,,,2,0.2,51.0517473,0.29426005
ZBW_1337,5,0,2024-06-20T05:37:51.810Z,english_14.wav,0,0,1202,,,,,3,0.3,-8.39716694,0.14957292
ZBW_1337,5,0,2024-06-20T05:37:51.810Z,english_14.wav,0,0,1202,,,,,4,0.32341667,82.54419716,0.1717279
ZBW_1337,6,0,2024-06-20T05:37:51.810Z,english_886.wav,0,1,537,,,,,0,0,52.0334205,0.43451348
ZBW_1337,6,0,2024-06-20T05:37:51.810Z,english_886.wav,0,1,537,,,,,1,0.1,-34.60142464,1.57387994
ZBW_1337,6,0,2024-06-20T05:37:51.810Z,english_886.wav,0,1,537,,,,,2,0.2,77.69993065,1.05416836
ZBW_1337,6,0,2024-06-20T05:37:51.810Z,english_886.wav,0,1,537,,,,,3,0.3,29.08950905,0.32554246
ZBW_1337,6,0,2024-06-20T05:37:51.810Z,english_886.wav,0,1,537,,,,,4,0.32341667,-98.8324779,1.85669509
ZBW_1337,7,0,2024-06-20T05:37:51.810Z,english_59.wav,0,0,863,,,,,0,0,30.26604033,1.5973148
ZBW_1337,7,0,2024-06-20T05:37:51.810Z,english_59.wav,0,0,863,,,,,1,0.1,25.69112756,0.24758472
ZBW_1337,7,0,2024-06-20T05:37:51.810Z,english_59.wav,0,0,863,,,,,2,0.2,-24.85549033,0.1547886
ZBW_1337,7,0,2024-06-20T05:37:51.810Z,english_59.wav,0,0,863,,,,,3,0.3,-31.2790444,0.30754036
ZBW_1337,7,0,2024-06-20T05:37:51.810Z,english_59.wav,0,0,863,,,,,4,0.32341667,86.30355152,0.40312024
ZBW_1337,8,0,2024-06-20T05:37:51.810Z,english_631.wav,0,1,787,,,,,0,0,-74.37700429,0.77307226
ZBW_1337,8,0,2024-06-20T05:37:51.810Z,english_631.wav,0,1,787,,,,,1,0.1,-18.72790858,0.75923189
ZBW_1337,8,0,2024-06-20T05:37:51.810Z,english_631.wav,0,1,787,,,,,2,0.2,-40.03216697,1.00825659
ZBW_1337,8,0,2024-06-20T05:37:51.810Z,english_631.wav,0,1,787,,,,,3,0.3,-98.5967418,1.46579839
ZBW_1337,8,0,2024-06-20T05:37:51.810Z,english_631.wav,0,1,787,,,,,4,0.32341667,-41.89017921,0.34107994
ZBW_1337,9,0,2024-06-20T05:37:51.810Z,english_928.wav,0,0,677,,,,,0,0,55.07207497,1.22706758
ZBW_1337,9,0,2024-06-20T05:37:51.810Z,english_928.wav,0,0,677,,,,,1,0.1,83.71672672,0.97206042
ZBW_1337,9,0,2024-06-20T05:37:51.810Z,english_928.wav,0,0,677,,,,,2,0.2,-43.28929986,0.16969859
ZBW_1337,9,0,2024-06-20T05:37:51.810Z,english_928.wav,0,0,677,,,,,3,0.3,-17.1692271,0.90092586
ZBW_1337,9,0,2024-06-20T05:37:51.810Z,english_928.wav,0,0,677,,,,,4,0.32341667,-36.644272,0.43024518
ZBW_1337,10,0,2024-06-20T05:37:51.810Z,english_560.wav,0,1,440,,,,,0,0,6.26341837,1.61909233
ZBW_1337,10,0,2024-06-20T05:37:51.810Z,english_560.wav,0,1,440,,,,,1,0.1,-94.10474965,0.93851614
ZBW_1337,10,0,2024-06-20T05:37:51.810Z,english_560.wav,0,1,440,,,,,2,0.2,-43.88069215,1.37910144
ZBW_1337,10,0,2024-06-20T05:37:51.810Z,english_560.wav,0,1,440,,,,,3,0.3,-26.3559156,1.10578935
ZBW_1337,10,0,2024-06-20T05:37:51.810Z,english_560.wav,0,1,440,,,,,4,0.32341667,-91.38105747,0.02070647
ZBW_1337,11,0,2024-06-20T05:37:51.810Z,english_903.wav,0,1,2030,,,,,0,0,73.58848698,0.30588109
ZBW_1337,11,0,2024-06-20T05:37:51.810Z,english_903.wav,0,1,2030,,,,,1,0.1,-95.58060262,0.88963747
ZBW_1337,11,0,2024-06-20T05:37:51.810Z,english_903.wav,0,1,2030,,,,,2,0.2,17.41642173,1.73634476
ZBW_1337,11,0,2024-06-20T05:37:51.810Z,english_903.wav,0,1,2030,,,,,3,0.3,94.35223882,0.71257749
ZBW_1337,11,0,2024-06-20T05:37:51.810Z,english_903.wav,0,1,2030,,,,,4,0.32341667,-49.48803877,1.4824474
ZBW_1337,12,0,2024-06-20T05:37:51.810Z,english_813.wav,0,1,464,,,,,0,0,55.66932548,1.32885027
ZBW_1337,12,0,2024-06-20T05:37:51.810Z,english_813.wav,0,1,464,,,,,1,0.1,81.68960615,1.76450173
ZBW_1337,12,0,2024-06-20T05:37:51.810Z,english_813.wav,0,1,464,,,,,2,0.2,55.75765178,0.71046445
ZBW_1337,12,0,2024-06-20T05:37:51.810Z,english_813.wav,0,1,464,,,,,3,0.3,-1.25572602,1.00431818
ZBW_1337,12,0,2024-06-20T05:37:51.810Z,english_813.wav,0,1,464,,,,,4,0.32341667,95.15429199,0.60962601
ZBW_1337,13,0,2024-06-20T05:37:51.810Z,english_110.wav,0,0,610,,,,,0,0,87.43016285,1.84693198
ZBW_1337,13,0,2024-06-20T05:37:51.810Z,english_110.wav,0,0,610,,,,,1,0.1,-22.53798338,0.72868036
ZBW_1337,13,0,2024-06-20T05:37:51.810Z,english_110.wav,0,0,610,,,,,2,0.2,60.38266123,1.6889543
ZBW_1337,13,0,2024-06-20T05:37:51.810Z,english_110.wav,0,0,610,,,,,3,0.3,50.75224473,0.97311446
ZBW_1337,13,0,2024-06-20T05:37:51.810Z,english_110.wav,0,0,610,,,,,4,0.32341667,87.78495288,0.46157718
ZBW_1337,14,0,2024-06-20T05:37:51.810Z,english_670.wav,0,0,601,,,,,0,0,64.75672565,1.5535903
ZBW_1337,14,0,2024-06-20T05:37:51.810Z,english_670.wav,0,0,601,,,,,1,0.1,85.95156369,0.12522594
ZBW_1337,14,0,2024-06-20T05:37:51.810Z,english_670.wav,0,0,601,,,,,2,0.2,-44.32949438,0.22842632
ZBW_1337,14,0,2024-06-20T05:37:51.810Z,english_670.wav,0,0,601,,,,,3,0.3,22.57192219,0.17636502
ZBW_1337,14,0,2024-06-20T05:37:51.810Z,english_670.wav,0,0,601,,,,,4,0.32341667,34.74005277,0.16208776
ZBW_1337,15,0,2024-06-20T05:37:51.810Z,english_6.wav,0,1,1066,,,,,0,0,-8.2116192,1.24832701
ZBW_1337,15,0,2024-06-20T05:37:51.810Z,english_6.wav,0,1,1066,,,,,1,0.1,-28.50933877,0.74984456
ZBW_1337,15,0,2024-06-20T05:37:51.810Z,english_6.wav,0,1,1066,,,,,2,0.2,-90.20174912,1.37568362
ZBW_1337,15,0,2024-06-20T05:37:51.810Z,english_6.wav,0,1,1066,,,,,3,0.3,-7.18062469,0.47637706
ZBW_1337,15,0,2024-06-20T05:37:51.810Z,english_6.wav,0,1,1066,,,,,4,0.32341667,-36.83558467,0.68255954
ZBW_1337,16,0,2024-06-20T05:37:51.810Z,english_224.wav,0,1,466,,,,,0,0,-3.31597843,0.45157501
ZBW_1337,16,0,2024-06-20T05:37:51.810Z,english_224.wav,0,1,466,,,,,1,0.1,-35.19448657,1.77513434
ZBW_1337,16,0,2024-06-20T05:37:51.810Z,english_224.wav,0,1,466,,,,,2,0.2,-54.62049262,0.36912314
ZBW_1337,16,0,2024-06-20T05:37:51.810Z,english_224.wav,0,1,466,,,,,3,0.3,50.12510099,1.67171916
ZBW_1337,16,0,2024-06-20T05:37:51.810Z,english_224.wav,0,1,466,,,,,4,0.32341667,96.66013203,1.16069525
ZBW_1337,17,0,2024-06-20T05:37:51.810Z,english_308.wav,0,0,564,,,,,0,0,71.04817524,1.27905886
ZBW_1337,17,0,2024-06-20T05:37:51.810Z,english_308.wav,0,0,564,,,,,1,0.1,-29.23230128,0.28593244
ZBW_1337,17,0,2024-06-20T05:37:51.810Z,english_308.wav,0,0,564,,,,,2,0.2,-23.90252129,0.87298087
ZBW_1337,17,0,2024-06-20T05:37:51.810Z,english_308.wav,0,0,564,,,,,3,0.3,-20.50746627,0.50431278
ZBW_1337,17,0,2024-06-20T05:37:51.810Z,english_308.wav,0,0,564,,,,,4,0.32341667,-25.31970697,1.06118321
ZBW_1337,18,0,2024-06-20T05:37:51.810Z,english_103.wav,0,1,352,,,,,0,0,-79.54710498,0.84178061
ZBW_1337,18,0,2024-06-20T05:37:51.810Z,english_103.wav,0,1,352,,,,,1,0.1,-41.31314025,1.9706485
ZBW_1337,18,0,2024-06-20T05:37:51.810Z,english_103.wav,0,1,352,,,,,2,0.2,-48.58046961,1.55059924
ZBW_1337,18,0,2024-06-20T05:37:51.810Z,english_103.wav,0,1,352,,,,,3,0.3,50.88097047,1.14550684
ZBW_1337,18,0,2024-06-20T05:37:51.810Z,english_103.wav,0,1,352,,,,,4,0.32341667,21.22320476,1.67039139
ZBW_1337,19,0,2024-06-20T05:37:51.810Z,english_450.wav,0,1,1441,,,,,0,0,32.75253923,1.28767958
ZBW_1337,19,0,2024-06-20T05:37:51.810Z,english_450.wav,0,1,1441,,,,,1,0.1,-95.51335644,1.7262356
ZBW_1337,19,0,2024-06-20T05:37:51.810Z,english_450.wav,0,1,1441,,,,,2,0.2,34.87485597,0.97567272
ZBW_1337,19,0,2024-06-20T05:37:51.810Z,english_450.wav,0,1,1441,,,,,3,0.3,-23.91285283,1.94639387
ZBW_1337,19,0,2024-06-20T05:37:51.810Z,english_450.wav,0,1,1441,,,,,4,0.32341667,-8.67870007,1.78958339
ZBW_1337,20,0,2024-06-20T05:37:51.810Z,english_464.wav,0,0,444,,,,,0,0,53.08614354,0.76512863
ZBW_1337,20,0,2024-06-20T05:37:51.810Z,english_464.wav,0,0,444,,,,,1,0.1,30.21863436,1.75958979
ZBW_1337,20,0,2024-06-20T05:37:51.810Z,english_464.wav,0,0,444,,,,,2,0.2,-72.79337117,0.91412587
ZBW_1337,20,0,2024-06-20T05:37:51.810Z,english_464.wav,0,0,444,,,,,3,0.3,91.0452741,1.02089091
ZBW_1337,20,0,2024-06-20T05:37:51.810Z,english_464.wav,0,0,444,,,,,4,0.32341667,-31.40181873,1.37846458
ZBW_1337,21,0,2024-06-20T05:37:51.810Z,english_411.wav,0,0,433,,,,,0,0,75.357241,0.83773649
ZBW_1337,21,0,2024-06-20T05:37:51.810Z,english_411.wav,0,0,433,,,,,1,0.1,-55.75688593,0.80885485
ZBW_1337,21,0,2024-06-20T05:37:51.810Z,english_411.wav,0,0,433,,,,,2,0.2,61.10111178,0.61144368
ZBW_1337,21,0,2024-06-20T05:37:51.810Z,english_411.wav,0,0,433,,,,,3,0.3,90.25367142,0.73863407
ZBW_1337,21,0,2024-06-20T05:37:51.810Z,english_411.wav,0,0,433,,,,,4,0.32341667,26.85831553,0.4624235
ZBW_1337,22,0,2024-06-20T05:37:51.810Z,english_305.wav,0,0,458,,,,,0,0,-23.95553444,0.70401859
ZBW_1337,22,0,2024-06-20T05:37:51.810Z,english_305.wav,0,0,458,,,,,1,0.1,-97.95184299,0.00875292
ZBW_1337,22,0,2024-06-20T05:37:51.810Z,english_305.wav,0,0,458,,,,,2,0.2,95.23338475,1.8427633
ZBW_1337,22,0,2024-06-20T05:37:51.810Z,english_305.wav,0,0,458,,,,,3,0.3,10.74081096,1.83453859
ZBW_1337,22,0,2024-06-20T05:37:51.810Z,english_305.wav,0,0,458,,,,,4,0.32341667,24.9757793,1.77535614
ZBW_1337,23,0,2024-06-20T05:37:51.810Z,english_723.wav,0,0,801,,,,,0,0,-85.17156731,1.02541656
ZBW_1337,23,0,2024-06-20T05:37:51.810Z,english_723.wav,0,0,801,,,,,1,0.1,92.93654667,0.92088513
ZBW_1337,23,0,2024-06-20T05:37:51.810Z,english_723.wav,0,0,801,,,,,2,0.2,-28.89042756,0.78256854
ZBW_1337,23,0,2024-06-20T05:37:51.810Z,english_723.wav,0,0,801,,,,,3,0.3,36.79914563,1.22887413
ZBW_1337,23,0,2024-06-20T05:37:51.810Z,english_723.wav,0,0,801,,,,,4,0.32341667,6.86426773,1.77193963
ZBW_1337,24,0,2024-06-20T05:37:51.810Z,english_301.wav,0,1,403,,,,,0,0,-78.18927369,1.31935747
ZBW_1337,24,0,2024-06-20T05:37:51.810Z,english_301.wav,0,1,403,,,,,1,0.1,-3.52439177,1.41636911
ZBW_1337,24,0,2024-06-20T05:37:51.810Z,english_301.wav,0,1,403,,,,,2,0.2,-23.22473782,1.38842862
ZBW_1337,24,0,2024-06-20T05:37:51.810Z,english_301.wav,0,1,403,,,,,3,0.3,-11.7220967,1.25169603
ZBW_1337,24,0,2024-06-20T05:37:51.810Z,english_301.wav,0,1,403,,,,,4,0.32341667,-5.78047748,1.38740104
ZBW_1337,25,0,2024-06-20T05:37:51.810Z,english_965.wav,0,0,676,,,,,0,0,-19.49526798,1.71910172
ZBW_1337,25,0,2024-06-20T05:37:51.810Z,english_965.wav,0,0,676,,,,,1,0.1,-33.46093545,1.16323176
ZBW_1337,25,0,2024-06-20T05:37:51.810Z,english_965.wav,0,0,676,,,,,2,0.2,95.24809114,0.56514201
ZBW_1337,25,0,2024-06-20T05:37:51.810Z,english_965.wav,0,0,676,,,,,3,0.3,26.23968625,1.82539978
ZBW_1337,25,0,2024-06-20T05:37:51.810Z,english_965.wav,0,0,676,,,,,4,0.32341667,15.70217089,1.7659451
ZBW_1337,26,0,2024-06-20T05:37:51.810Z,english_738.wav,0,1,253,,,,,0,0,-37.88087101,1.83397703
ZBW_1337,26,0,2024-06-20T05:37:51.810Z,english_738.wav,0,1,253,,,,,1,0.1,-16.85966727,1.52099356
ZBW_1337,26,0,2024-06-20T05:37:51.810Z,english_738.wav,0,1,253,,,,,2,0.2,-79.76891938,1.69283951
ZBW_1337,26,0,2024-06-20T05:37:51.810Z,english_738.wav,0,1,253,,,,,3,0.3,-82.30918252,1.81957343
ZBW_1337,26,0,2024-06-20T05:37:51.810Z,english_738.wav,0,1,253,,,,,4,0.32341667,59.65991076,0.75908376
ZBW_1337,27,0,2024-06-20T05:37:51.810Z,english_606.wav,0,0,2078,,,,,0,0,-54.19201916,1.71730642
ZBW_1337,27,0,2024-06-20T05:37:51.810Z,english_606.wav,0,0,2078,,,,,1,0.1,-9.49104439,0.42216081
ZBW_1337,27,0,2024-06-20T05:37:51.810Z,english_606.wav,0,0,2078,,,,,2,0.2,1.17868262,1.31506394
ZBW_1337,27,0,2024-06-20T05:37:51.810Z,english_606.wav,0,0,2078,,,,,3,0.3,-95.39718692,0.06922913
ZBW_1337,27,0,2024-06-20T05:37:51.810Z,english_606.wav,0,0,2078,,,,,4,0.32341667,-48.659775,0.08316227
ZBW_1337,28,0,2024-06-20T05:37:51.810Z,english_242.wav,0,0,879,,,,,0,0,26.44185099,0.44763058
ZBW_1337,28,0,2024-06-20T05:37:51.810Z,english_242.wav,0,0,879,,,,,1,0.1,44.29547205,1.06541359
ZBW_1337,28,0,2024-06-20T05:37:51.810Z,english_242.wav,0,0,879,,,,,2,0.2,-3.86423299,0.64111919
ZBW_1337,28,0,2024-06-20T05:37:51.810Z,english_242.wav,0,0,879,,,,,3,0.3,60.29108386,0.35225786
ZBW_1337,28,0,2024-06-20T05:37:51.810Z,english_242.wav,0,0,879,,,,,4,0.32341667,18.66576556,1.0072971
ZBW_1337,29,0,2024-06-20T05:37:51.810Z,english_182.wav,0,1,331,,,,,0,0,57.43769915,0.89919812
ZBW_1337,29,0,2024-06-20T05:37:51.810Z,english_182.wav,0,1,331,,,,,1,0.1,-87.06676545,1.25243937
ZBW_1337,29,0,2024-06-20T05:37:51.810Z,english_182.wav,0,1,331,,,,,2,0.2,-91.52107401,1.35021358
ZBW_1337,29,0,2024-06-20T05:37:51.810Z,english_182.wav,0,1,331,,,,,3,0.3,52.0843588,0.52787795
ZBW_1337,29,0,2024-06-20T05:37:51.810Z,english_182.wav,0,1,331,,,,,4,0.32341667,18.07264914,0.72620624
ZBW_1337,30,0,2024-06-20T05:37:51.810Z,english_589.wav,0,1,701,,,,,0,0,58.55453646,1.98928345
ZBW_1337,30,0,2024-06-20T05:37:51.810Z,english_589.wav,0,1,701,,,,,1,0.1,30.45164265,1.49107718
ZBW_1337,30,0,2024-06-20T05:37:51.810Z,english_589.wav,0,1,701,,,,,2,0.2,-45.43400091,0.52639062
ZBW_1337,30,0,2024-06-20T05:37:51.810Z,english_589.wav,0,1,701,,,,,3,0.3,84.99084473,0.34590986
ZBW_1337,30,0,2024-06-20T05:37:51.810Z,english_589.wav,0,1,701,,,,,4,0.32341667,65.45411119,0.67022481
ZBW_1337,31,0,2024-06-20T05:37:51.810Z,english_852.wav,0,0,819,,,,,0,0,-59.21906832,1.76087743
ZBW_1337,31,0,2024-06-20T05:37:51.810Z,english_852.wav,0,0,819,,,,,1,0.1,5.96662808,0.85304022
ZBW_1337,31,0,2024-06-20T05:37:51.810Z,english_852.wav,0,0,819,,,,,2,0.2,12.29830648,0.5029047
ZBW_1337,31,0,2024-06-20T05:37:51.810Z,english_852.wav,0,0,819,,,,,3,0.3,-98.20735767,0.66544939
ZBW_1337,31,0,2024-06-20T05:37:51.810Z,english_852.wav,0,0,819,,,,,4,0.32341667,-0.5186354,0.26669214
ZBW_1337,32,0,2024-06-20T05:37:51.810Z,english_972.wav,0,1,320,,,,,0,0,-87.82800068,1.28286493
ZBW_1337,32,0,2024-06-20T05:37:51.810Z,english_972.wav,0,1,320,,,,,1,0.1,-25.45661385,0.89058027
ZBW_1337,32,0,2024-06-20T05:37:51.810Z,english_972.wav,0,1,320,,,,,2,0.2,2.95853851,1.4716374
ZBW_1337,32,0,2024-06-20T05:37:51.810Z,english_972.wav,0,1,320,,,,,3,0.3,84.61583696,0.6386035
ZBW_1337,32,0,2024-06-20T05:37:51.810Z,english_972.wav,0,1,320,,,,,4,0.32341667,42.95706616,1.51056083
ZBW_1337,33,0,2024-06-20T05:37:51.810Z,english_414.wav,0,0,544,,,,,0,0,19.47839865,0.9434816
ZBW_1337,33,0,2024-06-20T05:37:51.810Z,english_414.wav,0,0,544,,,,,1,0.1,59.9490877,1.1146936
ZBW_1337,33,0,2024-06-20T05:37:51.810Z,english_414.wav,0,0,544,,,,,2,0.2,22.33981162,0.48476454
ZBW_1337,33,0,2024-06-20T05:37:51.810Z,english_414.wav,0,0,544,,,,,3,0.3,18.97426154,0.23554241
ZBW_1337,33,0,2024-06-20T05:37:51.810Z,english_414.wav,0,0,544,,,,,4,0.32341667,15.16306506,1.13007685
ZBW_1337,34,0,2024-06-20T05:37:51.810Z,english_494.wav,0,0,500,,,,,0,0,-3.60210196,0.92014098
ZBW_1337,34,0,2024-06-20T05:37:51.810Z,english_494.wav,0,0,500,,,,,1,0.1,-0.0120609558,1.08763174
ZBW_1337,34,0,2024-06-20T05:37:51.810Z,english_494.wav,0,0,500,,,,,2,0.2,-75.2550513,0.29239621
ZBW_1337,34,0,2024-06-20T05:37:51.810Z,english_494.wav,0,0,500,,,,,3,0.3,39.6800445,0.26357805
ZBW_1337,34,0,2024-06-20T05:37:51.810Z,english_494.wav,0,0,500,,,,,4,0.323416667,78.1977592,1.67878037
ZBW_1337,35,0,2024-06-20T05:37:51.810Z,english_100.wav,0,0,615,,,,,0,0,-66.86198445,0.79522553
ZBW_1337,35,0,2024-06-20T05:37:51.810Z,english_100.wav,0,0,615,,,,,1,0.1,32.23990363,0.27784591
ZBW_1337,35,0,2024-06-20T05:37:51.810Z,english_100.wav,0,0,615,,,,,2,0.2,-63.31896149,1.76330212
ZBW_1337,35,0,2024-06-20T05:37:51.810Z,english_100.wav,0,0,615,,,,,3,0.3,-73.00038049,0.60946618
ZBW_1337,35,0,2024-06-20T05:37:51.810Z,english_100.wav,0,0,615,,,,,4,0.32341667,32.15710315,0.42695433
ZBW_1337,36,0,2024-06-20T05:37:51.810Z,english_9.wav,0,1,448,,,,,0,0,24.77706225,1.13145128
ZBW_1337,36,0,2024-06-20T05:37:51.810Z,english_9.wav,0,1,448,,,,,1,0.1,91.05524194,1.19326311
ZBW_1337,36,0,2024-06-20T05:37:51.810Z,english_9.wav,0,1,448,,,,,2,0.2,30.20964975,1.50029029
ZBW_1337,36,0,2024-06-20T05:37:51.810Z,english_9.wav,0,1,448,,,,,3,0.3,-69.66301283,1.4622179
ZBW_1337,36,0,2024-06-20T05:37:51.810Z,english_9.wav,0,1,448,,,,,4,0.32341667,-3.83240646,1.9316504
ZBW_1337,37,0,2024-06-20T05:37:51.810Z,english_244.wav,0,0,534,,,,,0,0,-70.20374383,1.65134166
ZBW_1337,37,0,2024-06-20T05:37:51.810Z,english_244.wav,0,0,534,,,,,1,0.1,67.84882107,1.23738837
ZBW_1337,37,0,2024-06-20T05:37:51.810Z,english_244.wav,0,0,534,,,,,2,0.2,0.61676271,0.90147553
ZBW_1337,37,0,2024-06-20T05:37:51.810Z,english_244.wav,0,0,534,,,,,3,0.3,-96.58934439,1.79293216
ZBW_1337,37,0,2024-06-20T05:37:51.810Z,english_244.wav,0,0,534,,,,,4,0.32341667,-77.46985837,1.15013727
ZBW_1337,38,0,2024-06-20T05:37:51.810Z,english_169.wav,0,0,432,,,,,0,0,21.52556644,0.24747868
ZBW_1337,38,0,2024-06-20T05:37:51.810Z,english_169.wav,0,0,432,,,,,1,0.1,-62.21960884,0.51530303
ZBW_1337,38,0,2024-06-20T05:37:51.810Z,english_169.wav,0,0,432,,,,,2,0.2,-58.58818316,1.14352058
ZBW_1337,38,0,2024-06-20T05:37:51.810Z,english_169.wav,0,0,432,,,,,3,0.3,14.95103608,1.46694059
ZBW_1337,38,0,2024-06-20T05:37:51.810Z,english_169.wav,0,0,432,,,,,4,0.32341667,21.70814087,1.67980684
ZBW_1337,39,0,2024-06-20T05:37:51.810Z,english_386.wav,0,0,572,,,,,0,0,74.56899624,1.79299743
ZBW_1337,39,0,2024-06-20T05:37:51.810Z,english_386.wav,0,0,572,,,,,1,0.1,25.94107183,0.16071221
ZBW_1337,39,0,2024-06-20T05:37:51.810Z,english_386.wav,0,0,572,,,,,2,0.2,41.2839149,0.21721497
ZBW_1337,39,0,2024-06-20T05:37:51.810Z,english_386.wav,0,0,572,,,,,3,0.3,14.47866495,1.22036918
ZBW_1337,39,0,2024-06-20T05:37:51.810Z,english_386.wav,0,0,572,,,,,4,0.32341667,-14.73959674,1.81871952
ZBW_1337,40,0,2024-06-20T05:37:51.810Z,english_747.wav,0,0,874,,,,,0,0,-77.73977436,1.00478752
ZBW_1337,40,0,2024-06-20T05:37:51.810Z,english_747.wav,0,0,874,,,,,1,0.1,-18.96284798,0.15717617
ZBW_1337,40,0,2024-06-20T05:37:51.810Z,english_747.wav,0,0,874,,,,,2,0.2,-36.55549612,1.90654565
ZBW_1337,40,0,2024-06-20T05:37:51.810Z,english_747.wav,0,0,874,,,,,3,0.3,89.20291952,0.7651101
ZBW_1337,40,0,2024-06-20T05:37:51.810Z,english_747.wav,0,0,874,,,,,4,0.32341667,-97.78574386,0.92755825
ZBW_1337,41,0,2024-06-20T05:37:51.810Z,english_688.wav,0,0,524,,,,,0,0,-45.64286614,1.06356906
ZBW_1337,41,0,2024-06-20T05:37:51.810Z,english_688.wav,0,0,524,,,,,1,0.1,39.73956276,0.85197809
ZBW_1337,41,0,2024-06-20T05:37:51.810Z,english_688.wav,0,0,524,,,,,2,0.2,40.53719602,0.68718846
ZBW_1337,41,0,2024-06-20T05:37:51.810Z,english_688.wav,0,0,524,,,,,3,0.3,-71.29470492,1.67995478
ZBW_1337,41,0,2024-06-20T05:37:51.810Z,english_688.wav,0,0,524,,,,,4,0.32341667,73.7490074,1.45979079
ZBW_1337,42,0,2024-06-20T05:37:51.810Z,english_47.wav,0,0,635,,,,,0,0,70.62381491,1.36620222
ZBW_1337,42,0,2024-06-20T05:37:51.810Z,english_47.wav,0,0,635,,,,,1,0.1,-43.60565268,0.47559644
ZBW_1337,42,0,2024-06-20T05:37:51.810Z,english_47.wav,0,0,635,,,,,2,0.2,29.54670776,0.92078875
ZBW_1337,42,0,2024-06-20T05:37:51.810Z,english_47.wav,0,0,635,,,,,3,0.3,95.208653,0.83015506
ZBW_1337,42,0,2024-06-20T05:37:51.810Z,english_47.wav,0,0,635,,,,,4,0.32341667,-87.83630424,1.40747595
ZBW_1337,43,0,2024-06-20T05:37:51.810Z,english_329.wav,0,1,398,,,,,0,0,-48.89108629,1.2424848
ZBW_1337,43,0,2024-06-20T05:37:51.810Z,english_329.wav,0,1,398,,,,,1,0.1,55.67852038,1.73811564
ZBW_1337,43,0,2024-06-20T05:37:51.810Z,english_329.wav,0,1,398,,,,,2,0.2,48.16827585,0.4928271
ZBW_1337,43,0,2024-06-20T05:37:51.810Z,english_329.wav,0,1,398,,,,,3,0.3,73.70818564,0.68407289
ZBW_1337,43,0,2024-06-20T05:37:51.810Z,english_329.wav,0,1,398,,,,,4,0.32341667,85.70797026,1.92917435
ZBW_1337,44,0,2024-06-20T05:37:51.810Z,english_269.wav,0,1,290,,,,,0,0,61.09556447,1.11606818
ZBW_1337,44,0,2024-06-20T05:37:51.810Z,english_269.wav,0,1,290,,,,,1,0.1,-3.97684721,1.55443041
ZBW_1337,44,0,2024-06-20T05:37:51.810Z,english_269.wav,0,1,290,,,,,2,0.2,-87.59080112,1.78173809
ZBW_1337,44,0,2024-06-20T05:37:51.810Z,english_269.wav,0,1,290,,,,,3,0.3,78.47165079,1.73012946
ZBW_1337,44,0,2024-06-20T05:37:51.810Z,english_269.wav,0,1,290,,,,,4,0.32341667,-52.74135522,0.88090417
ZBW_1337,45,0,2024-06-20T05:37:51.810Z,english_534.wav,0,0,545,,,,,0,0,-42.4271338,1.1267565
ZBW_1337,45,0,2024-06-20T05:37:51.810Z,english_534.wav,0,0,545,,,,,1,0.1,-80.6424644,0.6842577
ZBW_1337,45,0,2024-06-20T05:37:51.810Z,english_534.wav,0,0,545,,,,,2,0.2,59.29592388,0.01459656
ZBW_1337,45,0,2024-06-20T05:37:51.810Z,english_534.wav,0,0,545,,,,,3,0.3,75.02007223,1.03701198
ZBW_1337,45,0,2024-06-20T05:37:51.810Z,english_534.wav,0,0,545,,,,,4,0.32341667,-57.55026449,1.25840342
ZBW_1337,46,0,2024-06-20T05:37:51.810Z,english_932.wav,0,0,745,,,,,0,0,-3.8848098,1.00949787
ZBW_1337,46,0,2024-06-20T05:37:51.810Z,english_932.wav,0,0,745,,,,,1,0.1,-32.48916274,1.44703087
ZBW_1337,46,0,2024-06-20T05:37:51.810Z,english_932.wav,0,0,745,,,,,2,0.2,81.26251807,0.10808594
ZBW_1337,46,0,2024-06-20T05:37:51.810Z,english_932.wav,0,0,745,,,,,3,0.3,-18.23478105,0.03465182
ZBW_1337,46,0,2024-06-20T05:37:51.810Z,english_932.wav,0,0,745,,,,,4,0.32341667,7.90132089,0.79845554
ZBW_1337,47,0,2024-06-20T05:37:51.810Z,english_22.wav,0,0,564,,,,,0,0,78.11206964,1.48448967
ZBW_1337,47,0,2024-06-20T05:37:51.810Z,english_22.wav,0,0,564,,,,,1,0.1,30.08823316,0.28770474
ZBW_1337,47,0,2024-06-20T05:37:51.810Z,english_22.wav,0,0,564,,,,,2,0.2,62.70691674,1.03274311
ZBW_1337,47,0,2024-06-20T05:37:51.810Z,english_22.wav,0,0,564,,,,,3,0.3,-69.9857022,0.45071415
ZBW_1337,47,0,2024-06-20T05:37:51.810Z,english_22.wav,0,0,564,,,,,4,0.32341667,-1.96178027,0.30900593
ZBW_1337,48,0,2024-06-20T05:37:51.810Z,english_191.wav,0,0,1028,,,,,0,0,5.22709543,0.24693927
ZBW_1337,48,0,2024-06-20T05:37:51.810Z,english_191.wav,0,0,1028,,,,,1,0.1,-51.29785688,1.61528443
ZBW_1337,48,0,2024-06-20T05:37:51.810Z,english_191.wav,0,0,1028,,,,,2,0.2,14.39503603,0.10158113
ZBW_1337,48,0,2024-06-20T05:37:51.810Z,english_191.wav,0,0,1028,,,,,3,0.3,60.50312404,1.02883866
ZBW_1337,48,0,2024-06-20T05:37:51.810Z,english_191.wav,0,0,1028,,,,,4,0.32341667,68.15927452,0.69870432
ZBW_1337,49,0,2024-06-20T05:37:51.810Z,english_716.wav,0,1,238,,,,,0,0,-41.01159081,1.70683796
ZBW_1337,49,0,2024-06-20T05:37:51.810Z,english_716.wav,0,1,238,,,,,1,0.1,-51.78631031,1.57787804
ZBW_1337,49,0,2024-06-20T05:37:51.810Z,english_716.wav,0,1,238,,,,,2,0.2,-25.7252513,1.76538287
ZBW_1337,49,0,2024-06-20T05:37:51.810Z,english_716.wav,0,1,238,,,,,3,0.3,78.18950514,1.34280163
ZBW_1337,49,0,2024-06-20T05:37:51.810Z,english_716.wav,0,1,238,,,,,4,0.32341667,-26.78025651,1.89346788
ZBW_1337,50,1,2024-06-20T05:37:51.810Z,english_773.wav,0,0,1030,,,,,0,0,-97.46951928,0.54003315
ZBW_1337,50,1,2024-06-20T05:37:51.810Z,english_773.wav,0,0,1030,,,,,1,0.1,85.58858853,1.35505424
ZBW_1337,50,1,2024-06-20T05:37:51.810Z,english_773.wav,0,0,1030,,,,,2,0.2,-54.69649905,1.09283168
ZBW_1337,50,1,2024-06-20T05:37:51.810Z,english_773.wav,0,0,1030,,,,,3,0.3,-97.24656559,1.42526307
ZBW_1337,50,1,2024-06-20T05:37:51.810Z,english_773.wav,0,0,1030,,,,,4,0.32341667,40.28006613,0.69844725
ZBW_1337,51,1,2024-06-20T05:37:51.810Z,english_823.wav,0,0,749,,,,,0,0,24.6891334,1.19409205
ZBW_1337,51,1,2024-06-20T05:37:51.810Z,english_823.wav,0,0,749,,,,,1,0.1,86.03794788,0.72053846
ZBW_1337,51,1,2024-06-20T05:37:51.810Z,english_823.wav,0,0,749,,,,,2,0.2,45.97308045,0.2138623
ZBW_1337,51,1,2024-06-20T05:37:51.810Z,english_823.wav,0,0,749,,,,,3,0.3,39.11596791,1.56743943
ZBW_1337,51,1,2024-06-20T05:37:51.810Z,english_823.wav,0,0,749,,,,,4,0.32341667,10.29734006,1.24065623
ZBW_1337,52,1,2024-06-20T05:37:51.810Z,english_644.wav,0,1,528,,,,,0,0,21.57551932,1.87520752
ZBW_1337,52,1,2024-06-20T05:37:51.810Z,english_644.wav,0,1,528,,,,,1,0.1,-11.98636437,1.28750901
ZBW_1337,52,1,2024-06-20T05:37:51.810Z,english_644.wav,0,1,528,,,,,2,0.2,-86.21942338,0.33708129
ZBW_1337,52,1,2024-06-20T05:37:51.810Z,english_644.wav,0,1,528,,,,,3,0.3,-38.98906039,1.53524213
ZBW_1337,52,1,2024-06-20T05:37:51.810Z,english_644.wav,0,1,528,,,,,4,0.32341667,-28.58177745,0.3058721
ZBW_1337,53,1,2024-06-20T05:37:51.810Z,english_234.wav,0,0,877,,,,,0,0,-96.19421376,0.0948498
ZBW_1337,53,1,2024-06-20T05:37:51.810Z,english_234.wav,0,0,877,,,,,1,0.1,96.13097212,1.36649532
ZBW_1337,53,1,2024-06-20T05:37:51.810Z,english_234.wav,0,0,877,,,,,2,0.2,-68.61115628,0.00312314
ZBW_1337,53,1,2024-06-20T05:37:51.810Z,english_234.wav,0,0,877,,,,,3,0.3,58.3624958,0.01269103
ZBW_1337,53,1,2024-06-20T05:37:51.810Z,english_234.wav,0,0,877,,,,,4,0.32341667,60.51337125,1.76377265
ZBW_1337,54,1,2024-06-20T05:37:51.810Z,english_890.wav,0,1,1191,,,,,0,0,-68.21158685,0.82535308
ZBW_1337,54,1,2024-06-20T05:37:51.810Z,english_890.wav,0,1,1191,,,,,1,0.1,-83.19360642,1.79167423
ZBW_1337,54,1,2024-06-20T05:37:51.810Z,english_890.wav,0,1,1191,,,,,2,0.2,79.13343252,0.78297904
ZBW_1337,54,1,2024-06-20T05:37:51.810Z,english_890.wav,0,1,1191,,,,,3,0.3,80.54326003,0.23441015
ZBW_1337,54,1,2024-06-20T05:37:51.810Z,english_890.wav,0,1,1191,,,,,4,0.32341667,-30.48737523,1.41044901
ZBW_1337,55,1,2024-06-20T05:37:51.810Z,english_151.wav,0,0,905,,,,,0,0,-8.78950662,1.36403682
ZBW_1337,55,1,2024-06-20T05:37:51.810Z,english_151.wav,0,0,905,,,,,1,0.1,-1.70650264,1.76375426
ZBW_1337,55,1,2024-06-20T05:37:51.810Z,english_151.wav,0,0,905,,,,,2,0.2,-17.50286784,1.43087438
ZBW_1337,55,1,2024-06-20T05:37:51.810Z,english_151.wav,0,0,905,,,,,3,0.3,88.78233286,1.18017331
ZBW_1337,55,1,2024-06-20T05:37:51.810Z,english_151.wav,0,0,905,,,,,4,0.32341667,55.08117545,1.30400061
ZBW_1337,56,1,2024-06-20T05:37:51.810Z,english_647.wav,0,1,804,,,,,0,0,-8.76796469,1.6238225
ZBW_1337,56,1,2024-06-20T05:37:51.810Z,english_647.wav,0,1,804,,,,,1,0.1,-49.13996982,1.56934089
ZBW_1337,56,1,2024-06-20T05:37:51.810Z,english_647.wav,0,1,804,,,,,2,0.2,43.79634461,0.78560304
ZBW_1337,56,1,2024-06-20T05:37:51.810Z,english_647.wav,0,1,804,,,,,3,0.3,5.5781311,0.61771672
ZBW_1337,56,1,2024-06-20T05:37:51.810Z,english_647.wav,0,1,804,,,,,4,0.32341667,17.41251701,1.2404866
ZBW_1337,57,1,2024-06-20T05:37:51.810Z,english_80.wav,0,0,2291,,,,,0,0,33.21374474,1.09809668
ZBW_1337,57,1,2024-06-20T05:37:51.810Z,english_80.wav,0,0,2291,,,,,1,0.1,-72.2618742,1.73594877
ZBW_1337,57,1,2024-06-20T05:37:51.810Z,english_80.wav,0,0,2291,,,,,2,0.2,-29.44860443,0.30037535
ZBW_1337,57,1,2024-06-20T05:37:51.810Z,english_80.wav,0,0,2291,,,,,3,0.3,-33.36418129,0.36613598
ZBW_1337,57,1,2024-06-20T05:37:51.810Z,english_80.wav,0,0,2291,,,,,4,0.32341667,-65.11319145,0.50687614
ZBW_1337,58,1,2024-06-20T05:37:51.810Z,english_542.wav,0,1,527,,,,,0,0,-75.53633957,0.40538048
ZBW_1337,58,1,2024-06-20T05:37:51.810Z,english_542.wav,0,1,527,,,,,1,0.1,-65.83593262,1.98560632
ZBW_1337,58,1,2024-06-20T05:37:51.810Z,english_542.wav,0,1,527,,,,,2,0.2,-66.8010443,1.18970355
ZBW_1337,58,1,2024-06-20T05:37:51.810Z,english_542.wav,0,1,527,,,,,3,0.3,89.94318033,1.00543009
ZBW_1337,58,1,2024-06-20T05:37:51.810Z,english_542.wav,0,1,527,,,,,4,0.32341667,-28.80984484,1.15995836
ZBW_1337,59,1,2024-06-20T05:37:51.810Z,english_467.wav,0,1,984,,,,,0,0,-0.54983343,1.824027
ZBW_1337,59,1,2024-06-20T05:37:51.810Z,english_467.wav,0,1,984,,,,,1,0.1,-84.54516502,1.06295632
ZBW_1337,59,1,2024-06-20T05:37:51.810Z,english_467.wav,0,1,984,,,,,2,0.2,54.30123894,1.09976952
ZBW_1337,59,1,2024-06-20T05:37:51.810Z,english_467.wav,0,1,984,,,,,3,0.3,-82.00368026,1.11766566
ZBW_1337,59,1,2024-06-20T05:37:51.810Z,english_467.wav,0,1,984,,,,,4,0.32341667,-54.10816942,0.44824559
ZBW_1337,60,1,2024-06-20T05:37:51.810Z,english_136.wav,0,0,631,,,,,0,0,12.04186247,0.70846626
ZBW_1337,60,1,2024-06-20T05:37:51.810Z,english_136.wav,0,0,631,,,,,1,0.1,-56.97950323,1.3229906
ZBW_1337,60,1,2024-06-20T05:37:51.810Z,english_136.wav,0,0,631,,,,,2,0.2,32.29793995,0.25119571
ZBW_1337,60,1,2024-06-20T05:37:51.810Z,english_136.wav,0,0,631,,,,,3,0.3,40.05814767,1.28510755
ZBW_1337,60,1,2024-06-20T05:37:51.810Z,english_136.wav,0,0,631,,,,,4,0.32341667,61.40693937,1.20697433
ZBW_1337,61,1,2024-06-20T05:37:51.810Z,english_924.wav,0,0,942,,,,,0,0,63.64154058,1.83477076
ZBW_1337,61,1,2024-06-20T05:37:51.810Z,english_924.wav,0,0,942,,,,,1,0.1,-60.55254199,0.21366754
ZBW_1337,61,1,2024-06-20T05:37:51.810Z,english_924.wav,0,0,942,,,,,2,0.2,-47.94670646,1.07859551
ZBW_1337,61,1,2024-06-20T05:37:51.810Z,english_924.wav,0,0,942,,,,,3,0.3,-76.50696127,1.9507375
ZBW_1337,61,1,2024-06-20T05:37:51.810Z,english_924.wav,0,0,942,,,,,4,0.32341667,44.23103111,1.33476666
ZBW_1337,62,1,2024-06-20T05:37:51.810Z,english_943.wav,0,0,759,,,,,0,0,-88.39234314,0.07745413
ZBW_1337,62,1,2024-06-20T05:37:51.810Z,english_943.wav,0,0,759,,,,,1,0.1,65.27529367,1.64078214
ZBW_1337,62,1,2024-06-20T05:37:51.810Z,english_943.wav,0,0,759,,,,,2,0.2,-24.85222093,0.23468741
ZBW_1337,62,1,2024-06-20T05:37:51.810Z,english_943.wav,0,0,759,,,,,3,0.3,20.61002448,1.49561498
ZBW_1337,62,1,2024-06-20T05:37:51.810Z,english_943.wav,0,0,759,,,,,4,0.32341667,-74.64601709,1.25217021
ZBW_1337,63,1,2024-06-20T05:37:51.810Z,english_986.wav,0,0,1348,,,,,0,0,36.93997263,1.7539978
ZBW_1337,63,1,2024-06-20T05:37:51.810Z,english_986.wav,0,0,1348,,,,,1,0.1,-76.80061303,1.40735445
ZBW_1337,63,1,2024-06-20T05:37:51.810Z,english_986.wav,0,0,1348,,,,,2,0.2,60.8418497,0.62226098
ZBW_1337,63,1,2024-06-20T05:37:51.810Z,english_986.wav,0,0,1348,,,,,3,0.3,-27.90828951,0.48175931
ZBW_1337,63,1,2024-06-20T05:37:51.810Z,english_986.wav,0,0,1348,,,,,4,0.32341667,99.51838141,1.5918282
ZBW_1337,64,1,2024-06-20T05:37:51.810Z,english_751.wav,0,0,1184,,,,,0,0,45.03630887,0.43450625
ZBW_1337,64,1,2024-06-20T05:37:51.810Z,english_751.wav,0,0,1184,,,,,1,0.1,46.59103402,1.30072592
ZBW_1337,64,1,2024-06-20T05:37:51.810Z,english_751.wav,0,0,1184,,,,,2,0.2,-30.90440374,1.20093797
ZBW_1337,64,1,2024-06-20T05:37:51.810Z,english_751.wav,0,0,1184,,,,,3,0.3,-61.26470289,0.81911259
ZBW_1337,64,1,2024-06-20T05:37:51.810Z,english_751.wav,0,0,1184,,,,,4,0.32341667,34.91384756,0.19140491
ZBW_1337,65,1,2024-06-20T05:37:51.810Z,english_953.wav,0,0,592,,,,,0,0,-16.02430182,0.31806788
ZBW_1337,65,1,2024-06-20T05:37:51.810Z,english_953.wav,0,0,592,,,,,1,0.1,29.58660593,0.5983964
ZBW_1337,65,1,2024-06-20T05:37:51.810Z,english_953.wav,0,0,592,,,,,2,0.2,-69.77021268,1.47459901
ZBW_1337,65,1,2024-06-20T05:37:51.810Z,english_953.wav,0,0,592,,,,,3,0.3,10.24378989,1.63555671
ZBW_1337,65,1,2024-06-20T05:37:51.810Z,english_953.wav,0,0,592,,,,,4,0.32341667,-68.66835117,1.74756834
ZBW_1337,66,1,2024-06-20T05:37:51.810Z,english_215.wav,0,1,655,,,,,0,0,-93.71362427,1.31176069
ZBW_1337,66,1,2024-06-20T05:37:51.810Z,english_215.wav,0,1,655,,,,,1,0.1,20.4696733,1.25536714
ZBW_1337,66,1,2024-06-20T05:37:51.810Z,english_215.wav,0,1,655,,,,,2,0.2,-66.57352715,1.5696385
ZBW_1337,66,1,2024-06-20T05:37:51.810Z,english_215.wav,0,1,655,,,,,3,0.3,-0.6079782,0.03144419
ZBW_1337,66,1,2024-06-20T05:37:51.810Z,english_215.wav,0,1,655,,,,,4,0.32341667,-5.73921948,0.79048669
ZBW_1337,67,1,2024-06-20T05:37:51.810Z,english_732.wav,0,1,390,,,,,0,0,-12.49530298,1.28394154
ZBW_1337,67,1,2024-06-20T05:37:51.810Z,english_732.wav,0,1,390,,,,,1,0.1,77.35683448,1.95772399
ZBW_1337,67,1,2024-06-20T05:37:51.810Z,english_732.wav,0,1,390,,,,,2,0.2,46.14200593,1.14408971
ZBW_1337,67,1,2024-06-20T05:37:51.810Z,english_732.wav,0,1,390,,,,,3,0.3,-17.19403126,0.21034957
ZBW_1337,67,1,2024-06-20T05:37:51.810Z,english_732.wav,0,1,390,,,,,4,0.32341667,-81.60069167,0.50538316
ZBW_1337,68,1,2024-06-20T05:37:51.810Z,english_240.wav,0,0,721,,,,,0,0,-96.55121617,1.04823872
ZBW_1337,68,1,2024-06-20T05:37:51.810Z,english_240.wav,0,0,721,,,,,1,0.1,73.99435309,1.11556714
ZBW_1337,68,1,2024-06-20T05:37:51.810Z,english_240.wav,0,0,721,,,,,2,0.2,-27.17256968,0.68795106
ZBW_1337,68,1,2024-06-20T05:37:51.810Z,english_240.wav,0,0,721,,,,,3,0.3,-2.05185553,1.30325309
ZBW_1337,68,1,2024-06-20T05:37:51.810Z,english_240.wav,0,0,721,,,,,4,0.32341667,80.37406519,0.86977317
ZBW_1337,69,1,2024-06-20T05:37:51.810Z,english_447.wav,0,0,1068,,,,,0,0,38.77193801,0.52212734
ZBW_1337,69,1,2024-06-20T05:37:51.810Z,english_447.wav,0,0,1068,,,,,1,0.1,-3.53992528,0.58948567
ZBW_1337,69,1,2024-06-20T05:37:51.810Z,english_447.wav,0,0,1068,,,,,2,0.2,54.1888363,0.60662966
ZBW_1337,69,1,2024-06-20T05:37:51.810Z,english_447.wav,0,0,1068,,,,,3,0.3,-95.90180003,0.73195254
ZBW_1337,69,1,2024-06-20T05:37:51.810Z,english_447.wav,0,0,1068,,,,,4,0.32341667,48.32118178,0.21856551
ZBW_1337,70,1,2024-06-20T05:37:51.810Z,english_821.wav,0,1,1001,,,,,0,0,-4.04234253,1.62928948
ZBW_1337,70,1,2024-06-20T05:37:51.810Z,english_821.wav,0,1,1001,,,,,1,0.1,50.39518932,0.78033958
ZBW_1337,70,1,2024-06-20T05:37:51.810Z,english_821.wav,0,1,1001,,,,,2,0.2,58.18996785,1.56476115
ZBW_1337,70,1,2024-06-20T05:37:51.810Z,english_821.wav,0,1,1001,,,,,3,0.3,-22.07293427,0.56557752
ZBW_1337,70,1,2024-06-20T05:37:51.810Z,english_821.wav,0,1,1001,,,,,4,0.32341667,56.43229939,0.93389964
ZBW_1337,71,1,2024-06-20T05:37:51.810Z,english_754.wav,0,1,658,,,,,0,0,-19.76675532,0.85408869
ZBW_1337,71,1,2024-06-20T05:37:51.810Z,english_754.wav,0,1,658,,,,,1,0.1,34.48414938,1.68072852
ZBW_1337,71,1,2024-06-20T05:37:51.810Z,english_754.wav,0,1,658,,,,,2,0.2,62.52568934,1.92334892
ZBW_1337,71,1,2024-06-20T05:37:51.810Z,english_754.wav,0,1,658,,,,,3,0.3,25.41574935,0.35114342
ZBW_1337,71,1,2024-06-20T05:37:51.810Z,english_754.wav,0,1,658,,,,,4,0.32341667,-36.16911462,0.9845535
ZBW_1337,72,1,2024-06-20T05:37:51.810Z,english_25.wav,0,1,504,,,,,0,0,-93.68210842,1.14210865
ZBW_1337,72,1,2024-06-20T05:37:51.810Z,english_25.wav,0,1,504,,,,,1,0.1,-14.41268038,1.90089654
ZBW_1337,72,1,2024-06-20T05:37:51.810Z,english_25.wav,0,1,504,,,,,2,0.2,72.93230065,0.61137859
ZBW_1337,72,1,2024-06-20T05:37:51.810Z,english_25.wav,0,1,504,,,,,3,0.3,23.28545759,1.93042398
ZBW_1337,72,1,2024-06-20T05:37:51.810Z,english_25.wav,0,1,504,,,,,4,0.32341667,18.09953767,1.11869114
ZBW_1337,73,1,2024-06-20T05:37:51.810Z,english_113.wav,0,1,557,,,,,0,0,8.7952765,0.51001639
ZBW_1337,73,1,2024-06-20T05:37:51.810Z,english_113.wav,0,1,557,,,,,1,0.1,91.94692023,1.45766025
ZBW_1337,73,1,2024-06-20T05:37:51.810Z,english_113.wav,0,1,557,,,,,2,0.2,-6.68088057,1.25674442
ZBW_1337,73,1,2024-06-20T05:37:51.810Z,english_113.wav,0,1,557,,,,,3,0.3,38.28142065,1.93213547
ZBW_1337,73,1,2024-06-20T05:37:51.810Z,english_113.wav,0,1,557,,,,,4,0.32341667,-37.19939988,0.45590133
ZBW_1337,74,1,2024-06-20T05:37:51.810Z,english_441.wav,0,0,1311,,,,,0,0,-34.50722314,1.86415324
ZBW_1337,74,1,2024-06-20T05:37:51.810Z,english_441.wav,0,0,1311,,,,,1,0.1,91.55175756,1.34062972
ZBW_1337,74,1,2024-06-20T05:37:51.810Z,english_441.wav,0,0,1311,,,,,2,0.2,-74.07917439,1.20894222
ZBW_1337,74,1,2024-06-20T05:37:51.810Z,english_441.wav,0,0,1311,,,,,3,0.3,82.08396891,0.00248362
ZBW_1337,74,1,2024-06-20T05:37:51.810Z,english_441.wav,0,0,1311,,,,,4,0.32341667,13.2563292,0.67485278
ZBW_1337,75,1,2024-06-20T05:37:51.810Z,english_486.wav,0,0,1415,,,,,0,0,31.41997184,1.22599644
ZBW_1337,75,1,2024-06-20T05:37:51.810Z,english_486.wav,0,0,1415,,,,,1,0.1,58.03480486,1.4547445
ZBW_1337,75,1,2024-06-20T05:37:51.810Z,english_486.wav,0,0,1415,,,,,2,0.2,-62.84801238,0.27967606
ZBW_1337,75,1,2024-06-20T05:37:51.810Z,english_486.wav,0,0,1415,,,,,3,0.3,10.62451678,0.02065399
ZBW_1337,75,1,2024-06-20T05:37:51.810Z,english_486.wav,0,0,1415,,,,,4,0.32341667,10.31835057,0.3128479
ZBW_1337,76,1,2024-06-20T05:37:51.810Z,english_869.wav,0,0,1597,,,,,0,0,31.82870938,0.91730192
ZBW_1337,76,1,2024-06-20T05:37:51.810Z,english_869.wav,0,0,1597,,,,,1,0.1,55.69153841,1.54634356
ZBW_1337,76,1,2024-06-20T05:37:51.810Z,english_869.wav,0,0,1597,,,,,2,0.2,44.83997999,0.32401745
ZBW_1337,76,1,2024-06-20T05:37:51.810Z,english_869.wav,0,0,1597,,,,,3,0.3,-64.6596515,1.34292926
ZBW_1337,76,1,2024-06-20T05:37:51.810Z,english_869.wav,0,0,1597,,,,,4,0.32341667,-51.58434075,0.99771643
ZBW_1337,77,1,2024-06-20T05:37:51.810Z,english_782.wav,0,0,925,,,,,0,0,-98.70381677,1.47488053
ZBW_1337,77,1,2024-06-20T05:37:51.810Z,english_782.wav,0,0,925,,,,,1,0.1,-69.82387258,0.7270016
ZBW_1337,77,1,2024-06-20T05:37:51.810Z,english_782.wav,0,0,925,,,,,2,0.2,35.26613747,0.08778447
ZBW_1337,77,1,2024-06-20T05:37:51.810Z,english_782.wav,0,0,925,,,,,3,0.3,-81.38004879,1.16903228
ZBW_1337,77,1,2024-06-20T05:37:51.810Z,english_782.wav,0,0,925,,,,,4,0.32341667,-61.83067014,0.92727902
ZBW_1337,78,1,2024-06-20T05:37:51.810Z,english_980.wav,0,0,2070,,,,,0,0,-32.33629208,1.21290567
ZBW_1337,78,1,2024-06-20T05:37:51.810Z,english_980.wav,0,0,2070,,,,,1,0.1,-4.4140807,0.22350007
ZBW_1337,78,1,2024-06-20T05:37:51.810Z,english_980.wav,0,0,2070,,,,,2,0.2,76.81412515,1.68078519
ZBW_1337,78,1,2024-06-20T05:37:51.810Z,english_980.wav,0,0,2070,,,,,3,0.3,-16.24877133,0.16816052
ZBW_1337,78,1,2024-06-20T05:37:51.810Z,english_980.wav,0,0,2070,,,,,4,0.32341667,-26.44128118,1.48722631
ZBW_1337,79,1,2024-06-20T05:37:51.810Z,english_391.wav,0,0,1028,,,,,0,0,67.64906061,0.41951577
ZBW_1337,79,1,2024-06-20T05:37:51.810Z,english_391.wav,0,0,1028,,,,,1,0.1,79.28195584,0.03526883
ZBW_1337,79,1,2024-06-20T05:37:51.810Z,english_391.wav,0,0,1028,,,,,2,0.2,62.27299227,0.81828659
ZBW_1337,79,1,2024-06-20T05:37:51.810Z,english_391.wav,0,0,1028,,,,,3,0.3,-11.10764883,1.2900604
ZBW_1337,79,1,2024-06-20T05:37:51.810Z,english_391.wav,0,0,1028,,,,,4,0.32341667,57.41338752,1.95373865
ZBW_1337,80,1,2024-06-20T05:37:51.810Z,english_619.wav,0,1,690,,,,,0,0,38.53351318,1.25542912
ZBW_1337,80,1,2024-06-20T05:37:51.810Z,english_619.wav,0,1,690,,,,,1,0.1,-11.21157995,0.83005785
ZBW_1337,80,1,2024-06-20T05:37:51.810Z,english_619.wav,0,1,690,,,,,2,0.2,29.79887689,1.51254928
ZBW_1337,80,1,2024-06-20T05:37:51.810Z,english_619.wav,0,1,690,,,,,3,0.3,48.6384615,0.37972577
ZBW_1337,80,1,2024-06-20T05:37:51.810Z,english_619.wav,0,1,690,,,,,4,0.32341667,-66.5905708,0.44889873
ZBW_1337,81,1,2024-06-20T05:37:51.810Z,english_809.wav,0,0,889,,,,,0,0,-9.08149959,0.73203403
ZBW_1337,81,1,2024-06-20T05:37:51.810Z,english_809.wav,0,0,889,,,,,1,0.1,12.16544582,0.53159531
ZBW_1337,81,1,2024-06-20T05:37:51.810Z,english_809.wav,0,0,889,,,,,2,0.2,40.52205867,1.48114639
ZBW_1337,81,1,2024-06-20T05:37:51.810Z,english_809.wav,0,0,889,,,,,3,0.3,-94.19679153,1.77078339
ZBW_1337,81,1,2024-06-20T05:37:51.810Z,english_809.wav,0,0,889,,,,,4,0.32341667,-5.82752377,1.36117577
ZBW_1337,82,1,2024-06-20T05:37:51.810Z,english_126.wav,0,1,544,,,,,0,0,-71.89060105,0.84485729
ZBW_1337,82,1,2024-06-20T05:37:51.810Z,english_126.wav,0,1,544,,,,,1,0.1,-54.28004149,1.61340521
ZBW_1337,82,1,2024-06-20T05:37:51.810Z,english_126.wav,0,1,544,,,,,2,0.2,67.0997098,1.10892805
ZBW_1337,82,1,2024-06-20T05:37:51.810Z,english_126.wav,0,1,544,,,,,3,0.3,-96.31741745,1.20133652
ZBW_1337,82,1,2024-06-20T05:37:51.810Z,english_126.wav,0,1,544,,,,,4,0.32341667,22.67293764,0.33470898
ZBW_1337,83,1,2024-06-20T05:37:51.810Z,english_430.wav,0,0,888,,,,,0,0,72.23510535,0.8682214
ZBW_1337,83,1,2024-06-20T05:37:51.810Z,english_430.wav,0,0,888,,,,,1,0.1,-9.56156918,0.26781202
ZBW_1337,83,1,2024-06-20T05:37:51.810Z,english_430.wav,0,0,888,,,,,2,0.2,36.71559936,1.38873793
ZBW_1337,83,1,2024-06-20T05:37:51.810Z,english_430.wav,0,0,888,,,,,3,0.3,-33.55254317,0.29076709
ZBW_1337,83,1,2024-06-20T05:37:51.810Z,english_430.wav,0,0,888,,,,,4,0.32341667,-25.71861109,0.30869259
ZBW_1337,84,1,2024-06-20T05:37:51.810Z,english_992.wav,0,0,621,,,,,0,0,-6.68189934,0.46848529
ZBW_1337,84,1,2024-06-20T05:37:51.810Z,english_992.wav,0,0,621,,,,,1,0.1,78.76679047,0.9874556
ZBW_1337,84,1,2024-06-20T05:37:51.810Z,english_992.wav,0,0,621,,,,,2,0.2,-58.5917679,0.57881803
ZBW_1337,84,1,2024-06-20T05:37:51.810Z,english_992.wav,0,0,621,,,,,3,0.3,-98.64651588,0.88425299
ZBW_1337,84,1,2024-06-20T05:37:51.810Z,english_992.wav,0,0,621,,,,,4,0.32341667,73.76402904,0.6994588
ZBW_1337,85,1,2024-06-20T05:37:51.810Z,english_32.wav,0,1,712,,,,,0,0,89.50349963,1.73304916
ZBW_1337,85,1,2024-06-20T05:37:51.810Z,english_32.wav,0,1,712,,,,,1,0.1,51.51128255,0.02192789
ZBW_1337,85,1,2024-06-20T05:37:51.810Z,english_32.wav,0,1,712,,,,,2,0.2,-58.32910347,1.71493142
ZBW_1337,85,1,2024-06-20T05:37:51.810Z,english_32.wav,0,1,712,,,,,3,0.3,15.96172744,1.28451373
ZBW_1337,85,1,2024-06-20T05:37:51.810Z,english_32.wav,0,1,712,,,,,4,0.32341667,84.40449403,1.22971166
ZBW_1337,86,1,2024-06-20T05:37:51.810Z,english_193.wav,0,1,303,,,,,0,0,98.63199606,1.10219899
ZBW_1337,86,1,2024-06-20T05:37:51.810Z,english_193.wav,0,1,303,,,,,1,0.1,38.06859183,1.75752318
ZBW_1337,86,1,2024-06-20T05:37:51.810Z,english_193.wav,0,1,303,,,,,2,0.2,58.19309996,1.8701857
ZBW_1337,86,1,2024-06-20T05:37:51.810Z,english_193.wav,0,1,303,,,,,3,0.3,70.68425501,1.90449871
ZBW_1337,86,1,2024-06-20T05:37:51.810Z,english_193.wav,0,1,303,,,,,4,0.32341667,89.06926868,1.70479661
ZBW_1337,87,1,2024-06-20T05:37:51.810Z,english_787.wav,0,0,788,,,,,0,0,57.99353047,1.96251481
ZBW_1337,87,1,2024-06-20T05:37:51.810Z,english_787.wav,0,0,788,,,,,1,0.1,-40.79525362,0.94444479
ZBW_1337,87,1,2024-06-20T05:37:51.810Z,english_787.wav,0,0,788,,,,,2,0.2,23.78072576,0.924778
ZBW_1337,87,1,2024-06-20T05:37:51.810Z,english_787.wav,0,0,788,,,,,3,0.3,72.96982422,0.31383508
ZBW_1337,87,1,2024-06-20T05:37:51.810Z,english_787.wav,0,0,788,,,,,4,0.32341667,53.76957631,0.68947425
ZBW_1337,88,1,2024-06-20T05:37:51.810Z,english_614.wav,0,1,919,,,,,0,0,78.57791509,1.76663636
ZBW_1337,88,1,2024-06-20T05:37:51.810Z,english_614.wav,0,1,919,,,,,1,0.1,-6.15631212,0.7337869
ZBW_1337,88,1,2024-06-20T05:37:51.810Z,english_614.wav,0,1,919,,,,,2,0.2,-15.34092719,1.62880485
ZBW_1337,88,1,2024-06-20T05:37:51.810Z,english_614.wav,0,1,919,,,,,3,0.3,21.91351344,0.61213133
ZBW_1337,88,1,2024-06-20T05:37:51.810Z,english_614.wav,0,1,919,,,,,4,0.32341667,-10.50820757,0.41097232
ZBW_1337,89,1,2024-06-20T05:37:51.810Z,english_483.wav,0,0,566,,,,,0,0,-5.76716701,0.46419013
ZBW_1337,89,1,2024-06-20T05:37:51.810Z,english_483.wav,0,0,566,,,,,1,0.1,70.49761143,1.51640771
ZBW_1337,89,1,2024-06-20T05:37:51.810Z,english_483.wav,0,0,566,,,,,2,0.2,-45.60331281,0.16811565
ZBW_1337,89,1,2024-06-20T05:37:51.810Z,english_483.wav,0,0,566,,,,,3,0.3,83.6717315,0.53401791
ZBW_1337,89,1,2024-06-20T05:37:51.810Z,english_483.wav,0,0,566,,,,,4,0.32341667,-49.24362833,1.0404632
ZBW_1337,90,1,2024-06-20T05:37:51.810Z,english_680.wav,0,1,1150,,,,,0,0,93.24972168,1.89994278
ZBW_1337,90,1,2024-06-20T05:37:51.810Z,english_680.wav,0,1,1150,,,,,1,0.1,21.55707386,1.06559033
ZBW_1337,90,1,2024-06-20T05:37:51.810Z,english_680.wav,0,1,1150,,,,,2,0.2,-58.84044748,0.79606997
ZBW_1337,90,1,2024-06-20T05:37:51.810Z,english_680.wav,0,1,1150,,,,,3,0.3,-13.55367876,0.35899559
ZBW_1337,90,1,2024-06-20T05:37:51.810Z,english_680.wav,0,1,1150,,,,,4,0.32341667,17.98073729,1.50925573
ZBW_1337,91,1,2024-06-20T05:37:51.810Z,english_638.wav,0,0,984,,,,,0,0,6.92468799,1.1702122
ZBW_1337,91,1,2024-06-20T05:37:51.810Z,english_638.wav,0,0,984,,,,,1,0.1,52.10042521,0.51269982
ZBW_1337,91,1,2024-06-20T05:37:51.810Z,english_638.wav,0,0,984,,,,,2,0.2,-39.07293948,0.1912204
ZBW_1337,91,1,2024-06-20T05:37:51.810Z,english_638.wav,0,0,984,,,,,3,0.3,38.46029754,0.91406415
ZBW_1337,91,1,2024-06-20T05:37:51.810Z,english_638.wav,0,0,984,,,,,4,0.32341667,-16.6630855,1.67689755
ZBW_1337,92,1,2024-06-20T05:37:51.810Z,english_274.wav,0,1,588,,,,,0,0,-30.61452779,0.78021116
ZBW_1337,92,1,2024-06-20T05:37:51.810Z,english_274.wav,0,1,588,,,,,1,0.1,-42.14612233,1.93993358
ZBW_1337,92,1,2024-06-20T05:37:51.810Z,english_274.wav,0,1,588,,,,,2,0.2,32.00602795,0.32963606
ZBW_1337,92,1,2024-06-20T05:37:51.810Z,english_274.wav,0,1,588,,,,,3,0.3,-37.74375581,1.46133782
ZBW_1337,92,1,2024-06-20T05:37:51.810Z,english_274.wav,0,1,588,,,,,4,0.32341667,-54.5397802,1.53178785
ZBW_1337,93,1,2024-06-20T05:37:51.810Z,english_511.wav,0,1,1216,,,,,0,0,-54.05076571,1.68448531
ZBW_1337,93,1,2024-06-20T05:37:51.810Z,english_511.wav,0,1,1216,,,,,1,0.1,58.21305336,0.64957271
ZBW_1337,93,1,2024-06-20T05:37:51.810Z,english_511.wav,0,1,1216,,,,,2,0.2,93.28984864,1.47534814
ZBW_1337,93,1,2024-06-20T05:37:51.810Z,english_511.wav,0,1,1216,,,,,3,0.3,-93.08437199,1.38615571
ZBW_1337,93,1,2024-06-20T05:37:51.810Z,english_511.wav,0,1,1216,,,,,4,0.32341667,48.49476441,0.71972648
ZBW_1337,94,1,2024-06-20T05:37:51.810Z,english_629.wav,0,0,502,,,,,0,0,76.68747977,0.56482572
ZBW_1337,94,1,2024-06-20T05:37:51.810Z,english_629.wav,0,0,502,,,,,1,0.1,72.0676039,0.14075004
ZBW_1337,94,1,2024-06-20T05:37:51.810Z,english_629.wav,0,0,502,,,,,2,0.2,-3.42071834,0.80885654
ZBW_1337,94,1,2024-06-20T05:37:51.810Z,english_629.wav,0,0,502,,,,,3,0.3,-75.36993348,1.43133267
ZBW_1337,94,1,2024-06-20T05:37:51.810Z,english_629.wav,0,0,502,,,,,4,0.32341667,-15.4233884,0.14234351
ZBW_1337,95,1,2024-06-20T05:37:51.810Z,english_715.wav,0,1,2216,,,,,0,0,-64.21420564,1.80154013
ZBW_1337,95,1,2024-06-20T05:37:51.810Z,english_715.wav,0,1,2216,,,,,1,0.1,77.40813629,0.51096517
ZBW_1337,95,1,2024-06-20T05:37:51.810Z,english_715.wav,0,1,2216,,,,,2,0.2,-98.26791609,0.49870215
ZBW_1337,95,1,2024-06-20T05:37:51.810Z,english_715.wav,0,1,2216,,,,,3,0.3,-32.66334796,0.64344691
ZBW_1337,95,1,2024-06-20T05:37:51.810Z,english_715.wav,0,1,2216,,,,,4,0.32341667,93.12500574,1.17662216
ZBW_1337,96,1,2024-06-20T05:37:51.810Z,english_838.wav,0,0,673,,,,,0,0,-46.43239877,0.57293762
ZBW_1337,96,1,2024-06-20T05:37:51.810Z,english_838.wav,0,0,673,,,,,1,0.1,-0.77549132,1.65450135
ZBW_1337,96,1,2024-06-20T05:37:51.810Z,english_838.wav,0,0,673,,,,,2,0.2,-47.56158581,0.30574951
ZBW_1337,96,1,2024-06-20T05:37:51.810Z,english_838.wav,0,0,673,,,,,3,0.3,7.18116474,0.96315644
ZBW_1337,96,1,2024-06-20T05:37:51.810Z,english_838.wav,0,0,673,,,,,4,0.32341667,-87.38880816,0.83017899
ZBW_1337,97,1,2024-06-20T05:37:51.810Z,english_791.wav,0,1,1203,,,,,0,0,65.91759783,1.00744019
ZBW_1337,97,1,2024-06-20T05:37:51.810Z,english_791.wav,0,1,1203,,,,,1,0.1,-36.70731143,0.67929445
ZBW_1337,97,1,2024-06-20T05:37:51.810Z,english_791.wav,0,1,1203,,,,,2,0.2,67.54354156,0.95779159
ZBW_1337,97,1,2024-06-20T05:37:51.810Z,english_791.wav,0,1,1203,,,,,3,0.3,2.89249458,1.93585264
ZBW_1337,97,1,2024-06-20T05:37:51.810Z,english_791.wav,0,1,1203,,,,,4,0.32341667,-55.92630603,0.7587469
ZBW_1337,98,1,2024-06-20T05:37:51.810Z,english_637.wav,0,1,2925,,,,,0,0,-1.71458324,1.21739028
ZBW_1337,98,1,2024-06-20T05:37:51.810Z,english_637.wav,0,1,2925,,,,,1,0.1,-8.03758275,0.51882016
ZBW_1337,98,1,2024-06-20T05:37:51.810Z,english_637.wav,0,1,2925,,,,,2,0.2,-8.49550443,1.63519413
ZBW_1337,98,1,2024-06-20T05:37:51.810Z,english_637.wav,0,1,2925,,,,,3,0.3,-8.27727969,1.34863813
ZBW_1337,98,1,2024-06-20T05:37:51.810Z,english_637.wav,0,1,2925,,,,,4,0.32341667,64.42471467,1.93003029
ZBW_1337,99,1,2024-06-20T05:37:51.810Z,english_509.wav,0,0,1265,,,,,0,0,58.37136146,0.93627824
ZBW_1337,99,1,2024-06-20T05:37:51.810Z,english_509.wav,0,0,1265,,,,,1,0.1,-30.59588084,1.268957
ZBW_1337,99,1,2024-06-20T05:37:51.810Z,english_509.wav,0,0,1265,,,,,2,0.2,-42.62400689,0.87018438
ZBW_1337,99,1,2024-06-20T05:37:51.810Z,english_509.wav,0,0,1265,,,,,3,0.3,58.46483968,1.67134466
ZBW_1337,99,1,2024-06-20T05:37:51.810Z,english_509.wav,0,0,1265,,,,,4,0.32341667,44.09610342,1.96584472
ZBW_1337,100,2,2024-06-20T05:37:51.810Z,english_708.wav,0,0,939,,,,,0,0,-27.19248895,0.74061838
ZBW_1337,100,2,2024-06-20T05:37:51.810Z,english_708.wav,0,0,939,,,,,1,0.1,84.25795725,1.13599963
ZBW_1337,100,2,2024-06-20T05:37:51.810Z,english_708.wav,0,0,939,,,,,2,0.2,-19.19551503,1.10086254
ZBW_1337,100,2,2024-06-20T05:37:51.810Z,english_708.wav,0,0,939,,,,,3,0.3,29.88012033,0.53054382
ZBW_1337,100,2,2024-06-20T05:37:51.810Z,english_708.wav,0,0,939,,,,,4,0.32341667,46.0858662,1.51974387
ZBW_1337,101,2,2024-06-20T05:37:51.810Z,english_128.wav,0,0,507,,,,,0,0,-84.07301703,0.96445051
ZBW_1337,101,2,2024-06-20T05:37:51.810Z,english_128.wav,0,0,507,,,,,1,0.1,0.2051398,0.77165422
ZBW_1337,101,2,2024-06-20T05:37:51.810Z,english_128.wav,0,0,507,,,,,2,0.2,50.77588291,0.60279997
ZBW_1337,101,2,2024-06-20T05:37:51.810Z,english_128.wav,0,0,507,,,,,3,0.3,3.27834455,0.59915485
ZBW_1337,101,2,2024-06-20T05:37:51.810Z,english_128.wav,0,0,507,,,,,4,0.32341667,59.5943459,0.43521132
ZBW_1337,102,2,2024-06-20T05:37:51.810Z,english_999.wav,0,1,411,,,,,0,0,-43.88463807,1.5561212
ZBW_1337,102,2,2024-06-20T05:37:51.810Z,english_999.wav,0,1,411,,,,,1,0.1,-19.69329198,1.76032244
ZBW_1337,102,2,2024-06-20T05:37:51.810Z,english_999.wav,0,1,411,,,,,2,0.2,-16.47401585,0.67323911
ZBW_1337,102,2,2024-06-20T05:37:51.810Z,english_999.wav,0,1,411,,,,,3,0.3,-27.91485083,0.0725875
ZBW_1337,102,2,2024-06-20T05:37:51.810Z,english_999.wav,0,1,411,,,,,4,0.32341667,-38.65265262,0.89314247
ZBW_1337,103,2,2024-06-20T05:37:51.810Z,english_381.wav,0,1,1270,,,,,0,0,-64.83599525,0.77808766
ZBW_1337,103,2,2024-06-20T05:37:51.810Z,english_381.wav,0,1,1270,,,,,1,0.1,97.61236857,1.62635576
ZBW_1337,103,2,2024-06-20T05:37:51.810Z,english_381.wav,0,1,1270,,,,,2,0.2,-60.27157178,0.65298664
ZBW_1337,103,2,2024-06-20T05:37:51.810Z,english_381.wav,0,1,1270,,,,,3,0.3,84.45732791,0.46881793
ZBW_1337,103,2,2024-06-20T05:37:51.810Z,english_381.wav,0,1,1270,,,,,4,0.32341667,-87.53832291,1.22836965
ZBW_1337,104,2,2024-06-20T05:37:51.810Z,english_382.wav,0,0,518,,,,,0,0,-83.35497559,1.24516413
ZBW_1337,104,2,2024-06-20T05:37:51.810Z,english_382.wav,0,0,518,,,,,1,0.1,7.83115402,0.59675254
ZBW_1337,104,2,2024-06-20T05:37:51.810Z,english_382.wav,0,0,518,,,,,2,0.2,77.46115257,0.61036026
ZBW_1337,104,2,2024-06-20T05:37:51.810Z,english_382.wav,0,0,518,,,,,3,0.3,89.755233,1.95554414
ZBW_1337,104,2,2024-06-20T05:37:51.810Z,english_382.wav,0,0,518,,,,,4,0.32341667,-36.08570956,1.60845727
ZBW_1337,105,2,2024-06-20T05:37:51.810Z,english_545.wav,0,0,1102,,,,,0,0,42.99494118,1.37740168
ZBW_1337,105,2,2024-06-20T05:37:51.810Z,english_545.wav,0,0,1102,,,,,1,0.1,72.53025652,0.91972232
ZBW_1337,105,2,2024-06-20T05:37:51.810Z,english_545.wav,0,0,1102,,,,,2,0.2,4.60849844,0.73226975
ZBW_1337,105,2,2024-06-20T05:37:51.810Z,english_545.wav,0,0,1102,,,,,3,0.3,9.93291538,1.52934768
ZBW_1337,105,2,2024-06-20T05:37:51.810Z,english_545.wav,0,0,1102,,,,,4,0.32341667,-11.25611892,0.18478607
ZBW_1337,106,2,2024-06-20T05:37:51.810Z,english_238.wav,0,0,590,,,,,0,0,87.78466979,1.0750983
ZBW_1337,106,2,2024-06-20T05:37:51.810Z,english_238.wav,0,0,590,,,,,1,0.1,65.39287108,0.03626896
ZBW_1337,106,2,2024-06-20T05:37:51.810Z,english_238.wav,0,0,590,,,,,2,0.2,-38.39100082,1.9832234
ZBW_1337,106,2,2024-06-20T05:37:51.810Z,english_238.wav,0,0,590,,,,,3,0.3,-20.01297649,0.17604691
ZBW_1337,106,2,2024-06-20T05:37:51.810Z,english_238.wav,0,0,590,,,,,4,0.32341667,78.31880556,1.61383808
ZBW_1337,107,2,2024-06-20T05:37:51.810Z,english_623.wav,0,1,689,,,,,0,0,-23.54178515,1.91881792
ZBW_1337,107,2,2024-06-20T05:37:51.810Z,english_623.wav,0,1,689,,,,,1,0.1,-47.52772515,0.99675119
ZBW_1337,107,2,2024-06-20T05:37:51.810Z,english_623.wav,0,1,689,,,,,2,0.2,47.20668934,0.26332691
ZBW_1337,107,2,2024-06-20T05:37:51.810Z,english_623.wav,0,1,689,,,,,3,0.3,-98.32001938,1.33317057
ZBW_1337,107,2,2024-06-20T05:37:51.810Z,english_623.wav,0,1,689,,,,,4,0.32341667,-63.09014275,1.04211108
ZBW_1337,108,2,2024-06-20T05:37:51.810Z,english_836.wav,0,0,600,,,,,0,0,34.85846782,1.04017402
ZBW_1337,108,2,2024-06-20T05:37:51.810Z,english_836.wav,0,0,600,,,,,1,0.1,41.54458908,0.35535359
ZBW_1337,108,2,2024-06-20T05:37:51.810Z,english_836.wav,0,0,600,,,,,2,0.2,23.27363575,0.10471693
ZBW_1337,108,2,2024-06-20T05:37:51.810Z,english_836.wav,0,0,600,,,,,3,0.3,86.83996211,0.55523491
ZBW_1337,108,2,2024-06-20T05:37:51.810Z,english_836.wav,0,0,600,,,,,4,0.32341667,-32.25656931,0.70311776
ZBW_1337,109,2,2024-06-20T05:37:51.810Z,english_278.wav,0,1,406,,,,,0,0,-49.55521664,0.96598769
ZBW_1337,109,2,2024-06-20T05:37:51.810Z,english_278.wav,0,1,406,,,,,1,0.1,60.24292507,1.32709354
ZBW_1337,109,2,2024-06-20T05:37:51.810Z,english_278.wav,0,1,406,,,,,2,0.2,34.32984246,0.84496159
ZBW_1337,109,2,2024-06-20T05:37:51.810Z,english_278.wav,0,1,406,,,,,3,0.3,91.69210883,1.50157491
ZBW_1337,109,2,2024-06-20T05:37:51.810Z,english_278.wav,0,1,406,,,,,4,0.32341667,78.84715657,1.85534648
ZBW_1337,110,2,2024-06-20T05:37:51.810Z,english_58.wav,0,1,760,,,,,0,0,20.12478601,1.19415515
ZBW_1337,110,2,2024-06-20T05:37:51.810Z,english_58.wav,0,1,760,,,,,1,0.1,-22.60038942,0.26098942
ZBW_1337,110,2,2024-06-20T05:37:51.810Z,english_58.wav,0,1,760,,,,,2,0.2,34.38627512,1.99195241
ZBW_1337,110,2,2024-06-20T05:37:51.810Z,english_58.wav,0,1,760,,,,,3,0.3,30.90369434,0.42925074
ZBW_1337,110,2,2024-06-20T05:37:51.810Z,english_58.wav,0,1,760,,,,,4,0.32341667,11.39971337,0.50368767
ZBW_1337,111,2,2024-06-20T05:37:51.810Z,english_989.wav,0,0,684,,,,,0,0,-51.1051603,1.00035195
ZBW_1337,111,2,2024-06-20T05:37:51.810Z,english_989.wav,0,0,684,,,,,1,0.1,-91.26717948,0.46124463
ZBW_1337,111,2,2024-06-20T05:37:51.810Z,english_989.wav,0,0,684,,,,,2,0.2,73.5145218,0.77735517
ZBW_1337,111,2,2024-06-20T05:37:51.810Z,english_989.wav,0,0,684,,,,,3,0.3,54.43703181,1.21549894
ZBW_1337,111,2,2024-06-20T05:37:51.810Z,english_989.wav,0,0,684,,,,,4,0.32341667,-36.95823638,0.33045291
ZBW_1337,112,2,2024-06-20T05:37:51.810Z,english_288.wav,0,1,683,,,,,0,0,35.15100251,1.01330681
ZBW_1337,112,2,2024-06-20T05:37:51.810Z,english_288.wav,0,1,683,,,,,1,0.1,49.55485069,0.90213232
ZBW_1337,112,2,2024-06-20T05:37:51.810Z,english_288.wav,0,1,683,,,,,2,0.2,28.604189,1.8181607
ZBW_1337,112,2,2024-06-20T05:37:51.810Z,english_288.wav,0,1,683,,,,,3,0.3,38.59633835,1.82579698
ZBW_1337,112,2,2024-06-20T05:37:51.810Z,english_288.wav,0,1,683,,,,,4,0.32341667,-98.9026904,0.14571105
ZBW_1337,113,2,2024-06-20T05:37:51.810Z,english_753.wav,0,1,2053,,,,,0,0,38.61944715,0.75641923
ZBW_1337,113,2,2024-06-20T05:37:51.810Z,english_753.wav,0,1,2053,,,,,1,0.1,-76.3398938,1.17320485
ZBW_1337,113,2,2024-06-20T05:37:51.810Z,english_753.wav,0,1,2053,,,,,2,0.2,-80.92813522,0.63072958
ZBW_1337,113,2,2024-06-20T05:37:51.810Z,english_753.wav,0,1,2053,,,,,3,0.3,-16.48508052,1.96252246
ZBW_1337,113,2,2024-06-20T05:37:51.810Z,english_753.wav,0,1,2053,,,,,4,0.32341667,16.23487259,1.97125296
ZBW_1337,114,2,2024-06-20T05:37:51.810Z,english_147.wav,0,1,1702,,,,,0,0,-14.37625717,1.08714974
ZBW_1337,114,2,2024-06-20T05:37:51.810Z,english_147.wav,0,1,1702,,,,,1,0.1,-48.99147792,1.05600262
ZBW_1337,114,2,2024-06-20T05:37:51.810Z,english_147.wav,0,1,1702,,,,,2,0.2,-76.025031,0.62193731
ZBW_1337,114,2,2024-06-20T05:37:51.810Z,english_147.wav,0,1,1702,,,,,3,0.3,-4.271985,1.23272935
ZBW_1337,114,2,2024-06-20T05:37:51.810Z,english_147.wav,0,1,1702,,,,,4,0.32341667,90.36670579,0.90867663
ZBW_1337,115,2,2024-06-20T05:37:51.810Z,english_461.wav,0,1,2125,,,,,0,0,-99.86661298,0.04975834
ZBW_1337,115,2,2024-06-20T05:37:51.810Z,english_461.wav,0,1,2125,,,,,1,0.1,65.11959058,1.27856071
ZBW_1337,115,2,2024-06-20T05:37:51.810Z,english_461.wav,0,1,2125,,,,,2,0.2,-96.19635976,1.53618081
ZBW_1337,115,2,2024-06-20T05:37:51.810Z,english_461.wav,0,1,2125,,,,,3,0.3,56.69155656,1.97602464
ZBW_1337,115,2,2024-06-20T05:37:51.810Z,english_461.wav,0,1,2125,,,,,4,0.32341667,-82.13106063,1.41647384
ZBW_1337,116,2,2024-06-20T05:37:51.810Z,english_664.wav,0,1,969,,,,,0,0,-76.94516773,1.88823832
ZBW_1337,116,2,2024-06-20T05:37:51.810Z,english_664.wav,0,1,969,,,,,1,0.1,-6.4858311,1.41396893
ZBW_1337,116,2,2024-06-20T05:37:51.810Z,english_664.wav,0,1,969,,,,,2,0.2,46.60528691,0.11773869
ZBW_1337,116,2,2024-06-20T05:37:51.810Z,english_664.wav,0,1,969,,,,,3,0.3,9.48323043,1.80376032
ZBW_1337,116,2,2024-06-20T05:37:51.810Z,english_664.wav,0,1,969,,,,,4,0.32341667,89.85696022,1.43209877
ZBW_1337,117,2,2024-06-20T05:37:51.810Z,english_604.wav,0,1,669,,,,,0,0,11.37360706,1.9162078
ZBW_1337,117,2,2024-06-20T05:37:51.810Z,english_604.wav,0,1,669,,,,,1,0.1,-50.20832577,0.59247461
ZBW_1337,117,2,2024-06-20T05:37:51.810Z,english_604.wav,0,1,669,,,,,2,0.2,-34.39542541,1.79911242
ZBW_1337,117,2,2024-06-20T05:37:51.810Z,english_604.wav,0,1,669,,,,,3,0.3,-9.87560088,0.998763
ZBW_1337,117,2,2024-06-20T05:37:51.810Z,english_604.wav,0,1,669,,,,,4,0.32341667,34.71454295,0.76768671
ZBW_1337,118,2,2024-06-20T05:37:51.810Z,english_459.wav,0,0,528,,,,,0,0,30.23503988,1.42205963
ZBW_1337,118,2,2024-06-20T05:37:51.810Z,english_459.wav,0,0,528,,,,,1,0.1,-58.09525271,0.13069666
ZBW_1337,118,2,2024-06-20T05:37:51.810Z,english_459.wav,0,0,528,,,,,2,0.2,22.03715272,0.55220733
ZBW_1337,118,2,2024-06-20T05:37:51.810Z,english_459.wav,0,0,528,,,,,3,0.3,-33.09468511,0.48840502
ZBW_1337,118,2,2024-06-20T05:37:51.810Z,english_459.wav,0,0,528,,,,,4,0.32341667,-9.46836848,1.08918734
ZBW_1337,119,2,2024-06-20T05:37:51.810Z,english_923.wav,0,1,697,,,,,0,0,-0.59122564,1.19594648
ZBW_1337,119,2,2024-06-20T05:37:51.810Z,english_923.wav,0,1,697,,,,,1,0.1,-5.70499959,1.05419104
ZBW_1337,119,2,2024-06-20T05:37:51.810Z,english_923.wav,0,1,697,,,,,2,0.2,-29.88927864,0.73000078
ZBW_1337,119,2,2024-06-20T05:37:51.810Z,english_923.wav,0,1,697,,,,,3,0.3,-82.02126299,1.36390543
ZBW_1337,119,2,2024-06-20T05:37:51.810Z,english_923.wav,0,1,697,,,,,4,0.32341667,16.89967319,1.13865732
ZBW_1337,120,2,2024-06-20T05:37:51.810Z,english_539.wav,0,1,467,,,,,0,0,-67.77604021,0.83598486
ZBW_1337,120,2,2024-06-20T05:37:51.810Z,english_539.wav,0,1,467,,,,,1,0.1,61.22104537,1.51877163
ZBW_1337,120,2,2024-06-20T05:37:51.810Z,english_539.wav,0,1,467,,,,,2,0.2,38.09257369,1.73578169
ZBW_1337,120,2,2024-06-20T05:37:51.810Z,english_539.wav,0,1,467,,,,,3,0.3,-20.76875757,0.52680037
ZBW_1337,120,2,2024-06-20T05:37:51.810Z,english_539.wav,0,1,467,,,,,4,0.32341667,-47.71444482,1.99278149
ZBW_1337,121,2,2024-06-20T05:37:51.810Z,english_20.wav,0,1,850,,,,,0,0,-56.6830557,0.06363068
ZBW_1337,121,2,2024-06-20T05:37:51.810Z,english_20.wav,0,1,850,,,,,1,0.1,50.66790367,1.80739158
ZBW_1337,121,2,2024-06-20T05:37:51.810Z,english_20.wav,0,1,850,,,,,2,0.2,-18.96445326,1.41045117
ZBW_1337,121,2,2024-06-20T05:37:51.810Z,english_20.wav,0,1,850,,,,,3,0.3,-25.44345058,0.2049667
ZBW_1337,121,2,2024-06-20T05:37:51.810Z,english_20.wav,0,1,850,,,,,4,0.32341667,12.75548414,0.27136646
ZBW_1337,122,2,2024-06-20T05:37:51.810Z,english_586.wav,0,1,1008,,,,,0,0,-62.23642036,1.06144709
ZBW_1337,122,2,2024-06-20T05:37:51.810Z,english_586.wav,0,1,1008,,,,,1,0.1,79.13201234,0.54207142
ZBW_1337,122,2,2024-06-20T05:37:51.810Z,english_586.wav,0,1,1008,,,,,2,0.2,-89.54923437,0.72134233
ZBW_1337,122,2,2024-06-20T05:37:51.810Z,english_586.wav,0,1,1008,,,,,3,0.3,-19.27573078,0.33417878
ZBW_1337,122,2,2024-06-20T05:37:51.810Z,english_586.wav,0,1,1008,,,,,4,0.32341667,-62.71214645,1.54129631
ZBW_1337,123,2,2024-06-20T05:37:51.810Z,english_489.wav,0,0,945,,,,,0,0,5.7057461,0.60142671
ZBW_1337,123,2,2024-06-20T05:37:51.810Z,english_489.wav,0,0,945,,,,,1,0.1,-88.87009038,1.38499056
ZBW_1337,123,2,2024-06-20T05:37:51.810Z,english_489.wav,0,0,945,,,,,2,0.2,73.69789316,0.38073994
ZBW_1337,123,2,2024-06-20T05:37:51.810Z,english_489.wav,0,0,945,,,,,3,0.3,8.66804208,0.90212706
ZBW_1337,123,2,2024-06-20T05:37:51.810Z,english_489.wav,0,0,945,,,,,4,0.32341667,-19.53009002,1.00729778
ZBW_1337,124,2,2024-06-20T05:37:51.810Z,english_134.wav,0,1,403,,,,,0,0,70.72156413,1.84700732
ZBW_1337,124,2,2024-06-20T05:37:51.810Z,english_134.wav,0,1,403,,,,,1,0.1,-64.20531103,1.20878884
ZBW_1337,124,2,2024-06-20T05:37:51.810Z,english_134.wav,0,1,403,,,,,2,0.2,35.7891913,0.51924654
ZBW_1337,124,2,2024-06-20T05:37:51.810Z,english_134.wav,0,1,403,,,,,3,0.3,-77.33475241,1.95615398
ZBW_1337,124,2,2024-06-20T05:37:51.810Z,english_134.wav,0,1,403,,,,,4,0.32341667,85.6978336,1.72102519
ZBW_1337,125,2,2024-06-20T05:37:51.810Z,english_93.wav,0,0,1314,,,,,0,0,-63.58558414,0.84265136
ZBW_1337,125,2,2024-06-20T05:37:51.810Z,english_93.wav,0,0,1314,,,,,1,0.1,47.93190562,0.45441634
ZBW_1337,125,2,2024-06-20T05:37:51.810Z,english_93.wav,0,0,1314,,,,,2,0.2,74.1463043,1.33476805
ZBW_1337,125,2,2024-06-20T05:37:51.810Z,english_93.wav,0,0,1314,,,,,3,0.3,46.42515129,0.61821532
ZBW_1337,125,2,2024-06-20T05:37:51.810Z,english_93.wav,0,0,1314,,,,,4,0.32341667,-19.17332826,1.94889868
ZBW_1337,126,2,2024-06-20T05:37:51.810Z,english_73.wav,0,1,371,,,,,0,0,-73.49165063,1.41947215
ZBW_1337,126,2,2024-06-20T05:37:51.810Z,english_73.wav,0,1,371,,,,,1,0.1,65.54847429,1.68852165
ZBW_1337,126,2,2024-06-20T05:37:51.810Z,english_73.wav,0,1,371,,,,,2,0.2,-55.11967081,0.59259525
ZBW_1337,126,2,2024-06-20T05:37:51.810Z,english_73.wav,0,1,371,,,,,3,0.3,68.77466141,0.85140805
ZBW_1337,126,2,2024-06-20T05:37:51.810Z,english_73.wav,0,1,371,,,,,4,0.32341667,-37.79888894,1.17745107
ZBW_1337,127,2,2024-06-20T05:37:51.810Z,english_617.wav,0,0,399,,,,,0,0,-99.94195333,1.17597353
ZBW_1337,127,2,2024-06-20T05:37:51.810Z,english_617.wav,0,0,399,,,,,1,0.1,-27.54289523,0.72595777
ZBW_1337,127,2,2024-06-20T05:37:51.810Z,english_617.wav,0,0,399,,,,,2,0.2,-31.48016085,0.94648609
ZBW_1337,127,2,2024-06-20T05:37:51.810Z,english_617.wav,0,0,399,,,,,3,0.3,-72.28967102,1.67485207
ZBW_1337,127,2,2024-06-20T05:37:51.810Z,english_617.wav,0,0,399,,,,,4,0.32341667,-18.83127656,0.94146903
ZBW_1337,128,2,2024-06-20T05:37:51.810Z,english_879.wav,0,0,820,,,,,0,0,-56.32485069,0.53184386
ZBW_1337,128,2,2024-06-20T05:37:51.810Z,english_879.wav,0,0,820,,,,,1,0.1,64.67592183,1.34296213
ZBW_1337,128,2,2024-06-20T05:37:51.810Z,english_879.wav,0,0,820,,,,,2,0.2,25.82204554,0.44649674
ZBW_1337,128,2,2024-06-20T05:37:51.810Z,english_879.wav,0,0,820,,,,,3,0.3,5.66794257,0.79707043
ZBW_1337,128,2,2024-06-20T05:37:51.810Z,english_879.wav,0,0,820,,,,,4,0.32341667,-31.65503708,1.19804995
ZBW_1337,129,2,2024-06-20T05:37:51.810Z,english_292.wav,0,0,988,,,,,0,0,-39.45275529,0.85174507
ZBW_1337,129,2,2024-06-20T05:37:51.810Z,english_292.wav,0,0,988,,,,,1,0.1,-35.03464337,0.73996191
ZBW_1337,129,2,2024-06-20T05:37:51.810Z,english_292.wav,0,0,988,,,,,2,0.2,31.68370279,1.42892595
ZBW_1337,129,2,2024-06-20T05:37:51.810Z,english_292.wav,0,0,988,,,,,3,0.3,-53.75991965,0.04968332
ZBW_1337,129,2,2024-06-20T05:37:51.810Z,english_292.wav,0,0,988,,,,,4,0.32341667,12.49992629,0.58931553
ZBW_1337,130,2,2024-06-20T05:37:51.810Z,english_344.wav,0,1,345,,,,,0,0,-81.18103124,1.80730522
ZBW_1337,130,2,2024-06-20T05:37:51.810Z,english_344.wav,0,1,345,,,,,1,0.1,-15.12635331,1.30606229
ZBW_1337,130,2,2024-06-20T05:37:51.810Z,english_344.wav,0,1,345,,,,,2,0.2,92.11407185,0.89739403
ZBW_1337,130,2,2024-06-20T05:37:51.810Z,english_344.wav,0,1,345,,,,,3,0.3,-26.28325028,0.17834637
ZBW_1337,130,2,2024-06-20T05:37:51.810Z,english_344.wav,0,1,345,,,,,4,0.32341667,-10.89648072,0.48618419
ZBW_1337,131,2,2024-06-20T05:37:51.810Z,english_710.wav,0,1,447,,,,,0,0,-75.8732007,1.76991952
ZBW_1337,131,2,2024-06-20T05:37:51.810Z,english_710.wav,0,1,447,,,,,1,0.1,-57.22858583,1.84377411
ZBW_1337,131,2,2024-06-20T05:37:51.810Z,english_710.wav,0,1,447,,,,,2,0.2,28.4956072,1.20069914
ZBW_1337,131,2,2024-06-20T05:37:51.810Z,english_710.wav,0,1,447,,,,,3,0.3,-96.06281818,0.06088286
ZBW_1337,131,2,2024-06-20T05:37:51.810Z,english_710.wav,0,1,447,,,,,4,0.32341667,12.57492899,1.86160088
ZBW_1337,132,2,2024-06-20T05:37:51.810Z,english_368.wav,0,0,565,,,,,0,0,-25.00542805,1.03431482
ZBW_1337,132,2,2024-06-20T05:37:51.810Z,english_368.wav,0,0,565,,,,,1,0.1,-48.20991773,0.92366821
ZBW_1337,132,2,2024-06-20T05:37:51.810Z,english_368.wav,0,0,565,,,,,2,0.2,-51.83604218,0.34019883
ZBW_1337,132,2,2024-06-20T05:37:51.810Z,english_368.wav,0,0,565,,,,,3,0.3,14.57062672,1.21184807
ZBW_1337,132,2,2024-06-20T05:37:51.810Z,english_368.wav,0,0,565,,,,,4,0.32341667,-26.77020505,0.81530657
ZBW_1337,133,2,2024-06-20T05:37:51.810Z,english_730.wav,0,0,674,,,,,0,0,12.15035978,0.91227818
ZBW_1337,133,2,2024-06-20T05:37:51.810Z,english_730.wav,0,0,674,,,,,1,0.1,-56.22765555,1.17022701
ZBW_1337,133,2,2024-06-20T05:37:51.810Z,english_730.wav,0,0,674,,,,,2,0.2,-53.26534685,0.58034143
ZBW_1337,133,2,2024-06-20T05:37:51.810Z,english_730.wav,0,0,674,,,,,3,0.3,-25.75230742,1.9562998
ZBW_1337,133,2,2024-06-20T05:37:51.810Z,english_730.wav,0,0,674,,,,,4,0.32341667,-73.04726616,1.99538846
ZBW_1337,134,2,2024-06-20T05:37:51.810Z,english_474.wav,0,1,492,,,,,0,0,42.88606971,0.87351765
ZBW_1337,134,2,2024-06-20T05:37:51.810Z,english_474.wav,0,1,492,,,,,1,0.1,6.82691085,1.08551449
ZBW_1337,134,2,2024-06-20T05:37:51.810Z,english_474.wav,0,1,492,,,,,2,0.2,-33.80031927,1.99847166
ZBW_1337,134,2,2024-06-20T05:37:51.810Z,english_474.wav,0,1,492,,,,,3,0.3,-97.18672796,0.27470298
ZBW_1337,134,2,2024-06-20T05:37:51.810Z,english_474.wav,0,1,492,,,,,4,0.32341667,-4.7462475,0.02962094
ZBW_1337,135,2,2024-06-20T05:37:51.810Z,english_396.wav,0,0,1370,,,,,0,0,2.39126912,1.48231007
ZBW_1337,135,2,2024-06-20T05:37:51.810Z,english_396.wav,0,0,1370,,,,,1,0.1,-38.95035948,0.85829723
ZBW_1337,135,2,2024-06-20T05:37:51.810Z,english_396.wav,0,0,1370,,,,,2,0.2,78.31320688,1.16655306
ZBW_1337,135,2,2024-06-20T05:37:51.810Z,english_396.wav,0,0,1370,,,,,3,0.3,16.98024706,0.51680164
ZBW_1337,135,2,2024-06-20T05:37:51.810Z,english_396.wav,0,0,1370,,,,,4,0.32341667,44.66397079,1.5133775
ZBW_1337,136,2,2024-06-20T05:37:51.810Z,english_919.wav,0,0,693,,,,,0,0,-78.03270024,1.18744007
ZBW_1337,136,2,2024-06-20T05:37:51.810Z,english_919.wav,0,0,693,,,,,1,0.1,24.9634274,0.32639994
ZBW_1337,136,2,2024-06-20T05:37:51.810Z,english_919.wav,0,0,693,,,,,2,0.2,-36.24618286,1.14830442
ZBW_1337,136,2,2024-06-20T05:37:51.810Z,english_919.wav,0,0,693,,,,,3,0.3,-67.38261266,0.75322619
ZBW_1337,136,2,2024-06-20T05:37:51.810Z,english_919.wav,0,0,693,,,,,4,0.32341667,86.21803917,0.69239757
ZBW_1337,137,2,2024-06-20T05:37:51.810Z,english_481.wav,0,0,732,,,,,0,0,-1.07793215,1.34620279
ZBW_1337,137,2,2024-06-20T05:37:51.810Z,english_481.wav,0,0,732,,,,,1,0.1,72.11929458,0.4682023
ZBW_1337,137,2,2024-06-20T05:37:51.810Z,english_481.wav,0,0,732,,,,,2,0.2,-0.36002545,1.2575358
ZBW_1337,137,2,2024-06-20T05:37:51.810Z,english_481.wav,0,0,732,,,,,3,0.3,11.70252104,1.51306824
ZBW_1337,137,2,2024-06-20T05:37:51.810Z,english_481.wav,0,0,732,,,,,4,0.32341667,-16.16595736,1.86086011
ZBW_1337,138,2,2024-06-20T05:37:51.810Z,english_817.wav,0,0,871,,,,,0,0,58.06319333,0.77394069
ZBW_1337,138,2,2024-06-20T05:37:51.810Z,english_817.wav,0,0,871,,,,,1,0.1,0.91206114,0.81778066
ZBW_1337,138,2,2024-06-20T05:37:51.810Z,english_817.wav,0,0,871,,,,,2,0.2,-27.80824757,1.48752315
ZBW_1337,138,2,2024-06-20T05:37:51.810Z,english_817.wav,0,0,871,,,,,3,0.3,-73.7491051,0.41888886
ZBW_1337,138,2,2024-06-20T05:37:51.810Z,english_817.wav,0,0,871,,,,,4,0.32341667,69.75698508,0.93012443
ZBW_1337,139,2,2024-06-20T05:37:51.810Z,english_531.wav,0,0,682,,,,,0,0,-79.40575395,0.23141906
ZBW_1337,139,2,2024-06-20T05:37:51.810Z,english_531.wav,0,0,682,,,,,1,0.1,24.69139357,1.34739197
ZBW_1337,139,2,2024-06-20T05:37:51.810Z,english_531.wav,0,0,682,,,,,2,0.2,31.85465478,0.44473315
ZBW_1337,139,2,2024-06-20T05:37:51.810Z,english_531.wav,0,0,682,,,,,3,0.3,0.37788074,1.31624907
ZBW_1337,139,2,2024-06-20T05:37:51.810Z,english_531.wav,0,0,682,,,,,4,0.32341667,-42.85922685,0.82105614
ZBW_1337,140,2,2024-06-20T05:37:51.810Z,english_502.wav,0,1,434,,,,,0,0,-23.73065935,0.0797034
ZBW_1337,140,2,2024-06-20T05:37:51.810Z,english_502.wav,0,1,434,,,,,1,0.1,2.70754613,1.83600464
ZBW_1337,140,2,2024-06-20T05:37:51.810Z,english_502.wav,0,1,434,,,,,2,0.2,25.650451,1.48948742
ZBW_1337,140,2,2024-06-20T05:37:51.810Z,english_502.wav,0,1,434,,,,,3,0.3,-49.55254658,1.22465236
ZBW_1337,140,2,2024-06-20T05:37:51.810Z,english_502.wav,0,1,434,,,,,4,0.32341667,16.82642172,1.41984075
ZBW_1337,141,2,2024-06-20T05:37:51.810Z,english_622.wav,0,0,3310,,,,,0,0,-46.49267806,1.425187
ZBW_1337,141,2,2024-06-20T05:37:51.810Z,english_622.wav,0,0,3310,,,,,1,0.1,-80.07623079,0.61910367
ZBW_1337,141,2,2024-06-20T05:37:51.810Z,english_622.wav,0,0,3310,,,,,2,0.2,-28.70131311,1.30297951
ZBW_1337,141,2,2024-06-20T05:37:51.810Z,english_622.wav,0,0,3310,,,,,3,0.3,-26.89352847,1.73248838
ZBW_1337,141,2,2024-06-20T05:37:51.810Z,english_622.wav,0,0,3310,,,,,4,0.32341667,-24.31243398,0.85523545
ZBW_1337,142,2,2024-06-20T05:37:51.810Z,english_739.wav,0,0,1963,,,,,0,0,-30.44662447,1.4086692
ZBW_1337,142,2,2024-06-20T05:37:51.810Z,english_739.wav,0,0,1963,,,,,1,0.1,-27.69908881,0.95518545
ZBW_1337,142,2,2024-06-20T05:37:51.810Z,english_739.wav,0,0,1963,,,,,2,0.2,25.08576745,1.0815723
ZBW_1337,142,2,2024-06-20T05:37:51.810Z,english_739.wav,0,0,1963,,,,,3,0.3,-20.92476775,0.08724184
ZBW_1337,142,2,2024-06-20T05:37:51.810Z,english_739.wav,0,0,1963,,,,,4,0.32341667,-46.92266257,1.12979104
ZBW_1337,143,2,2024-06-20T05:37:51.810Z,english_541.wav,0,0,743,,,,,0,0,-20.13323906,0.51383156
ZBW_1337,143,2,2024-06-20T05:37:51.810Z,english_541.wav,0,0,743,,,,,1,0.1,2.48768759,0.65082056
ZBW_1337,143,2,2024-06-20T05:37:51.810Z,english_541.wav,0,0,743,,,,,2,0.2,-86.20966861,0.48716137
ZBW_1337,143,2,2024-06-20T05:37:51.810Z,english_541.wav,0,0,743,,,,,3,0.3,59.01445297,0.54905673
ZBW_1337,143,2,2024-06-20T05:37:51.810Z,english_541.wav,0,0,743,,,,,4,0.32341667,61.23853539,1.76268899
ZBW_1337,144,2,2024-06-20T05:37:51.810Z,english_736.wav,0,1,241,,,,,0,0,44.94907169,1.40223879
ZBW_1337,144,2,2024-06-20T05:37:51.810Z,english_736.wav,0,1,241,,,,,1,0.1,-89.05982676,1.76358699
ZBW_1337,144,2,2024-06-20T05:37:51.810Z,english_736.wav,0,1,241,,,,,2,0.2,27.88925208,0.99111008
ZBW_1337,144,2,2024-06-20T05:37:51.810Z,english_736.wav,0,1,241,,,,,3,0.3,77.01163693,1.90426439
ZBW_1337,144,2,2024-06-20T05:37:51.810Z,english_736.wav,0,1,241,,,,,4,0.32341667,-28.23601136,1.97036362
ZBW_1337,145,2,2024-06-20T05:37:51.810Z,english_50.wav,0,1,1684,,,,,0,0,-72.72872807,1.68140442
ZBW_1337,145,2,2024-06-20T05:37:51.810Z,english_50.wav,0,1,1684,,,,,1,0.1,-88.33626222,1.82728433
ZBW_1337,145,2,2024-06-20T05:37:51.810Z,english_50.wav,0,1,1684,,,,,2,0.2,-2.18882928,0.80476824
ZBW_1337,145,2,2024-06-20T05:37:51.810Z,english_50.wav,0,1,1684,,,,,3,0.3,60.61456424,0.21215651
ZBW_1337,145,2,2024-06-20T05:37:51.810Z,english_50.wav,0,1,1684,,,,,4,0.32341667,95.28335061,1.87644163
ZBW_1337,146,2,2024-06-20T05:37:51.810Z,english_515.wav,0,0,819,,,,,0,0,-51.44071002,1.17100165
ZBW_1337,146,2,2024-06-20T05:37:51.810Z,english_515.wav,0,0,819,,,,,1,0.1,-54.80209221,0.37535268
ZBW_1337,146,2,2024-06-20T05:37:51.810Z,english_515.wav,0,0,819,,,,,2,0.2,64.47174239,1.31079719
ZBW_1337,146,2,2024-06-20T05:37:51.810Z,english_515.wav,0,0,819,,,,,3,0.3,-10.56071982,1.40472496
ZBW_1337,146,2,2024-06-20T05:37:51.810Z,english_515.wav,0,0,819,,,,,4,0.32341667,-39.86348554,0.6392892
ZBW_1337,147,2,2024-06-20T05:37:51.810Z,english_239.wav,0,0,710,,,,,0,0,87.44943986,1.42022081
ZBW_1337,147,2,2024-06-20T05:37:51.810Z,english_239.wav,0,0,710,,,,,1,0.1,50.09814929,0.64261102
ZBW_1337,147,2,2024-06-20T05:37:51.810Z,english_239.wav,0,0,710,,,,,2,0.2,-20.91132269,0.17156284
ZBW_1337,147,2,2024-06-20T05:37:51.810Z,english_239.wav,0,0,710,,,,,3,0.3,1.56869958,1.89365974
ZBW_1337,147,2,2024-06-20T05:37:51.810Z,english_239.wav,0,0,710,,,,,4,0.32341667,15.23790706,1.86939691
ZBW_1337,148,2,2024-06-20T05:37:51.810Z,english_230.wav,0,0,887,,,,,0,0,59.01519707,0.66464778
ZBW_1337,148,2,2024-06-20T05:37:51.810Z,english_230.wav,0,0,887,,,,,1,0.1,-74.67447784,1.09498554
ZBW_1337,148,2,2024-06-20T05:37:51.810Z,english_230.wav,0,0,887,,,,,2,0.2,78.11378701,0.24708562
ZBW_1337,148,2,2024-06-20T05:37:51.810Z,english_230.wav,0,0,887,,,,,3,0.3,26.79367619,1.40152246
ZBW_1337,148,2,2024-06-20T05:37:51.810Z,english_230.wav,0,0,887,,,,,4,0.32341667,29.92451654,1.02203861
ZBW_1337,149,2,2024-06-20T05:37:51.810Z,english_225.wav,0,1,228,,,,,0,0,66.72796839,1.97535322
ZBW_1337,149,2,2024-06-20T05:37:51.810Z,english_225.wav,0,1,228,,,,,1,0.1,3.03768966,1.18784527
ZBW_1337,149,2,2024-06-20T05:37:51.810Z,english_225.wav,0,1,228,,,,,2,0.2,-45.96345052,1.58393351
ZBW_1337,149,2,2024-06-20T05:37:51.810Z,english_225.wav,0,1,228,,,,,3,0.3,-88.14676012,1.17885171
ZBW_1337,149,2,2024-06-20T05:37:51.810Z,english_225.wav,0,1,228,,,,,4,0.32341667,46.76760659,1.387907
ZBW_1337,150,3,2024-06-20T05:37:51.810Z,english_845.wav,0,0,617,,,,,0,0,-39.21264236,0.82761504
ZBW_1337,150,3,2024-06-20T05:37:51.810Z,english_845.wav,0,0,617,,,,,1,0.1,99.78041888,0.53375751
ZBW_1337,150,3,2024-06-20T05:37:51.810Z,english_845.wav,0,0,617,,,,,2,0.2,-59.29104422,1.24236426
ZBW_1337,150,3,2024-06-20T05:37:51.810Z,english_845.wav,0,0,617,,,,,3,0.3,57.0409613,1.27736464
ZBW_1337,150,3,2024-06-20T05:37:51.810Z,english_845.wav,0,0,617,,,,,4,0.32341667,-93.6361214,0.79024728
ZBW_1337,151,3,2024-06-20T05:37:51.810Z,english_1000.wav,0,0,605,,,,,0,0,27.35321797,1.01803417
ZBW_1337,151,3,2024-06-20T05:37:51.810Z,english_1000.wav,0,0,605,,,,,1,0.1,42.13438871,0.4558176
ZBW_1337,151,3,2024-06-20T05:37:51.810Z,english_1000.wav,0,0,605,,,,,2,0.2,95.34760893,0.52251179
ZBW_1337,151,3,2024-06-20T05:37:51.810Z,english_1000.wav,0,0,605,,,,,3,0.3,-34.10168873,0.90165507
ZBW_1337,151,3,2024-06-20T05:37:51.810Z,english_1000.wav,0,0,605,,,,,4,0.32341667,64.49689477,0.38395199
ZBW_1337,152,3,2024-06-20T05:37:51.810Z,english_78.wav,0,1,523,,,,,0,0,57.57509383,0.85738581
ZBW_1337,152,3,2024-06-20T05:37:51.810Z,english_78.wav,0,1,523,,,,,1,0.1,8.37611797,1.59375359
ZBW_1337,152,3,2024-06-20T05:37:51.810Z,english_78.wav,0,1,523,,,,,2,0.2,-42.8518908,1.65756647
ZBW_1337,152,3,2024-06-20T05:37:51.810Z,english_78.wav,0,1,523,,,,,3,0.3,26.19415986,0.53011742
ZBW_1337,152,3,2024-06-20T05:37:51.810Z,english_78.wav,0,1,523,,,,,4,0.32341667,65.52498429,1.5323802
ZBW_1337,153,3,2024-06-20T05:37:51.810Z,english_543.wav,0,0,1327,,,,,0,0,13.74009622,0.63900578
ZBW_1337,153,3,2024-06-20T05:37:51.810Z,english_543.wav,0,0,1327,,,,,1,0.1,51.80972721,1.6206981
ZBW_1337,153,3,2024-06-20T05:37:51.810Z,english_543.wav,0,0,1327,,,,,2,0.2,86.3964352,0.03304675
ZBW_1337,153,3,2024-06-20T05:37:51.810Z,english_543.wav,0,0,1327,,,,,3,0.3,-66.39783761,1.7049324
ZBW_1337,153,3,2024-06-20T05:37:51.810Z,english_543.wav,0,0,1327,,,,,4,0.32341667,31.11863834,1.46507556
ZBW_1337,154,3,2024-06-20T05:37:51.810Z,english_468.wav,0,0,1479,,,,,0,0,-33.82586043,0.35164089
ZBW_1337,154,3,2024-06-20T05:37:51.810Z,english_468.wav,0,0,1479,,,,,1,0.1,-42.55840131,0.20114733
ZBW_1337,154,3,2024-06-20T05:37:51.810Z,english_468.wav,0,0,1479,,,,,2,0.2,-36.6492295,1.40729654
ZBW_1337,154,3,2024-06-20T05:37:51.810Z,english_468.wav,0,0,1479,,,,,3,0.3,39.91321296,0.04300573
ZBW_1337,154,3,2024-06-20T05:37:51.810Z,english_468.wav,0,0,1479,,,,,4,0.32341667,54.14936319,1.79642733
ZBW_1337,155,3,2024-06-20T05:37:51.810Z,english_947.wav,0,1,411,,,,,0,0,73.13113362,0.1925557
ZBW_1337,155,3,2024-06-20T05:37:51.810Z,english_947.wav,0,1,411,,,,,1,0.1,-55.13077299,1.89478059
ZBW_1337,155,3,2024-06-20T05:37:51.810Z,english_947.wav,0,1,411,,,,,2,0.2,59.32217849,0.99662771
ZBW_1337,155,3,2024-06-20T05:37:51.810Z,english_947.wav,0,1,411,,,,,3,0.3,-71.25946194,0.61263341
ZBW_1337,155,3,2024-06-20T05:37:51.810Z,english_947.wav,0,1,411,,,,,4,0.32341667,39.2274254,0.46373334
ZBW_1337,156,3,2024-06-20T05:37:51.810Z,english_974.wav,0,1,692,,,,,0,0,29.63575745,0.7371821
ZBW_1337,156,3,2024-06-20T05:37:51.810Z,english_974.wav,0,1,692,,,,,1,0.1,-49.63946334,1.15838362
ZBW_1337,156,3,2024-06-20T05:37:51.810Z,english_974.wav,0,1,692,,,,,2,0.2,87.75163431,1.66312363
ZBW_1337,156,3,2024-06-20T05:37:51.810Z,english_974.wav,0,1,692,,,,,3,0.3,-62.39844007,0.85783748
ZBW_1337,156,3,2024-06-20T05:37:51.810Z,english_974.wav,0,1,692,,,,,4,0.32341667,-98.5513891,1.53033297
ZBW_1337,157,3,2024-06-20T05:37:51.810Z,english_745.wav,0,0,2281,,,,,0,0,-57.64472866,1.88925258
ZBW_1337,157,3,2024-06-20T05:37:51.810Z,english_745.wav,0,0,2281,,,,,1,0.1,-14.80975681,0.26333653
ZBW_1337,157,3,2024-06-20T05:37:51.810Z,english_745.wav,0,0,2281,,,,,2,0.2,44.46939178,1.01945351
ZBW_1337,157,3,2024-06-20T05:37:51.810Z,english_745.wav,0,0,2281,,,,,3,0.3,56.80280999,0.00901457
ZBW_1337,157,3,2024-06-20T05:37:51.810Z,english_745.wav,0,0,2281,,,,,4,0.32341667,-16.53068296,0.38778228
ZBW_1337,158,3,2024-06-20T05:37:51.810Z,english_574.wav,0,0,2154,,,,,0,0,53.128433,0.28349694
ZBW_1337,158,3,2024-06-20T05:37:51.810Z,english_574.wav,0,0,2154,,,,,1,0.1,70.24248151,0.66519348
ZBW_1337,158,3,2024-06-20T05:37:51.810Z,english_574.wav,0,0,2154,,,,,2,0.2,47.13290739,1.25768036
ZBW_1337,158,3,2024-06-20T05:37:51.810Z,english_574.wav,0,0,2154,,,,,3,0.3,52.31480293,1.43482954
ZBW_1337,158,3,2024-06-20T05:37:51.810Z,english_574.wav,0,0,2154,,,,,4,0.32341667,-33.06438127,1.23350688
ZBW_1337,159,3,2024-06-20T05:37:51.810Z,english_856.wav,0,1,482,,,,,0,0,-44.08940674,1.51880133
ZBW_1337,159,3,2024-06-20T05:37:51.810Z,english_856.wav,0,1,482,,,,,1,0.1,-25.77644107,0.99524475
ZBW_1337,159,3,2024-06-20T05:37:51.810Z,english_856.wav,0,1,482,,,,,2,0.2,6.39263247,1.11391415
ZBW_1337,159,3,2024-06-20T05:37:51.810Z,english_856.wav,0,1,482,,,,,3,0.3,92.67536145,0.95575529
ZBW_1337,159,3,2024-06-20T05:37:51.810Z,english_856.wav,0,1,482,,,,,4,0.32341667,45.15991817,1.02944292
ZBW_1337,160,3,2024-06-20T05:37:51.810Z,english_251.wav,0,1,504,,,,,0,0,-35.26640223,1.59441442
ZBW_1337,160,3,2024-06-20T05:37:51.810Z,english_251.wav,0,1,504,,,,,1,0.1,-82.14936791,1.21410308
ZBW_1337,160,3,2024-06-20T05:37:51.810Z,english_251.wav,0,1,504,,,,,2,0.2,39.53587687,0.89125894
ZBW_1337,160,3,2024-06-20T05:37:51.810Z,english_251.wav,0,1,504,,,,,3,0.3,-75.44024907,0.14763688
ZBW_1337,160,3,2024-06-20T05:37:51.810Z,english_251.wav,0,1,504,,,,,4,0.32341667,26.94148116,1.71797298
ZBW_1337,161,3,2024-06-20T05:37:51.810Z,english_496.wav,0,1,418,,,,,0,0,-50.36729616,1.24588939
ZBW_1337,161,3,2024-06-20T05:37:51.810Z,english_496.wav,0,1,418,,,,,1,0.1,43.15166092,1.651593
ZBW_1337,161,3,2024-06-20T05:37:51.810Z,english_496.wav,0,1,418,,,,,2,0.2,-89.08132341,0.94120535
ZBW_1337,161,3,2024-06-20T05:37:51.810Z,english_496.wav,0,1,418,,,,,3,0.3,-31.93753525,0.55989053
ZBW_1337,161,3,2024-06-20T05:37:51.810Z,english_496.wav,0,1,418,,,,,4,0.32341667,-79.66514086,1.95233748
ZBW_1337,162,3,2024-06-20T05:37:51.810Z,english_423.wav,0,1,470,,,,,0,0,48.83941012,1.35290702
ZBW_1337,162,3,2024-06-20T05:37:51.810Z,english_423.wav,0,1,470,,,,,1,0.1,26.57948938,1.33919202
ZBW_1337,162,3,2024-06-20T05:37:51.810Z,english_423.wav,0,1,470,,,,,2,0.2,56.70545245,1.37149513
ZBW_1337,162,3,2024-06-20T05:37:51.810Z,english_423.wav,0,1,470,,,,,3,0.3,-62.41131033,1.11357765
ZBW_1337,162,3,2024-06-20T05:37:51.810Z,english_423.wav,0,1,470,,,,,4,0.32341667,78.49803502,1.20699722
ZBW_1337,163,3,2024-06-20T05:37:51.810Z,english_82.wav,0,1,890,,,,,0,0,-21.02351082,0.76668052
ZBW_1337,163,3,2024-06-20T05:37:51.810Z,english_82.wav,0,1,890,,,,,1,0.1,1.53612588,0.94640395
ZBW_1337,163,3,2024-06-20T05:37:51.810Z,english_82.wav,0,1,890,,,,,2,0.2,82.9198569,1.02754902
ZBW_1337,163,3,2024-06-20T05:37:51.810Z,english_82.wav,0,1,890,,,,,3,0.3,67.34737065,1.57368428
ZBW_1337,163,3,2024-06-20T05:37:51.810Z,english_82.wav,0,1,890,,,,,4,0.32341667,-34.9418752,0.67195212
ZBW_1337,164,3,2024-06-20T05:37:51.810Z,english_719.wav,0,1,1094,,,,,0,0,-32.14306232,1.4431753
ZBW_1337,164,3,2024-06-20T05:37:51.810Z,english_719.wav,0,1,1094,,,,,1,0.1,-81.40439332,0.46175707
ZBW_1337,164,3,2024-06-20T05:37:51.810Z,english_719.wav,0,1,1094,,,,,2,0.2,-20.1172293,1.86886769
ZBW_1337,164,3,2024-06-20T05:37:51.810Z,english_719.wav,0,1,1094,,,,,3,0.3,67.63048238,0.67969247
ZBW_1337,164,3,2024-06-20T05:37:51.810Z,english_719.wav,0,1,1094,,,,,4,0.32341667,50.83305788,1.68151983
ZBW_1337,165,3,2024-06-20T05:37:51.810Z,english_129.wav,0,1,607,,,,,0,0,80.17800931,1.16690044
ZBW_1337,165,3,2024-06-20T05:37:51.810Z,english_129.wav,0,1,607,,,,,1,0.1,6.7929614,1.89220933
ZBW_1337,165,3,2024-06-20T05:37:51.810Z,english_129.wav,0,1,607,,,,,2,0.2,51.03188375,1.40122633
ZBW_1337,165,3,2024-06-20T05:37:51.810Z,english_129.wav,0,1,607,,,,,3,0.3,-14.28174581,0.72131347
ZBW_1337,165,3,2024-06-20T05:37:51.810Z,english_129.wav,0,1,607,,,,,4,0.32341667,32.60771632,1.30692003
ZBW_1337,166,3,2024-06-20T05:37:51.810Z,english_71.wav,0,1,393,,,,,0,0,-89.06637534,0.37218892
ZBW_1337,166,3,2024-06-20T05:37:51.810Z,english_71.wav,0,1,393,,,,,1,0.1,-28.638437,1.29479557
ZBW_1337,166,3,2024-06-20T05:37:51.810Z,english_71.wav,0,1,393,,,,,2,0.2,-8.31899436,1.34818575
ZBW_1337,166,3,2024-06-20T05:37:51.810Z,english_71.wav,0,1,393,,,,,3,0.3,67.7820648,1.24266832
ZBW_1337,166,3,2024-06-20T05:37:51.810Z,english_71.wav,0,1,393,,,,,4,0.32341667,4.09606073,1.38884894
ZBW_1337,167,3,2024-06-20T05:37:51.810Z,english_522.wav,0,0,494,,,,,0,0,11.68148217,0.44643579
ZBW_1337,167,3,2024-06-20T05:37:51.810Z,english_522.wav,0,0,494,,,,,1,0.1,-74.55265788,0.16885459
ZBW_1337,167,3,2024-06-20T05:37:51.810Z,english_522.wav,0,0,494,,,,,2,0.2,95.15954448,1.67161326
ZBW_1337,167,3,2024-06-20T05:37:51.810Z,english_522.wav,0,0,494,,,,,3,0.3,-17.14209769,0.53349848
ZBW_1337,167,3,2024-06-20T05:37:51.810Z,english_522.wav,0,0,494,,,,,4,0.32341667,-35.38302731,0.4645726
ZBW_1337,168,3,2024-06-20T05:37:51.810Z,english_808.wav,0,1,329,,,,,0,0,23.02589628,1.07384277
ZBW_1337,168,3,2024-06-20T05:37:51.810Z,english_808.wav,0,1,329,,,,,1,0.1,10.58817829,1.3919179
ZBW_1337,168,3,2024-06-20T05:37:51.810Z,english_808.wav,0,1,329,,,,,2,0.2,36.77134597,0.54960524
ZBW_1337,168,3,2024-06-20T05:37:51.810Z,english_808.wav,0,1,329,,,,,3,0.3,-30.31603221,1.95871365
ZBW_1337,168,3,2024-06-20T05:37:51.810Z,english_808.wav,0,1,329,,,,,4,0.32341667,9.74764343,0.79150541
ZBW_1337,169,3,2024-06-20T05:37:51.810Z,english_111.wav,0,0,457,,,,,0,0,43.12539807,1.84745579
ZBW_1337,169,3,2024-06-20T05:37:51.810Z,english_111.wav,0,0,457,,,,,1,0.1,63.99665526,0.92577031
ZBW_1337,169,3,2024-06-20T05:37:51.810Z,english_111.wav,0,0,457,,,,,2,0.2,86.04570556,0.31264784
ZBW_1337,169,3,2024-06-20T05:37:51.810Z,english_111.wav,0,0,457,,,,,3,0.3,-25.76798659,0.89352032
ZBW_1337,169,3,2024-06-20T05:37:51.810Z,english_111.wav,0,0,457,,,,,4,0.32341667,-36.14422463,0.32138535
ZBW_1337,170,3,2024-06-20T05:37:51.810Z,english_713.wav,0,1,635,,,,,0,0,18.77281956,1.04868626
ZBW_1337,170,3,2024-06-20T05:37:51.810Z,english_713.wav,0,1,635,,,,,1,0.1,40.78610286,0.48332939
ZBW_1337,170,3,2024-06-20T05:37:51.810Z,english_713.wav,0,1,635,,,,,2,0.2,84.18153491,0.83217717
ZBW_1337,170,3,2024-06-20T05:37:51.810Z,english_713.wav,0,1,635,,,,,3,0.3,47.00827256,1.90318663
ZBW_1337,170,3,2024-06-20T05:37:51.810Z,english_713.wav,0,1,635,,,,,4,0.32341667,66.01008384,0.50055362
ZBW_1337,171,3,2024-06-20T05:37:51.810Z,english_354.wav,0,0,340,,,,,0,0,-63.97501145,0.52067601
ZBW_1337,171,3,2024-06-20T05:37:51.810Z,english_354.wav,0,0,340,,,,,1,0.1,-43.11314734,0.59903392
ZBW_1337,171,3,2024-06-20T05:37:51.810Z,english_354.wav,0,0,340,,,,,2,0.2,10.53928595,0.9992363
ZBW_1337,171,3,2024-06-20T05:37:51.810Z,english_354.wav,0,0,340,,,,,3,0.3,-23.15258088,1.16142831
ZBW_1337,171,3,2024-06-20T05:37:51.810Z,english_354.wav,0,0,340,,,,,4,0.32341667,3.22925066,0.37639432
ZBW_1337,172,3,2024-06-20T05:37:51.810Z,english_695.wav,0,0,521,,,,,0,0,-74.02191529,1.19534619
ZBW_1337,172,3,2024-06-20T05:37:51.810Z,english_695.wav,0,0,521,,,,,1,0.1,54.28596986,0.93917139
ZBW_1337,172,3,2024-06-20T05:37:51.810Z,english_695.wav,0,0,521,,,,,2,0.2,-13.22196683,0.1241488
ZBW_1337,172,3,2024-06-20T05:37:51.810Z,english_695.wav,0,0,521,,,,,3,0.3,1.82272444,1.20091234
ZBW_1337,172,3,2024-06-20T05:37:51.810Z,english_695.wav,0,0,521,,,,,4,0.32341667,-11.74905262,0.46222147
ZBW_1337,173,3,2024-06-20T05:37:51.810Z,english_935.wav,0,0,1418,,,,,0,0,64.39543101,0.53440609
ZBW_1337,173,3,2024-06-20T05:37:51.810Z,english_935.wav,0,0,1418,,,,,1,0.1,86.95314533,0.5847186
ZBW_1337,173,3,2024-06-20T05:37:51.810Z,english_935.wav,0,0,1418,,,,,2,0.2,-18.93400703,0.87093815
ZBW_1337,173,3,2024-06-20T05:37:51.810Z,english_935.wav,0,0,1418,,,,,3,0.3,36.25821345,1.35336039
ZBW_1337,173,3,2024-06-20T05:37:51.810Z,english_935.wav,0,0,1418,,,,,4,0.32341667,-52.75689815,1.46825192
ZBW_1337,174,3,2024-06-20T05:37:51.810Z,english_597.wav,0,1,591,,,,,0,0,-83.66792118,0.17389721
ZBW_1337,174,3,2024-06-20T05:37:51.810Z,english_597.wav,0,1,591,,,,,1,0.1,-19.98744657,0.39349672
ZBW_1337,174,3,2024-06-20T05:37:51.810Z,english_597.wav,0,1,591,,,,,2,0.2,-30.38458549,1.97590818
ZBW_1337,174,3,2024-06-20T05:37:51.810Z,english_597.wav,0,1,591,,,,,3,0.3,-63.4406446,1.84988074
ZBW_1337,174,3,2024-06-20T05:37:51.810Z,english_597.wav,0,1,591,,,,,4,0.32341667,25.67812426,1.17620678
ZBW_1337,175,3,2024-06-20T05:37:51.810Z,english_19.wav,0,1,1607,,,,,0,0,51.84788699,0.3981759
ZBW_1337,175,3,2024-06-20T05:37:51.810Z,english_19.wav,0,1,1607,,,,,1,0.1,59.68091475,1.61217409
ZBW_1337,175,3,2024-06-20T05:37:51.810Z,english_19.wav,0,1,1607,,,,,2,0.2,-27.71167756,0.35158216
ZBW_1337,175,3,2024-06-20T05:37:51.810Z,english_19.wav,0,1,1607,,,,,3,0.3,-29.56443604,0.8770992
ZBW_1337,175,3,2024-06-20T05:37:51.810Z,english_19.wav,0,1,1607,,,,,4,0.32341667,-58.55228515,0.51670124
ZBW_1337,176,3,2024-06-20T05:37:51.810Z,english_616.wav,0,1,414,,,,,0,0,-71.12360497,0.83412473
ZBW_1337,176,3,2024-06-20T05:37:51.810Z,english_616.wav,0,1,414,,,,,1,0.1,55.35355355,1.49185731
ZBW_1337,176,3,2024-06-20T05:37:51.810Z,english_616.wav,0,1,414,,,,,2,0.2,-15.85026512,1.32170209
ZBW_1337,176,3,2024-06-20T05:37:51.810Z,english_616.wav,0,1,414,,,,,3,0.3,-22.60587367,0.90458331
ZBW_1337,176,3,2024-06-20T05:37:51.810Z,english_616.wav,0,1,414,,,,,4,0.32341667,-45.64131884,1.17134835
ZBW_1337,177,3,2024-06-20T05:37:51.810Z,english_88.wav,0,0,502,,,,,0,0,26.55889683,1.3027014
ZBW_1337,177,3,2024-06-20T05:37:51.810Z,english_88.wav,0,0,502,,,,,1,0.1,31.00356365,0.67122251
ZBW_1337,177,3,2024-06-20T05:37:51.810Z,english_88.wav,0,0,502,,,,,2,0.2,-60.56468942,0.59704477
ZBW_1337,177,3,2024-06-20T05:37:51.810Z,english_88.wav,0,0,502,,,,,3,0.3,-56.53017227,1.68194373
ZBW_1337,177,3,2024-06-20T05:37:51.810Z,english_88.wav,0,0,502,,,,,4,0.32341667,-78.90279024,0.42277005
ZBW_1337,178,3,2024-06-20T05:37:51.810Z,english_380.wav,0,0,533,,,,,0,0,-44.61260121,1.04167661
ZBW_1337,178,3,2024-06-20T05:37:51.810Z,english_380.wav,0,0,533,,,,,1,0.1,-47.89967478,0.43386817
ZBW_1337,178,3,2024-06-20T05:37:51.810Z,english_380.wav,0,0,533,,,,,2,0.2,34.91352544,0.93219588
ZBW_1337,178,3,2024-06-20T05:37:51.810Z,english_380.wav,0,0,533,,,,,3,0.3,-71.89465654,0.8109376
ZBW_1337,178,3,2024-06-20T05:37:51.810Z,english_380.wav,0,0,533,,,,,4,0.32341667,84.67713906,0.64473949
ZBW_1337,179,3,2024-06-20T05:37:51.810Z,english_976.wav,0,1,434,,,,,0,0,-92.49082032,0.30893725
ZBW_1337,179,3,2024-06-20T05:37:51.810Z,english_976.wav,0,1,434,,,,,1,0.1,92.01562452,1.54393752
ZBW_1337,179,3,2024-06-20T05:37:51.810Z,english_976.wav,0,1,434,,,,,2,0.2,-80.55764576,1.31466429
ZBW_1337,179,3,2024-06-20T05:37:51.810Z,english_976.wav,0,1,434,,,,,3,0.3,-70.09009567,1.88171095
ZBW_1337,179,3,2024-06-20T05:37:51.810Z,english_976.wav,0,1,434,,,,,4,0.32341667,-7.5394989,1.71314556
ZBW_1337,180,3,2024-06-20T05:37:51.810Z,english_40.wav,0,0,665,,,,,0,0,20.98315678,0.33544846
ZBW_1337,180,3,2024-06-20T05:37:51.810Z,english_40.wav,0,0,665,,,,,1,0.1,80.64974175,0.81764939
ZBW_1337,180,3,2024-06-20T05:37:51.810Z,english_40.wav,0,0,665,,,,,2,0.2,5.38930518,0.17548883
ZBW_1337,180,3,2024-06-20T05:37:51.810Z,english_40.wav,0,0,665,,,,,3,0.3,18.83593916,0.83674413
ZBW_1337,180,3,2024-06-20T05:37:51.810Z,english_40.wav,0,0,665,,,,,4,0.32341667,-14.62145671,0.80890384
ZBW_1337,181,3,2024-06-20T05:37:51.810Z,english_124.wav,0,1,285,,,,,0,0,-16.92140416,1.25482105
ZBW_1337,181,3,2024-06-20T05:37:51.810Z,english_124.wav,0,1,285,,,,,1,0.1,97.41289205,1.97830042
ZBW_1337,181,3,2024-06-20T05:37:51.810Z,english_124.wav,0,1,285,,,,,2,0.2,-78.49167412,1.09846955
ZBW_1337,181,3,2024-06-20T05:37:51.810Z,english_124.wav,0,1,285,,,,,3,0.3,-3.48618202,0.36540564
ZBW_1337,181,3,2024-06-20T05:37:51.810Z,english_124.wav,0,1,285,,,,,4,0.32341667,5.32047068,0.96325389
ZBW_1337,182,3,2024-06-20T05:37:51.810Z,english_981.wav,0,1,370,,,,,0,0,-19.49446297,1.96452006
ZBW_1337,182,3,2024-06-20T05:37:51.810Z,english_981.wav,0,1,370,,,,,1,0.1,-69.0386812,1.2006287
ZBW_1337,182,3,2024-06-20T05:37:51.810Z,english_981.wav,0,1,370,,,,,2,0.2,-25.77088537,0.98600753
ZBW_1337,182,3,2024-06-20T05:37:51.810Z,english_981.wav,0,1,370,,,,,3,0.3,65.67633712,0.21362544
ZBW_1337,182,3,2024-06-20T05:37:51.810Z,english_981.wav,0,1,370,,,,,4,0.32341667,-6.1640169,0.33780549
ZBW_1337,183,3,2024-06-20T05:37:51.810Z,english_184.wav,0,1,229,,,,,0,0,29.65201825,1.69567788
ZBW_1337,183,3,2024-06-20T05:37:51.810Z,english_184.wav,0,1,229,,,,,1,0.1,16.48348791,1.26735627
ZBW_1337,183,3,2024-06-20T05:37:51.810Z,english_184.wav,0,1,229,,,,,2,0.2,3.77448983,0.95352895
ZBW_1337,183,3,2024-06-20T05:37:51.810Z,english_184.wav,0,1,229,,,,,3,0.3,62.87502431,1.7991474
ZBW_1337,183,3,2024-06-20T05:37:51.810Z,english_184.wav,0,1,229,,,,,4,0.32341667,-8.82418577,0.98992659
ZBW_1337,184,3,2024-06-20T05:37:51.810Z,english_221.wav,0,1,247,,,,,0,0,85.84184869,1.38100565
ZBW_1337,184,3,2024-06-20T05:37:51.810Z,english_221.wav,0,1,247,,,,,1,0.1,-20.37513589,0.79531516
ZBW_1337,184,3,2024-06-20T05:37:51.810Z,english_221.wav,0,1,247,,,,,2,0.2,-89.75984637,0.9538446
ZBW_1337,184,3,2024-06-20T05:37:51.810Z,english_221.wav,0,1,247,,,,,3,0.3,50.66879934,1.56492426
ZBW_1337,184,3,2024-06-20T05:37:51.810Z,english_221.wav,0,1,247,,,,,4,0.32341667,20.92538743,1.60855456
ZBW_1337,185,3,2024-06-20T05:37:51.810Z,english_62.wav,0,1,383,,,,,0,0,17.28527913,1.12530616
ZBW_1337,185,3,2024-06-20T05:37:51.810Z,english_62.wav,0,1,383,,,,,1,0.1,8.63936001,1.09357984
ZBW_1337,185,3,2024-06-20T05:37:51.810Z,english_62.wav,0,1,383,,,,,2,0.2,-69.0074729,1.07648496
ZBW_1337,185,3,2024-06-20T05:37:51.810Z,english_62.wav,0,1,383,,,,,3,0.3,-18.85502465,0.36768209
ZBW_1337,185,3,2024-06-20T05:37:51.810Z,english_62.wav,0,1,383,,,,,4,0.32341667,59.46739627,0.39033463
ZBW_1337,186,3,2024-06-20T05:37:51.810Z,english_797.wav,0,1,607,,,,,0,0,-10.77604935,1.75152448
ZBW_1337,186,3,2024-06-20T05:37:51.810Z,english_797.wav,0,1,607,,,,,1,0.1,76.52998448,0.25625033
ZBW_1337,186,3,2024-06-20T05:37:51.810Z,english_797.wav,0,1,607,,,,,2,0.2,-52.30950648,1.63910521
ZBW_1337,186,3,2024-06-20T05:37:51.810Z,english_797.wav,0,1,607,,,,,3,0.3,-19.27189704,1.44412191
ZBW_1337,186,3,2024-06-20T05:37:51.810Z,english_797.wav,0,1,607,,,,,4,0.32341667,-68.52312916,1.41513857
ZBW_1337,187,3,2024-06-20T05:37:51.810Z,english_138.wav,0,0,392,,,,,0,0,-79.80620147,0.37063564
ZBW_1337,187,3,2024-06-20T05:37:51.810Z,english_138.wav,0,0,392,,,,,1,0.1,-15.42889109,0.81801141
ZBW_1337,187,3,2024-06-20T05:37:51.810Z,english_138.wav,0,0,392,,,,,2,0.2,-88.31677226,0.0634538
ZBW_1337,187,3,2024-06-20T05:37:51.810Z,english_138.wav,0,0,392,,,,,3,0.3,26.6486106,1.85131452
ZBW_1337,187,3,2024-06-20T05:37:51.810Z,english_138.wav,0,0,392,,,,,4,0.32341667,-42.18894711,1.66059024
ZBW_1337,188,3,2024-06-20T05:37:51.810Z,english_180.wav,0,1,778,,,,,0,0,-79.96502932,0.84610218
ZBW_1337,188,3,2024-06-20T05:37:51.810Z,english_180.wav,0,1,778,,,,,1,0.1,33.21752916,1.88919334
ZBW_1337,188,3,2024-06-20T05:37:51.810Z,english_180.wav,0,1,778,,,,,2,0.2,-97.52705813,0.18699196
ZBW_1337,188,3,2024-06-20T05:37:51.810Z,english_180.wav,0,1,778,,,,,3,0.3,42.51331828,0.0366283
ZBW_1337,188,3,2024-06-20T05:37:51.810Z,english_180.wav,0,1,778,,,,,4,0.32341667,-42.98571984,0.95813987
ZBW_1337,189,3,2024-06-20T05:37:51.810Z,english_75.wav,0,1,294,,,,,0,0,-9.18091647,0.92930856
ZBW_1337,189,3,2024-06-20T05:37:51.810Z,english_75.wav,0,1,294,,,,,1,0.1,-62.02164907,1.94000482
ZBW_1337,189,3,2024-06-20T05:37:51.810Z,english_75.wav,0,1,294,,,,,2,0.2,-12.90623207,1.2183621
ZBW_1337,189,3,2024-06-20T05:37:51.810Z,english_75.wav,0,1,294,,,,,3,0.3,15.17089036,0.47349695
ZBW_1337,189,3,2024-06-20T05:37:51.810Z,english_75.wav,0,1,294,,,,,4,0.32341667,10.89352922,1.02561006
ZBW_1337,190,3,2024-06-20T05:37:51.810Z,english_880.wav,0,1,398,,,,,0,0,3.17154152,0.81183988
ZBW_1337,190,3,2024-06-20T05:37:51.810Z,english_880.wav,0,1,398,,,,,1,0.1,-74.02271749,1.44061269
ZBW_1337,190,3,2024-06-20T05:37:51.810Z,english_880.wav,0,1,398,,,,,2,0.2,46.15952764,0.42884863
ZBW_1337,190,3,2024-06-20T05:37:51.810Z,english_880.wav,0,1,398,,,,,3,0.3,4.14106927,1.93838261
ZBW_1337,190,3,2024-06-20T05:37:51.810Z,english_880.wav,0,1,398,,,,,4,0.32341667,26.36707366,1.4503687
ZBW_1337,191,3,2024-06-20T05:37:51.810Z,english_377.wav,0,1,292,,,,,0,0,74.10679581,1.90218841
ZBW_1337,191,3,2024-06-20T05:37:51.810Z,english_377.wav,0,1,292,,,,,1,0.1,-97.36412995,1.60160035
ZBW_1337,191,3,2024-06-20T05:37:51.810Z,english_377.wav,0,1,292,,,,,2,0.2,-84.25672888,1.668912
ZBW_1337,191,3,2024-06-20T05:37:51.810Z,english_377.wav,0,1,292,,,,,3,0.3,27.09308902,1.51590505
ZBW_1337,191,3,2024-06-20T05:37:51.810Z,english_377.wav,0,1,292,,,,,4,0.32341667,-12.33253686,0.99909344
ZBW_1337,192,3,2024-06-20T05:37:51.810Z,english_737.wav,0,1,480,,,,,0,0,21.35751723,1.17499048
ZBW_1337,192,3,2024-06-20T05:37:51.810Z,english_737.wav,0,1,480,,,,,1,0.1,61.52152077,1.09581395
ZBW_1337,192,3,2024-06-20T05:37:51.810Z,english_737.wav,0,1,480,,,,,2,0.2,-29.75610596,0.62940412
ZBW_1337,192,3,2024-06-20T05:37:51.810Z,english_737.wav,0,1,480,,,,,3,0.3,-39.80249708,0.11793022
ZBW_1337,192,3,2024-06-20T05:37:51.810Z,english_737.wav,0,1,480,,,,,4,0.32341667,-14.64937497,0.62377861
ZBW_1337,193,3,2024-06-20T05:37:51.810Z,english_307.wav,0,1,714,,,,,0,0,-38.93106299,1.91951228
ZBW_1337,193,3,2024-06-20T05:37:51.810Z,english_307.wav,0,1,714,,,,,1,0.1,-30.40144858,0.50419792
ZBW_1337,193,3,2024-06-20T05:37:51.810Z,english_307.wav,0,1,714,,,,,2,0.2,2.19081651,0.76602689
ZBW_1337,193,3,2024-06-20T05:37:51.810Z,english_307.wav,0,1,714,,,,,3,0.3,30.82741361,0.59904457
ZBW_1337,193,3,2024-06-20T05:37:51.810Z,english_307.wav,0,1,714,,,,,4,0.32341667,46.9007513,1.94941235
ZBW_1337,194,3,2024-06-20T05:37:51.810Z,english_975.wav,0,1,455,,,,,0,0,30.76275893,1.75032315
ZBW_1337,194,3,2024-06-20T05:37:51.810Z,english_975.wav,0,1,455,,,,,1,0.1,-18.30184736,1.1766706
ZBW_1337,194,3,2024-06-20T05:37:51.810Z,english_975.wav,0,1,455,,,,,2,0.2,88.92209311,0.11148121
ZBW_1337,194,3,2024-06-20T05:37:51.810Z,english_975.wav,0,1,455,,,,,3,0.3,-15.78836893,1.00992181
ZBW_1337,194,3,2024-06-20T05:37:51.810Z,english_975.wav,0,1,455,,,,,4,0.32341667,81.69873146,1.08252971
ZBW_1337,195,3,2024-06-20T05:37:51.810Z,english_775.wav,0,1,987,,,,,0,0,58.00753923,1.75560269
ZBW_1337,195,3,2024-06-20T05:37:51.810Z,english_775.wav,0,1,987,,,,,1,0.1,88.61433734,0.86519841
ZBW_1337,195,3,2024-06-20T05:37:51.810Z,english_775.wav,0,1,987,,,,,2,0.2,97.9031651,0.93867241
ZBW_1337,195,3,2024-06-20T05:37:51.810Z,english_775.wav,0,1,987,,,,,3,0.3,14.61974867,1.86901891
ZBW_1337,195,3,2024-06-20T05:37:51.810Z,english_775.wav,0,1,987,,,,,4,0.32341667,-5.44703254,0.0946911
ZBW_1337,196,3,2024-06-20T05:37:51.810Z,english_681.wav,0,0,508,,,,,0,0,65.45313908,1.43173201
ZBW_1337,196,3,2024-06-20T05:37:51.810Z,english_681.wav,0,0,508,,,,,1,0.1,23.22224239,1.64604346
ZBW_1337,196,3,2024-06-20T05:37:51.810Z,english_681.wav,0,0,508,,,,,2,0.2,44.35096717,0.82186037
ZBW_1337,196,3,2024-06-20T05:37:51.810Z,english_681.wav,0,0,508,,,,,3,0.3,67.45757963,0.26689352
ZBW_1337,196,3,2024-06-20T05:37:51.810Z,english_681.wav,0,0,508,,,,,4,0.32341667,55.5822091,1.64490636
ZBW_1337,197,3,2024-06-20T05:37:51.810Z,english_83.wav,0,0,774,,,,,0,0,98.86804112,0.82381457
ZBW_1337,197,3,2024-06-20T05:37:51.810Z,english_83.wav,0,0,774,,,,,1,0.1,-37.42051535,1.26275754
ZBW_1337,197,3,2024-06-20T05:37:51.810Z,english_83.wav,0,0,774,,,,,2,0.2,23.85234946,0.74836396
ZBW_1337,197,3,2024-06-20T05:37:51.810Z,english_83.wav,0,0,774,,,,,3,0.3,28.05435803,0.41584898
ZBW_1337,197,3,2024-06-20T05:37:51.810Z,english_83.wav,0,0,774,,,,,4,0.32341667,2.44147447,1.88336536
ZBW_1337,198,3,2024-06-20T05:37:51.810Z,english_428.wav,0,1,718,,,,,0,0,-98.34466569,1.83106884
ZBW_1337,198,3,2024-06-20T05:37:51.810Z,english_428.wav,0,1,718,,,,,1,0.1,-10.51162175,1.34345266
ZBW_1337,198,3,2024-06-20T05:37:51.810Z,english_428.wav,0,1,718,,,,,2,0.2,97.93427859,0.65853672
ZBW_1337,198,3,2024-06-20T05:37:51.810Z,english_428.wav,0,1,718,,,,,3,0.3,35.61870537,1.28105878
ZBW_1337,198,3,2024-06-20T05:37:51.810Z,english_428.wav,0,1,718,,,,,4,0.32341667,-12.49352836,0.15324236
ZBW_1337,199,3,2024-06-20T05:37:51.810Z,english_628.wav,0,1,489,,,,,0,0,-19.71295886,0.8960583
ZBW_1337,199,3,2024-06-20T05:37:51.810Z,english_628.wav,0,1,489,,,,,1,0.1,-79.294697,1.61949508
ZBW_1337,199,3,2024-06-20T05:37:51.810Z,english_628.wav,0,1,489,,,,,2,0.2,-59.93256946,0.65483299
ZBW_1337,199,3,2024-06-20T05:37:51.810Z,english_628.wav,0,1,489,,,,,3,0.3,-18.46863719,0.12001531
ZBW_1337,199,3,2024-06-20T05:37:51.810Z,english_628.wav,0,1,489,,,,,4,0.32341667,53.30350975,0.85308449
ZBW_1337,200,4,2024-06-20T05:37:51.810Z,english_341.wav,0,0,542,,,,,0,0,-3.29192029,0.92007635
ZBW_1337,200,4,2024-06-20T05:37:51.810Z,english_341.wav,0,0,542,,,,,1,0.1,-63.07334109,0.76766635
ZBW_1337,200,4,2024-06-20T05:37:51.810Z,english_341.wav,0,0,542,,,,,2,0.2,-52.81319379,0.00478881
ZBW_1337,200,4,2024-06-20T05:37:51.810Z,english_341.wav,0,0,542,,,,,3,0.3,47.65296252,0.69804387
ZBW_1337,200,4,2024-06-20T05:37:51.810Z,english_341.wav,0,0,542,,,,,4,0.32341667,-2.67842738,0.15231077
ZBW_1337,201,4,2024-06-20T05:37:51.810Z,english_192.wav,0,1,270,,,,,0,0,78.04280759,0.73118961
ZBW_1337,201,4,2024-06-20T05:37:51.810Z,english_192.wav,0,1,270,,,,,1,0.1,-85.52188616,0.7164391
ZBW_1337,201,4,2024-06-20T05:37:51.810Z,english_192.wav,0,1,270,,,,,2,0.2,-14.2601202,1.68273927
ZBW_1337,201,4,2024-06-20T05:37:51.810Z,english_192.wav,0,1,270,,,,,3,0.3,29.76504865,0.51501418
ZBW_1337,201,4,2024-06-20T05:37:51.810Z,english_192.wav,0,1,270,,,,,4,0.32341667,82.81048791,1.16986294
ZBW_1337,202,4,2024-06-20T05:37:51.810Z,english_970.wav,0,1,527,,,,,0,0,37.22911191,0.60712849
ZBW_1337,202,4,2024-06-20T05:37:51.810Z,english_970.wav,0,1,527,,,,,1,0.1,36.57191813,1.26781741
ZBW_1337,202,4,2024-06-20T05:37:51.810Z,english_970.wav,0,1,527,,,,,2,0.2,20.2344678,1.29373459
ZBW_1337,202,4,2024-06-20T05:37:51.810Z,english_970.wav,0,1,527,,,,,3,0.3,-86.31030026,0.18112256
ZBW_1337,202,4,2024-06-20T05:37:51.810Z,english_970.wav,0,1,527,,,,,4,0.32341667,-83.96880691,1.07780169
ZBW_1337,203,4,2024-06-20T05:37:51.810Z,english_536.wav,0,1,480,,,,,0,0,19.16157828,1.0914138
ZBW_1337,203,4,2024-06-20T05:37:51.810Z,english_536.wav,0,1,480,,,,,1,0.1,-70.44875328,1.55996729
ZBW_1337,203,4,2024-06-20T05:37:51.810Z,english_536.wav,0,1,480,,,,,2,0.2,9.3844651,1.22014226
ZBW_1337,203,4,2024-06-20T05:37:51.810Z,english_536.wav,0,1,480,,,,,3,0.3,54.79833109,0.24268308
ZBW_1337,203,4,2024-06-20T05:37:51.810Z,english_536.wav,0,1,480,,,,,4,0.32341667,-43.58683919,1.12643869
ZBW_1337,204,4,2024-06-20T05:37:51.810Z,english_801.wav,0,1,1326,,,,,0,0,66.50571345,0.19311528
