subj,trial,block,date,stim,stim_order,response,rt,age,english,language,sex,param_index,segment,pitch,stretch
LJL_2040,0,0,2024-06-17T12:40:11.252Z,english_887.wav,0,0,5152,,,,,0,0,21.36154006,0.58574694
LJL_2040,0,0,2024-06-17T12:40:11.252Z,english_887.wav,0,0,5152,,,,,1,0.1,-21.46213737,0.48413962
LJL_2040,0,0,2024-06-17T12:40:11.252Z,english_887.wav,0,0,5152,,,,,2,0.2,-45.53850124,1.16923549
LJL_2040,0,0,2024-06-17T12:40:11.252Z,english_887.wav,0,0,5152,,,,,3,0.3,-75.36110743,1.46190157
LJL_2040,0,0,2024-06-17T12:40:11.252Z,english_887.wav,0,0,5152,,,,,4,0.32341667,-96.67184991,0.00789239
LJL_2040,1,0,2024-06-17T12:40:11.252Z,english_710.wav,0,1,1675,,,,,0,0,-75.8732007,1.76991952
LJL_2040,1,0,2024-06-17T12:40:11.252Z,english_710.wav,0,1,1675,,,,,1,0.1,-57.22858583,1.84377411
LJL_2040,1,0,2024-06-17T12:40:11.252Z,english_710.wav,0,1,1675,,,,,2,0.2,28.4956072,1.20069914
LJL_2040,1,0,2024-06-17T12:40:11.252Z,english_710.wav,0,1,1675,,,,,3,0.3,-96.06281818,0.06088286
LJL_2040,1,0,2024-06-17T12:40:11.252Z,english_710.wav,0,1,1675,,,,,4,0.32341667,12.57492899,1.86160088
LJL_2040,2,0,2024-06-17T12:40:11.252Z,english_792.wav,0,0,2911,,,,,0,0,-56.39949456,1.32676777
LJL_2040,2,0,2024-06-17T12:40:11.252Z,english_792.wav,0,0,2911,,,,,1,0.1,-76.36067248,1.08004851
LJL_2040,2,0,2024-06-17T12:40:11.252Z,english_792.wav,0,0,2911,,,,,2,0.2,-58.44160547,1.5809308
LJL_2040,2,0,2024-06-17T12:40:11.252Z,english_792.wav,0,0,2911,,,,,3,0.3,25.29086486,0.16508433
LJL_2040,2,0,2024-06-17T12:40:11.252Z,english_792.wav,0,0,2911,,,,,4,0.32341667,-6.58788169,1.18870574
LJL_2040,3,0,2024-06-17T12:40:11.252Z,english_317.wav,0,1,1051,,,,,0,0,-26.75650792,1.75672771
LJL_2040,3,0,2024-06-17T12:40:11.252Z,english_317.wav,0,1,1051,,,,,1,0.1,9.07297032,1.82949168
LJL_2040,3,0,2024-06-17T12:40:11.252Z,english_317.wav,0,1,1051,,,,,2,0.2,17.58512652,1.6954519
LJL_2040,3,0,2024-06-17T12:40:11.252Z,english_317.wav,0,1,1051,,,,,3,0.3,29.57201507,0.7122411
LJL_2040,3,0,2024-06-17T12:40:11.252Z,english_317.wav,0,1,1051,,,,,4,0.32341667,56.4667582,1.26753728
LJL_2040,4,0,2024-06-17T12:40:11.252Z,english_520.wav,0,0,1344,,,,,0,0,86.3711843,1.94117834
LJL_2040,4,0,2024-06-17T12:40:11.252Z,english_520.wav,0,0,1344,,,,,1,0.1,30.73905166,1.71866566
LJL_2040,4,0,2024-06-17T12:40:11.252Z,english_520.wav,0,0,1344,,,,,2,0.2,6.06230503,1.15295637
LJL_2040,4,0,2024-06-17T12:40:11.252Z,english_520.wav,0,0,1344,,,,,3,0.3,-72.93527416,0.80072648
LJL_2040,4,0,2024-06-17T12:40:11.252Z,english_520.wav,0,0,1344,,,,,4,0.32341667,40.17700679,1.71054199
LJL_2040,5,0,2024-06-17T12:43:28.001Z,english_244.wav,0,0,1553,,,,,0,0,-70.20374383,1.65134166
LJL_2040,5,0,2024-06-17T12:43:28.001Z,english_244.wav,0,0,1553,,,,,1,0.1,67.84882107,1.23738837
LJL_2040,5,0,2024-06-17T12:43:28.001Z,english_244.wav,0,0,1553,,,,,2,0.2,0.61676271,0.90147553
LJL_2040,5,0,2024-06-17T12:43:28.001Z,english_244.wav,0,0,1553,,,,,3,0.3,-96.58934439,1.79293216
LJL_2040,5,0,2024-06-17T12:43:28.001Z,english_244.wav,0,0,1553,,,,,4,0.32341667,-77.46985837,1.15013727
LJL_2040,6,0,2024-06-17T12:43:28.001Z,english_755.wav,0,1,1165,,,,,0,0,-15.85533995,0.06987403
LJL_2040,6,0,2024-06-17T12:43:28.001Z,english_755.wav,0,1,1165,,,,,1,0.1,-97.95934782,0.83204773
LJL_2040,6,0,2024-06-17T12:43:28.001Z,english_755.wav,0,1,1165,,,,,2,0.2,-5.14559719,1.06816443
LJL_2040,6,0,2024-06-17T12:43:28.001Z,english_755.wav,0,1,1165,,,,,3,0.3,32.74087849,1.42856986
LJL_2040,6,0,2024-06-17T12:43:28.001Z,english_755.wav,0,1,1165,,,,,4,0.32341667,-56.93437429,0.58130438
LJL_2040,7,0,2024-06-17T12:43:28.001Z,english_533.wav,0,1,1033,,,,,0,0,-10.36570298,0.10013008
LJL_2040,7,0,2024-06-17T12:43:28.001Z,english_533.wav,0,1,1033,,,,,1,0.1,-67.04420928,1.73583104
LJL_2040,7,0,2024-06-17T12:43:28.001Z,english_533.wav,0,1,1033,,,,,2,0.2,-31.24691396,1.00550506
LJL_2040,7,0,2024-06-17T12:43:28.001Z,english_533.wav,0,1,1033,,,,,3,0.3,-22.73912087,1.21009828
LJL_2040,7,0,2024-06-17T12:43:28.001Z,english_533.wav,0,1,1033,,,,,4,0.32341667,-4.63915005,1.69946188
LJL_2040,8,0,2024-06-17T12:43:28.001Z,english_491.wav,0,0,601,,,,,0,0,-58.06424917,1.23740358
LJL_2040,8,0,2024-06-17T12:43:28.001Z,english_491.wav,0,0,601,,,,,1,0.1,-10.73132445,0.97891215
LJL_2040,8,0,2024-06-17T12:43:28.001Z,english_491.wav,0,0,601,,,,,2,0.2,17.9230478,0.17588849
LJL_2040,8,0,2024-06-17T12:43:28.001Z,english_491.wav,0,0,601,,,,,3,0.3,-41.27614743,0.52166982
LJL_2040,8,0,2024-06-17T12:43:28.001Z,english_491.wav,0,0,601,,,,,4,0.32341667,-30.17832464,1.65640468
LJL_2040,9,0,2024-06-17T12:43:28.001Z,english_921.wav,0,1,571,,,,,0,0,60.93482672,0.06624465
LJL_2040,9,0,2024-06-17T12:43:28.001Z,english_921.wav,0,1,571,,,,,1,0.1,-71.63665921,1.88925143
LJL_2040,9,0,2024-06-17T12:43:28.001Z,english_921.wav,0,1,571,,,,,2,0.2,-30.77028929,0.40013084
LJL_2040,9,0,2024-06-17T12:43:28.001Z,english_921.wav,0,1,571,,,,,3,0.3,-44.68164597,1.26601564
LJL_2040,9,0,2024-06-17T12:43:28.001Z,english_921.wav,0,1,571,,,,,4,0.32341667,34.59415858,1.98956357
LJL_2040,10,0,2024-06-17T12:43:28.001Z,english_256.wav,0,1,1373,,,,,0,0,22.60769813,1.84037168
LJL_2040,10,0,2024-06-17T12:43:28.001Z,english_256.wav,0,1,1373,,,,,1,0.1,-95.01444593,0.47687766
LJL_2040,10,0,2024-06-17T12:43:28.001Z,english_256.wav,0,1,1373,,,,,2,0.2,-19.91310746,0.85339151
LJL_2040,10,0,2024-06-17T12:43:28.001Z,english_256.wav,0,1,1373,,,,,3,0.3,-6.39209363,0.75097161
LJL_2040,10,0,2024-06-17T12:43:28.001Z,english_256.wav,0,1,1373,,,,,4,0.32341667,24.02209282,1.98695073
LJL_2040,11,0,2024-06-17T12:43:28.001Z,english_654.wav,0,1,701,,,,,0,0,-97.13147194,0.91673578
LJL_2040,11,0,2024-06-17T12:43:28.001Z,english_654.wav,0,1,701,,,,,1,0.1,-81.37819023,1.23280851
LJL_2040,11,0,2024-06-17T12:43:28.001Z,english_654.wav,0,1,701,,,,,2,0.2,51.48571278,1.64688363
LJL_2040,11,0,2024-06-17T12:43:28.001Z,english_654.wav,0,1,701,,,,,3,0.3,54.00949099,1.75994168
LJL_2040,11,0,2024-06-17T12:43:28.001Z,english_654.wav,0,1,701,,,,,4,0.32341667,-95.1633683,0.20104411
LJL_2040,12,0,2024-06-17T12:43:28.001Z,english_530.wav,0,0,531,,,,,0,0,21.55057906,0.25130805
LJL_2040,12,0,2024-06-17T12:43:28.001Z,english_530.wav,0,0,531,,,,,1,0.1,-20.17265513,0.96020899
LJL_2040,12,0,2024-06-17T12:43:28.001Z,english_530.wav,0,0,531,,,,,2,0.2,-52.07974762,1.55252741
LJL_2040,12,0,2024-06-17T12:43:28.001Z,english_530.wav,0,0,531,,,,,3,0.3,87.36384387,1.19622655
LJL_2040,12,0,2024-06-17T12:43:28.001Z,english_530.wav,0,0,531,,,,,4,0.32341667,-72.92256984,0.75880724
LJL_2040,13,0,2024-06-17T12:43:28.001Z,english_657.wav,0,0,1015,,,,,0,0,30.03208284,1.42095662
LJL_2040,13,0,2024-06-17T12:43:28.001Z,english_657.wav,0,0,1015,,,,,1,0.1,-5.57127058,1.29790323
LJL_2040,13,0,2024-06-17T12:43:28.001Z,english_657.wav,0,0,1015,,,,,2,0.2,9.55793083,0.51612643
LJL_2040,13,0,2024-06-17T12:43:28.001Z,english_657.wav,0,0,1015,,,,,3,0.3,3.39766504,0.37671101
LJL_2040,13,0,2024-06-17T12:43:28.001Z,english_657.wav,0,0,1015,,,,,4,0.32341667,84.38659916,1.20124021
LJL_2040,14,0,2024-06-17T12:43:28.001Z,english_458.wav,0,0,751,,,,,0,0,-49.69821038,0.39452057
LJL_2040,14,0,2024-06-17T12:43:28.001Z,english_458.wav,0,0,751,,,,,1,0.1,-49.80647014,1.24604375
LJL_2040,14,0,2024-06-17T12:43:28.001Z,english_458.wav,0,0,751,,,,,2,0.2,11.98261521,0.42272405
LJL_2040,14,0,2024-06-17T12:43:28.001Z,english_458.wav,0,0,751,,,,,3,0.3,59.43319096,0.21259233
LJL_2040,14,0,2024-06-17T12:43:28.001Z,english_458.wav,0,0,751,,,,,4,0.32341667,-34.5671642,1.13235362
LJL_2040,15,0,2024-06-17T12:43:28.001Z,english_652.wav,0,0,671,,,,,0,0,4.27736911,0.30427218
LJL_2040,15,0,2024-06-17T12:43:28.001Z,english_652.wav,0,0,671,,,,,1,0.1,18.79087972,0.67520162
LJL_2040,15,0,2024-06-17T12:43:28.001Z,english_652.wav,0,0,671,,,,,2,0.2,61.32163128,0.66270689
LJL_2040,15,0,2024-06-17T12:43:28.001Z,english_652.wav,0,0,671,,,,,3,0.3,45.76092148,0.93987847
LJL_2040,15,0,2024-06-17T12:43:28.001Z,english_652.wav,0,0,671,,,,,4,0.32341667,-45.08671386,1.10617978
LJL_2040,16,0,2024-06-17T12:43:28.001Z,english_194.wav,0,1,511,,,,,0,0,46.99725025,0.38230397
LJL_2040,16,0,2024-06-17T12:43:28.001Z,english_194.wav,0,1,511,,,,,1,0.1,-37.20381284,1.33246395
LJL_2040,16,0,2024-06-17T12:43:28.001Z,english_194.wav,0,1,511,,,,,2,0.2,13.86947558,1.31276464
LJL_2040,16,0,2024-06-17T12:43:28.001Z,english_194.wav,0,1,511,,,,,3,0.3,79.77232086,0.22397005
LJL_2040,16,0,2024-06-17T12:43:28.001Z,english_194.wav,0,1,511,,,,,4,0.32341667,49.46244041,1.74931967
LJL_2040,17,0,2024-06-17T12:43:28.001Z,english_446.wav,0,1,1927,,,,,0,0,-50.90487531,0.84721497
LJL_2040,17,0,2024-06-17T12:43:28.001Z,english_446.wav,0,1,1927,,,,,1,0.1,77.9515464,0.90863808
LJL_2040,17,0,2024-06-17T12:43:28.001Z,english_446.wav,0,1,1927,,,,,2,0.2,12.96913102,0.45582271
LJL_2040,17,0,2024-06-17T12:43:28.001Z,english_446.wav,0,1,1927,,,,,3,0.3,31.20275809,0.65529325
LJL_2040,17,0,2024-06-17T12:43:28.001Z,english_446.wav,0,1,1927,,,,,4,0.32341667,-30.39700356,0.08422993
LJL_2040,18,0,2024-06-17T12:43:28.001Z,english_249.wav,0,1,633,,,,,0,0,78.40227579,1.91339694
LJL_2040,18,0,2024-06-17T12:43:28.001Z,english_249.wav,0,1,633,,,,,1,0.1,-55.1129652,1.00834957
LJL_2040,18,0,2024-06-17T12:43:28.001Z,english_249.wav,0,1,633,,,,,2,0.2,6.74447168,0.29418026
LJL_2040,18,0,2024-06-17T12:43:28.001Z,english_249.wav,0,1,633,,,,,3,0.3,27.3376716,1.53256547
LJL_2040,18,0,2024-06-17T12:43:28.001Z,english_249.wav,0,1,633,,,,,4,0.32341667,-97.08031886,0.99264532
LJL_2040,19,0,2024-06-17T12:43:28.001Z,english_674.wav,0,1,751,,,,,0,0,-38.60253285,0.25488683
LJL_2040,19,0,2024-06-17T12:43:28.001Z,english_674.wav,0,1,751,,,,,1,0.1,46.14948962,1.80679583
LJL_2040,19,0,2024-06-17T12:43:28.001Z,english_674.wav,0,1,751,,,,,2,0.2,-49.76414787,1.59420413
LJL_2040,19,0,2024-06-17T12:43:28.001Z,english_674.wav,0,1,751,,,,,3,0.3,-66.16492387,1.25714797
LJL_2040,19,0,2024-06-17T12:43:28.001Z,english_674.wav,0,1,751,,,,,4,0.32341667,28.37583826,1.20557216
LJL_2040,20,0,2024-06-17T12:43:28.001Z,english_549.wav,0,0,396,,,,,0,0,80.71270499,0.69011393
LJL_2040,20,0,2024-06-17T12:43:28.001Z,english_549.wav,0,0,396,,,,,1,0.1,-71.31396277,1.1141308
LJL_2040,20,0,2024-06-17T12:43:28.001Z,english_549.wav,0,0,396,,,,,2,0.2,48.34518996,0.72072674
LJL_2040,20,0,2024-06-17T12:43:28.001Z,english_549.wav,0,0,396,,,,,3,0.3,-66.07502609,0.60045359
LJL_2040,20,0,2024-06-17T12:43:28.001Z,english_549.wav,0,0,396,,,,,4,0.32341667,-52.28087662,0.77200176
LJL_2040,21,0,2024-06-17T12:43:28.001Z,english_295.wav,0,1,805,,,,,0,0,-76.51454746,1.12273409
LJL_2040,21,0,2024-06-17T12:43:28.001Z,english_295.wav,0,1,805,,,,,1,0.1,-96.9380047,0.2018376
LJL_2040,21,0,2024-06-17T12:43:28.001Z,english_295.wav,0,1,805,,,,,2,0.2,-72.79782389,1.81703153
LJL_2040,21,0,2024-06-17T12:43:28.001Z,english_295.wav,0,1,805,,,,,3,0.3,-31.86888898,0.31799467
LJL_2040,21,0,2024-06-17T12:43:28.001Z,english_295.wav,0,1,805,,,,,4,0.32341667,-51.47839766,0.71777059
LJL_2040,22,0,2024-06-17T12:43:28.001Z,english_390.wav,0,1,559,,,,,0,0,-50.40750922,1.41643644
LJL_2040,22,0,2024-06-17T12:43:28.001Z,english_390.wav,0,1,559,,,,,1,0.1,-38.67641955,0.84399933
LJL_2040,22,0,2024-06-17T12:43:28.001Z,english_390.wav,0,1,559,,,,,2,0.2,-37.03459725,1.67796426
LJL_2040,22,0,2024-06-17T12:43:28.001Z,english_390.wav,0,1,559,,,,,3,0.3,-24.07335547,0.43781117
LJL_2040,22,0,2024-06-17T12:43:28.001Z,english_390.wav,0,1,559,,,,,4,0.32341667,75.09366884,0.01225463
LJL_2040,23,0,2024-06-17T12:43:28.001Z,english_768.wav,0,0,691,,,,,0,0,-28.93145359,1.5002074
LJL_2040,23,0,2024-06-17T12:43:28.001Z,english_768.wav,0,0,691,,,,,1,0.1,59.49166151,1.15432208
LJL_2040,23,0,2024-06-17T12:43:28.001Z,english_768.wav,0,0,691,,,,,2,0.2,41.87955621,0.01731471
LJL_2040,23,0,2024-06-17T12:43:28.001Z,english_768.wav,0,0,691,,,,,3,0.3,-92.17589111,0.98337229
LJL_2040,23,0,2024-06-17T12:43:28.001Z,english_768.wav,0,0,691,,,,,4,0.32341667,15.2364545,0.4381055
LJL_2040,24,0,2024-06-17T12:43:28.001Z,english_727.wav,0,1,337,,,,,0,0,86.20347479,1.33530257
LJL_2040,24,0,2024-06-17T12:43:28.001Z,english_727.wav,0,1,337,,,,,1,0.1,12.26210304,1.85547333
LJL_2040,24,0,2024-06-17T12:43:28.001Z,english_727.wav,0,1,337,,,,,2,0.2,5.59218777,1.19683436
LJL_2040,24,0,2024-06-17T12:43:28.001Z,english_727.wav,0,1,337,,,,,3,0.3,-46.39280156,1.89207751
LJL_2040,24,0,2024-06-17T12:43:28.001Z,english_727.wav,0,1,337,,,,,4,0.32341667,21.79775503,1.05019022
LJL_2040,25,0,2024-06-17T12:43:28.001Z,english_532.wav,0,0,505,,,,,0,0,-19.59321792,1.69826346
LJL_2040,25,0,2024-06-17T12:43:28.001Z,english_532.wav,0,0,505,,,,,1,0.1,84.44945775,1.19849103
LJL_2040,25,0,2024-06-17T12:43:28.001Z,english_532.wav,0,0,505,,,,,2,0.2,-5.6477907,0.05164805
LJL_2040,25,0,2024-06-17T12:43:28.001Z,english_532.wav,0,0,505,,,,,3,0.3,-66.11375502,0.74129516
LJL_2040,25,0,2024-06-17T12:43:28.001Z,english_532.wav,0,0,505,,,,,4,0.32341667,-46.16722618,0.11393119
LJL_2040,26,0,2024-06-17T12:43:28.001Z,english_432.wav,0,1,435,,,,,0,0,34.04923955,0.51661687
LJL_2040,26,0,2024-06-17T12:43:28.001Z,english_432.wav,0,1,435,,,,,1,0.1,-20.16773507,0.2259012
LJL_2040,26,0,2024-06-17T12:43:28.001Z,english_432.wav,0,1,435,,,,,2,0.2,58.06800811,1.98214485
LJL_2040,26,0,2024-06-17T12:43:28.001Z,english_432.wav,0,1,435,,,,,3,0.3,46.82268278,1.23025235
LJL_2040,26,0,2024-06-17T12:43:28.001Z,english_432.wav,0,1,435,,,,,4,0.32341667,16.04458546,1.72803009
LJL_2040,27,0,2024-06-17T12:43:28.001Z,english_957.wav,0,1,375,,,,,0,0,-8.34255742,0.77577071
LJL_2040,27,0,2024-06-17T12:43:28.001Z,english_957.wav,0,1,375,,,,,1,0.1,-36.8236739,1.35435363
LJL_2040,27,0,2024-06-17T12:43:28.001Z,english_957.wav,0,1,375,,,,,2,0.2,6.68978896,0.94592229
LJL_2040,27,0,2024-06-17T12:43:28.001Z,english_957.wav,0,1,375,,,,,3,0.3,-85.51463088,0.8988777
LJL_2040,27,0,2024-06-17T12:43:28.001Z,english_957.wav,0,1,375,,,,,4,0.32341667,-16.82289389,0.34403417
LJL_2040,28,0,2024-06-17T12:43:28.001Z,english_476.wav,0,1,3771,,,,,0,0,67.27413703,1.71507594
LJL_2040,28,0,2024-06-17T12:43:28.001Z,english_476.wav,0,1,3771,,,,,1,0.1,-35.99891676,1.5691203
LJL_2040,28,0,2024-06-17T12:43:28.001Z,english_476.wav,0,1,3771,,,,,2,0.2,53.1347651,0.1869461
LJL_2040,28,0,2024-06-17T12:43:28.001Z,english_476.wav,0,1,3771,,,,,3,0.3,-27.53585108,0.94822926
LJL_2040,28,0,2024-06-17T12:43:28.001Z,english_476.wav,0,1,3771,,,,,4,0.32341667,13.88563074,1.63186757
LJL_2040,29,0,2024-06-17T12:43:28.001Z,english_895.wav,0,1,415,,,,,0,0,-36.05432491,1.57991636
LJL_2040,29,0,2024-06-17T12:43:28.001Z,english_895.wav,0,1,415,,,,,1,0.1,0.27991529,1.29141926
LJL_2040,29,0,2024-06-17T12:43:28.001Z,english_895.wav,0,1,415,,,,,2,0.2,-68.50060493,0.78617821
LJL_2040,29,0,2024-06-17T12:43:28.001Z,english_895.wav,0,1,415,,,,,3,0.3,-65.34452755,0.53071912
LJL_2040,29,0,2024-06-17T12:43:28.001Z,english_895.wav,0,1,415,,,,,4,0.32341667,44.30205494,1.44568828
LJL_2040,30,0,2024-06-17T12:43:28.001Z,english_744.wav,0,0,465,,,,,0,0,43.39686976,0.75505854
LJL_2040,30,0,2024-06-17T12:43:28.001Z,english_744.wav,0,0,465,,,,,1,0.1,-61.67573043,1.01311725
LJL_2040,30,0,2024-06-17T12:43:28.001Z,english_744.wav,0,0,465,,,,,2,0.2,0.51873183,0.73457108
LJL_2040,30,0,2024-06-17T12:43:28.001Z,english_744.wav,0,0,465,,,,,3,0.3,12.88130512,0.90154102
LJL_2040,30,0,2024-06-17T12:43:28.001Z,english_744.wav,0,0,465,,,,,4,0.32341667,57.31714449,1.01338509
LJL_2040,31,0,2024-06-17T12:43:28.001Z,english_588.wav,0,0,613,,,,,0,0,99.95047602,0.54608042
LJL_2040,31,0,2024-06-17T12:43:28.001Z,english_588.wav,0,0,613,,,,,1,0.1,6.8401109,0.86340392
LJL_2040,31,0,2024-06-17T12:43:28.001Z,english_588.wav,0,0,613,,,,,2,0.2,-15.9093749,0.01522231
LJL_2040,31,0,2024-06-17T12:43:28.001Z,english_588.wav,0,0,613,,,,,3,0.3,-95.80500507,0.86017392
LJL_2040,31,0,2024-06-17T12:43:28.001Z,english_588.wav,0,0,613,,,,,4,0.32341667,23.59255786,0.36914066
LJL_2040,32,0,2024-06-17T12:43:28.001Z,english_55.wav,0,1,1341,,,,,0,0,71.89255128,0.24931264
LJL_2040,32,0,2024-06-17T12:43:28.001Z,english_55.wav,0,1,1341,,,,,1,0.1,0.20692224,1.79813092
LJL_2040,32,0,2024-06-17T12:43:28.001Z,english_55.wav,0,1,1341,,,,,2,0.2,-68.61006599,0.71729895
LJL_2040,32,0,2024-06-17T12:43:28.001Z,english_55.wav,0,1,1341,,,,,3,0.3,-5.20952515,1.28733782
LJL_2040,32,0,2024-06-17T12:43:28.001Z,english_55.wav,0,1,1341,,,,,4,0.32341667,28.45991968,1.77061752
LJL_2040,33,0,2024-06-17T12:43:28.001Z,english_72.wav,0,0,635,,,,,0,0,3.79788214,1.04175162
LJL_2040,33,0,2024-06-17T12:43:28.001Z,english_72.wav,0,0,635,,,,,1,0.1,-35.73428138,0.91099175
LJL_2040,33,0,2024-06-17T12:43:28.001Z,english_72.wav,0,0,635,,,,,2,0.2,-30.83181688,0.34322307
LJL_2040,33,0,2024-06-17T12:43:28.001Z,english_72.wav,0,0,635,,,,,3,0.3,-68.4260973,1.39599539
LJL_2040,33,0,2024-06-17T12:43:28.001Z,english_72.wav,0,0,635,,,,,4,0.32341667,-10.87667298,0.78322702
LJL_2040,34,0,2024-06-17T12:43:28.001Z,english_689.wav,0,0,691,,,,,0,0,42.02822248,1.89069384
LJL_2040,34,0,2024-06-17T12:43:28.001Z,english_689.wav,0,0,691,,,,,1,0.1,-61.92185233,0.33123617
LJL_2040,34,0,2024-06-17T12:43:28.001Z,english_689.wav,0,0,691,,,,,2,0.2,-8.45156809,0.5478675
LJL_2040,34,0,2024-06-17T12:43:28.001Z,english_689.wav,0,0,691,,,,,3,0.3,15.09500637,0.80334133
LJL_2040,34,0,2024-06-17T12:43:28.001Z,english_689.wav,0,0,691,,,,,4,0.32341667,8.33163023,1.42024866
LJL_2040,35,0,2024-06-17T12:43:28.001Z,english_89.wav,0,1,941,,,,,0,0,-42.28936571,1.68633095
LJL_2040,35,0,2024-06-17T12:43:28.001Z,english_89.wav,0,1,941,,,,,1,0.1,12.96738115,0.49078122
LJL_2040,35,0,2024-06-17T12:43:28.001Z,english_89.wav,0,1,941,,,,,2,0.2,-0.92476461,0.75584791
LJL_2040,35,0,2024-06-17T12:43:28.001Z,english_89.wav,0,1,941,,,,,3,0.3,54.46155283,1.37155139
LJL_2040,35,0,2024-06-17T12:43:28.001Z,english_89.wav,0,1,941,,,,,4,0.32341667,-5.27724964,0.6613642
LJL_2040,36,0,2024-06-17T12:43:28.001Z,english_111.wav,0,0,1513,,,,,0,0,43.12539807,1.84745579
LJL_2040,36,0,2024-06-17T12:43:28.001Z,english_111.wav,0,0,1513,,,,,1,0.1,63.99665526,0.92577031
LJL_2040,36,0,2024-06-17T12:43:28.001Z,english_111.wav,0,0,1513,,,,,2,0.2,86.04570556,0.31264784
LJL_2040,36,0,2024-06-17T12:43:28.001Z,english_111.wav,0,0,1513,,,,,3,0.3,-25.76798659,0.89352032
LJL_2040,36,0,2024-06-17T12:43:28.001Z,english_111.wav,0,0,1513,,,,,4,0.32341667,-36.14422463,0.32138535
LJL_2040,37,0,2024-06-17T12:43:28.001Z,english_373.wav,0,1,513,,,,,0,0,-63.66458186,0.61104768
LJL_2040,37,0,2024-06-17T12:43:28.001Z,english_373.wav,0,1,513,,,,,1,0.1,-61.42386056,1.64905001
LJL_2040,37,0,2024-06-17T12:43:28.001Z,english_373.wav,0,1,513,,,,,2,0.2,-78.74831974,1.44355649
LJL_2040,37,0,2024-06-17T12:43:28.001Z,english_373.wav,0,1,513,,,,,3,0.3,-23.23108213,1.63671726
LJL_2040,37,0,2024-06-17T12:43:28.001Z,english_373.wav,0,1,513,,,,,4,0.32341667,-77.15694383,1.96911306
LJL_2040,38,0,2024-06-17T12:43:28.001Z,english_487.wav,0,1,3167,,,,,0,0,57.34447058,0.27098038
LJL_2040,38,0,2024-06-17T12:43:28.001Z,english_487.wav,0,1,3167,,,,,1,0.1,-38.59224607,1.03105808
LJL_2040,38,0,2024-06-17T12:43:28.001Z,english_487.wav,0,1,3167,,,,,2,0.2,-30.93562102,0.17810411
LJL_2040,38,0,2024-06-17T12:43:28.001Z,english_487.wav,0,1,3167,,,,,3,0.3,-21.39452484,0.81608244
LJL_2040,38,0,2024-06-17T12:43:28.001Z,english_487.wav,0,1,3167,,,,,4,0.32341667,-98.93333205,1.1056793
LJL_2040,39,0,2024-06-17T12:43:28.001Z,english_147.wav,0,1,753,,,,,0,0,-14.37625717,1.08714974
LJL_2040,39,0,2024-06-17T12:43:28.001Z,english_147.wav,0,1,753,,,,,1,0.1,-48.99147792,1.05600262
LJL_2040,39,0,2024-06-17T12:43:28.001Z,english_147.wav,0,1,753,,,,,2,0.2,-76.025031,0.62193731
LJL_2040,39,0,2024-06-17T12:43:28.001Z,english_147.wav,0,1,753,,,,,3,0.3,-4.271985,1.23272935
LJL_2040,39,0,2024-06-17T12:43:28.001Z,english_147.wav,0,1,753,,,,,4,0.32341667,90.36670579,0.90867663
LJL_2040,40,0,2024-06-17T12:43:28.001Z,english_560.wav,0,1,887,,,,,0,0,6.26341837,1.61909233
LJL_2040,40,0,2024-06-17T12:43:28.001Z,english_560.wav,0,1,887,,,,,1,0.1,-94.10474965,0.93851614
LJL_2040,40,0,2024-06-17T12:43:28.001Z,english_560.wav,0,1,887,,,,,2,0.2,-43.88069215,1.37910144
LJL_2040,40,0,2024-06-17T12:43:28.001Z,english_560.wav,0,1,887,,,,,3,0.3,-26.3559156,1.10578935
LJL_2040,40,0,2024-06-17T12:43:28.001Z,english_560.wav,0,1,887,,,,,4,0.32341667,-91.38105747,0.02070647
LJL_2040,41,0,2024-06-17T12:43:28.001Z,english_920.wav,0,1,665,,,,,0,0,95.7501832,1.54313256
LJL_2040,41,0,2024-06-17T12:43:28.001Z,english_920.wav,0,1,665,,,,,1,0.1,-3.19831823,1.33500472
LJL_2040,41,0,2024-06-17T12:43:28.001Z,english_920.wav,0,1,665,,,,,2,0.2,-16.96134457,1.12819963
LJL_2040,41,0,2024-06-17T12:43:28.001Z,english_920.wav,0,1,665,,,,,3,0.3,-28.81747413,1.72147256
LJL_2040,41,0,2024-06-17T12:43:28.001Z,english_920.wav,0,1,665,,,,,4,0.32341667,42.63505928,0.57593815
LJL_2040,42,0,2024-06-17T12:43:28.001Z,english_762.wav,0,1,943,,,,,0,0,-56.40971946,1.43822993
LJL_2040,42,0,2024-06-17T12:43:28.001Z,english_762.wav,0,1,943,,,,,1,0.1,-9.09046034,1.11776807
LJL_2040,42,0,2024-06-17T12:43:28.001Z,english_762.wav,0,1,943,,,,,2,0.2,20.98892014,0.71531135
LJL_2040,42,0,2024-06-17T12:43:28.001Z,english_762.wav,0,1,943,,,,,3,0.3,-66.43296232,0.54997993
LJL_2040,42,0,2024-06-17T12:43:28.001Z,english_762.wav,0,1,943,,,,,4,0.32341667,-91.78640069,0.26897274
LJL_2040,43,0,2024-06-17T12:43:28.001Z,english_354.wav,0,0,971,,,,,0,0,-63.97501145,0.52067601
LJL_2040,43,0,2024-06-17T12:43:28.001Z,english_354.wav,0,0,971,,,,,1,0.1,-43.11314734,0.59903392
LJL_2040,43,0,2024-06-17T12:43:28.001Z,english_354.wav,0,0,971,,,,,2,0.2,10.53928595,0.9992363
LJL_2040,43,0,2024-06-17T12:43:28.001Z,english_354.wav,0,0,971,,,,,3,0.3,-23.15258088,1.16142831
LJL_2040,43,0,2024-06-17T12:43:28.001Z,english_354.wav,0,0,971,,,,,4,0.32341667,3.22925066,0.37639432
LJL_2040,44,0,2024-06-17T12:43:28.001Z,english_962.wav,0,0,1055,,,,,0,0,-55.512918,1.78332996
LJL_2040,44,0,2024-06-17T12:43:28.001Z,english_962.wav,0,0,1055,,,,,1,0.1,90.34773129,1.25956614
LJL_2040,44,0,2024-06-17T12:43:28.001Z,english_962.wav,0,0,1055,,,,,2,0.2,-3.10818459,0.72891593
LJL_2040,44,0,2024-06-17T12:43:28.001Z,english_962.wav,0,0,1055,,,,,3,0.3,50.27619033,1.49954356
LJL_2040,44,0,2024-06-17T12:43:28.001Z,english_962.wav,0,0,1055,,,,,4,0.32341667,-47.3196173,0.96339983
LJL_2040,45,0,2024-06-17T12:43:28.001Z,english_313.wav,0,1,503,,,,,0,0,63.86599335,0.35841412
LJL_2040,45,0,2024-06-17T12:43:28.001Z,english_313.wav,0,1,503,,,,,1,0.1,-55.89800258,0.35021793
LJL_2040,45,0,2024-06-17T12:43:28.001Z,english_313.wav,0,1,503,,,,,2,0.2,90.86254046,1.77750413
LJL_2040,45,0,2024-06-17T12:43:28.001Z,english_313.wav,0,1,503,,,,,3,0.3,0.53087649,1.87396687
LJL_2040,45,0,2024-06-17T12:43:28.001Z,english_313.wav,0,1,503,,,,,4,0.32341667,-69.87913817,1.16176786
LJL_2040,46,0,2024-06-17T12:43:28.001Z,english_876.wav,0,0,605,,,,,0,0,-20.36884991,0.97958319
LJL_2040,46,0,2024-06-17T12:43:28.001Z,english_876.wav,0,0,605,,,,,1,0.1,-12.16725052,0.93484439
LJL_2040,46,0,2024-06-17T12:43:28.001Z,english_876.wav,0,0,605,,,,,2,0.2,-26.42868614,0.43422731
LJL_2040,46,0,2024-06-17T12:43:28.001Z,english_876.wav,0,0,605,,,,,3,0.3,-15.16942384,0.12359811
LJL_2040,46,0,2024-06-17T12:43:28.001Z,english_876.wav,0,0,605,,,,,4,0.32341667,-52.65446315,1.31629037
LJL_2040,47,0,2024-06-17T12:43:28.001Z,english_165.wav,0,1,1089,,,,,0,0,-65.85966689,0.99094124
LJL_2040,47,0,2024-06-17T12:43:28.001Z,english_165.wav,0,1,1089,,,,,1,0.1,57.4210377,1.25140592
LJL_2040,47,0,2024-06-17T12:43:28.001Z,english_165.wav,0,1,1089,,,,,2,0.2,-53.4891742,1.66606931
LJL_2040,47,0,2024-06-17T12:43:28.001Z,english_165.wav,0,1,1089,,,,,3,0.3,-32.80877015,0.56557264
LJL_2040,47,0,2024-06-17T12:43:28.001Z,english_165.wav,0,1,1089,,,,,4,0.32341667,-23.63509804,1.31427626
LJL_2040,48,0,2024-06-17T12:43:28.001Z,english_349.wav,0,0,1471,,,,,0,0,-10.00495534,0.36915768
LJL_2040,48,0,2024-06-17T12:43:28.001Z,english_349.wav,0,0,1471,,,,,1,0.1,54.31199814,0.83111041
LJL_2040,48,0,2024-06-17T12:43:28.001Z,english_349.wav,0,0,1471,,,,,2,0.2,48.17968705,1.70147194
LJL_2040,48,0,2024-06-17T12:43:28.001Z,english_349.wav,0,0,1471,,,,,3,0.3,8.48926652,1.08588898
LJL_2040,48,0,2024-06-17T12:43:28.001Z,english_349.wav,0,0,1471,,,,,4,0.32341667,42.05620052,0.02584958
LJL_2040,49,0,2024-06-17T12:43:28.001Z,english_68.wav,0,1,415,,,,,0,0,-23.38152803,1.83565324
LJL_2040,49,0,2024-06-17T12:43:28.001Z,english_68.wav,0,1,415,,,,,1,0.1,-36.0918901,0.35162477
LJL_2040,49,0,2024-06-17T12:43:28.001Z,english_68.wav,0,1,415,,,,,2,0.2,65.46592862,1.10705723
LJL_2040,49,0,2024-06-17T12:43:28.001Z,english_68.wav,0,1,415,,,,,3,0.3,48.57602628,1.09550925
LJL_2040,49,0,2024-06-17T12:43:28.001Z,english_68.wav,0,1,415,,,,,4,0.32341667,-93.64245591,0.05753383
LJL_2040,50,1,2024-06-17T12:43:28.001Z,english_711.wav,0,1,747,,,,,0,0,40.88671478,0.99029016
LJL_2040,50,1,2024-06-17T12:43:28.001Z,english_711.wav,0,1,747,,,,,1,0.1,9.07407961,0.54320223
LJL_2040,50,1,2024-06-17T12:43:28.001Z,english_711.wav,0,1,747,,,,,2,0.2,-23.01321115,1.60107
LJL_2040,50,1,2024-06-17T12:43:28.001Z,english_711.wav,0,1,747,,,,,3,0.3,-10.85681813,1.574764
LJL_2040,50,1,2024-06-17T12:43:28.001Z,english_711.wav,0,1,747,,,,,4,0.32341667,87.87195083,1.34863725
LJL_2040,51,1,2024-06-17T12:43:28.001Z,english_425.wav,0,0,1219,,,,,0,0,52.16022051,1.95369626
LJL_2040,51,1,2024-06-17T12:43:28.001Z,english_425.wav,0,0,1219,,,,,1,0.1,-4.0342476,0.01224448
LJL_2040,51,1,2024-06-17T12:43:28.001Z,english_425.wav,0,0,1219,,,,,2,0.2,71.82190917,1.45838463
LJL_2040,51,1,2024-06-17T12:43:28.001Z,english_425.wav,0,0,1219,,,,,3,0.3,77.8432037,1.1656734
LJL_2040,51,1,2024-06-17T12:43:28.001Z,english_425.wav,0,0,1219,,,,,4,0.32341667,29.14791909,1.54078916
LJL_2040,52,1,2024-06-17T12:43:28.001Z,english_564.wav,0,0,543,,,,,0,0,-4.16228192,1.35245187
LJL_2040,52,1,2024-06-17T12:43:28.001Z,english_564.wav,0,0,543,,,,,1,0.1,-8.38376801,0.24798142
LJL_2040,52,1,2024-06-17T12:43:28.001Z,english_564.wav,0,0,543,,,,,2,0.2,52.82752554,1.26376743
LJL_2040,52,1,2024-06-17T12:43:28.001Z,english_564.wav,0,0,543,,,,,3,0.3,-92.64870354,0.73548171
LJL_2040,52,1,2024-06-17T12:43:28.001Z,english_564.wav,0,0,543,,,,,4,0.32341667,-48.86146536,0.1394123
LJL_2040,53,1,2024-06-17T12:43:28.001Z,english_988.wav,0,0,549,,,,,0,0,23.53561789,0.18772999
LJL_2040,53,1,2024-06-17T12:43:28.001Z,english_988.wav,0,0,549,,,,,1,0.1,39.09545525,0.71537172
LJL_2040,53,1,2024-06-17T12:43:28.001Z,english_988.wav,0,0,549,,,,,2,0.2,-32.2225044,0.50944864
LJL_2040,53,1,2024-06-17T12:43:28.001Z,english_988.wav,0,0,549,,,,,3,0.3,5.54449519,0.59930705
LJL_2040,53,1,2024-06-17T12:43:28.001Z,english_988.wav,0,0,549,,,,,4,0.32341667,-94.58480047,1.43881296
LJL_2040,54,1,2024-06-17T12:43:28.001Z,english_628.wav,0,1,1583,,,,,0,0,-19.71295886,0.8960583
LJL_2040,54,1,2024-06-17T12:43:28.001Z,english_628.wav,0,1,1583,,,,,1,0.1,-79.294697,1.61949508
LJL_2040,54,1,2024-06-17T12:43:28.001Z,english_628.wav,0,1,1583,,,,,2,0.2,-59.93256946,0.65483299
LJL_2040,54,1,2024-06-17T12:43:28.001Z,english_628.wav,0,1,1583,,,,,3,0.3,-18.46863719,0.12001531
LJL_2040,54,1,2024-06-17T12:43:28.001Z,english_628.wav,0,1,1583,,,,,4,0.32341667,53.30350975,0.85308449
LJL_2040,55,1,2024-06-17T12:43:28.001Z,english_120.wav,0,0,1045,,,,,0,0,55.2306484,0.43658612
LJL_2040,55,1,2024-06-17T12:43:28.001Z,english_120.wav,0,0,1045,,,,,1,0.1,82.00530973,0.03999251
LJL_2040,55,1,2024-06-17T12:43:28.001Z,english_120.wav,0,0,1045,,,,,2,0.2,-5.84837635,0.80827096
LJL_2040,55,1,2024-06-17T12:43:28.001Z,english_120.wav,0,0,1045,,,,,3,0.3,66.20489525,1.78669421
LJL_2040,55,1,2024-06-17T12:43:28.001Z,english_120.wav,0,0,1045,,,,,4,0.32341667,-73.22302923,1.04341795
LJL_2040,56,1,2024-06-17T12:43:28.001Z,english_195.wav,0,1,449,,,,,0,0,88.76446124,0.85936173
LJL_2040,56,1,2024-06-17T12:43:28.001Z,english_195.wav,0,1,449,,,,,1,0.1,56.50909504,1.06337161
LJL_2040,56,1,2024-06-17T12:43:28.001Z,english_195.wav,0,1,449,,,,,2,0.2,-5.11157055,1.01766647
LJL_2040,56,1,2024-06-17T12:43:28.001Z,english_195.wav,0,1,449,,,,,3,0.3,14.19517065,1.03928052
LJL_2040,56,1,2024-06-17T12:43:28.001Z,english_195.wav,0,1,449,,,,,4,0.32341667,67.19148892,1.18131313
LJL_2040,57,1,2024-06-17T12:43:28.001Z,english_271.wav,0,0,539,,,,,0,0,24.41564841,0.25667552
LJL_2040,57,1,2024-06-17T12:43:28.001Z,english_271.wav,0,0,539,,,,,1,0.1,-64.42577909,1.20221217
LJL_2040,57,1,2024-06-17T12:43:28.001Z,english_271.wav,0,0,539,,,,,2,0.2,32.27025317,0.24658485
LJL_2040,57,1,2024-06-17T12:43:28.001Z,english_271.wav,0,0,539,,,,,3,0.3,58.71212772,1.57844265
LJL_2040,57,1,2024-06-17T12:43:28.001Z,english_271.wav,0,0,539,,,,,4,0.32341667,46.7300547,1.00400066
LJL_2040,58,1,2024-06-17T12:43:28.001Z,english_930.wav,0,1,753,,,,,0,0,-52.65701122,0.60066533
LJL_2040,58,1,2024-06-17T12:43:28.001Z,english_930.wav,0,1,753,,,,,1,0.1,-24.36484499,1.33650528
LJL_2040,58,1,2024-06-17T12:43:28.001Z,english_930.wav,0,1,753,,,,,2,0.2,4.10813066,0.15979886
LJL_2040,58,1,2024-06-17T12:43:28.001Z,english_930.wav,0,1,753,,,,,3,0.3,93.74919515,1.46288505
LJL_2040,58,1,2024-06-17T12:43:28.001Z,english_930.wav,0,1,753,,,,,4,0.32341667,66.31726896,0.93993915
LJL_2040,59,1,2024-06-17T12:43:28.001Z,english_125.wav,0,1,671,,,,,0,0,-5.59692586,0.61478703
LJL_2040,59,1,2024-06-17T12:43:28.001Z,english_125.wav,0,1,671,,,,,1,0.1,45.61970603,0.5852269
LJL_2040,59,1,2024-06-17T12:43:28.001Z,english_125.wav,0,1,671,,,,,2,0.2,-80.48713695,1.26290546
LJL_2040,59,1,2024-06-17T12:43:28.001Z,english_125.wav,0,1,671,,,,,3,0.3,76.65956808,1.54178375
LJL_2040,59,1,2024-06-17T12:43:28.001Z,english_125.wav,0,1,671,,,,,4,0.32341667,-9.14506838,0.79261171
LJL_2040,60,1,2024-06-17T12:43:28.001Z,english_691.wav,0,0,799,,,,,0,0,28.79078449,1.07683297
LJL_2040,60,1,2024-06-17T12:43:28.001Z,english_691.wav,0,0,799,,,,,1,0.1,99.1184909,1.07376069
LJL_2040,60,1,2024-06-17T12:43:28.001Z,english_691.wav,0,0,799,,,,,2,0.2,-54.13985733,0.28522735
LJL_2040,60,1,2024-06-17T12:43:28.001Z,english_691.wav,0,0,799,,,,,3,0.3,-85.36319246,0.85701066
LJL_2040,60,1,2024-06-17T12:43:28.001Z,english_691.wav,0,0,799,,,,,4,0.32341667,-73.61621094,1.71165398
LJL_2040,61,1,2024-06-17T12:43:28.001Z,english_61.wav,0,1,855,,,,,0,0,-58.73450167,1.5196582
LJL_2040,61,1,2024-06-17T12:43:28.001Z,english_61.wav,0,1,855,,,,,1,0.1,-68.77732169,0.79346499
LJL_2040,61,1,2024-06-17T12:43:28.001Z,english_61.wav,0,1,855,,,,,2,0.2,-61.07430116,0.90548432
LJL_2040,61,1,2024-06-17T12:43:28.001Z,english_61.wav,0,1,855,,,,,3,0.3,-87.12791991,1.71431728
LJL_2040,61,1,2024-06-17T12:43:28.001Z,english_61.wav,0,1,855,,,,,4,0.32341667,47.32358741,0.57778581
LJL_2040,62,1,2024-06-17T12:43:28.001Z,english_178.wav,0,1,909,,,,,0,0,-14.41838744,0.71193749
LJL_2040,62,1,2024-06-17T12:43:28.001Z,english_178.wav,0,1,909,,,,,1,0.1,64.59665955,0.54024543
LJL_2040,62,1,2024-06-17T12:43:28.001Z,english_178.wav,0,1,909,,,,,2,0.2,-96.76492712,1.78065704
LJL_2040,62,1,2024-06-17T12:43:28.001Z,english_178.wav,0,1,909,,,,,3,0.3,-50.00654232,1.40559917
LJL_2040,62,1,2024-06-17T12:43:28.001Z,english_178.wav,0,1,909,,,,,4,0.32341667,42.56426636,0.99785593
LJL_2040,63,1,2024-06-17T12:43:28.001Z,english_342.wav,0,1,1497,,,,,0,0,78.00911228,0.99673345
LJL_2040,63,1,2024-06-17T12:43:28.001Z,english_342.wav,0,1,1497,,,,,1,0.1,-28.67768894,1.80563483
LJL_2040,63,1,2024-06-17T12:43:28.001Z,english_342.wav,0,1,1497,,,,,2,0.2,73.55618202,1.38552336
LJL_2040,63,1,2024-06-17T12:43:28.001Z,english_342.wav,0,1,1497,,,,,3,0.3,93.0509223,0.17145116
LJL_2040,63,1,2024-06-17T12:43:28.001Z,english_342.wav,0,1,1497,,,,,4,0.32341667,-2.74816459,0.15059009
LJL_2040,64,1,2024-06-17T12:43:28.001Z,english_453.wav,0,1,1609,,,,,0,0,-60.23429987,1.87756573
LJL_2040,64,1,2024-06-17T12:43:28.001Z,english_453.wav,0,1,1609,,,,,1,0.1,80.38725697,0.94070469
LJL_2040,64,1,2024-06-17T12:43:28.001Z,english_453.wav,0,1,1609,,,,,2,0.2,66.16689695,1.71191258
LJL_2040,64,1,2024-06-17T12:43:28.001Z,english_453.wav,0,1,1609,,,,,3,0.3,-59.46214637,0.56012011
LJL_2040,64,1,2024-06-17T12:43:28.001Z,english_453.wav,0,1,1609,,,,,4,0.32341667,-39.76201882,0.35119419
LJL_2040,65,1,2024-06-17T12:43:28.001Z,english_319.wav,0,1,813,,,,,0,0,-84.37928886,1.17141126
LJL_2040,65,1,2024-06-17T12:43:28.001Z,english_319.wav,0,1,813,,,,,1,0.1,-52.76931383,1.13741792
LJL_2040,65,1,2024-06-17T12:43:28.001Z,english_319.wav,0,1,813,,,,,2,0.2,56.06390533,0.91618882
LJL_2040,65,1,2024-06-17T12:43:28.001Z,english_319.wav,0,1,813,,,,,3,0.3,-69.46438111,0.7080153
LJL_2040,65,1,2024-06-17T12:43:28.001Z,english_319.wav,0,1,813,,,,,4,0.32341667,91.86152445,0.5910213
LJL_2040,66,1,2024-06-17T12:43:28.001Z,english_250.wav,0,0,1385,,,,,0,0,15.9272347,0.97372592
LJL_2040,66,1,2024-06-17T12:43:28.001Z,english_250.wav,0,0,1385,,,,,1,0.1,-20.77070657,1.45189783
LJL_2040,66,1,2024-06-17T12:43:28.001Z,english_250.wav,0,0,1385,,,,,2,0.2,-20.08480075,0.50513237
LJL_2040,66,1,2024-06-17T12:43:28.001Z,english_250.wav,0,0,1385,,,,,3,0.3,-29.82576937,1.38910207
LJL_2040,66,1,2024-06-17T12:43:28.001Z,english_250.wav,0,0,1385,,,,,4,0.32341667,87.83532187,1.51614456
LJL_2040,67,1,2024-06-17T12:43:28.001Z,english_624.wav,0,1,1187,,,,,0,0,-66.94889137,0.79130031
LJL_2040,67,1,2024-06-17T12:43:28.001Z,english_624.wav,0,1,1187,,,,,1,0.1,-6.87427926,1.85178888
LJL_2040,67,1,2024-06-17T12:43:28.001Z,english_624.wav,0,1,1187,,,,,2,0.2,69.52298075,0.79988954
LJL_2040,67,1,2024-06-17T12:43:28.001Z,english_624.wav,0,1,1187,,,,,3,0.3,-45.26015132,0.87521033
LJL_2040,67,1,2024-06-17T12:43:28.001Z,english_624.wav,0,1,1187,,,,,4,0.32341667,-50.37935108,1.50754026
LJL_2040,68,1,2024-06-17T12:50:06.409Z,english_997.wav,0,0,932,,,,,0,0,93.4252615,0.4603395
LJL_2040,68,1,2024-06-17T12:50:06.409Z,english_997.wav,0,0,932,,,,,1,0.1,62.16088314,0.21654412
LJL_2040,68,1,2024-06-17T12:50:06.409Z,english_997.wav,0,0,932,,,,,2,0.2,-26.38638022,1.36234896
LJL_2040,68,1,2024-06-17T12:50:06.409Z,english_997.wav,0,0,932,,,,,3,0.3,89.15363163,1.07462804
LJL_2040,68,1,2024-06-17T12:50:06.409Z,english_997.wav,0,0,932,,,,,4,0.32341667,-25.83137337,0.84007196
LJL_2040,69,1,2024-06-17T12:50:06.409Z,english_846.wav,0,0,1592,,,,,0,0,61.87306923,1.6800264
LJL_2040,69,1,2024-06-17T12:50:06.409Z,english_846.wav,0,0,1592,,,,,1,0.1,-5.64177324,0.32387551
LJL_2040,69,1,2024-06-17T12:50:06.409Z,english_846.wav,0,0,1592,,,,,2,0.2,86.75305487,0.09122421
LJL_2040,69,1,2024-06-17T12:50:06.409Z,english_846.wav,0,0,1592,,,,,3,0.3,-27.71752308,0.55014386
LJL_2040,69,1,2024-06-17T12:50:06.409Z,english_846.wav,0,0,1592,,,,,4,0.32341667,-26.78048177,0.82256102
LJL_2040,70,1,2024-06-17T12:50:06.409Z,english_708.wav,0,1,738,,,,,0,0,-27.19248895,0.74061838
LJL_2040,70,1,2024-06-17T12:50:06.409Z,english_708.wav,0,1,738,,,,,1,0.1,84.25795725,1.13599963
LJL_2040,70,1,2024-06-17T12:50:06.409Z,english_708.wav,0,1,738,,,,,2,0.2,-19.19551503,1.10086254
LJL_2040,70,1,2024-06-17T12:50:06.409Z,english_708.wav,0,1,738,,,,,3,0.3,29.88012033,0.53054382
LJL_2040,70,1,2024-06-17T12:50:06.409Z,english_708.wav,0,1,738,,,,,4,0.32341667,46.0858662,1.51974387
LJL_2040,71,1,2024-06-17T12:50:06.409Z,english_102.wav,0,1,562,,,,,0,0,32.71328306,1.2311829
LJL_2040,71,1,2024-06-17T12:50:06.409Z,english_102.wav,0,1,562,,,,,1,0.1,59.73255369,0.25599615
LJL_2040,71,1,2024-06-17T12:50:06.409Z,english_102.wav,0,1,562,,,,,2,0.2,-0.64397298,1.7526023
LJL_2040,71,1,2024-06-17T12:50:06.409Z,english_102.wav,0,1,562,,,,,3,0.3,-37.18099902,1.98319627
LJL_2040,71,1,2024-06-17T12:50:06.409Z,english_102.wav,0,1,562,,,,,4,0.32341667,41.63197766,1.38410598
LJL_2040,72,1,2024-06-17T12:50:06.409Z,english_54.wav,0,1,632,,,,,0,0,1.86764875,1.47639799
LJL_2040,72,1,2024-06-17T12:50:06.409Z,english_54.wav,0,1,632,,,,,1,0.1,-1.78672474,1.92944336
LJL_2040,72,1,2024-06-17T12:50:06.409Z,english_54.wav,0,1,632,,,,,2,0.2,-26.58380414,0.76292987
LJL_2040,72,1,2024-06-17T12:50:06.409Z,english_54.wav,0,1,632,,,,,3,0.3,-2.56688864,1.78735236
LJL_2040,72,1,2024-06-17T12:50:06.409Z,english_54.wav,0,1,632,,,,,4,0.32341667,-76.29238916,0.80366269
LJL_2040,73,1,2024-06-17T12:50:06.409Z,english_683.wav,0,0,658,,,,,0,0,-73.37543508,1.70409633
LJL_2040,73,1,2024-06-17T12:50:06.409Z,english_683.wav,0,0,658,,,,,1,0.1,66.4080647,1.25556383
LJL_2040,73,1,2024-06-17T12:50:06.409Z,english_683.wav,0,0,658,,,,,2,0.2,46.46812351,0.87554738
LJL_2040,73,1,2024-06-17T12:50:06.409Z,english_683.wav,0,0,658,,,,,3,0.3,71.67755016,1.32863005
LJL_2040,73,1,2024-06-17T12:50:06.409Z,english_683.wav,0,0,658,,,,,4,0.32341667,2.86253031,0.20364682
LJL_2040,74,1,2024-06-17T12:50:06.409Z,english_825.wav,0,0,894,,,,,0,0,9.96211161,0.17252736
LJL_2040,74,1,2024-06-17T12:50:06.409Z,english_825.wav,0,0,894,,,,,1,0.1,-28.44120521,0.52830291
LJL_2040,74,1,2024-06-17T12:50:06.409Z,english_825.wav,0,0,894,,,,,2,0.2,58.95311712,0.51646024
LJL_2040,74,1,2024-06-17T12:50:06.409Z,english_825.wav,0,0,894,,,,,3,0.3,-14.85414305,0.70859388
LJL_2040,74,1,2024-06-17T12:50:06.409Z,english_825.wav,0,0,894,,,,,4,0.32341667,85.14956963,0.64434305
LJL_2040,75,1,2024-06-17T12:50:06.409Z,english_105.wav,0,1,946,,,,,0,0,15.80659439,1.08535851
LJL_2040,75,1,2024-06-17T12:50:06.409Z,english_105.wav,0,1,946,,,,,1,0.1,42.66899606,0.24895576
LJL_2040,75,1,2024-06-17T12:50:06.409Z,english_105.wav,0,1,946,,,,,2,0.2,70.76731416,1.16165898
LJL_2040,75,1,2024-06-17T12:50:06.409Z,english_105.wav,0,1,946,,,,,3,0.3,70.45261783,1.37248151
LJL_2040,75,1,2024-06-17T12:50:06.409Z,english_105.wav,0,1,946,,,,,4,0.32341667,38.01355443,0.81952348
LJL_2040,76,1,2024-06-17T12:50:06.409Z,english_771.wav,0,1,5868,,,,,0,0,52.29619013,1.65909918
LJL_2040,76,1,2024-06-17T12:50:06.409Z,english_771.wav,0,1,5868,,,,,1,0.1,55.26271333,1.05958749
LJL_2040,76,1,2024-06-17T12:50:06.409Z,english_771.wav,0,1,5868,,,,,2,0.2,49.2587818,1.33758239
LJL_2040,76,1,2024-06-17T12:50:06.409Z,english_771.wav,0,1,5868,,,,,3,0.3,48.45532009,1.75478958
LJL_2040,76,1,2024-06-17T12:50:06.409Z,english_771.wav,0,1,5868,,,,,4,0.32341667,-98.45631565,0.37013483
LJL_2040,77,1,2024-06-17T12:50:06.409Z,english_611.wav,0,0,854,,,,,0,0,4.04989913,1.48647041
LJL_2040,77,1,2024-06-17T12:50:06.409Z,english_611.wav,0,0,854,,,,,1,0.1,-26.35519993,0.87297853
LJL_2040,77,1,2024-06-17T12:50:06.409Z,english_611.wav,0,0,854,,,,,2,0.2,-41.22744209,0.91907267
LJL_2040,77,1,2024-06-17T12:50:06.409Z,english_611.wav,0,0,854,,,,,3,0.3,-72.41198747,0.12624761
LJL_2040,77,1,2024-06-17T12:50:06.409Z,english_611.wav,0,0,854,,,,,4,0.32341667,-60.09703168,0.964981
LJL_2040,78,1,2024-06-17T12:50:06.409Z,english_944.wav,0,0,1004,,,,,0,0,70.24274457,0.61048125
LJL_2040,78,1,2024-06-17T12:50:06.409Z,english_944.wav,0,0,1004,,,,,1,0.1,-48.79231442,1.63310511
LJL_2040,78,1,2024-06-17T12:50:06.409Z,english_944.wav,0,0,1004,,,,,2,0.2,-6.42324239,0.21687347
LJL_2040,78,1,2024-06-17T12:50:06.409Z,english_944.wav,0,0,1004,,,,,3,0.3,-7.7338836,0.45027042
LJL_2040,78,1,2024-06-17T12:50:06.409Z,english_944.wav,0,0,1004,,,,,4,0.32341667,69.46240638,0.90306897
LJL_2040,79,1,2024-06-17T12:50:06.409Z,english_835.wav,0,1,1224,,,,,0,0,-14.38506183,1.1584592
LJL_2040,79,1,2024-06-17T12:50:06.409Z,english_835.wav,0,1,1224,,,,,1,0.1,-85.63264453,0.74788643
LJL_2040,79,1,2024-06-17T12:50:06.409Z,english_835.wav,0,1,1224,,,,,2,0.2,-9.08737486,0.99645811
LJL_2040,79,1,2024-06-17T12:50:06.409Z,english_835.wav,0,1,1224,,,,,3,0.3,-52.4382226,1.13057998
LJL_2040,79,1,2024-06-17T12:50:06.409Z,english_835.wav,0,1,1224,,,,,4,0.32341667,30.89255677,0.17868889
LJL_2040,80,1,2024-06-17T12:50:06.409Z,english_548.wav,0,1,2400,,,,,0,0,19.39315344,0.41811488
LJL_2040,80,1,2024-06-17T12:50:06.409Z,english_548.wav,0,1,2400,,,,,1,0.1,82.09582914,1.70384437
LJL_2040,80,1,2024-06-17T12:50:06.409Z,english_548.wav,0,1,2400,,,,,2,0.2,-65.55781301,1.82142436
LJL_2040,80,1,2024-06-17T12:50:06.409Z,english_548.wav,0,1,2400,,,,,3,0.3,-5.02691035,1.13784798
LJL_2040,80,1,2024-06-17T12:50:06.409Z,english_548.wav,0,1,2400,,,,,4,0.32341667,62.63141303,1.73168063
LJL_2040,81,1,2024-06-17T12:50:06.409Z,english_257.wav,0,1,714,,,,,0,0,-68.31428674,1.40239735
LJL_2040,81,1,2024-06-17T12:50:06.409Z,english_257.wav,0,1,714,,,,,1,0.1,-13.90908686,1.49673114
LJL_2040,81,1,2024-06-17T12:50:06.409Z,english_257.wav,0,1,714,,,,,2,0.2,54.08743226,1.07658057
LJL_2040,81,1,2024-06-17T12:50:06.409Z,english_257.wav,0,1,714,,,,,3,0.3,-42.73693867,0.27427112
LJL_2040,81,1,2024-06-17T12:50:06.409Z,english_257.wav,0,1,714,,,,,4,0.32341667,-1.03846516,1.90516482
LJL_2040,82,1,2024-06-17T12:50:06.409Z,english_561.wav,0,1,2176,,,,,0,0,62.21065415,1.32725493
LJL_2040,82,1,2024-06-17T12:50:06.409Z,english_561.wav,0,1,2176,,,,,1,0.1,-9.84770717,1.15871491
LJL_2040,82,1,2024-06-17T12:50:06.409Z,english_561.wav,0,1,2176,,,,,2,0.2,-12.92274306,0.82816789
LJL_2040,82,1,2024-06-17T12:50:06.409Z,english_561.wav,0,1,2176,,,,,3,0.3,16.08334811,1.72308293
LJL_2040,82,1,2024-06-17T12:50:06.409Z,english_561.wav,0,1,2176,,,,,4,0.32341667,-22.38830035,0.72943893
LJL_2040,83,1,2024-06-17T12:50:06.409Z,english_766.wav,0,1,1260,,,,,0,0,-86.57417509,1.21737292
LJL_2040,83,1,2024-06-17T12:50:06.409Z,english_766.wav,0,1,1260,,,,,1,0.1,-67.75686223,1.61484435
LJL_2040,83,1,2024-06-17T12:50:06.409Z,english_766.wav,0,1,1260,,,,,2,0.2,74.21258041,1.47872362
LJL_2040,83,1,2024-06-17T12:50:06.409Z,english_766.wav,0,1,1260,,,,,3,0.3,65.20164426,1.81064247
LJL_2040,83,1,2024-06-17T12:50:06.409Z,english_766.wav,0,1,1260,,,,,4,0.32341667,-26.41371036,1.37776493
LJL_2040,84,1,2024-06-17T12:50:06.409Z,english_507.wav,0,1,1200,,,,,0,0,-61.1842488,1.97653192
LJL_2040,84,1,2024-06-17T12:50:06.409Z,english_507.wav,0,1,1200,,,,,1,0.1,-67.40048172,1.52355847
LJL_2040,84,1,2024-06-17T12:50:06.409Z,english_507.wav,0,1,1200,,,,,2,0.2,12.41471853,0.98006415
LJL_2040,84,1,2024-06-17T12:50:06.409Z,english_507.wav,0,1,1200,,,,,3,0.3,-23.82579329,0.44372312
LJL_2040,84,1,2024-06-17T12:50:06.409Z,english_507.wav,0,1,1200,,,,,4,0.32341667,9.53005369,0.65281453
LJL_2040,85,1,2024-06-17T12:50:06.409Z,english_1000.wav,0,0,810,,,,,0,0,27.35321797,1.01803417
LJL_2040,85,1,2024-06-17T12:50:06.409Z,english_1000.wav,0,0,810,,,,,1,0.1,42.13438871,0.4558176
LJL_2040,85,1,2024-06-17T12:50:06.409Z,english_1000.wav,0,0,810,,,,,2,0.2,95.34760893,0.52251179
LJL_2040,85,1,2024-06-17T12:50:06.409Z,english_1000.wav,0,0,810,,,,,3,0.3,-34.10168873,0.90165507
LJL_2040,85,1,2024-06-17T12:50:06.409Z,english_1000.wav,0,0,810,,,,,4,0.32341667,64.49689477,0.38395199
LJL_2040,86,1,2024-06-17T12:50:06.409Z,english_40.wav,0,0,2820,,,,,0,0,20.98315678,0.33544846
LJL_2040,86,1,2024-06-17T12:50:06.409Z,english_40.wav,0,0,2820,,,,,1,0.1,80.64974175,0.81764939
LJL_2040,86,1,2024-06-17T12:50:06.409Z,english_40.wav,0,0,2820,,,,,2,0.2,5.38930518,0.17548883
LJL_2040,86,1,2024-06-17T12:50:06.409Z,english_40.wav,0,0,2820,,,,,3,0.3,18.83593916,0.83674413
LJL_2040,86,1,2024-06-17T12:50:06.409Z,english_40.wav,0,0,2820,,,,,4,0.32341667,-14.62145671,0.80890384
LJL_2040,87,1,2024-06-17T12:50:06.409Z,english_43.wav,0,0,2274,,,,,0,0,22.40064366,1.74132857
LJL_2040,87,1,2024-06-17T12:50:06.409Z,english_43.wav,0,0,2274,,,,,1,0.1,-68.20152198,0.12763156
LJL_2040,87,1,2024-06-17T12:50:06.409Z,english_43.wav,0,0,2274,,,,,2,0.2,62.56231291,0.31420738
LJL_2040,87,1,2024-06-17T12:50:06.409Z,english_43.wav,0,0,2274,,,,,3,0.3,45.0736378,0.98572154
LJL_2040,87,1,2024-06-17T12:50:06.409Z,english_43.wav,0,0,2274,,,,,4,0.32341667,-36.46791656,0.91325677
LJL_2040,88,1,2024-06-17T12:50:06.409Z,english_269.wav,0,1,4069,,,,,0,0,61.09556447,1.11606818
LJL_2040,88,1,2024-06-17T12:50:06.409Z,english_269.wav,0,1,4069,,,,,1,0.1,-3.97684721,1.55443041
LJL_2040,88,1,2024-06-17T12:50:06.409Z,english_269.wav,0,1,4069,,,,,2,0.2,-87.59080112,1.78173809
LJL_2040,88,1,2024-06-17T12:50:06.409Z,english_269.wav,0,1,4069,,,,,3,0.3,78.47165079,1.73012946
LJL_2040,88,1,2024-06-17T12:50:06.409Z,english_269.wav,0,1,4069,,,,,4,0.32341667,-52.74135522,0.88090417
LJL_2040,89,1,2024-06-17T12:50:06.409Z,english_393.wav,0,0,1419,,,,,0,0,3.63201436,1.68653621
LJL_2040,89,1,2024-06-17T12:50:06.409Z,english_393.wav,0,0,1419,,,,,1,0.1,64.52667935,0.22518435
LJL_2040,89,1,2024-06-17T12:50:06.409Z,english_393.wav,0,0,1419,,,,,2,0.2,-51.23523019,0.07728703
LJL_2040,89,1,2024-06-17T12:50:06.409Z,english_393.wav,0,0,1419,,,,,3,0.3,-89.75219839,0.70962284
LJL_2040,89,1,2024-06-17T12:50:06.409Z,english_393.wav,0,0,1419,,,,,4,0.32341667,-66.06218428,0.7432397
LJL_2040,90,1,2024-06-17T12:50:06.409Z,english_540.wav,0,0,1277,,,,,0,0,-46.6752609,1.16352469
LJL_2040,90,1,2024-06-17T12:50:06.409Z,english_540.wav,0,0,1277,,,,,1,0.1,-93.20209644,0.0234781
LJL_2040,90,1,2024-06-17T12:50:06.409Z,english_540.wav,0,0,1277,,,,,2,0.2,64.96419662,0.05926191
LJL_2040,90,1,2024-06-17T12:50:06.409Z,english_540.wav,0,0,1277,,,,,3,0.3,-12.16484387,1.47406284
LJL_2040,90,1,2024-06-17T12:50:06.409Z,english_540.wav,0,0,1277,,,,,4,0.32341667,-44.34688232,0.60104864
LJL_2040,91,1,2024-06-17T12:50:06.409Z,english_952.wav,0,0,2519,,,,,0,0,64.91746033,1.00586425
LJL_2040,91,1,2024-06-17T12:50:06.409Z,english_952.wav,0,0,2519,,,,,1,0.1,-25.84234774,1.28790365
LJL_2040,91,1,2024-06-17T12:50:06.409Z,english_952.wav,0,0,2519,,,,,2,0.2,60.30097417,1.6668124
LJL_2040,91,1,2024-06-17T12:50:06.409Z,english_952.wav,0,0,2519,,,,,3,0.3,-98.0606555,1.44616756
LJL_2040,91,1,2024-06-17T12:50:06.409Z,english_952.wav,0,0,2519,,,,,4,0.32341667,-77.98984902,0.15831209
LJL_2040,92,1,2024-06-17T12:50:06.409Z,english_268.wav,0,1,829,,,,,0,0,55.18591224,1.47327052
LJL_2040,92,1,2024-06-17T12:50:06.409Z,english_268.wav,0,1,829,,,,,1,0.1,47.37483414,0.95932673
LJL_2040,92,1,2024-06-17T12:50:06.409Z,english_268.wav,0,1,829,,,,,2,0.2,46.97410588,1.80275919
LJL_2040,92,1,2024-06-17T12:50:06.409Z,english_268.wav,0,1,829,,,,,3,0.3,-64.08979313,1.6474991
LJL_2040,92,1,2024-06-17T12:50:06.409Z,english_268.wav,0,1,829,,,,,4,0.32341667,35.8590447,1.56533667
LJL_2040,93,1,2024-06-17T12:50:06.409Z,english_353.wav,0,1,4637,,,,,0,0,51.44050484,0.16518243
LJL_2040,93,1,2024-06-17T12:50:06.409Z,english_353.wav,0,1,4637,,,,,1,0.1,-8.32491594,1.32533476
LJL_2040,93,1,2024-06-17T12:50:06.409Z,english_353.wav,0,1,4637,,,,,2,0.2,-53.32966552,0.41923861
LJL_2040,93,1,2024-06-17T12:50:06.409Z,english_353.wav,0,1,4637,,,,,3,0.3,68.29246543,1.87374553
LJL_2040,93,1,2024-06-17T12:50:06.409Z,english_353.wav,0,1,4637,,,,,4,0.32341667,-32.22441747,1.13071195
LJL_2040,94,1,2024-06-17T12:50:06.409Z,english_594.wav,0,1,901,,,,,0,0,-85.15725243,1.49995106
LJL_2040,94,1,2024-06-17T12:50:06.409Z,english_594.wav,0,1,901,,,,,1,0.1,18.57908242,1.36683942
LJL_2040,94,1,2024-06-17T12:50:06.409Z,english_594.wav,0,1,901,,,,,2,0.2,-52.1381203,1.31792707
LJL_2040,94,1,2024-06-17T12:50:06.409Z,english_594.wav,0,1,901,,,,,3,0.3,77.56862162,0.76119001
LJL_2040,94,1,2024-06-17T12:50:06.409Z,english_594.wav,0,1,901,,,,,4,0.32341667,89.7133381,1.77084997
LJL_2040,95,1,2024-06-17T12:50:06.409Z,english_987.wav,0,1,1655,,,,,0,0,91.33137772,1.82656395
LJL_2040,95,1,2024-06-17T12:50:06.409Z,english_987.wav,0,1,1655,,,,,1,0.1,-39.20299527,1.12122948
LJL_2040,95,1,2024-06-17T12:50:06.409Z,english_987.wav,0,1,1655,,,,,2,0.2,78.9852337,1.12025045
LJL_2040,95,1,2024-06-17T12:50:06.409Z,english_987.wav,0,1,1655,,,,,3,0.3,-94.66209845,1.02557261
LJL_2040,95,1,2024-06-17T12:50:06.409Z,english_987.wav,0,1,1655,,,,,4,0.32341667,-71.76730894,1.06580695
LJL_2040,96,1,2024-06-17T12:53:26.802Z,english_883.wav,0,1,474,,,,,0,0,-17.60743744,1.86037562
LJL_2040,96,1,2024-06-17T12:53:26.802Z,english_883.wav,0,1,474,,,,,1,0.1,-37.46625877,0.9331332
LJL_2040,96,1,2024-06-17T12:53:26.802Z,english_883.wav,0,1,474,,,,,2,0.2,55.1108939,1.34322635
LJL_2040,96,1,2024-06-17T12:53:26.802Z,english_883.wav,0,1,474,,,,,3,0.3,87.45591348,0.07818604
LJL_2040,96,1,2024-06-17T12:53:26.802Z,english_883.wav,0,1,474,,,,,4,0.32341667,-90.78539671,1.31446095
LJL_2040,97,1,2024-06-17T12:53:26.802Z,english_328.wav,0,0,3254,,,,,0,0,-24.96515822,0.68772771
LJL_2040,97,1,2024-06-17T12:53:26.802Z,english_328.wav,0,0,3254,,,,,1,0.1,36.64267249,0.30369637
LJL_2040,97,1,2024-06-17T12:53:26.802Z,english_328.wav,0,0,3254,,,,,2,0.2,-93.60804347,1.16330199
LJL_2040,97,1,2024-06-17T12:53:26.802Z,english_328.wav,0,0,3254,,,,,3,0.3,9.86556644,0.69001341
LJL_2040,97,1,2024-06-17T12:53:26.802Z,english_328.wav,0,0,3254,,,,,4,0.32341667,-17.13685423,0.54642887
LJL_2040,98,1,2024-06-17T12:53:26.802Z,english_943.wav,0,1,3836,,,,,0,0,-88.39234314,0.07745413
LJL_2040,98,1,2024-06-17T12:53:26.802Z,english_943.wav,0,1,3836,,,,,1,0.1,65.27529367,1.64078214
LJL_2040,98,1,2024-06-17T12:53:26.802Z,english_943.wav,0,1,3836,,,,,2,0.2,-24.85222093,0.23468741
LJL_2040,98,1,2024-06-17T12:53:26.802Z,english_943.wav,0,1,3836,,,,,3,0.3,20.61002448,1.49561498
LJL_2040,98,1,2024-06-17T12:53:26.802Z,english_943.wav,0,1,3836,,,,,4,0.32341667,-74.64601709,1.25217021
LJL_2040,99,1,2024-06-17T12:53:26.802Z,english_201.wav,0,1,710,,,,,0,0,-11.66329209,1.59313322
LJL_2040,99,1,2024-06-17T12:53:26.802Z,english_201.wav,0,1,710,,,,,1,0.1,-73.85436231,1.78385616
LJL_2040,99,1,2024-06-17T12:53:26.802Z,english_201.wav,0,1,710,,,,,2,0.2,-12.5199597,0.57641365
LJL_2040,99,1,2024-06-17T12:53:26.802Z,english_201.wav,0,1,710,,,,,3,0.3,-44.18013019,1.54371285
LJL_2040,99,1,2024-06-17T12:53:26.802Z,english_201.wav,0,1,710,,,,,4,0.32341667,47.68284229,1.11944384
LJL_2040,100,2,2024-06-17T12:53:26.802Z,english_780.wav,0,0,1730,,,,,0,0,-15.29393571,0.99089132
LJL_2040,100,2,2024-06-17T12:53:26.802Z,english_780.wav,0,0,1730,,,,,1,0.1,-51.86215325,0.3216491
LJL_2040,100,2,2024-06-17T12:53:26.802Z,english_780.wav,0,0,1730,,,,,2,0.2,-27.43889325,1.38797184
LJL_2040,100,2,2024-06-17T12:53:26.802Z,english_780.wav,0,0,1730,,,,,3,0.3,37.56841363,0.96060741
LJL_2040,100,2,2024-06-17T12:53:26.802Z,english_780.wav,0,0,1730,,,,,4,0.32341667,-40.51855496,0.89048449
LJL_2040,101,2,2024-06-17T12:53:26.802Z,english_905.wav,0,0,722,,,,,0,0,73.76258642,1.30259847
LJL_2040,101,2,2024-06-17T12:53:26.802Z,english_905.wav,0,0,722,,,,,1,0.1,49.84186991,0.15786419
LJL_2040,101,2,2024-06-17T12:53:26.802Z,english_905.wav,0,0,722,,,,,2,0.2,-84.55275191,0.47562292
LJL_2040,101,2,2024-06-17T12:53:26.802Z,english_905.wav,0,0,722,,,,,3,0.3,70.45460649,1.69272047
LJL_2040,101,2,2024-06-17T12:53:26.802Z,english_905.wav,0,0,722,,,,,4,0.32341667,-84.87734561,1.28570309
LJL_2040,102,2,2024-06-17T12:53:26.802Z,english_556.wav,0,1,778,,,,,0,0,35.62658416,1.88481821
LJL_2040,102,2,2024-06-17T12:53:26.802Z,english_556.wav,0,1,778,,,,,1,0.1,28.75181601,0.4023528
LJL_2040,102,2,2024-06-17T12:53:26.802Z,english_556.wav,0,1,778,,,,,2,0.2,-2.62389444,1.49364055
LJL_2040,102,2,2024-06-17T12:53:26.802Z,english_556.wav,0,1,778,,,,,3,0.3,64.03572584,1.54190039
LJL_2040,102,2,2024-06-17T12:53:26.802Z,english_556.wav,0,1,778,,,,,4,0.32341667,72.79696002,0.53435232
LJL_2040,103,2,2024-06-17T12:53:26.802Z,english_641.wav,0,0,806,,,,,0,0,-90.88934322,1.28926835
LJL_2040,103,2,2024-06-17T12:53:26.802Z,english_641.wav,0,0,806,,,,,1,0.1,13.36673253,0.02464493
LJL_2040,103,2,2024-06-17T12:53:26.802Z,english_641.wav,0,0,806,,,,,2,0.2,-36.70414591,0.5505433
LJL_2040,103,2,2024-06-17T12:53:26.802Z,english_641.wav,0,0,806,,,,,3,0.3,-4.62417375,0.52188675
LJL_2040,103,2,2024-06-17T12:53:26.802Z,english_641.wav,0,0,806,,,,,4,0.32341667,15.34366305,0.01360039
LJL_2040,104,2,2024-06-17T12:53:26.802Z,english_464.wav,0,1,610,,,,,0,0,53.08614354,0.76512863
LJL_2040,104,2,2024-06-17T12:53:26.802Z,english_464.wav,0,1,610,,,,,1,0.1,30.21863436,1.75958979
LJL_2040,104,2,2024-06-17T12:53:26.802Z,english_464.wav,0,1,610,,,,,2,0.2,-72.79337117,0.91412587
LJL_2040,104,2,2024-06-17T12:53:26.802Z,english_464.wav,0,1,610,,,,,3,0.3,91.0452741,1.02089091
LJL_2040,104,2,2024-06-17T12:53:26.802Z,english_464.wav,0,1,610,,,,,4,0.32341667,-31.40181873,1.37846458
LJL_2040,105,2,2024-06-17T12:53:26.802Z,english_901.wav,0,1,638,,,,,0,0,-14.81770559,1.5194741
LJL_2040,105,2,2024-06-17T12:53:26.802Z,english_901.wav,0,1,638,,,,,1,0.1,-27.73561163,1.98674938
LJL_2040,105,2,2024-06-17T12:53:26.802Z,english_901.wav,0,1,638,,,,,2,0.2,-22.44015454,0.54356598
LJL_2040,105,2,2024-06-17T12:53:26.802Z,english_901.wav,0,1,638,,,,,3,0.3,-41.34815185,1.30497628
LJL_2040,105,2,2024-06-17T12:53:26.802Z,english_901.wav,0,1,638,,,,,4,0.32341667,10.13492358,0.61526789
LJL_2040,106,2,2024-06-17T12:53:26.802Z,english_703.wav,0,1,1000,,,,,0,0,21.25560127,1.22587136
LJL_2040,106,2,2024-06-17T12:53:26.802Z,english_703.wav,0,1,1000,,,,,1,0.1,-5.61566417,1.28752652
LJL_2040,106,2,2024-06-17T12:53:26.802Z,english_703.wav,0,1,1000,,,,,2,0.2,-88.15973778,1.61643937
LJL_2040,106,2,2024-06-17T12:53:26.802Z,english_703.wav,0,1,1000,,,,,3,0.3,39.86499493,1.32560109
LJL_2040,106,2,2024-06-17T12:53:26.802Z,english_703.wav,0,1,1000,,,,,4,0.32341667,64.67338156,0.74206522
LJL_2040,107,2,2024-06-17T12:53:26.802Z,english_18.wav,0,1,1736,,,,,0,0,-61.9567004,0.45038722
LJL_2040,107,2,2024-06-17T12:53:26.802Z,english_18.wav,0,1,1736,,,,,1,0.1,39.2027204,1.56185221
LJL_2040,107,2,2024-06-17T12:53:26.802Z,english_18.wav,0,1,1736,,,,,2,0.2,-0.0626834214,0.80652275
LJL_2040,107,2,2024-06-17T12:53:26.802Z,english_18.wav,0,1,1736,,,,,3,0.3,-72.2820301,0.39505163
LJL_2040,107,2,2024-06-17T12:53:26.802Z,english_18.wav,0,1,1736,,,,,4,0.323416667,-52.9459242,0.50402069
LJL_2040,108,2,2024-06-17T12:53:26.802Z,english_424.wav,0,1,2162,,,,,0,0,-7.44814198,1.7438251
LJL_2040,108,2,2024-06-17T12:53:26.802Z,english_424.wav,0,1,2162,,,,,1,0.1,9.0703424,1.33993463
LJL_2040,108,2,2024-06-17T12:53:26.802Z,english_424.wav,0,1,2162,,,,,2,0.2,-65.6005214,0.96535207
LJL_2040,108,2,2024-06-17T12:53:26.802Z,english_424.wav,0,1,2162,,,,,3,0.3,79.88163057,0.39557207
LJL_2040,108,2,2024-06-17T12:53:26.802Z,english_424.wav,0,1,2162,,,,,4,0.32341667,48.78273262,0.47346175
LJL_2040,109,2,2024-06-17T12:53:26.802Z,english_918.wav,0,1,4708,,,,,0,0,-64.11083249,1.38668504
LJL_2040,109,2,2024-06-17T12:53:26.802Z,english_918.wav,0,1,4708,,,,,1,0.1,75.84330997,1.4522357
LJL_2040,109,2,2024-06-17T12:53:26.802Z,english_918.wav,0,1,4708,,,,,2,0.2,-30.10314186,1.37046734
LJL_2040,109,2,2024-06-17T12:53:26.802Z,english_918.wav,0,1,4708,,,,,3,0.3,91.40385877,0.70209545
LJL_2040,109,2,2024-06-17T12:53:26.802Z,english_918.wav,0,1,4708,,,,,4,0.32341667,-14.12068895,0.09881605
LJL_2040,110,2,2024-06-17T12:53:26.802Z,english_495.wav,0,0,924,,,,,0,0,-5.58861003,1.32978923
LJL_2040,110,2,2024-06-17T12:53:26.802Z,english_495.wav,0,0,924,,,,,1,0.1,8.95176437,0.81778757
LJL_2040,110,2,2024-06-17T12:53:26.802Z,english_495.wav,0,0,924,,,,,2,0.2,39.42206983,0.66481361
LJL_2040,110,2,2024-06-17T12:53:26.802Z,english_495.wav,0,0,924,,,,,3,0.3,-84.38976819,0.35850052
LJL_2040,110,2,2024-06-17T12:53:26.802Z,english_495.wav,0,0,924,,,,,4,0.32341667,-2.90431636,0.23899864
LJL_2040,111,2,2024-06-17T12:53:26.802Z,english_882.wav,0,1,606,,,,,0,0,-42.93700265,1.06489748
LJL_2040,111,2,2024-06-17T12:53:26.802Z,english_882.wav,0,1,606,,,,,1,0.1,-62.35786663,1.38883859
LJL_2040,111,2,2024-06-17T12:53:26.802Z,english_882.wav,0,1,606,,,,,2,0.2,-16.20482572,0.28843799
LJL_2040,111,2,2024-06-17T12:53:26.802Z,english_882.wav,0,1,606,,,,,3,0.3,-46.49020195,1.05408179
LJL_2040,111,2,2024-06-17T12:53:26.802Z,english_882.wav,0,1,606,,,,,4,0.32341667,-64.89408339,1.78517837
LJL_2040,112,2,2024-06-17T12:53:26.802Z,english_23.wav,0,0,2066,,,,,0,0,-50.80982819,0.58244855
LJL_2040,112,2,2024-06-17T12:53:26.802Z,english_23.wav,0,0,2066,,,,,1,0.1,76.10516215,1.77510268
LJL_2040,112,2,2024-06-17T12:53:26.802Z,english_23.wav,0,0,2066,,,,,2,0.2,-90.32463898,0.60847707
LJL_2040,112,2,2024-06-17T12:53:26.802Z,english_23.wav,0,0,2066,,,,,3,0.3,15.76928166,0.62114149
LJL_2040,112,2,2024-06-17T12:53:26.802Z,english_23.wav,0,0,2066,,,,,4,0.32341667,-7.56392806,1.60162938
LJL_2040,113,2,2024-06-17T12:53:26.802Z,english_311.wav,0,0,722,,,,,0,0,-35.59355899,0.16094856
LJL_2040,113,2,2024-06-17T12:53:26.802Z,english_311.wav,0,0,722,,,,,1,0.1,-50.39310557,1.33895436
LJL_2040,113,2,2024-06-17T12:53:26.802Z,english_311.wav,0,0,722,,,,,2,0.2,-53.37222601,0.01028283
LJL_2040,113,2,2024-06-17T12:53:26.802Z,english_311.wav,0,0,722,,,,,3,0.3,72.25802658,0.48497386
LJL_2040,113,2,2024-06-17T12:53:26.802Z,english_311.wav,0,0,722,,,,,4,0.32341667,48.72421008,0.48591183
LJL_2040,114,2,2024-06-17T12:53:26.802Z,english_245.wav,0,1,738,,,,,0,0,74.89239003,1.30710747
LJL_2040,114,2,2024-06-17T12:53:26.802Z,english_245.wav,0,1,738,,,,,1,0.1,41.98679172,0.93119149
LJL_2040,114,2,2024-06-17T12:53:26.802Z,english_245.wav,0,1,738,,,,,2,0.2,99.42105985,1.84379828
LJL_2040,114,2,2024-06-17T12:53:26.802Z,english_245.wav,0,1,738,,,,,3,0.3,-75.11958538,1.72828743
LJL_2040,114,2,2024-06-17T12:53:26.802Z,english_245.wav,0,1,738,,,,,4,0.32341667,-62.10664415,0.50124118
LJL_2040,115,2,2024-06-17T12:53:26.802Z,english_994.wav,0,1,1388,,,,,0,0,53.6083957,1.72152032
LJL_2040,115,2,2024-06-17T12:53:26.802Z,english_994.wav,0,1,1388,,,,,1,0.1,62.5650281,0.97077126
LJL_2040,115,2,2024-06-17T12:53:26.802Z,english_994.wav,0,1,1388,,,,,2,0.2,91.00734213,1.1154275
LJL_2040,115,2,2024-06-17T12:53:26.802Z,english_994.wav,0,1,1388,,,,,3,0.3,-14.6853323,0.93534142
LJL_2040,115,2,2024-06-17T12:53:26.802Z,english_994.wav,0,1,1388,,,,,4,0.32341667,42.94025292,1.51312842
LJL_2040,116,2,2024-06-17T12:53:26.802Z,english_984.wav,0,0,6900,,,,,0,0,-4.00148485,1.68596177
LJL_2040,116,2,2024-06-17T12:53:26.802Z,english_984.wav,0,0,6900,,,,,1,0.1,26.28173365,0.06678014
LJL_2040,116,2,2024-06-17T12:53:26.802Z,english_984.wav,0,0,6900,,,,,2,0.2,80.79042683,0.65490985
LJL_2040,116,2,2024-06-17T12:53:26.802Z,english_984.wav,0,0,6900,,,,,3,0.3,94.69131331,0.57269921
LJL_2040,116,2,2024-06-17T12:53:26.802Z,english_984.wav,0,0,6900,,,,,4,0.32341667,75.17511154,0.71264295
LJL_2040,117,2,2024-06-17T12:53:26.802Z,english_45.wav,0,1,546,,,,,0,0,72.55677234,0.302627
LJL_2040,117,2,2024-06-17T12:53:26.802Z,english_45.wav,0,1,546,,,,,1,0.1,34.43244276,1.957389
LJL_2040,117,2,2024-06-17T12:53:26.802Z,english_45.wav,0,1,546,,,,,2,0.2,12.66368291,1.1456601
LJL_2040,117,2,2024-06-17T12:53:26.802Z,english_45.wav,0,1,546,,,,,3,0.3,47.17471186,1.77472104
LJL_2040,117,2,2024-06-17T12:53:26.802Z,english_45.wav,0,1,546,,,,,4,0.32341667,-48.2883803,1.7760992
LJL_2040,118,2,2024-06-17T12:53:26.802Z,english_138.wav,0,0,896,,,,,0,0,-79.80620147,0.37063564
LJL_2040,118,2,2024-06-17T12:53:26.802Z,english_138.wav,0,0,896,,,,,1,0.1,-15.42889109,0.81801141
LJL_2040,118,2,2024-06-17T12:53:26.802Z,english_138.wav,0,0,896,,,,,2,0.2,-88.31677226,0.0634538
LJL_2040,118,2,2024-06-17T12:53:26.802Z,english_138.wav,0,0,896,,,,,3,0.3,26.6486106,1.85131452
LJL_2040,118,2,2024-06-17T12:53:26.802Z,english_138.wav,0,0,896,,,,,4,0.32341667,-42.18894711,1.66059024
LJL_2040,119,2,2024-06-17T12:53:26.802Z,english_396.wav,0,1,2652,,,,,0,0,2.39126912,1.48231007
LJL_2040,119,2,2024-06-17T12:53:26.802Z,english_396.wav,0,1,2652,,,,,1,0.1,-38.95035948,0.85829723
LJL_2040,119,2,2024-06-17T12:53:26.802Z,english_396.wav,0,1,2652,,,,,2,0.2,78.31320688,1.16655306
LJL_2040,119,2,2024-06-17T12:53:26.802Z,english_396.wav,0,1,2652,,,,,3,0.3,16.98024706,0.51680164
LJL_2040,119,2,2024-06-17T12:53:26.802Z,english_396.wav,0,1,2652,,,,,4,0.32341667,44.66397079,1.5133775
LJL_2040,120,2,2024-06-17T12:53:26.802Z,english_940.wav,0,0,1091,,,,,0,0,47.11462569,0.32214594
LJL_2040,120,2,2024-06-17T12:53:26.802Z,english_940.wav,0,0,1091,,,,,1,0.1,11.81885745,0.21999868
LJL_2040,120,2,2024-06-17T12:53:26.802Z,english_940.wav,0,0,1091,,,,,2,0.2,-1.49931669,0.34357292
LJL_2040,120,2,2024-06-17T12:53:26.802Z,english_940.wav,0,0,1091,,,,,3,0.3,45.92466934,1.61274527
LJL_2040,120,2,2024-06-17T12:53:26.802Z,english_940.wav,0,0,1091,,,,,4,0.32341667,-72.78738407,0.9185628
LJL_2040,121,2,2024-06-17T12:53:26.802Z,english_452.wav,0,1,4316,,,,,0,0,-15.91859121,0.16050204
LJL_2040,121,2,2024-06-17T12:53:26.802Z,english_452.wav,0,1,4316,,,,,1,0.1,66.54493607,1.05820221
LJL_2040,121,2,2024-06-17T12:53:26.802Z,english_452.wav,0,1,4316,,,,,2,0.2,49.2405228,1.42476674
LJL_2040,121,2,2024-06-17T12:53:26.802Z,english_452.wav,0,1,4316,,,,,3,0.3,-8.75382859,0.48128336
LJL_2040,121,2,2024-06-17T12:53:26.802Z,english_452.wav,0,1,4316,,,,,4,0.32341667,-35.51952716,0.52453318
LJL_2040,122,2,2024-06-17T12:53:26.802Z,english_864.wav,0,1,972,,,,,0,0,-41.66547405,0.15536101
LJL_2040,122,2,2024-06-17T12:53:26.802Z,english_864.wav,0,1,972,,,,,1,0.1,47.36949562,1.78739046
LJL_2040,122,2,2024-06-17T12:53:26.802Z,english_864.wav,0,1,972,,,,,2,0.2,87.97635609,1.48310956
LJL_2040,122,2,2024-06-17T12:53:26.802Z,english_864.wav,0,1,972,,,,,3,0.3,-18.88921291,0.35838492
LJL_2040,122,2,2024-06-17T12:53:26.802Z,english_864.wav,0,1,972,,,,,4,0.32341667,13.88839096,0.21709894
LJL_2040,123,2,2024-06-17T12:53:26.802Z,english_576.wav,0,1,2820,,,,,0,0,70.71636046,1.40655209
LJL_2040,123,2,2024-06-17T12:53:26.802Z,english_576.wav,0,1,2820,,,,,1,0.1,-53.10414049,0.7609351
LJL_2040,123,2,2024-06-17T12:53:26.802Z,english_576.wav,0,1,2820,,,,,2,0.2,34.4374047,1.0155723
LJL_2040,123,2,2024-06-17T12:53:26.802Z,english_576.wav,0,1,2820,,,,,3,0.3,19.64113521,1.45906276
LJL_2040,123,2,2024-06-17T12:53:26.802Z,english_576.wav,0,1,2820,,,,,4,0.32341667,36.63265498,1.49724695
LJL_2040,124,2,2024-06-17T12:53:26.802Z,english_676.wav,0,1,1120,,,,,0,0,3.93099148,1.7716209
LJL_2040,124,2,2024-06-17T12:53:26.802Z,english_676.wav,0,1,1120,,,,,1,0.1,73.76311644,1.97281878
LJL_2040,124,2,2024-06-17T12:53:26.802Z,english_676.wav,0,1,1120,,,,,2,0.2,-26.92634129,1.42487848
LJL_2040,124,2,2024-06-17T12:53:26.802Z,english_676.wav,0,1,1120,,,,,3,0.3,51.70874443,1.45099775
LJL_2040,124,2,2024-06-17T12:53:26.802Z,english_676.wav,0,1,1120,,,,,4,0.32341667,-48.7675791,1.84822532
LJL_2040,125,2,2024-06-17T12:53:26.802Z,english_44.wav,0,0,2098,,,,,0,0,-68.86201344,1.38154723
LJL_2040,125,2,2024-06-17T12:53:26.802Z,english_44.wav,0,0,2098,,,,,1,0.1,36.61833882,0.11193842
LJL_2040,125,2,2024-06-17T12:53:26.802Z,english_44.wav,0,0,2098,,,,,2,0.2,-60.65796264,0.83798569
LJL_2040,125,2,2024-06-17T12:53:26.802Z,english_44.wav,0,0,2098,,,,,3,0.3,-99.582901,0.3073865
LJL_2040,125,2,2024-06-17T12:53:26.802Z,english_44.wav,0,0,2098,,,,,4,0.32341667,68.59920212,1.10922951
LJL_2040,126,2,2024-06-17T12:53:26.802Z,english_166.wav,0,1,476,,,,,0,0,37.27670025,1.42766663
LJL_2040,126,2,2024-06-17T12:53:26.802Z,english_166.wav,0,1,476,,,,,1,0.1,34.38847046,0.72731767
LJL_2040,126,2,2024-06-17T12:53:26.802Z,english_166.wav,0,1,476,,,,,2,0.2,49.91842175,1.80608275
LJL_2040,126,2,2024-06-17T12:53:26.802Z,english_166.wav,0,1,476,,,,,3,0.3,56.9541748,1.91598421
LJL_2040,126,2,2024-06-17T12:53:26.802Z,english_166.wav,0,1,476,,,,,4,0.32341667,10.97290623,1.21084105
LJL_2040,127,2,2024-06-17T12:53:26.802Z,english_969.wav,0,0,1944,,,,,0,0,0.27440165,1.49550116
LJL_2040,127,2,2024-06-17T12:53:26.802Z,english_969.wav,0,0,1944,,,,,1,0.1,32.90941676,1.08086357
LJL_2040,127,2,2024-06-17T12:53:26.802Z,english_969.wav,0,0,1944,,,,,2,0.2,65.54691775,0.25687245
LJL_2040,127,2,2024-06-17T12:53:26.802Z,english_969.wav,0,0,1944,,,,,3,0.3,38.11090315,0.33107225
LJL_2040,127,2,2024-06-17T12:53:26.802Z,english_969.wav,0,0,1944,,,,,4,0.32341667,-66.49311905,0.72842933
LJL_2040,128,2,2024-06-17T12:53:26.802Z,english_763.wav,0,1,1350,,,,,0,0,64.63144232,0.7800836
LJL_2040,128,2,2024-06-17T12:53:26.802Z,english_763.wav,0,1,1350,,,,,1,0.1,8.86346429,1.26656169
LJL_2040,128,2,2024-06-17T12:53:26.802Z,english_763.wav,0,1,1350,,,,,2,0.2,32.79569159,1.93170043
LJL_2040,128,2,2024-06-17T12:53:26.802Z,english_763.wav,0,1,1350,,,,,3,0.3,10.55051177,0.29422641
LJL_2040,128,2,2024-06-17T12:53:26.802Z,english_763.wav,0,1,1350,,,,,4,0.32341667,6.38738619,1.43860225
LJL_2040,129,2,2024-06-17T12:53:26.802Z,english_484.wav,0,0,1060,,,,,0,0,79.97188672,0.20745104
LJL_2040,129,2,2024-06-17T12:53:26.802Z,english_484.wav,0,0,1060,,,,,1,0.1,-84.58904822,1.46214797
LJL_2040,129,2,2024-06-17T12:53:26.802Z,english_484.wav,0,0,1060,,,,,2,0.2,70.2960477,0.40821612
LJL_2040,129,2,2024-06-17T12:53:26.802Z,english_484.wav,0,0,1060,,,,,3,0.3,-66.44520929,1.23203415
LJL_2040,129,2,2024-06-17T12:53:26.802Z,english_484.wav,0,0,1060,,,,,4,0.32341667,-78.91715359,1.26593617
LJL_2040,130,2,2024-06-17T12:53:26.802Z,english_39.wav,0,0,996,,,,,0,0,28.0167149,1.3269735
LJL_2040,130,2,2024-06-17T12:53:26.802Z,english_39.wav,0,0,996,,,,,1,0.1,0.73047565,0.59121622
LJL_2040,130,2,2024-06-17T12:53:26.802Z,english_39.wav,0,0,996,,,,,2,0.2,-55.83763262,0.32613901
LJL_2040,130,2,2024-06-17T12:53:26.802Z,english_39.wav,0,0,996,,,,,3,0.3,-59.78026112,1.39661139
LJL_2040,130,2,2024-06-17T12:53:26.802Z,english_39.wav,0,0,996,,,,,4,0.32341667,81.1603589,0.76065887
LJL_2040,131,2,2024-06-17T12:53:26.802Z,english_12.wav,0,0,3538,,,,,0,0,48.33680056,1.48429429
LJL_2040,131,2,2024-06-17T12:53:26.802Z,english_12.wav,0,0,3538,,,,,1,0.1,27.41870997,0.15715938
LJL_2040,131,2,2024-06-17T12:53:26.802Z,english_12.wav,0,0,3538,,,,,2,0.2,-39.95667364,0.62940339
LJL_2040,131,2,2024-06-17T12:53:26.802Z,english_12.wav,0,0,3538,,,,,3,0.3,73.52964836,0.05281398
LJL_2040,131,2,2024-06-17T12:53:26.802Z,english_12.wav,0,0,3538,,,,,4,0.32341667,-36.35494906,1.6412938
LJL_2040,132,2,2024-06-17T12:53:26.802Z,english_632.wav,0,1,666,,,,,0,0,-56.22391322,1.21249895
LJL_2040,132,2,2024-06-17T12:53:26.802Z,english_632.wav,0,1,666,,,,,1,0.1,-47.59423942,0.39515719
LJL_2040,132,2,2024-06-17T12:53:26.802Z,english_632.wav,0,1,666,,,,,2,0.2,91.93727259,1.8528852
LJL_2040,132,2,2024-06-17T12:53:26.802Z,english_632.wav,0,1,666,,,,,3,0.3,-33.89646621,1.67254104
LJL_2040,132,2,2024-06-17T12:53:26.802Z,english_632.wav,0,1,666,,,,,4,0.32341667,46.88387871,1.21014685
LJL_2040,133,2,2024-06-17T12:53:26.802Z,english_179.wav,0,1,1024,,,,,0,0,76.93131114,0.23318107
LJL_2040,133,2,2024-06-17T12:53:26.802Z,english_179.wav,0,1,1024,,,,,1,0.1,5.5150778,0.47080089
LJL_2040,133,2,2024-06-17T12:53:26.802Z,english_179.wav,0,1,1024,,,,,2,0.2,3.89208722,1.31062884
LJL_2040,133,2,2024-06-17T12:53:26.802Z,english_179.wav,0,1,1024,,,,,3,0.3,-8.47825544,0.27743795
LJL_2040,133,2,2024-06-17T12:53:26.802Z,english_179.wav,0,1,1024,,,,,4,0.32341667,50.73924617,0.83516241
LJL_2040,134,2,2024-06-17T12:53:26.802Z,english_963.wav,0,1,566,,,,,0,0,-60.03327616,0.86711865
LJL_2040,134,2,2024-06-17T12:53:26.802Z,english_963.wav,0,1,566,,,,,1,0.1,-15.51067414,1.69273621
LJL_2040,134,2,2024-06-17T12:53:26.802Z,english_963.wav,0,1,566,,,,,2,0.2,59.36715957,0.74157302
LJL_2040,134,2,2024-06-17T12:53:26.802Z,english_963.wav,0,1,566,,,,,3,0.3,-98.70464219,1.73078555
LJL_2040,134,2,2024-06-17T12:53:26.802Z,english_963.wav,0,1,566,,,,,4,0.32341667,37.26723218,1.37482324
LJL_2040,135,2,2024-06-17T12:53:26.802Z,english_572.wav,0,0,868,,,,,0,0,-16.16189062,1.82210005
LJL_2040,135,2,2024-06-17T12:53:26.802Z,english_572.wav,0,0,868,,,,,1,0.1,-40.8511413,0.80249033
LJL_2040,135,2,2024-06-17T12:53:26.802Z,english_572.wav,0,0,868,,,,,2,0.2,-77.3747243,0.69959732
LJL_2040,135,2,2024-06-17T12:53:26.802Z,english_572.wav,0,0,868,,,,,3,0.3,87.62803369,0.43311894
LJL_2040,135,2,2024-06-17T12:53:26.802Z,english_572.wav,0,0,868,,,,,4,0.32341667,81.6005998,1.25204325
LJL_2040,136,2,2024-06-17T12:53:26.802Z,english_293.wav,0,1,3004,,,,,0,0,-22.15906653,1.76366583
LJL_2040,136,2,2024-06-17T12:53:26.802Z,english_293.wav,0,1,3004,,,,,1,0.1,-88.62057809,0.55660069
LJL_2040,136,2,2024-06-17T12:53:26.802Z,english_293.wav,0,1,3004,,,,,2,0.2,-18.47979893,1.17282558
LJL_2040,136,2,2024-06-17T12:53:26.802Z,english_293.wav,0,1,3004,,,,,3,0.3,-74.2852497,0.49477424
LJL_2040,136,2,2024-06-17T12:53:26.802Z,english_293.wav,0,1,3004,,,,,4,0.32341667,59.45323022,0.66659794
LJL_2040,137,2,2024-06-17T12:53:26.802Z,english_853.wav,0,0,686,,,,,0,0,87.83319324,0.81037323
LJL_2040,137,2,2024-06-17T12:53:26.802Z,english_853.wav,0,0,686,,,,,1,0.1,64.16710312,1.2495933
LJL_2040,137,2,2024-06-17T12:53:26.802Z,english_853.wav,0,0,686,,,,,2,0.2,12.98667351,0.22916278
LJL_2040,137,2,2024-06-17T12:53:26.802Z,english_853.wav,0,0,686,,,,,3,0.3,25.03434444,0.67764146
LJL_2040,137,2,2024-06-17T12:53:26.802Z,english_853.wav,0,0,686,,,,,4,0.32341667,98.3458188,0.13807639
LJL_2040,138,2,2024-06-17T12:53:26.802Z,english_785.wav,0,1,494,,,,,0,0,41.51350967,0.93543931
LJL_2040,138,2,2024-06-17T12:53:26.802Z,english_785.wav,0,1,494,,,,,1,0.1,26.23517368,1.17819894
LJL_2040,138,2,2024-06-17T12:53:26.802Z,english_785.wav,0,1,494,,,,,2,0.2,-12.63822228,1.98833146
LJL_2040,138,2,2024-06-17T12:53:26.802Z,english_785.wav,0,1,494,,,,,3,0.3,-30.66588474,0.80021218
LJL_2040,138,2,2024-06-17T12:53:26.802Z,english_785.wav,0,1,494,,,,,4,0.32341667,26.08399401,1.2737519
LJL_2040,139,2,2024-06-17T12:53:26.802Z,english_214.wav,0,1,544,,,,,0,0,58.82847816,1.81864401
LJL_2040,139,2,2024-06-17T12:53:26.802Z,english_214.wav,0,1,544,,,,,1,0.1,87.26801489,0.97241975
LJL_2040,139,2,2024-06-17T12:53:26.802Z,english_214.wav,0,1,544,,,,,2,0.2,-28.10234025,1.91423566
LJL_2040,139,2,2024-06-17T12:53:26.802Z,english_214.wav,0,1,544,,,,,3,0.3,-36.12188516,1.71940232
LJL_2040,139,2,2024-06-17T12:53:26.802Z,english_214.wav,0,1,544,,,,,4,0.32341667,-45.93983978,0.68694042
LJL_2040,140,2,2024-06-17T12:53:26.802Z,english_301.wav,0,1,824,,,,,0,0,-78.18927369,1.31935747
LJL_2040,140,2,2024-06-17T12:53:26.802Z,english_301.wav,0,1,824,,,,,1,0.1,-3.52439177,1.41636911
LJL_2040,140,2,2024-06-17T12:53:26.802Z,english_301.wav,0,1,824,,,,,2,0.2,-23.22473782,1.38842862
LJL_2040,140,2,2024-06-17T12:53:26.802Z,english_301.wav,0,1,824,,,,,3,0.3,-11.7220967,1.25169603
LJL_2040,140,2,2024-06-17T12:53:26.802Z,english_301.wav,0,1,824,,,,,4,0.32341667,-5.78047748,1.38740104
LJL_2040,141,2,2024-06-17T12:53:26.802Z,english_865.wav,0,0,1640,,,,,0,0,57.45647421,1.64387024
LJL_2040,141,2,2024-06-17T12:53:26.802Z,english_865.wav,0,0,1640,,,,,1,0.1,-62.30549211,0.05749027
LJL_2040,141,2,2024-06-17T12:53:26.802Z,english_865.wav,0,0,1640,,,,,2,0.2,-35.85649312,0.09554773
LJL_2040,141,2,2024-06-17T12:53:26.802Z,english_865.wav,0,0,1640,,,,,3,0.3,55.00701181,1.62598434
LJL_2040,141,2,2024-06-17T12:53:26.802Z,english_865.wav,0,0,1640,,,,,4,0.32341667,-39.97662747,0.71232625
LJL_2040,142,2,2024-06-17T12:53:26.802Z,english_813.wav,0,0,1744,,,,,0,0,55.66932548,1.32885027
LJL_2040,142,2,2024-06-17T12:53:26.802Z,english_813.wav,0,0,1744,,,,,1,0.1,81.68960615,1.76450173
LJL_2040,142,2,2024-06-17T12:53:26.802Z,english_813.wav,0,0,1744,,,,,2,0.2,55.75765178,0.71046445
LJL_2040,142,2,2024-06-17T12:53:26.802Z,english_813.wav,0,0,1744,,,,,3,0.3,-1.25572602,1.00431818
LJL_2040,142,2,2024-06-17T12:53:26.802Z,english_813.wav,0,0,1744,,,,,4,0.32341667,95.15429199,0.60962601
LJL_2040,143,2,2024-06-17T12:53:26.802Z,english_569.wav,0,0,1008,,,,,0,0,-44.4695194,1.56768834
LJL_2040,143,2,2024-06-17T12:53:26.802Z,english_569.wav,0,0,1008,,,,,1,0.1,50.36705327,0.42032873
LJL_2040,143,2,2024-06-17T12:53:26.802Z,english_569.wav,0,0,1008,,,,,2,0.2,-76.17438636,0.31133764
LJL_2040,143,2,2024-06-17T12:53:26.802Z,english_569.wav,0,0,1008,,,,,3,0.3,55.47083669,0.91900801
LJL_2040,143,2,2024-06-17T12:53:26.802Z,english_569.wav,0,0,1008,,,,,4,0.32341667,-10.68913609,1.26529561
LJL_2040,144,2,2024-06-17T12:53:26.802Z,english_483.wav,0,1,2718,,,,,0,0,-5.76716701,0.46419013
LJL_2040,144,2,2024-06-17T12:53:26.802Z,english_483.wav,0,1,2718,,,,,1,0.1,70.49761143,1.51640771
LJL_2040,144,2,2024-06-17T12:53:26.802Z,english_483.wav,0,1,2718,,,,,2,0.2,-45.60331281,0.16811565
LJL_2040,144,2,2024-06-17T12:53:26.802Z,english_483.wav,0,1,2718,,,,,3,0.3,83.6717315,0.53401791
LJL_2040,144,2,2024-06-17T12:53:26.802Z,english_483.wav,0,1,2718,,,,,4,0.32341667,-49.24362833,1.0404632
LJL_2040,145,2,2024-06-17T12:53:26.802Z,english_951.wav,0,1,799,,,,,0,0,-0.1209724,0.19208806
LJL_2040,145,2,2024-06-17T12:53:26.802Z,english_951.wav,0,1,799,,,,,1,0.1,-14.6507611,1.44795721
LJL_2040,145,2,2024-06-17T12:53:26.802Z,english_951.wav,0,1,799,,,,,2,0.2,-2.36153686,0.88209985
LJL_2040,145,2,2024-06-17T12:53:26.802Z,english_951.wav,0,1,799,,,,,3,0.3,15.28547447,1.97099669
LJL_2040,145,2,2024-06-17T12:53:26.802Z,english_951.wav,0,1,799,,,,,4,0.32341667,-0.16445922,0.158195
LJL_2040,146,2,2024-06-17T12:53:26.802Z,english_517.wav,0,1,624,,,,,0,0,11.23661905,0.76208972
LJL_2040,146,2,2024-06-17T12:53:26.802Z,english_517.wav,0,1,624,,,,,1,0.1,58.81241605,0.18193562
LJL_2040,146,2,2024-06-17T12:53:26.802Z,english_517.wav,0,1,624,,,,,2,0.2,38.38790279,1.85963831
LJL_2040,146,2,2024-06-17T12:53:26.802Z,english_517.wav,0,1,624,,,,,3,0.3,-74.61462092,0.20223028
LJL_2040,146,2,2024-06-17T12:53:26.802Z,english_517.wav,0,1,624,,,,,4,0.32341667,-36.69086471,1.46287498
LJL_2040,147,2,2024-06-17T12:53:26.802Z,english_971.wav,0,0,1568,,,,,0,0,27.0641734,0.01013217
LJL_2040,147,2,2024-06-17T12:53:26.802Z,english_971.wav,0,0,1568,,,,,1,0.1,-43.13434162,0.95424486
LJL_2040,147,2,2024-06-17T12:53:26.802Z,english_971.wav,0,0,1568,,,,,2,0.2,83.45364082,1.16332163
LJL_2040,147,2,2024-06-17T12:53:26.802Z,english_971.wav,0,0,1568,,,,,3,0.3,46.6736971,0.56494555
LJL_2040,147,2,2024-06-17T12:53:26.802Z,english_971.wav,0,0,1568,,,,,4,0.32341667,-28.9166607,0.73596031
LJL_2040,148,2,2024-06-17T12:53:26.802Z,english_927.wav,0,1,1320,,,,,0,0,81.66311017,1.3783001
LJL_2040,148,2,2024-06-17T12:53:26.802Z,english_927.wav,0,1,1320,,,,,1,0.1,0.87570902,0.51323502
LJL_2040,148,2,2024-06-17T12:53:26.802Z,english_927.wav,0,1,1320,,,,,2,0.2,-59.21619647,0.98265958
LJL_2040,148,2,2024-06-17T12:53:26.802Z,english_927.wav,0,1,1320,,,,,3,0.3,-57.6787773,0.30790993
LJL_2040,148,2,2024-06-17T12:53:26.802Z,english_927.wav,0,1,1320,,,,,4,0.32341667,-30.87043146,1.17222751
LJL_2040,149,2,2024-06-17T12:53:26.802Z,english_379.wav,0,1,2228,,,,,0,0,30.14616912,1.43961489
LJL_2040,149,2,2024-06-17T12:53:26.802Z,english_379.wav,0,1,2228,,,,,1,0.1,-79.51193423,1.4219763
LJL_2040,149,2,2024-06-17T12:53:26.802Z,english_379.wav,0,1,2228,,,,,2,0.2,7.34860539,0.62633101
LJL_2040,149,2,2024-06-17T12:53:26.802Z,english_379.wav,0,1,2228,,,,,3,0.3,-43.99342265,1.13621958
LJL_2040,149,2,2024-06-17T12:53:26.802Z,english_379.wav,0,1,2228,,,,,4,0.32341667,37.72881761,1.35387794
LJL_2040,150,3,2024-06-17T12:53:26.802Z,english_836.wav,0,0,700,,,,,0,0,34.85846782,1.04017402
LJL_2040,150,3,2024-06-17T12:53:26.802Z,english_836.wav,0,0,700,,,,,1,0.1,41.54458908,0.35535359
LJL_2040,150,3,2024-06-17T12:53:26.802Z,english_836.wav,0,0,700,,,,,2,0.2,23.27363575,0.10471693
LJL_2040,150,3,2024-06-17T12:53:26.802Z,english_836.wav,0,0,700,,,,,3,0.3,86.83996211,0.55523491
LJL_2040,150,3,2024-06-17T12:53:26.802Z,english_836.wav,0,0,700,,,,,4,0.32341667,-32.25656931,0.70311776
LJL_2040,151,3,2024-06-17T12:53:26.802Z,english_593.wav,0,1,3768,,,,,0,0,0.23295982,1.83954553
LJL_2040,151,3,2024-06-17T12:53:26.802Z,english_593.wav,0,1,3768,,,,,1,0.1,-0.52832444,1.77820403
LJL_2040,151,3,2024-06-17T12:53:26.802Z,english_593.wav,0,1,3768,,,,,2,0.2,18.28609946,0.36770598
LJL_2040,151,3,2024-06-17T12:53:26.802Z,english_593.wav,0,1,3768,,,,,3,0.3,21.25816485,0.42189114
LJL_2040,151,3,2024-06-17T12:53:26.802Z,english_593.wav,0,1,3768,,,,,4,0.32341667,60.44039038,0.07588974
LJL_2040,152,3,2024-06-17T12:53:26.802Z,english_613.wav,0,0,796,,,,,0,0,-12.80235787,0.8409713
LJL_2040,152,3,2024-06-17T12:53:26.802Z,english_613.wav,0,0,796,,,,,1,0.1,38.67858639,0.30410002
LJL_2040,152,3,2024-06-17T12:53:26.802Z,english_613.wav,0,0,796,,,,,2,0.2,21.08834288,0.031636
LJL_2040,152,3,2024-06-17T12:53:26.802Z,english_613.wav,0,0,796,,,,,3,0.3,94.81469787,1.79222997
LJL_2040,152,3,2024-06-17T12:53:26.802Z,english_613.wav,0,0,796,,,,,4,0.32341667,18.45506868,1.98455664
LJL_2040,153,3,2024-06-17T12:53:26.802Z,english_938.wav,0,1,5684,,,,,0,0,55.68553541,1.13527087
LJL_2040,153,3,2024-06-17T12:53:26.802Z,english_938.wav,0,1,5684,,,,,1,0.1,19.57508628,0.57526943
LJL_2040,153,3,2024-06-17T12:53:26.802Z,english_938.wav,0,1,5684,,,,,2,0.2,99.59707332,0.71873046
LJL_2040,153,3,2024-06-17T12:53:26.802Z,english_938.wav,0,1,5684,,,,,3,0.3,-43.3789335,0.88566698
LJL_2040,153,3,2024-06-17T12:53:26.802Z,english_938.wav,0,1,5684,,,,,4,0.32341667,90.00594125,0.39461425
LJL_2040,154,3,2024-06-17T12:53:26.802Z,english_227.wav,0,0,1650,,,,,0,0,-56.39318384,1.7541365
LJL_2040,154,3,2024-06-17T12:53:26.802Z,english_227.wav,0,0,1650,,,,,1,0.1,90.87442764,0.66011804
LJL_2040,154,3,2024-06-17T12:53:26.802Z,english_227.wav,0,0,1650,,,,,2,0.2,-39.94082392,0.16454365
LJL_2040,154,3,2024-06-17T12:53:26.802Z,english_227.wav,0,0,1650,,,,,3,0.3,31.5093861,0.63744506
LJL_2040,154,3,2024-06-17T12:53:26.802Z,english_227.wav,0,0,1650,,,,,4,0.32341667,70.38847456,0.55874538
LJL_2040,155,3,2024-06-17T12:53:26.802Z,english_294.wav,0,1,844,,,,,0,0,-92.15775888,0.74816787
LJL_2040,155,3,2024-06-17T12:53:26.802Z,english_294.wav,0,1,844,,,,,1,0.1,71.96645866,1.71916745
LJL_2040,155,3,2024-06-17T12:53:26.802Z,english_294.wav,0,1,844,,,,,2,0.2,-25.46852775,1.7524902
LJL_2040,155,3,2024-06-17T12:53:26.802Z,english_294.wav,0,1,844,,,,,3,0.3,17.21488016,0.9780509
LJL_2040,155,3,2024-06-17T12:53:26.802Z,english_294.wav,0,1,844,,,,,4,0.32341667,-10.41176069,1.21177262
LJL_2040,156,3,2024-06-17T12:53:26.802Z,english_95.wav,0,1,708,,,,,0,0,-9.17523314,0.73915747
LJL_2040,156,3,2024-06-17T12:53:26.802Z,english_95.wav,0,1,708,,,,,1,0.1,-95.16832451,1.01172325
LJL_2040,156,3,2024-06-17T12:53:26.802Z,english_95.wav,0,1,708,,,,,2,0.2,-21.6130257,1.19817679
LJL_2040,156,3,2024-06-17T12:53:26.802Z,english_95.wav,0,1,708,,,,,3,0.3,0.51006416,1.53285694
LJL_2040,156,3,2024-06-17T12:53:26.802Z,english_95.wav,0,1,708,,,,,4,0.32341667,43.00131518,1.08383215
LJL_2040,157,3,2024-06-17T12:53:26.802Z,english_104.wav,0,0,944,,,,,0,0,42.44693926,0.1741435
LJL_2040,157,3,2024-06-17T12:53:26.802Z,english_104.wav,0,0,944,,,,,1,0.1,82.22484934,0.11379641
LJL_2040,157,3,2024-06-17T12:53:26.802Z,english_104.wav,0,0,944,,,,,2,0.2,7.21737924,1.60376175
LJL_2040,157,3,2024-06-17T12:53:26.802Z,english_104.wav,0,0,944,,,,,3,0.3,26.54640215,1.08059257
LJL_2040,157,3,2024-06-17T12:53:26.802Z,english_104.wav,0,0,944,,,,,4,0.32341667,-33.4974026,1.8061622
LJL_2040,158,3,2024-06-17T12:53:26.802Z,english_389.wav,0,1,634,,,,,0,0,36.16487693,1.25286497
LJL_2040,158,3,2024-06-17T12:53:26.802Z,english_389.wav,0,1,634,,,,,1,0.1,-97.36259769,1.31396789
LJL_2040,158,3,2024-06-17T12:53:26.802Z,english_389.wav,0,1,634,,,,,2,0.2,24.50411951,1.84060757
LJL_2040,158,3,2024-06-17T12:53:26.802Z,english_389.wav,0,1,634,,,,,3,0.3,43.1395046,0.64046023
LJL_2040,158,3,2024-06-17T12:53:26.802Z,english_389.wav,0,1,634,,,,,4,0.32341667,85.14605982,1.47992762
LJL_2040,159,3,2024-06-17T12:53:26.802Z,english_542.wav,0,1,370,,,,,0,0,-75.53633957,0.40538048
LJL_2040,159,3,2024-06-17T12:53:26.802Z,english_542.wav,0,1,370,,,,,1,0.1,-65.83593262,1.98560632
LJL_2040,159,3,2024-06-17T12:53:26.802Z,english_542.wav,0,1,370,,,,,2,0.2,-66.8010443,1.18970355
LJL_2040,159,3,2024-06-17T12:53:26.802Z,english_542.wav,0,1,370,,,,,3,0.3,89.94318033,1.00543009
LJL_2040,159,3,2024-06-17T12:53:26.802Z,english_542.wav,0,1,370,,,,,4,0.32341667,-28.80984484,1.15995836
LJL_2040,160,3,2024-06-17T12:53:26.802Z,english_552.wav,0,0,1508,,,,,0,0,-54.22317773,0.14479657
LJL_2040,160,3,2024-06-17T12:53:26.802Z,english_552.wav,0,0,1508,,,,,1,0.1,23.75537749,1.96762023
LJL_2040,160,3,2024-06-17T12:53:26.802Z,english_552.wav,0,0,1508,,,,,2,0.2,-67.43154965,0.75812729
LJL_2040,160,3,2024-06-17T12:53:26.802Z,english_552.wav,0,0,1508,,,,,3,0.3,-83.62242399,0.84420129
LJL_2040,160,3,2024-06-17T12:53:26.802Z,english_552.wav,0,0,1508,,,,,4,0.32341667,64.2322812,0.73382384
LJL_2040,161,3,2024-06-17T12:53:26.802Z,english_509.wav,0,1,682,,,,,0,0,58.37136146,0.93627824
LJL_2040,161,3,2024-06-17T12:53:26.802Z,english_509.wav,0,1,682,,,,,1,0.1,-30.59588084,1.268957
LJL_2040,161,3,2024-06-17T12:53:26.802Z,english_509.wav,0,1,682,,,,,2,0.2,-42.62400689,0.87018438
LJL_2040,161,3,2024-06-17T12:53:26.802Z,english_509.wav,0,1,682,,,,,3,0.3,58.46483968,1.67134466
LJL_2040,161,3,2024-06-17T12:53:26.802Z,english_509.wav,0,1,682,,,,,4,0.32341667,44.09610342,1.96584472
LJL_2040,162,3,2024-06-17T12:53:26.802Z,english_913.wav,0,1,530,,,,,0,0,27.9375346,0.72243167
LJL_2040,162,3,2024-06-17T12:53:26.802Z,english_913.wav,0,1,530,,,,,1,0.1,41.67879689,1.59129257
LJL_2040,162,3,2024-06-17T12:53:26.802Z,english_913.wav,0,1,530,,,,,2,0.2,-50.96955224,1.19382874
LJL_2040,162,3,2024-06-17T12:53:26.802Z,english_913.wav,0,1,530,,,,,3,0.3,93.1868058,0.86840853
LJL_2040,162,3,2024-06-17T12:53:26.802Z,english_913.wav,0,1,530,,,,,4,0.32341667,83.79752677,0.21021697
LJL_2040,163,3,2024-06-17T12:53:26.802Z,english_272.wav,0,1,3786,,,,,0,0,61.82030971,1.51341556
LJL_2040,163,3,2024-06-17T12:53:26.802Z,english_272.wav,0,1,3786,,,,,1,0.1,4.16580657,0.43290826
LJL_2040,163,3,2024-06-17T12:53:26.802Z,english_272.wav,0,1,3786,,,,,2,0.2,-53.2567432,1.82734584
LJL_2040,163,3,2024-06-17T12:53:26.802Z,english_272.wav,0,1,3786,,,,,3,0.3,-52.99830768,0.22094446
LJL_2040,163,3,2024-06-17T12:53:26.802Z,english_272.wav,0,1,3786,,,,,4,0.32341667,-92.9943793,1.88040337
LJL_2040,164,3,2024-06-17T12:53:26.802Z,english_90.wav,0,1,4320,,,,,0,0,82.68866707,0.54239523
LJL_2040,164,3,2024-06-17T12:53:26.802Z,english_90.wav,0,1,4320,,,,,1,0.1,-81.25370946,1.03335699
LJL_2040,164,3,2024-06-17T12:53:26.802Z,english_90.wav,0,1,4320,,,,,2,0.2,56.28719083,1.93576477
LJL_2040,164,3,2024-06-17T12:53:26.802Z,english_90.wav,0,1,4320,,,,,3,0.3,-46.43338119,0.74570916
LJL_2040,164,3,2024-06-17T12:53:26.802Z,english_90.wav,0,1,4320,,,,,4,0.32341667,-19.93520327,1.11115504
LJL_2040,165,3,2024-06-17T12:53:26.802Z,english_266.wav,0,0,1756,,,,,0,0,16.70772117,0.81064175
LJL_2040,165,3,2024-06-17T12:53:26.802Z,english_266.wav,0,0,1756,,,,,1,0.1,-61.82971906,1.48442032
LJL_2040,165,3,2024-06-17T12:53:26.802Z,english_266.wav,0,0,1756,,,,,2,0.2,-31.41060896,1.39445033
LJL_2040,165,3,2024-06-17T12:53:26.802Z,english_266.wav,0,0,1756,,,,,3,0.3,-8.94045194,1.01594082
LJL_2040,165,3,2024-06-17T12:53:26.802Z,english_266.wav,0,0,1756,,,,,4,0.32341667,-27.43066022,0.75934284
LJL_2040,166,3,2024-06-17T12:53:26.802Z,english_788.wav,0,1,332,,,,,0,0,-93.79628683,0.67330318
LJL_2040,166,3,2024-06-17T12:53:26.802Z,english_788.wav,0,1,332,,,,,1,0.1,-45.29703147,1.33385595
LJL_2040,166,3,2024-06-17T12:53:26.802Z,english_788.wav,0,1,332,,,,,2,0.2,-46.01001772,1.35248941
LJL_2040,166,3,2024-06-17T12:53:26.802Z,english_788.wav,0,1,332,,,,,3,0.3,-56.6729179,1.33220146
LJL_2040,166,3,2024-06-17T12:53:26.802Z,english_788.wav,0,1,332,,,,,4,0.32341667,51.29020462,1.32468206
LJL_2040,167,3,2024-06-17T12:53:26.802Z,english_698.wav,0,1,672,,,,,0,0,-86.30999669,1.66322514
LJL_2040,167,3,2024-06-17T12:53:26.802Z,english_698.wav,0,1,672,,,,,1,0.1,-91.60158578,1.16924533
LJL_2040,167,3,2024-06-17T12:53:26.802Z,english_698.wav,0,1,672,,,,,2,0.2,-41.16326515,1.29610919
LJL_2040,167,3,2024-06-17T12:53:26.802Z,english_698.wav,0,1,672,,,,,3,0.3,7.86252123,1.21006153
LJL_2040,167,3,2024-06-17T12:53:26.802Z,english_698.wav,0,1,672,,,,,4,0.32341667,25.04181708,1.83628755
LJL_2040,168,3,2024-06-17T12:53:26.802Z,english_684.wav,0,0,642,,,,,0,0,0.36394418,1.65924935
LJL_2040,168,3,2024-06-17T12:53:26.802Z,english_684.wav,0,0,642,,,,,1,0.1,28.47964645,1.32149406
LJL_2040,168,3,2024-06-17T12:53:26.802Z,english_684.wav,0,0,642,,,,,2,0.2,60.47995017,0.32417562
LJL_2040,168,3,2024-06-17T12:53:26.802Z,english_684.wav,0,0,642,,,,,3,0.3,-33.43266819,1.42108385
LJL_2040,168,3,2024-06-17T12:53:26.802Z,english_684.wav,0,0,642,,,,,4,0.32341667,-31.86672206,1.29243289
LJL_2040,169,3,2024-06-17T12:53:26.802Z,english_776.wav,0,0,788,,,,,0,0,29.86548478,0.57139857
LJL_2040,169,3,2024-06-17T12:53:26.802Z,english_776.wav,0,0,788,,,,,1,0.1,2.8025705,1.94435619
LJL_2040,169,3,2024-06-17T12:53:26.802Z,english_776.wav,0,0,788,,,,,2,0.2,-38.4768188,0.3951066
LJL_2040,169,3,2024-06-17T12:53:26.802Z,english_776.wav,0,0,788,,,,,3,0.3,-89.49838949,0.29859462
LJL_2040,169,3,2024-06-17T12:53:26.802Z,english_776.wav,0,0,788,,,,,4,0.32341667,30.18488016,1.93939037
LJL_2040,170,3,2024-06-17T12:53:26.802Z,english_538.wav,0,0,2156,,,,,0,0,2.36208538,1.54356298
LJL_2040,170,3,2024-06-17T12:53:26.802Z,english_538.wav,0,0,2156,,,,,1,0.1,77.85923423,0.47597082
LJL_2040,170,3,2024-06-17T12:53:26.802Z,english_538.wav,0,0,2156,,,,,2,0.2,-89.1271409,1.27977799
LJL_2040,170,3,2024-06-17T12:53:26.802Z,english_538.wav,0,0,2156,,,,,3,0.3,-18.79772534,1.05516459
LJL_2040,170,3,2024-06-17T12:53:26.802Z,english_538.wav,0,0,2156,,,,,4,0.32341667,87.62276495,1.20284762
LJL_2040,171,3,2024-06-17T12:53:26.802Z,english_236.wav,0,0,876,,,,,0,0,14.26564849,0.89253674
LJL_2040,171,3,2024-06-17T12:53:26.802Z,english_236.wav,0,0,876,,,,,1,0.1,60.97219358,0.38957934
LJL_2040,171,3,2024-06-17T12:53:26.802Z,english_236.wav,0,0,876,,,,,2,0.2,-12.39626346,1.55558051
LJL_2040,171,3,2024-06-17T12:53:26.802Z,english_236.wav,0,0,876,,,,,3,0.3,-62.87774076,0.2682718
LJL_2040,171,3,2024-06-17T12:53:26.802Z,english_236.wav,0,0,876,,,,,4,0.32341667,-75.97684705,1.92182597
LJL_2040,172,3,2024-06-17T13:02:39.719Z,english_844.wav,0,0,813,,,,,0,0,-84.59865618,1.95225136
LJL_2040,172,3,2024-06-17T13:02:39.719Z,english_844.wav,0,0,813,,,,,1,0.1,2.74576488,1.66072701
LJL_2040,172,3,2024-06-17T13:02:39.719Z,english_844.wav,0,0,813,,,,,2,0.2,-31.14414819,0.05165652
LJL_2040,172,3,2024-06-17T13:02:39.719Z,english_844.wav,0,0,813,,,,,3,0.3,59.06244098,0.5878804
LJL_2040,172,3,2024-06-17T13:02:39.719Z,english_844.wav,0,0,813,,,,,4,0.32341667,67.61674881,0.72232709
LJL_2040,173,3,2024-06-17T13:02:39.719Z,english_462.wav,0,1,361,,,,,0,0,-35.73318704,1.53267708
LJL_2040,173,3,2024-06-17T13:02:39.719Z,english_462.wav,0,1,361,,,,,1,0.1,-5.65949109,1.98369384
LJL_2040,173,3,2024-06-17T13:02:39.719Z,english_462.wav,0,1,361,,,,,2,0.2,-49.47542688,1.31270994
LJL_2040,173,3,2024-06-17T13:02:39.719Z,english_462.wav,0,1,361,,,,,3,0.3,-98.18570674,1.26289606
LJL_2040,173,3,2024-06-17T13:02:39.719Z,english_462.wav,0,1,361,,,,,4,0.32341667,-16.34927785,1.36496903
LJL_2040,174,3,2024-06-17T13:02:39.719Z,english_96.wav,0,0,821,,,,,0,0,-2.60251168,1.33849038
LJL_2040,174,3,2024-06-17T13:02:39.719Z,english_96.wav,0,0,821,,,,,1,0.1,3.1808695,1.03790095
LJL_2040,174,3,2024-06-17T13:02:39.719Z,english_96.wav,0,0,821,,,,,2,0.2,-93.89625608,0.32730996
LJL_2040,174,3,2024-06-17T13:02:39.719Z,english_96.wav,0,0,821,,,,,3,0.3,22.03695444,1.15118519
LJL_2040,174,3,2024-06-17T13:02:39.719Z,english_96.wav,0,0,821,,,,,4,0.32341667,89.13776591,1.37996061
LJL_2040,175,3,2024-06-17T13:02:39.719Z,english_738.wav,0,1,1075,,,,,0,0,-37.88087101,1.83397703
LJL_2040,175,3,2024-06-17T13:02:39.719Z,english_738.wav,0,1,1075,,,,,1,0.1,-16.85966727,1.52099356
LJL_2040,175,3,2024-06-17T13:02:39.719Z,english_738.wav,0,1,1075,,,,,2,0.2,-79.76891938,1.69283951
LJL_2040,175,3,2024-06-17T13:02:39.719Z,english_738.wav,0,1,1075,,,,,3,0.3,-82.30918252,1.81957343
LJL_2040,175,3,2024-06-17T13:02:39.719Z,english_738.wav,0,1,1075,,,,,4,0.32341667,59.65991076,0.75908376
LJL_2040,176,3,2024-06-17T13:02:39.719Z,english_797.wav,0,1,1227,,,,,0,0,-10.77604935,1.75152448
LJL_2040,176,3,2024-06-17T13:02:39.719Z,english_797.wav,0,1,1227,,,,,1,0.1,76.52998448,0.25625033
LJL_2040,176,3,2024-06-17T13:02:39.719Z,english_797.wav,0,1,1227,,,,,2,0.2,-52.30950648,1.63910521
LJL_2040,176,3,2024-06-17T13:02:39.719Z,english_797.wav,0,1,1227,,,,,3,0.3,-19.27189704,1.44412191
LJL_2040,176,3,2024-06-17T13:02:39.719Z,english_797.wav,0,1,1227,,,,,4,0.32341667,-68.52312916,1.41513857
LJL_2040,177,3,2024-06-17T13:02:39.719Z,english_854.wav,0,1,405,,,,,0,0,-3.2532791,1.78139632
LJL_2040,177,3,2024-06-17T13:02:39.719Z,english_854.wav,0,1,405,,,,,1,0.1,19.40039505,1.50161717
LJL_2040,177,3,2024-06-17T13:02:39.719Z,english_854.wav,0,1,405,,,,,2,0.2,-14.62360686,0.8978804
LJL_2040,177,3,2024-06-17T13:02:39.719Z,english_854.wav,0,1,405,,,,,3,0.3,-63.13820282,1.66267041
LJL_2040,177,3,2024-06-17T13:02:39.719Z,english_854.wav,0,1,405,,,,,4,0.32341667,44.42181264,1.68588082
LJL_2040,178,3,2024-06-17T13:02:39.719Z,english_445.wav,0,1,1125,,,,,0,0,88.00598922,1.42174052
LJL_2040,178,3,2024-06-17T13:02:39.719Z,english_445.wav,0,1,1125,,,,,1,0.1,96.51328737,1.49122509
LJL_2040,178,3,2024-06-17T13:02:39.719Z,english_445.wav,0,1,1125,,,,,2,0.2,29.11093561,0.62095286
LJL_2040,178,3,2024-06-17T13:02:39.719Z,english_445.wav,0,1,1125,,,,,3,0.3,69.6076589,1.14630865
LJL_2040,178,3,2024-06-17T13:02:39.719Z,english_445.wav,0,1,1125,,,,,4,0.32341667,-59.73938179,1.38538671
LJL_2040,179,3,2024-06-17T13:02:39.719Z,english_948.wav,0,1,2019,,,,,0,0,12.28616187,1.33435242
LJL_2040,179,3,2024-06-17T13:02:39.719Z,english_948.wav,0,1,2019,,,,,1,0.1,33.44634687,1.33862855
LJL_2040,179,3,2024-06-17T13:02:39.719Z,english_948.wav,0,1,2019,,,,,2,0.2,98.80566767,1.25876505
LJL_2040,179,3,2024-06-17T13:02:39.719Z,english_948.wav,0,1,2019,,,,,3,0.3,-93.57044844,1.87938727
LJL_2040,179,3,2024-06-17T13:02:39.719Z,english_948.wav,0,1,2019,,,,,4,0.32341667,-51.09398555,1.88731406
LJL_2040,180,3,2024-06-17T13:02:39.719Z,english_163.wav,0,1,1081,,,,,0,0,-28.85321754,1.43434597
LJL_2040,180,3,2024-06-17T13:02:39.719Z,english_163.wav,0,1,1081,,,,,1,0.1,9.37410395,1.75766865
LJL_2040,180,3,2024-06-17T13:02:39.719Z,english_163.wav,0,1,1081,,,,,2,0.2,-43.22266742,0.90391943
LJL_2040,180,3,2024-06-17T13:02:39.719Z,english_163.wav,0,1,1081,,,,,3,0.3,48.63715122,1.21743426
LJL_2040,180,3,2024-06-17T13:02:39.719Z,english_163.wav,0,1,1081,,,,,4,0.32341667,-94.22333204,1.8516503
LJL_2040,181,3,2024-06-17T13:02:39.719Z,english_127.wav,0,0,795,,,,,0,0,-69.70750805,0.25070661
LJL_2040,181,3,2024-06-17T13:02:39.719Z,english_127.wav,0,0,795,,,,,1,0.1,-23.17484413,1.1475992
LJL_2040,181,3,2024-06-17T13:02:39.719Z,english_127.wav,0,0,795,,,,,2,0.2,16.27024862,1.99299371
LJL_2040,181,3,2024-06-17T13:02:39.719Z,english_127.wav,0,0,795,,,,,3,0.3,-50.08342814,0.57749513
LJL_2040,181,3,2024-06-17T13:02:39.719Z,english_127.wav,0,0,795,,,,,4,0.32341667,22.60332787,1.27832678
LJL_2040,182,3,2024-06-17T13:02:39.719Z,english_376.wav,0,1,1557,,,,,0,0,-10.66231765,0.83936518
LJL_2040,182,3,2024-06-17T13:02:39.719Z,english_376.wav,0,1,1557,,,,,1,0.1,-53.95799634,1.7265478
LJL_2040,182,3,2024-06-17T13:02:39.719Z,english_376.wav,0,1,1557,,,,,2,0.2,-44.60014177,0.44309389
LJL_2040,182,3,2024-06-17T13:02:39.719Z,english_376.wav,0,1,1557,,,,,3,0.3,-84.32777745,1.91772458
LJL_2040,182,3,2024-06-17T13:02:39.719Z,english_376.wav,0,1,1557,,,,,4,0.32341667,-2.76179289,0.76255227
LJL_2040,183,3,2024-06-17T13:02:39.719Z,english_663.wav,0,0,3761,,,,,0,0,55.84438863,1.29444713
LJL_2040,183,3,2024-06-17T13:02:39.719Z,english_663.wav,0,0,3761,,,,,1,0.1,-89.02249371,0.90215198
LJL_2040,183,3,2024-06-17T13:02:39.719Z,english_663.wav,0,0,3761,,,,,2,0.2,-13.61345685,1.61104603
LJL_2040,183,3,2024-06-17T13:02:39.719Z,english_663.wav,0,0,3761,,,,,3,0.3,14.50375693,0.31375715
LJL_2040,183,3,2024-06-17T13:02:39.719Z,english_663.wav,0,0,3761,,,,,4,0.32341667,80.63633164,1.01784406
LJL_2040,184,3,2024-06-17T13:02:39.719Z,english_442.wav,0,1,981,,,,,0,0,-5.21319176,1.35819452
LJL_2040,184,3,2024-06-17T13:02:39.719Z,english_442.wav,0,1,981,,,,,1,0.1,-16.23989513,1.66019663
LJL_2040,184,3,2024-06-17T13:02:39.719Z,english_442.wav,0,1,981,,,,,2,0.2,-36.77315909,0.51170704
LJL_2040,184,3,2024-06-17T13:02:39.719Z,english_442.wav,0,1,981,,,,,3,0.3,-33.51446291,1.6590932
LJL_2040,184,3,2024-06-17T13:02:39.719Z,english_442.wav,0,1,981,,,,,4,0.32341667,-25.07447919,0.97998973
LJL_2040,185,3,2024-06-17T13:02:39.719Z,english_438.wav,0,1,2365,,,,,0,0,31.75305261,1.38451981
LJL_2040,185,3,2024-06-17T13:02:39.719Z,english_438.wav,0,1,2365,,,,,1,0.1,20.27112767,1.99020027
LJL_2040,185,3,2024-06-17T13:02:39.719Z,english_438.wav,0,1,2365,,,,,2,0.2,66.65258945,0.15645945
LJL_2040,185,3,2024-06-17T13:02:39.719Z,english_438.wav,0,1,2365,,,,,3,0.3,70.72003494,1.37678514
LJL_2040,185,3,2024-06-17T13:02:39.719Z,english_438.wav,0,1,2365,,,,,4,0.32341667,59.11013505,0.82730153
LJL_2040,186,3,2024-06-17T13:02:39.719Z,english_622.wav,0,0,795,,,,,0,0,-46.49267806,1.425187
LJL_2040,186,3,2024-06-17T13:02:39.719Z,english_622.wav,0,0,795,,,,,1,0.1,-80.07623079,0.61910367
LJL_2040,186,3,2024-06-17T13:02:39.719Z,english_622.wav,0,0,795,,,,,2,0.2,-28.70131311,1.30297951
LJL_2040,186,3,2024-06-17T13:02:39.719Z,english_622.wav,0,0,795,,,,,3,0.3,-26.89352847,1.73248838
LJL_2040,186,3,2024-06-17T13:02:39.719Z,english_622.wav,0,0,795,,,,,4,0.32341667,-24.31243398,0.85523545
LJL_2040,187,3,2024-06-17T13:02:39.719Z,english_414.wav,0,1,843,,,,,0,0,19.47839865,0.9434816
LJL_2040,187,3,2024-06-17T13:02:39.719Z,english_414.wav,0,1,843,,,,,1,0.1,59.9490877,1.1146936
LJL_2040,187,3,2024-06-17T13:02:39.719Z,english_414.wav,0,1,843,,,,,2,0.2,22.33981162,0.48476454
LJL_2040,187,3,2024-06-17T13:02:39.719Z,english_414.wav,0,1,843,,,,,3,0.3,18.97426154,0.23554241
LJL_2040,187,3,2024-06-17T13:02:39.719Z,english_414.wav,0,1,843,,,,,4,0.32341667,15.16306506,1.13007685
LJL_2040,188,3,2024-06-17T13:02:39.719Z,english_49.wav,0,1,679,,,,,0,0,-6.08822071,0.36436507
LJL_2040,188,3,2024-06-17T13:02:39.719Z,english_49.wav,0,1,679,,,,,1,0.1,-56.0367764,1.66948988
LJL_2040,188,3,2024-06-17T13:02:39.719Z,english_49.wav,0,1,679,,,,,2,0.2,-51.95657584,1.20554654
LJL_2040,188,3,2024-06-17T13:02:39.719Z,english_49.wav,0,1,679,,,,,3,0.3,-59.93208112,0.31084089
LJL_2040,188,3,2024-06-17T13:02:39.719Z,english_49.wav,0,1,679,,,,,4,0.32341667,-7.85847813,0.44223059
LJL_2040,189,3,2024-06-17T13:02:39.719Z,english_949.wav,0,0,1325,,,,,0,0,48.32946721,1.50413289
LJL_2040,189,3,2024-06-17T13:02:39.719Z,english_949.wav,0,0,1325,,,,,1,0.1,73.83586198,1.55745414
LJL_2040,189,3,2024-06-17T13:02:39.719Z,english_949.wav,0,0,1325,,,,,2,0.2,-30.27812065,1.00772566
LJL_2040,189,3,2024-06-17T13:02:39.719Z,english_949.wav,0,0,1325,,,,,3,0.3,-32.50397555,0.86702054
LJL_2040,189,3,2024-06-17T13:02:39.719Z,english_949.wav,0,0,1325,,,,,4,0.32341667,96.46984971,1.67836019
LJL_2040,190,3,2024-06-17T13:02:39.719Z,english_435.wav,0,1,407,,,,,0,0,-61.49548479,0.36819492
LJL_2040,190,3,2024-06-17T13:02:39.719Z,english_435.wav,0,1,407,,,,,1,0.1,18.53940612,1.77990606
LJL_2040,190,3,2024-06-17T13:02:39.719Z,english_435.wav,0,1,407,,,,,2,0.2,-39.20879804,1.09377229
LJL_2040,190,3,2024-06-17T13:02:39.719Z,english_435.wav,0,1,407,,,,,3,0.3,-30.66509024,1.98213584
LJL_2040,190,3,2024-06-17T13:02:39.719Z,english_435.wav,0,1,407,,,,,4,0.32341667,7.07056367,0.5936591
LJL_2040,191,3,2024-06-17T13:02:39.719Z,english_781.wav,0,1,1299,,,,,0,0,22.64916165,0.31928057
LJL_2040,191,3,2024-06-17T13:02:39.719Z,english_781.wav,0,1,1299,,,,,1,0.1,6.89582518,1.4040275
LJL_2040,191,3,2024-06-17T13:02:39.719Z,english_781.wav,0,1,1299,,,,,2,0.2,-79.07711894,0.86558079
LJL_2040,191,3,2024-06-17T13:02:39.719Z,english_781.wav,0,1,1299,,,,,3,0.3,66.534152,0.14510309
LJL_2040,191,3,2024-06-17T13:02:39.719Z,english_781.wav,0,1,1299,,,,,4,0.32341667,93.30494506,0.79620595
LJL_2040,192,3,2024-06-17T13:02:39.719Z,english_587.wav,0,1,539,,,,,0,0,-33.32102811,0.7972352
LJL_2040,192,3,2024-06-17T13:02:39.719Z,english_587.wav,0,1,539,,,,,1,0.1,46.1287001,1.97425238
LJL_2040,192,3,2024-06-17T13:02:39.719Z,english_587.wav,0,1,539,,,,,2,0.2,-62.23894368,0.99609006
LJL_2040,192,3,2024-06-17T13:02:39.719Z,english_587.wav,0,1,539,,,,,3,0.3,36.67711132,1.18577707
LJL_2040,192,3,2024-06-17T13:02:39.719Z,english_587.wav,0,1,539,,,,,4,0.32341667,-11.53320103,1.64089558
LJL_2040,193,3,2024-06-17T13:02:39.719Z,english_666.wav,0,0,1803,,,,,0,0,-6.63307831,0.44221414
LJL_2040,193,3,2024-06-17T13:02:39.719Z,english_666.wav,0,0,1803,,,,,1,0.1,-47.66524373,1.62559692
LJL_2040,193,3,2024-06-17T13:02:39.719Z,english_666.wav,0,0,1803,,,,,2,0.2,66.93817534,0.27313334
LJL_2040,193,3,2024-06-17T13:02:39.719Z,english_666.wav,0,0,1803,,,,,3,0.3,-1.338646,0.46846925
LJL_2040,193,3,2024-06-17T13:02:39.719Z,english_666.wav,0,0,1803,,,,,4,0.32341667,-14.31927765,1.08883823
LJL_2040,194,3,2024-06-17T13:02:39.719Z,english_370.wav,0,1,885,,,,,0,0,-90.17078727,0.17796458
LJL_2040,194,3,2024-06-17T13:02:39.719Z,english_370.wav,0,1,885,,,,,1,0.1,-71.99280791,1.08934715
LJL_2040,194,3,2024-06-17T13:02:39.719Z,english_370.wav,0,1,885,,,,,2,0.2,-13.60727202,1.05914244
LJL_2040,194,3,2024-06-17T13:02:39.719Z,english_370.wav,0,1,885,,,,,3,0.3,-0.93192742,1.87852505
LJL_2040,194,3,2024-06-17T13:02:39.719Z,english_370.wav,0,1,885,,,,,4,0.32341667,33.27852394,1.24161401
LJL_2040,195,3,2024-06-17T13:02:39.719Z,english_960.wav,0,1,789,,,,,0,0,35.80457434,0.79357899
LJL_2040,195,3,2024-06-17T13:02:39.719Z,english_960.wav,0,1,789,,,,,1,0.1,-19.98469691,0.63900775
LJL_2040,195,3,2024-06-17T13:02:39.719Z,english_960.wav,0,1,789,,,,,2,0.2,-8.88025322,1.83966222
LJL_2040,195,3,2024-06-17T13:02:39.719Z,english_960.wav,0,1,789,,,,,3,0.3,6.59365348,1.05168668
LJL_2040,195,3,2024-06-17T13:02:39.719Z,english_960.wav,0,1,789,,,,,4,0.32341667,64.0885905,1.66020449
LJL_2040,196,3,2024-06-17T13:02:39.719Z,english_318.wav,0,0,1201,,,,,0,0,40.16064427,0.11467793
LJL_2040,196,3,2024-06-17T13:02:39.719Z,english_318.wav,0,0,1201,,,,,1,0.1,-52.58874178,0.6224104
LJL_2040,196,3,2024-06-17T13:02:39.719Z,english_318.wav,0,0,1201,,,,,2,0.2,46.7653316,0.05328619
LJL_2040,196,3,2024-06-17T13:02:39.719Z,english_318.wav,0,0,1201,,,,,3,0.3,-41.44559589,0.01138238
LJL_2040,196,3,2024-06-17T13:02:39.719Z,english_318.wav,0,0,1201,,,,,4,0.32341667,-2.50443948,1.16020285
LJL_2040,197,3,2024-06-17T13:02:39.719Z,english_70.wav,0,1,853,,,,,0,0,-53.09237622,1.21678364
LJL_2040,197,3,2024-06-17T13:02:39.719Z,english_70.wav,0,1,853,,,,,1,0.1,85.97526897,0.94111324
LJL_2040,197,3,2024-06-17T13:02:39.719Z,english_70.wav,0,1,853,,,,,2,0.2,25.5645184,1.03926055
LJL_2040,197,3,2024-06-17T13:02:39.719Z,english_70.wav,0,1,853,,,,,3,0.3,1.25172137,0.29519406
LJL_2040,197,3,2024-06-17T13:02:39.719Z,english_70.wav,0,1,853,,,,,4,0.32341667,93.59431896,0.80175783
LJL_2040,198,3,2024-06-17T13:02:39.719Z,english_477.wav,0,0,939,,,,,0,0,9.7496965,0.26828956
LJL_2040,198,3,2024-06-17T13:02:39.719Z,english_477.wav,0,0,939,,,,,1,0.1,70.56003184,0.51901368
LJL_2040,198,3,2024-06-17T13:02:39.719Z,english_477.wav,0,0,939,,,,,2,0.2,34.49551211,0.35677294
LJL_2040,198,3,2024-06-17T13:02:39.719Z,english_477.wav,0,0,939,,,,,3,0.3,-75.0597055,1.39462812
LJL_2040,198,3,2024-06-17T13:02:39.719Z,english_477.wav,0,0,939,,,,,4,0.32341667,-82.15638008,0.55199483
LJL_2040,199,3,2024-06-17T13:02:39.719Z,english_932.wav,0,0,739,,,,,0,0,-3.8848098,1.00949787
LJL_2040,199,3,2024-06-17T13:02:39.719Z,english_932.wav,0,0,739,,,,,1,0.1,-32.48916274,1.44703087
LJL_2040,199,3,2024-06-17T13:02:39.719Z,english_932.wav,0,0,739,,,,,2,0.2,81.26251807,0.10808594
LJL_2040,199,3,2024-06-17T13:02:39.719Z,english_932.wav,0,0,739,,,,,3,0.3,-18.23478105,0.03465182
LJL_2040,199,3,2024-06-17T13:02:39.719Z,english_932.wav,0,0,739,,,,,4,0.32341667,7.90132089,0.79845554
LJL_2040,200,4,2024-06-17T13:02:39.719Z,english_32.wav,0,1,903,,,,,0,0,89.50349963,1.73304916
LJL_2040,200,4,2024-06-17T13:02:39.719Z,english_32.wav,0,1,903,,,,,1,0.1,51.51128255,0.02192789
LJL_2040,200,4,2024-06-17T13:02:39.719Z,english_32.wav,0,1,903,,,,,2,0.2,-58.32910347,1.71493142
LJL_2040,200,4,2024-06-17T13:02:39.719Z,english_32.wav,0,1,903,,,,,3,0.3,15.96172744,1.28451373
LJL_2040,200,4,2024-06-17T13:02:39.719Z,english_32.wav,0,1,903,,,,,4,0.32341667,84.40449403,1.22971166
LJL_2040,201,4,2024-06-17T13:02:39.719Z,english_544.wav,0,1,827,,,,,0,0,96.80704334,1.85115917
LJL_2040,201,4,2024-06-17T13:02:39.719Z,english_544.wav,0,1,827,,,,,1,0.1,70.5198752,0.8718407
LJL_2040,201,4,2024-06-17T13:02:39.719Z,english_544.wav,0,1,827,,,,,2,0.2,78.21609099,1.82238935
LJL_2040,201,4,2024-06-17T13:02:39.719Z,english_544.wav,0,1,827,,,,,3,0.3,-95.7752672,0.25719172
LJL_2040,201,4,2024-06-17T13:02:39.719Z,english_544.wav,0,1,827,,,,,4,0.32341667,-56.58918052,0.72929157
LJL_2040,202,4,2024-06-17T13:02:39.719Z,english_341.wav,0,0,4291,,,,,0,0,-3.29192029,0.92007635
LJL_2040,202,4,2024-06-17T13:02:39.719Z,english_341.wav,0,0,4291,,,,,1,0.1,-63.07334109,0.76766635
LJL_2040,202,4,2024-06-17T13:02:39.719Z,english_341.wav,0,0,4291,,,,,2,0.2,-52.81319379,0.00478881
LJL_2040,202,4,2024-06-17T13:02:39.719Z,english_341.wav,0,0,4291,,,,,3,0.3,47.65296252,0.69804387
LJL_2040,202,4,2024-06-17T13:02:39.719Z,english_341.wav,0,0,4291,,,,,4,0.32341667,-2.67842738,0.15231077
LJL_2040,203,4,2024-06-17T13:02:39.719Z,english_35.wav,0,1,4663,,,,,0,0,-35.14158545,0.855771
LJL_2040,203,4,2024-06-17T13:02:39.719Z,english_35.wav,0,1,4663,,,,,1,0.1,-54.49669119,0.5452371
LJL_2040,203,4,2024-06-17T13:02:39.719Z,english_35.wav,0,1,4663,,,,,2,0.2,37.91149238,1.65995376
LJL_2040,203,4,2024-06-17T13:02:39.719Z,english_35.wav,0,1,4663,,,,,3,0.3,-55.38086503,0.74505496
