subj,trial,block,date,stim,stim_order,response,rt,age,english,language,sex,param_index,segment,pitch,stretch
LLG,0,0,2024-06-14T13:58:17.139Z,english_401.wav,0,0,6312,24,4,Chinese,m,0,0,-70.37998858,1.11338134
LLG,0,0,2024-06-14T13:58:17.139Z,english_401.wav,0,0,6312,24,4,Chinese,m,1,0.1,49.27188779,1.59691292
LLG,0,0,2024-06-14T13:58:17.139Z,english_401.wav,0,0,6312,24,4,Chinese,m,2,0.2,5.09566389,0.88679935
LLG,0,0,2024-06-14T13:58:17.139Z,english_401.wav,0,0,6312,24,4,Chinese,m,3,0.3,58.42368176,1.89749174
LLG,0,0,2024-06-14T13:58:17.139Z,english_401.wav,0,0,6312,24,4,Chinese,m,4,0.32341667,-43.06407799,1.35831765
LLG,1,0,2024-06-14T13:58:17.139Z,english_180.wav,0,0,4068,24,4,Chinese,m,0,0,-79.96502932,0.84610218
LLG,1,0,2024-06-14T13:58:17.139Z,english_180.wav,0,0,4068,24,4,Chinese,m,1,0.1,33.21752916,1.88919334
LLG,1,0,2024-06-14T13:58:17.139Z,english_180.wav,0,0,4068,24,4,Chinese,m,2,0.2,-97.52705813,0.18699196
LLG,1,0,2024-06-14T13:58:17.139Z,english_180.wav,0,0,4068,24,4,Chinese,m,3,0.3,42.51331828,0.0366283
LLG,1,0,2024-06-14T13:58:17.139Z,english_180.wav,0,0,4068,24,4,Chinese,m,4,0.32341667,-42.98571984,0.95813987
LLG,2,0,2024-06-14T13:58:17.139Z,english_527.wav,0,0,5495,24,4,Chinese,m,0,0,-32.70996179,0.06646481
LLG,2,0,2024-06-14T13:58:17.139Z,english_527.wav,0,0,5495,24,4,Chinese,m,1,0.1,-61.96334317,1.75268105
LLG,2,0,2024-06-14T13:58:17.139Z,english_527.wav,0,0,5495,24,4,Chinese,m,2,0.2,86.46317242,0.41061726
LLG,2,0,2024-06-14T13:58:17.139Z,english_527.wav,0,0,5495,24,4,Chinese,m,3,0.3,-18.9429262,1.43024268
LLG,2,0,2024-06-14T13:58:17.139Z,english_527.wav,0,0,5495,24,4,Chinese,m,4,0.32341667,-59.75355058,0.73468543
LLG,3,0,2024-06-14T13:58:17.139Z,english_993.wav,0,1,3758,24,4,Chinese,m,0,0,-66.15449332,1.17508471
LLG,3,0,2024-06-14T13:58:17.139Z,english_993.wav,0,1,3758,24,4,Chinese,m,1,0.1,33.08083728,0.94744004
LLG,3,0,2024-06-14T13:58:17.139Z,english_993.wav,0,1,3758,24,4,Chinese,m,2,0.2,51.46479562,0.74931244
LLG,3,0,2024-06-14T13:58:17.139Z,english_993.wav,0,1,3758,24,4,Chinese,m,3,0.3,-80.58676237,0.35628979
LLG,3,0,2024-06-14T13:58:17.139Z,english_993.wav,0,1,3758,24,4,Chinese,m,4,0.32341667,81.97884737,1.25416847
LLG,4,0,2024-06-14T14:03:18.259Z,english_599.wav,0,0,3090,24,4,Chinese,m,0,0,-57.09760884,1.03382432
LLG,4,0,2024-06-14T14:03:18.259Z,english_599.wav,0,0,3090,24,4,Chinese,m,1,0.1,31.85682387,1.26885403
LLG,4,0,2024-06-14T14:03:18.259Z,english_599.wav,0,0,3090,24,4,Chinese,m,2,0.2,-6.73425875,1.24717465
LLG,4,0,2024-06-14T14:03:18.259Z,english_599.wav,0,0,3090,24,4,Chinese,m,3,0.3,47.95830633,1.34338376
LLG,4,0,2024-06-14T14:03:18.259Z,english_599.wav,0,0,3090,24,4,Chinese,m,4,0.32341667,-83.8084816,0.34550335
LLG,5,0,2024-06-14T14:03:18.259Z,english_286.wav,0,1,1900,24,4,Chinese,m,0,0,-94.9495111,0.49849168
LLG,5,0,2024-06-14T14:03:18.259Z,english_286.wav,0,1,1900,24,4,Chinese,m,1,0.1,-25.05656786,1.27672914
LLG,5,0,2024-06-14T14:03:18.259Z,english_286.wav,0,1,1900,24,4,Chinese,m,2,0.2,59.61150177,0.14515846
LLG,5,0,2024-06-14T14:03:18.259Z,english_286.wav,0,1,1900,24,4,Chinese,m,3,0.3,-32.97544875,1.67164973
LLG,5,0,2024-06-14T14:03:18.259Z,english_286.wav,0,1,1900,24,4,Chinese,m,4,0.32341667,7.58095242,0.86492177
LLG,6,0,2024-06-14T14:03:18.259Z,english_229.wav,0,1,1361,24,4,Chinese,m,0,0,51.56916705,1.25898044
LLG,6,0,2024-06-14T14:03:18.259Z,english_229.wav,0,1,1361,24,4,Chinese,m,1,0.1,-51.28327497,0.34588319
LLG,6,0,2024-06-14T14:03:18.259Z,english_229.wav,0,1,1361,24,4,Chinese,m,2,0.2,97.78221202,1.91985924
LLG,6,0,2024-06-14T14:03:18.259Z,english_229.wav,0,1,1361,24,4,Chinese,m,3,0.3,-75.98126047,0.82059623
LLG,6,0,2024-06-14T14:03:18.259Z,english_229.wav,0,1,1361,24,4,Chinese,m,4,0.32341667,-44.05308002,1.38191391
LLG,7,0,2024-06-14T14:06:46.370Z,english_858.wav,0,1,3651,24,4,Chinese,m,0,0,45.12570132,0.50395823
LLG,7,0,2024-06-14T14:06:46.370Z,english_858.wav,0,1,3651,24,4,Chinese,m,1,0.1,-46.71359417,1.50658612
LLG,7,0,2024-06-14T14:06:46.370Z,english_858.wav,0,1,3651,24,4,Chinese,m,2,0.2,-60.32464978,0.86887416
LLG,7,0,2024-06-14T14:06:46.370Z,english_858.wav,0,1,3651,24,4,Chinese,m,3,0.3,-70.46241098,0.20520469
LLG,7,0,2024-06-14T14:06:46.370Z,english_858.wav,0,1,3651,24,4,Chinese,m,4,0.32341667,76.51169453,1.05885662
LLG,8,0,2024-06-14T14:08:59.729Z,english_610.wav,0,0,1431,24,4,Chinese,m,0,0,-14.96432812,0.5672697
LLG,8,0,2024-06-14T14:08:59.729Z,english_610.wav,0,0,1431,24,4,Chinese,m,1,0.1,48.51886955,0.75156182
LLG,8,0,2024-06-14T14:08:59.729Z,english_610.wav,0,0,1431,24,4,Chinese,m,2,0.2,47.07358548,0.38846335
LLG,8,0,2024-06-14T14:08:59.729Z,english_610.wav,0,0,1431,24,4,Chinese,m,3,0.3,17.30383174,1.52072292
LLG,8,0,2024-06-14T14:08:59.729Z,english_610.wav,0,0,1431,24,4,Chinese,m,4,0.32341667,1.51764356,1.56024836
LLG,9,0,2024-06-14T14:08:59.729Z,english_861.wav,0,1,995,24,4,Chinese,m,0,0,-30.19921015,0.56503536
LLG,9,0,2024-06-14T14:08:59.729Z,english_861.wav,0,1,995,24,4,Chinese,m,1,0.1,75.2433288,1.43622494
LLG,9,0,2024-06-14T14:08:59.729Z,english_861.wav,0,1,995,24,4,Chinese,m,2,0.2,-49.47813624,1.73497671
LLG,9,0,2024-06-14T14:08:59.729Z,english_861.wav,0,1,995,24,4,Chinese,m,3,0.3,86.59581665,0.70763908
LLG,9,0,2024-06-14T14:08:59.729Z,english_861.wav,0,1,995,24,4,Chinese,m,4,0.32341667,58.40562581,1.29518241
LLG,10,0,2024-06-14T14:08:59.729Z,english_988.wav,0,0,701,24,4,Chinese,m,0,0,23.53561789,0.18772999
LLG,10,0,2024-06-14T14:08:59.729Z,english_988.wav,0,0,701,24,4,Chinese,m,1,0.1,39.09545525,0.71537172
LLG,10,0,2024-06-14T14:08:59.729Z,english_988.wav,0,0,701,24,4,Chinese,m,2,0.2,-32.2225044,0.50944864
LLG,10,0,2024-06-14T14:08:59.729Z,english_988.wav,0,0,701,24,4,Chinese,m,3,0.3,5.54449519,0.59930705
LLG,10,0,2024-06-14T14:08:59.729Z,english_988.wav,0,0,701,24,4,Chinese,m,4,0.32341667,-94.58480047,1.43881296
LLG,11,0,2024-06-14T14:08:59.729Z,english_794.wav,0,0,542,24,4,Chinese,m,0,0,5.57967757,1.6157291
LLG,11,0,2024-06-14T14:08:59.729Z,english_794.wav,0,0,542,24,4,Chinese,m,1,0.1,-3.8737546,0.80008436
LLG,11,0,2024-06-14T14:08:59.729Z,english_794.wav,0,0,542,24,4,Chinese,m,2,0.2,-24.29943164,0.69881068
LLG,11,0,2024-06-14T14:08:59.729Z,english_794.wav,0,0,542,24,4,Chinese,m,3,0.3,3.56417137,1.55658335
LLG,11,0,2024-06-14T14:08:59.729Z,english_794.wav,0,0,542,24,4,Chinese,m,4,0.32341667,-13.30357118,1.787412
LLG,12,0,2024-06-14T14:08:59.729Z,english_593.wav,0,1,696,24,4,Chinese,m,0,0,0.23295982,1.83954553
LLG,12,0,2024-06-14T14:08:59.729Z,english_593.wav,0,1,696,24,4,Chinese,m,1,0.1,-0.52832444,1.77820403
LLG,12,0,2024-06-14T14:08:59.729Z,english_593.wav,0,1,696,24,4,Chinese,m,2,0.2,18.28609946,0.36770598
LLG,12,0,2024-06-14T14:08:59.729Z,english_593.wav,0,1,696,24,4,Chinese,m,3,0.3,21.25816485,0.42189114
LLG,12,0,2024-06-14T14:08:59.729Z,english_593.wav,0,1,696,24,4,Chinese,m,4,0.32341667,60.44039038,0.07588974
LLG,13,0,2024-06-14T14:08:59.729Z,english_197.wav,0,1,490,24,4,Chinese,m,0,0,-60.72223742,1.8449777
LLG,13,0,2024-06-14T14:08:59.729Z,english_197.wav,0,1,490,24,4,Chinese,m,1,0.1,-88.93421142,1.74693134
LLG,13,0,2024-06-14T14:08:59.729Z,english_197.wav,0,1,490,24,4,Chinese,m,2,0.2,51.43827126,1.11057597
LLG,13,0,2024-06-14T14:08:59.729Z,english_197.wav,0,1,490,24,4,Chinese,m,3,0.3,7.80125839,1.67371275
LLG,13,0,2024-06-14T14:08:59.729Z,english_197.wav,0,1,490,24,4,Chinese,m,4,0.32341667,-53.06876459,1.16077516
LLG,14,0,2024-06-14T14:08:59.729Z,english_507.wav,0,1,750,24,4,Chinese,m,0,0,-61.1842488,1.97653192
LLG,14,0,2024-06-14T14:08:59.729Z,english_507.wav,0,1,750,24,4,Chinese,m,1,0.1,-67.40048172,1.52355847
LLG,14,0,2024-06-14T14:08:59.729Z,english_507.wav,0,1,750,24,4,Chinese,m,2,0.2,12.41471853,0.98006415
LLG,14,0,2024-06-14T14:08:59.729Z,english_507.wav,0,1,750,24,4,Chinese,m,3,0.3,-23.82579329,0.44372312
LLG,14,0,2024-06-14T14:08:59.729Z,english_507.wav,0,1,750,24,4,Chinese,m,4,0.32341667,9.53005369,0.65281453
LLG,15,0,2024-06-14T14:08:59.729Z,english_864.wav,0,1,593,24,4,Chinese,m,0,0,-41.66547405,0.15536101
LLG,15,0,2024-06-14T14:08:59.729Z,english_864.wav,0,1,593,24,4,Chinese,m,1,0.1,47.36949562,1.78739046
LLG,15,0,2024-06-14T14:08:59.729Z,english_864.wav,0,1,593,24,4,Chinese,m,2,0.2,87.97635609,1.48310956
LLG,15,0,2024-06-14T14:08:59.729Z,english_864.wav,0,1,593,24,4,Chinese,m,3,0.3,-18.88921291,0.35838492
LLG,15,0,2024-06-14T14:08:59.729Z,english_864.wav,0,1,593,24,4,Chinese,m,4,0.32341667,13.88839096,0.21709894
LLG,16,0,2024-06-14T14:08:59.729Z,english_137.wav,0,1,557,24,4,Chinese,m,0,0,-81.54177422,0.16940048
LLG,16,0,2024-06-14T14:08:59.729Z,english_137.wav,0,1,557,24,4,Chinese,m,1,0.1,48.50229113,1.33204053
LLG,16,0,2024-06-14T14:08:59.729Z,english_137.wav,0,1,557,24,4,Chinese,m,2,0.2,-43.40912925,1.8593258
LLG,16,0,2024-06-14T14:08:59.729Z,english_137.wav,0,1,557,24,4,Chinese,m,3,0.3,54.89578869,1.77805515
LLG,16,0,2024-06-14T14:08:59.729Z,english_137.wav,0,1,557,24,4,Chinese,m,4,0.32341667,90.09778797,1.80981769
LLG,17,0,2024-06-14T14:08:59.729Z,english_831.wav,0,1,1402,24,4,Chinese,m,0,0,-7.33710711,1.53159971
LLG,17,0,2024-06-14T14:08:59.729Z,english_831.wav,0,1,1402,24,4,Chinese,m,1,0.1,-87.69782071,1.22669962
LLG,17,0,2024-06-14T14:08:59.729Z,english_831.wav,0,1,1402,24,4,Chinese,m,2,0.2,34.03975531,0.70180407
LLG,17,0,2024-06-14T14:08:59.729Z,english_831.wav,0,1,1402,24,4,Chinese,m,3,0.3,-2.18295653,1.02244347
LLG,17,0,2024-06-14T14:08:59.729Z,english_831.wav,0,1,1402,24,4,Chinese,m,4,0.32341667,20.908766,1.06702443
LLG,18,0,2024-06-14T14:08:59.729Z,english_910.wav,0,0,3889,24,4,Chinese,m,0,0,-5.78748479,0.61840584
LLG,18,0,2024-06-14T14:08:59.729Z,english_910.wav,0,0,3889,24,4,Chinese,m,1,0.1,25.040103,1.20431928
LLG,18,0,2024-06-14T14:08:59.729Z,english_910.wav,0,0,3889,24,4,Chinese,m,2,0.2,-40.66398147,1.66594732
LLG,18,0,2024-06-14T14:08:59.729Z,english_910.wav,0,0,3889,24,4,Chinese,m,3,0.3,-99.21011725,0.99007018
LLG,18,0,2024-06-14T14:08:59.729Z,english_910.wav,0,0,3889,24,4,Chinese,m,4,0.32341667,30.82754841,0.23705338
LLG,19,0,2024-06-14T14:08:59.729Z,english_693.wav,0,1,972,24,4,Chinese,m,0,0,-83.71635172,0.35753224
LLG,19,0,2024-06-14T14:08:59.729Z,english_693.wav,0,1,972,24,4,Chinese,m,1,0.1,32.46406691,1.09553371
LLG,19,0,2024-06-14T14:08:59.729Z,english_693.wav,0,1,972,24,4,Chinese,m,2,0.2,8.27548994,1.67166692
LLG,19,0,2024-06-14T14:08:59.729Z,english_693.wav,0,1,972,24,4,Chinese,m,3,0.3,15.80660539,1.61413862
LLG,19,0,2024-06-14T14:08:59.729Z,english_693.wav,0,1,972,24,4,Chinese,m,4,0.32341667,74.32681132,1.90943184
LLG,20,0,2024-06-14T14:08:59.729Z,english_947.wav,0,1,602,24,4,Chinese,m,0,0,73.13113362,0.1925557
LLG,20,0,2024-06-14T14:08:59.729Z,english_947.wav,0,1,602,24,4,Chinese,m,1,0.1,-55.13077299,1.89478059
LLG,20,0,2024-06-14T14:08:59.729Z,english_947.wav,0,1,602,24,4,Chinese,m,2,0.2,59.32217849,0.99662771
LLG,20,0,2024-06-14T14:08:59.729Z,english_947.wav,0,1,602,24,4,Chinese,m,3,0.3,-71.25946194,0.61263341
LLG,20,0,2024-06-14T14:08:59.729Z,english_947.wav,0,1,602,24,4,Chinese,m,4,0.32341667,39.2274254,0.46373334
LLG,21,0,2024-06-14T14:08:59.729Z,english_301.wav,0,1,1008,24,4,Chinese,m,0,0,-78.18927369,1.31935747
LLG,21,0,2024-06-14T14:08:59.729Z,english_301.wav,0,1,1008,24,4,Chinese,m,1,0.1,-3.52439177,1.41636911
LLG,21,0,2024-06-14T14:08:59.729Z,english_301.wav,0,1,1008,24,4,Chinese,m,2,0.2,-23.22473782,1.38842862
LLG,21,0,2024-06-14T14:08:59.729Z,english_301.wav,0,1,1008,24,4,Chinese,m,3,0.3,-11.7220967,1.25169603
LLG,21,0,2024-06-14T14:08:59.729Z,english_301.wav,0,1,1008,24,4,Chinese,m,4,0.32341667,-5.78047748,1.38740104
LLG,22,0,2024-06-14T14:08:59.729Z,english_502.wav,0,1,999,24,4,Chinese,m,0,0,-23.73065935,0.0797034
LLG,22,0,2024-06-14T14:08:59.729Z,english_502.wav,0,1,999,24,4,Chinese,m,1,0.1,2.70754613,1.83600464
LLG,22,0,2024-06-14T14:08:59.729Z,english_502.wav,0,1,999,24,4,Chinese,m,2,0.2,25.650451,1.48948742
LLG,22,0,2024-06-14T14:08:59.729Z,english_502.wav,0,1,999,24,4,Chinese,m,3,0.3,-49.55254658,1.22465236
LLG,22,0,2024-06-14T14:08:59.729Z,english_502.wav,0,1,999,24,4,Chinese,m,4,0.32341667,16.82642172,1.41984075
LLG,23,0,2024-06-14T14:08:59.729Z,english_313.wav,0,0,473,24,4,Chinese,m,0,0,63.86599335,0.35841412
LLG,23,0,2024-06-14T14:08:59.729Z,english_313.wav,0,0,473,24,4,Chinese,m,1,0.1,-55.89800258,0.35021793
LLG,23,0,2024-06-14T14:08:59.729Z,english_313.wav,0,0,473,24,4,Chinese,m,2,0.2,90.86254046,1.77750413
LLG,23,0,2024-06-14T14:08:59.729Z,english_313.wav,0,0,473,24,4,Chinese,m,3,0.3,0.53087649,1.87396687
LLG,23,0,2024-06-14T14:08:59.729Z,english_313.wav,0,0,473,24,4,Chinese,m,4,0.32341667,-69.87913817,1.16176786
LLG,24,0,2024-06-14T14:08:59.729Z,english_901.wav,0,0,610,24,4,Chinese,m,0,0,-14.81770559,1.5194741
LLG,24,0,2024-06-14T14:08:59.729Z,english_901.wav,0,0,610,24,4,Chinese,m,1,0.1,-27.73561163,1.98674938
LLG,24,0,2024-06-14T14:08:59.729Z,english_901.wav,0,0,610,24,4,Chinese,m,2,0.2,-22.44015454,0.54356598
LLG,24,0,2024-06-14T14:08:59.729Z,english_901.wav,0,0,610,24,4,Chinese,m,3,0.3,-41.34815185,1.30497628
LLG,24,0,2024-06-14T14:08:59.729Z,english_901.wav,0,0,610,24,4,Chinese,m,4,0.32341667,10.13492358,0.61526789
LLG,25,0,2024-06-14T14:08:59.729Z,english_386.wav,0,0,1423,24,4,Chinese,m,0,0,74.56899624,1.79299743
LLG,25,0,2024-06-14T14:08:59.729Z,english_386.wav,0,0,1423,24,4,Chinese,m,1,0.1,25.94107183,0.16071221
LLG,25,0,2024-06-14T14:08:59.729Z,english_386.wav,0,0,1423,24,4,Chinese,m,2,0.2,41.2839149,0.21721497
LLG,25,0,2024-06-14T14:08:59.729Z,english_386.wav,0,0,1423,24,4,Chinese,m,3,0.3,14.47866495,1.22036918
LLG,25,0,2024-06-14T14:08:59.729Z,english_386.wav,0,0,1423,24,4,Chinese,m,4,0.32341667,-14.73959674,1.81871952
LLG,26,0,2024-06-14T14:08:59.729Z,english_876.wav,0,0,650,24,4,Chinese,m,0,0,-20.36884991,0.97958319
LLG,26,0,2024-06-14T14:08:59.729Z,english_876.wav,0,0,650,24,4,Chinese,m,1,0.1,-12.16725052,0.93484439
LLG,26,0,2024-06-14T14:08:59.729Z,english_876.wav,0,0,650,24,4,Chinese,m,2,0.2,-26.42868614,0.43422731
LLG,26,0,2024-06-14T14:08:59.729Z,english_876.wav,0,0,650,24,4,Chinese,m,3,0.3,-15.16942384,0.12359811
LLG,26,0,2024-06-14T14:08:59.729Z,english_876.wav,0,0,650,24,4,Chinese,m,4,0.32341667,-52.65446315,1.31629037
LLG,27,0,2024-06-14T14:08:59.729Z,english_273.wav,0,1,587,24,4,Chinese,m,0,0,-44.98289573,1.94838534
LLG,27,0,2024-06-14T14:08:59.729Z,english_273.wav,0,1,587,24,4,Chinese,m,1,0.1,24.32546199,0.68888608
LLG,27,0,2024-06-14T14:08:59.729Z,english_273.wav,0,1,587,24,4,Chinese,m,2,0.2,61.84573583,1.95265796
LLG,27,0,2024-06-14T14:08:59.729Z,english_273.wav,0,1,587,24,4,Chinese,m,3,0.3,-1.88803465,1.62060328
LLG,27,0,2024-06-14T14:08:59.729Z,english_273.wav,0,1,587,24,4,Chinese,m,4,0.32341667,57.02125087,0.94638053
LLG,28,0,2024-06-14T14:08:59.729Z,english_928.wav,0,0,1626,24,4,Chinese,m,0,0,55.07207497,1.22706758
LLG,28,0,2024-06-14T14:08:59.729Z,english_928.wav,0,0,1626,24,4,Chinese,m,1,0.1,83.71672672,0.97206042
LLG,28,0,2024-06-14T14:08:59.729Z,english_928.wav,0,0,1626,24,4,Chinese,m,2,0.2,-43.28929986,0.16969859
LLG,28,0,2024-06-14T14:08:59.729Z,english_928.wav,0,0,1626,24,4,Chinese,m,3,0.3,-17.1692271,0.90092586
LLG,28,0,2024-06-14T14:08:59.729Z,english_928.wav,0,0,1626,24,4,Chinese,m,4,0.32341667,-36.644272,0.43024518
LLG,29,0,2024-06-14T14:08:59.729Z,english_918.wav,0,1,958,24,4,Chinese,m,0,0,-64.11083249,1.38668504
LLG,29,0,2024-06-14T14:08:59.729Z,english_918.wav,0,1,958,24,4,Chinese,m,1,0.1,75.84330997,1.4522357
LLG,29,0,2024-06-14T14:08:59.729Z,english_918.wav,0,1,958,24,4,Chinese,m,2,0.2,-30.10314186,1.37046734
LLG,29,0,2024-06-14T14:08:59.729Z,english_918.wav,0,1,958,24,4,Chinese,m,3,0.3,91.40385877,0.70209545
LLG,29,0,2024-06-14T14:08:59.729Z,english_918.wav,0,1,958,24,4,Chinese,m,4,0.32341667,-14.12068895,0.09881605
LLG,30,0,2024-06-14T14:08:59.729Z,english_293.wav,0,0,3295,24,4,Chinese,m,0,0,-22.15906653,1.76366583
LLG,30,0,2024-06-14T14:08:59.729Z,english_293.wav,0,0,3295,24,4,Chinese,m,1,0.1,-88.62057809,0.55660069
LLG,30,0,2024-06-14T14:08:59.729Z,english_293.wav,0,0,3295,24,4,Chinese,m,2,0.2,-18.47979893,1.17282558
LLG,30,0,2024-06-14T14:08:59.729Z,english_293.wav,0,0,3295,24,4,Chinese,m,3,0.3,-74.2852497,0.49477424
LLG,30,0,2024-06-14T14:08:59.729Z,english_293.wav,0,0,3295,24,4,Chinese,m,4,0.32341667,59.45323022,0.66659794
LLG,31,0,2024-06-14T14:08:59.729Z,english_707.wav,0,1,1972,24,4,Chinese,m,0,0,-17.04120346,1.06535483
LLG,31,0,2024-06-14T14:08:59.729Z,english_707.wav,0,1,1972,24,4,Chinese,m,1,0.1,-57.44917128,0.89541794
LLG,31,0,2024-06-14T14:08:59.729Z,english_707.wav,0,1,1972,24,4,Chinese,m,2,0.2,90.75848643,1.64838001
LLG,31,0,2024-06-14T14:08:59.729Z,english_707.wav,0,1,1972,24,4,Chinese,m,3,0.3,96.79852424,0.75431717
LLG,31,0,2024-06-14T14:08:59.729Z,english_707.wav,0,1,1972,24,4,Chinese,m,4,0.32341667,27.01716591,0.48082071
LLG,32,0,2024-06-14T14:08:59.729Z,english_660.wav,0,0,1051,24,4,Chinese,m,0,0,-18.17224728,0.25133372
LLG,32,0,2024-06-14T14:08:59.729Z,english_660.wav,0,0,1051,24,4,Chinese,m,1,0.1,-51.94390165,0.1756709
LLG,32,0,2024-06-14T14:08:59.729Z,english_660.wav,0,0,1051,24,4,Chinese,m,2,0.2,-79.57293034,0.660284
LLG,32,0,2024-06-14T14:08:59.729Z,english_660.wav,0,0,1051,24,4,Chinese,m,3,0.3,67.99606973,1.08301436
LLG,32,0,2024-06-14T14:08:59.729Z,english_660.wav,0,0,1051,24,4,Chinese,m,4,0.32341667,-2.00416122,0.81155284
LLG,33,0,2024-06-14T14:08:59.729Z,english_883.wav,0,0,2378,24,4,Chinese,m,0,0,-17.60743744,1.86037562
LLG,33,0,2024-06-14T14:08:59.729Z,english_883.wav,0,0,2378,24,4,Chinese,m,1,0.1,-37.46625877,0.9331332
LLG,33,0,2024-06-14T14:08:59.729Z,english_883.wav,0,0,2378,24,4,Chinese,m,2,0.2,55.1108939,1.34322635
LLG,33,0,2024-06-14T14:08:59.729Z,english_883.wav,0,0,2378,24,4,Chinese,m,3,0.3,87.45591348,0.07818604
LLG,33,0,2024-06-14T14:08:59.729Z,english_883.wav,0,0,2378,24,4,Chinese,m,4,0.32341667,-90.78539671,1.31446095
LLG,34,0,2024-06-14T14:08:59.729Z,english_720.wav,0,0,2804,24,4,Chinese,m,0,0,85.23240719,1.23446246
LLG,34,0,2024-06-14T14:08:59.729Z,english_720.wav,0,0,2804,24,4,Chinese,m,1,0.1,78.65958559,0.77382892
LLG,34,0,2024-06-14T14:08:59.729Z,english_720.wav,0,0,2804,24,4,Chinese,m,2,0.2,-56.45174874,0.48705718
LLG,34,0,2024-06-14T14:08:59.729Z,english_720.wav,0,0,2804,24,4,Chinese,m,3,0.3,71.88898266,1.42335328
LLG,34,0,2024-06-14T14:08:59.729Z,english_720.wav,0,0,2804,24,4,Chinese,m,4,0.32341667,-9.13482,1.32495619
LLG,35,0,2024-06-14T14:08:59.729Z,english_655.wav,0,0,567,24,4,Chinese,m,0,0,84.9811401,1.09123398
LLG,35,0,2024-06-14T14:08:59.729Z,english_655.wav,0,0,567,24,4,Chinese,m,1,0.1,70.1996811,0.51840547
LLG,35,0,2024-06-14T14:08:59.729Z,english_655.wav,0,0,567,24,4,Chinese,m,2,0.2,-5.60681941,0.58569322
LLG,35,0,2024-06-14T14:08:59.729Z,english_655.wav,0,0,567,24,4,Chinese,m,3,0.3,-33.00324328,1.11132849
LLG,35,0,2024-06-14T14:08:59.729Z,english_655.wav,0,0,567,24,4,Chinese,m,4,0.32341667,24.65490624,0.28465301
LLG,36,0,2024-06-14T14:08:59.729Z,english_451.wav,0,1,725,24,4,Chinese,m,0,0,-87.31297583,0.44823779
LLG,36,0,2024-06-14T14:08:59.729Z,english_451.wav,0,1,725,24,4,Chinese,m,1,0.1,-44.51362963,0.44678563
LLG,36,0,2024-06-14T14:08:59.729Z,english_451.wav,0,1,725,24,4,Chinese,m,2,0.2,-15.52945473,1.69444841
LLG,36,0,2024-06-14T14:08:59.729Z,english_451.wav,0,1,725,24,4,Chinese,m,3,0.3,11.70886435,0.18586344
LLG,36,0,2024-06-14T14:08:59.729Z,english_451.wav,0,1,725,24,4,Chinese,m,4,0.32341667,82.84342256,0.9677256
LLG,37,0,2024-06-14T14:08:59.729Z,english_520.wav,0,1,513,24,4,Chinese,m,0,0,86.3711843,1.94117834
LLG,37,0,2024-06-14T14:08:59.729Z,english_520.wav,0,1,513,24,4,Chinese,m,1,0.1,30.73905166,1.71866566
LLG,37,0,2024-06-14T14:08:59.729Z,english_520.wav,0,1,513,24,4,Chinese,m,2,0.2,6.06230503,1.15295637
LLG,37,0,2024-06-14T14:08:59.729Z,english_520.wav,0,1,513,24,4,Chinese,m,3,0.3,-72.93527416,0.80072648
LLG,37,0,2024-06-14T14:08:59.729Z,english_520.wav,0,1,513,24,4,Chinese,m,4,0.32341667,40.17700679,1.71054199
LLG,38,0,2024-06-14T14:08:59.729Z,english_89.wav,0,0,1429,24,4,Chinese,m,0,0,-42.28936571,1.68633095
LLG,38,0,2024-06-14T14:08:59.729Z,english_89.wav,0,0,1429,24,4,Chinese,m,1,0.1,12.96738115,0.49078122
LLG,38,0,2024-06-14T14:08:59.729Z,english_89.wav,0,0,1429,24,4,Chinese,m,2,0.2,-0.92476461,0.75584791
LLG,38,0,2024-06-14T14:08:59.729Z,english_89.wav,0,0,1429,24,4,Chinese,m,3,0.3,54.46155283,1.37155139
LLG,38,0,2024-06-14T14:08:59.729Z,english_89.wav,0,0,1429,24,4,Chinese,m,4,0.32341667,-5.27724964,0.6613642
LLG,39,0,2024-06-14T14:08:59.729Z,english_426.wav,0,1,526,24,4,Chinese,m,0,0,84.66887763,0.58495982
LLG,39,0,2024-06-14T14:08:59.729Z,english_426.wav,0,1,526,24,4,Chinese,m,1,0.1,6.08176803,0.31710055
LLG,39,0,2024-06-14T14:08:59.729Z,english_426.wav,0,1,526,24,4,Chinese,m,2,0.2,90.82211143,1.7123379
LLG,39,0,2024-06-14T14:08:59.729Z,english_426.wav,0,1,526,24,4,Chinese,m,3,0.3,42.04787562,1.38911617
LLG,39,0,2024-06-14T14:08:59.729Z,english_426.wav,0,1,526,24,4,Chinese,m,4,0.32341667,-40.19306584,1.84862951
LLG,40,0,2024-06-14T14:08:59.729Z,english_219.wav,0,1,707,24,4,Chinese,m,0,0,38.40040381,1.09142553
LLG,40,0,2024-06-14T14:08:59.729Z,english_219.wav,0,1,707,24,4,Chinese,m,1,0.1,-26.23926727,0.5740428
LLG,40,0,2024-06-14T14:08:59.729Z,english_219.wav,0,1,707,24,4,Chinese,m,2,0.2,-57.67558578,1.19056911
LLG,40,0,2024-06-14T14:08:59.729Z,english_219.wav,0,1,707,24,4,Chinese,m,3,0.3,50.56926795,1.87089358
LLG,40,0,2024-06-14T14:08:59.729Z,english_219.wav,0,1,707,24,4,Chinese,m,4,0.32341667,64.39220397,1.06933149
LLG,41,0,2024-06-14T14:08:59.729Z,english_842.wav,0,0,2522,24,4,Chinese,m,0,0,-48.5952207,0.12382156
LLG,41,0,2024-06-14T14:08:59.729Z,english_842.wav,0,0,2522,24,4,Chinese,m,1,0.1,29.19485822,1.75564688
LLG,41,0,2024-06-14T14:08:59.729Z,english_842.wav,0,0,2522,24,4,Chinese,m,2,0.2,84.54328152,0.24815543
LLG,41,0,2024-06-14T14:08:59.729Z,english_842.wav,0,0,2522,24,4,Chinese,m,3,0.3,69.99994667,1.2885643
LLG,41,0,2024-06-14T14:08:59.729Z,english_842.wav,0,0,2522,24,4,Chinese,m,4,0.32341667,56.72069463,0.70518165
LLG,42,0,2024-06-14T14:08:59.729Z,english_822.wav,0,0,1654,24,4,Chinese,m,0,0,22.19463519,1.34957498
LLG,42,0,2024-06-14T14:08:59.729Z,english_822.wav,0,0,1654,24,4,Chinese,m,1,0.1,46.02970585,1.18534363
LLG,42,0,2024-06-14T14:08:59.729Z,english_822.wav,0,0,1654,24,4,Chinese,m,2,0.2,44.31281831,0.88966115
LLG,42,0,2024-06-14T14:08:59.729Z,english_822.wav,0,0,1654,24,4,Chinese,m,3,0.3,27.24156044,1.22476657
LLG,42,0,2024-06-14T14:08:59.729Z,english_822.wav,0,0,1654,24,4,Chinese,m,4,0.32341667,41.58842879,0.51847317
LLG,43,0,2024-06-14T14:08:59.729Z,english_110.wav,0,1,561,24,4,Chinese,m,0,0,87.43016285,1.84693198
LLG,43,0,2024-06-14T14:08:59.729Z,english_110.wav,0,1,561,24,4,Chinese,m,1,0.1,-22.53798338,0.72868036
LLG,43,0,2024-06-14T14:08:59.729Z,english_110.wav,0,1,561,24,4,Chinese,m,2,0.2,60.38266123,1.6889543
LLG,43,0,2024-06-14T14:08:59.729Z,english_110.wav,0,1,561,24,4,Chinese,m,3,0.3,50.75224473,0.97311446
LLG,43,0,2024-06-14T14:08:59.729Z,english_110.wav,0,1,561,24,4,Chinese,m,4,0.32341667,87.78495288,0.46157718
LLG,44,0,2024-06-14T14:08:59.729Z,english_474.wav,0,1,1936,24,4,Chinese,m,0,0,42.88606971,0.87351765
LLG,44,0,2024-06-14T14:08:59.729Z,english_474.wav,0,1,1936,24,4,Chinese,m,1,0.1,6.82691085,1.08551449
LLG,44,0,2024-06-14T14:08:59.729Z,english_474.wav,0,1,1936,24,4,Chinese,m,2,0.2,-33.80031927,1.99847166
LLG,44,0,2024-06-14T14:08:59.729Z,english_474.wav,0,1,1936,24,4,Chinese,m,3,0.3,-97.18672796,0.27470298
LLG,44,0,2024-06-14T14:08:59.729Z,english_474.wav,0,1,1936,24,4,Chinese,m,4,0.32341667,-4.7462475,0.02962094
LLG,45,0,2024-06-14T14:08:59.729Z,english_634.wav,0,0,2416,24,4,Chinese,m,0,0,-94.29539956,0.6011183
LLG,45,0,2024-06-14T14:08:59.729Z,english_634.wav,0,0,2416,24,4,Chinese,m,1,0.1,28.41708136,1.15242669
LLG,45,0,2024-06-14T14:08:59.729Z,english_634.wav,0,0,2416,24,4,Chinese,m,2,0.2,-99.13935281,0.68826906
LLG,45,0,2024-06-14T14:08:59.729Z,english_634.wav,0,0,2416,24,4,Chinese,m,3,0.3,-78.11216949,1.44169335
LLG,45,0,2024-06-14T14:08:59.729Z,english_634.wav,0,0,2416,24,4,Chinese,m,4,0.32341667,-54.5881907,0.90266094
LLG,46,0,2024-06-14T14:08:59.729Z,english_533.wav,0,1,4098,24,4,Chinese,m,0,0,-10.36570298,0.10013008
LLG,46,0,2024-06-14T14:08:59.729Z,english_533.wav,0,1,4098,24,4,Chinese,m,1,0.1,-67.04420928,1.73583104
LLG,46,0,2024-06-14T14:08:59.729Z,english_533.wav,0,1,4098,24,4,Chinese,m,2,0.2,-31.24691396,1.00550506
LLG,46,0,2024-06-14T14:08:59.729Z,english_533.wav,0,1,4098,24,4,Chinese,m,3,0.3,-22.73912087,1.21009828
LLG,46,0,2024-06-14T14:08:59.729Z,english_533.wav,0,1,4098,24,4,Chinese,m,4,0.32341667,-4.63915005,1.69946188
LLG,47,0,2024-06-14T14:08:59.729Z,english_303.wav,0,0,736,24,4,Chinese,m,0,0,67.00540241,1.22520816
LLG,47,0,2024-06-14T14:08:59.729Z,english_303.wav,0,0,736,24,4,Chinese,m,1,0.1,32.95821842,1.22732479
LLG,47,0,2024-06-14T14:08:59.729Z,english_303.wav,0,0,736,24,4,Chinese,m,2,0.2,-23.67517146,0.54923068
LLG,47,0,2024-06-14T14:08:59.729Z,english_303.wav,0,0,736,24,4,Chinese,m,3,0.3,-66.94926695,0.8977578
LLG,47,0,2024-06-14T14:08:59.729Z,english_303.wav,0,0,736,24,4,Chinese,m,4,0.32341667,65.71723135,1.41807679
LLG,48,0,2024-06-14T14:08:59.729Z,english_758.wav,0,0,1341,24,4,Chinese,m,0,0,-56.29380511,1.72966744
LLG,48,0,2024-06-14T14:08:59.729Z,english_758.wav,0,0,1341,24,4,Chinese,m,1,0.1,1.29517397,1.20455484
LLG,48,0,2024-06-14T14:08:59.729Z,english_758.wav,0,0,1341,24,4,Chinese,m,2,0.2,49.77366466,0.98441853
LLG,48,0,2024-06-14T14:08:59.729Z,english_758.wav,0,0,1341,24,4,Chinese,m,3,0.3,51.49077837,0.78323536
LLG,48,0,2024-06-14T14:08:59.729Z,english_758.wav,0,0,1341,24,4,Chinese,m,4,0.32341667,80.19813303,1.88107652
LLG,49,0,2024-06-14T14:08:59.729Z,english_162.wav,0,1,1284,24,4,Chinese,m,0,0,-93.72635155,0.46304305
LLG,49,0,2024-06-14T14:08:59.729Z,english_162.wav,0,1,1284,24,4,Chinese,m,1,0.1,-77.68974918,1.90149112
LLG,49,0,2024-06-14T14:08:59.729Z,english_162.wav,0,1,1284,24,4,Chinese,m,2,0.2,15.19581884,1.02605911
LLG,49,0,2024-06-14T14:08:59.729Z,english_162.wav,0,1,1284,24,4,Chinese,m,3,0.3,64.44828449,1.67084882
LLG,49,0,2024-06-14T14:08:59.729Z,english_162.wav,0,1,1284,24,4,Chinese,m,4,0.32341667,-98.3856278,0.11792656
LLG,50,1,2024-06-14T14:13:08.285Z,english_661.wav,0,1,1318,24,4,Chinese,m,0,0,14.15805194,1.06290545
LLG,50,1,2024-06-14T14:13:08.285Z,english_661.wav,0,1,1318,24,4,Chinese,m,1,0.1,-77.97020538,1.12952287
LLG,50,1,2024-06-14T14:13:08.285Z,english_661.wav,0,1,1318,24,4,Chinese,m,2,0.2,-31.78835068,1.47556517
LLG,50,1,2024-06-14T14:13:08.285Z,english_661.wav,0,1,1318,24,4,Chinese,m,3,0.3,1.84085651,0.41137052
LLG,50,1,2024-06-14T14:13:08.285Z,english_661.wav,0,1,1318,24,4,Chinese,m,4,0.32341667,31.49677972,1.48872703
LLG,51,1,2024-06-14T14:13:08.285Z,english_604.wav,0,1,1732,24,4,Chinese,m,0,0,11.37360706,1.9162078
LLG,51,1,2024-06-14T14:13:08.285Z,english_604.wav,0,1,1732,24,4,Chinese,m,1,0.1,-50.20832577,0.59247461
LLG,51,1,2024-06-14T14:13:08.285Z,english_604.wav,0,1,1732,24,4,Chinese,m,2,0.2,-34.39542541,1.79911242
LLG,51,1,2024-06-14T14:13:08.285Z,english_604.wav,0,1,1732,24,4,Chinese,m,3,0.3,-9.87560088,0.998763
LLG,51,1,2024-06-14T14:13:08.285Z,english_604.wav,0,1,1732,24,4,Chinese,m,4,0.32341667,34.71454295,0.76768671
LLG,52,1,2024-06-14T14:13:08.285Z,english_746.wav,0,1,565,24,4,Chinese,m,0,0,-1.32395796,1.72273729
LLG,52,1,2024-06-14T14:13:08.285Z,english_746.wav,0,1,565,24,4,Chinese,m,1,0.1,-67.07117971,1.22961235
LLG,52,1,2024-06-14T14:13:08.285Z,english_746.wav,0,1,565,24,4,Chinese,m,2,0.2,75.09604974,1.29107068
LLG,52,1,2024-06-14T14:13:08.285Z,english_746.wav,0,1,565,24,4,Chinese,m,3,0.3,-48.59278454,1.34694816
LLG,52,1,2024-06-14T14:13:08.285Z,english_746.wav,0,1,565,24,4,Chinese,m,4,0.32341667,-6.52080997,0.94274536
LLG,53,1,2024-06-14T14:13:08.285Z,english_766.wav,0,1,902,24,4,Chinese,m,0,0,-86.57417509,1.21737292
LLG,53,1,2024-06-14T14:13:08.285Z,english_766.wav,0,1,902,24,4,Chinese,m,1,0.1,-67.75686223,1.61484435
LLG,53,1,2024-06-14T14:13:08.285Z,english_766.wav,0,1,902,24,4,Chinese,m,2,0.2,74.21258041,1.47872362
LLG,53,1,2024-06-14T14:13:08.285Z,english_766.wav,0,1,902,24,4,Chinese,m,3,0.3,65.20164426,1.81064247
LLG,53,1,2024-06-14T14:13:08.285Z,english_766.wav,0,1,902,24,4,Chinese,m,4,0.32341667,-26.41371036,1.37776493
LLG,54,1,2024-06-14T14:13:08.285Z,english_433.wav,0,0,803,24,4,Chinese,m,0,0,-74.58178472,0.69852952
LLG,54,1,2024-06-14T14:13:08.285Z,english_433.wav,0,0,803,24,4,Chinese,m,1,0.1,-50.00917691,1.92405883
LLG,54,1,2024-06-14T14:13:08.285Z,english_433.wav,0,0,803,24,4,Chinese,m,2,0.2,48.18572343,0.3905825
LLG,54,1,2024-06-14T14:13:08.285Z,english_433.wav,0,0,803,24,4,Chinese,m,3,0.3,-63.95387597,0.31453116
LLG,54,1,2024-06-14T14:13:08.285Z,english_433.wav,0,0,803,24,4,Chinese,m,4,0.32341667,-68.91859183,1.4953114
LLG,55,1,2024-06-14T14:13:08.285Z,english_850.wav,0,0,528,24,4,Chinese,m,0,0,79.79173837,1.46721922
LLG,55,1,2024-06-14T14:13:08.285Z,english_850.wav,0,0,528,24,4,Chinese,m,1,0.1,-44.24877139,0.57242606
LLG,55,1,2024-06-14T14:13:08.285Z,english_850.wav,0,0,528,24,4,Chinese,m,2,0.2,74.77623955,0.15597525
LLG,55,1,2024-06-14T14:13:08.285Z,english_850.wav,0,0,528,24,4,Chinese,m,3,0.3,-86.32612653,1.3358867
LLG,55,1,2024-06-14T14:13:08.285Z,english_850.wav,0,0,528,24,4,Chinese,m,4,0.32341667,-11.10230867,1.14618682
LLG,56,1,2024-06-14T14:13:08.285Z,english_324.wav,0,0,744,24,4,Chinese,m,0,0,49.07155908,0.10864525
LLG,56,1,2024-06-14T14:13:08.285Z,english_324.wav,0,0,744,24,4,Chinese,m,1,0.1,-58.77252084,1.61132735
LLG,56,1,2024-06-14T14:13:08.285Z,english_324.wav,0,0,744,24,4,Chinese,m,2,0.2,-55.40155542,0.60180616
LLG,56,1,2024-06-14T14:13:08.285Z,english_324.wav,0,0,744,24,4,Chinese,m,3,0.3,19.02224292,0.93555132
LLG,56,1,2024-06-14T14:13:08.285Z,english_324.wav,0,0,744,24,4,Chinese,m,4,0.32341667,21.20382854,0.34417591
LLG,57,1,2024-06-14T14:13:08.285Z,english_573.wav,0,0,538,24,4,Chinese,m,0,0,-46.41950257,0.98293374
LLG,57,1,2024-06-14T14:13:08.285Z,english_573.wav,0,0,538,24,4,Chinese,m,1,0.1,-92.58424164,0.99885906
LLG,57,1,2024-06-14T14:13:08.285Z,english_573.wav,0,0,538,24,4,Chinese,m,2,0.2,21.8123883,0.65769494
LLG,57,1,2024-06-14T14:13:08.285Z,english_573.wav,0,0,538,24,4,Chinese,m,3,0.3,16.48756951,0.46238493
LLG,57,1,2024-06-14T14:13:08.285Z,english_573.wav,0,0,538,24,4,Chinese,m,4,0.32341667,-54.36863361,0.72259175
LLG,58,1,2024-06-14T14:13:08.285Z,english_677.wav,0,0,578,24,4,Chinese,m,0,0,74.92499355,0.4070184
LLG,58,1,2024-06-14T14:13:08.285Z,english_677.wav,0,0,578,24,4,Chinese,m,1,0.1,35.44886391,0.82737557
LLG,58,1,2024-06-14T14:13:08.285Z,english_677.wav,0,0,578,24,4,Chinese,m,2,0.2,3.82146975,0.46436239
LLG,58,1,2024-06-14T14:13:08.285Z,english_677.wav,0,0,578,24,4,Chinese,m,3,0.3,10.3543008,1.40426898
LLG,58,1,2024-06-14T14:13:08.285Z,english_677.wav,0,0,578,24,4,Chinese,m,4,0.32341667,-53.94170103,1.42138659
LLG,59,1,2024-06-14T14:13:08.285Z,english_55.wav,0,1,1296,24,4,Chinese,m,0,0,71.89255128,0.24931264
LLG,59,1,2024-06-14T14:13:08.285Z,english_55.wav,0,1,1296,24,4,Chinese,m,1,0.1,0.20692224,1.79813092
LLG,59,1,2024-06-14T14:13:08.285Z,english_55.wav,0,1,1296,24,4,Chinese,m,2,0.2,-68.61006599,0.71729895
LLG,59,1,2024-06-14T14:13:08.285Z,english_55.wav,0,1,1296,24,4,Chinese,m,3,0.3,-5.20952515,1.28733782
LLG,59,1,2024-06-14T14:13:08.285Z,english_55.wav,0,1,1296,24,4,Chinese,m,4,0.32341667,28.45991968,1.77061752
LLG,60,1,2024-06-14T14:13:08.285Z,english_390.wav,0,1,1687,24,4,Chinese,m,0,0,-50.40750922,1.41643644
LLG,60,1,2024-06-14T14:13:08.285Z,english_390.wav,0,1,1687,24,4,Chinese,m,1,0.1,-38.67641955,0.84399933
LLG,60,1,2024-06-14T14:13:08.285Z,english_390.wav,0,1,1687,24,4,Chinese,m,2,0.2,-37.03459725,1.67796426
LLG,60,1,2024-06-14T14:13:08.285Z,english_390.wav,0,1,1687,24,4,Chinese,m,3,0.3,-24.07335547,0.43781117
LLG,60,1,2024-06-14T14:13:08.285Z,english_390.wav,0,1,1687,24,4,Chinese,m,4,0.32341667,75.09366884,0.01225463
LLG,61,1,2024-06-14T14:13:08.285Z,english_990.wav,0,0,674,24,4,Chinese,m,0,0,-17.98511021,0.6190444
LLG,61,1,2024-06-14T14:13:08.285Z,english_990.wav,0,0,674,24,4,Chinese,m,1,0.1,-90.3005676,0.77548775
LLG,61,1,2024-06-14T14:13:08.285Z,english_990.wav,0,0,674,24,4,Chinese,m,2,0.2,4.37005684,0.55013224
LLG,61,1,2024-06-14T14:13:08.285Z,english_990.wav,0,0,674,24,4,Chinese,m,3,0.3,83.93705034,0.66784051
LLG,61,1,2024-06-14T14:13:08.285Z,english_990.wav,0,0,674,24,4,Chinese,m,4,0.32341667,-36.57803625,0.32384409
LLG,62,1,2024-06-14T14:13:08.285Z,english_190.wav,0,0,1864,24,4,Chinese,m,0,0,81.66607819,0.126715216
LLG,62,1,2024-06-14T14:13:08.285Z,english_190.wav,0,0,1864,24,4,Chinese,m,1,0.1,-14.16938067,0.000178349903
LLG,62,1,2024-06-14T14:13:08.285Z,english_190.wav,0,0,1864,24,4,Chinese,m,2,0.2,15.7443745,1.35192229
LLG,62,1,2024-06-14T14:13:08.285Z,english_190.wav,0,0,1864,24,4,Chinese,m,3,0.3,85.77694093,1.08905811
LLG,62,1,2024-06-14T14:13:08.285Z,english_190.wav,0,0,1864,24,4,Chinese,m,4,0.32341667,33.21115004,1.75580408
LLG,63,1,2024-06-14T14:13:08.285Z,english_706.wav,0,1,573,24,4,Chinese,m,0,0,-14.02426606,0.18721001
LLG,63,1,2024-06-14T14:13:08.285Z,english_706.wav,0,1,573,24,4,Chinese,m,1,0.1,23.81630209,0.48464851
LLG,63,1,2024-06-14T14:13:08.285Z,english_706.wav,0,1,573,24,4,Chinese,m,2,0.2,94.24266466,1.46456973
LLG,63,1,2024-06-14T14:13:08.285Z,english_706.wav,0,1,573,24,4,Chinese,m,3,0.3,20.03642156,0.11403632
LLG,63,1,2024-06-14T14:13:08.285Z,english_706.wav,0,1,573,24,4,Chinese,m,4,0.32341667,57.92570785,0.61389372
LLG,64,1,2024-06-14T14:13:08.285Z,english_686.wav,0,1,462,24,4,Chinese,m,0,0,-30.40223154,0.36787347
LLG,64,1,2024-06-14T14:13:08.285Z,english_686.wav,0,1,462,24,4,Chinese,m,1,0.1,40.30213926,1.54584144
LLG,64,1,2024-06-14T14:13:08.285Z,english_686.wav,0,1,462,24,4,Chinese,m,2,0.2,68.68183252,1.54645212
LLG,64,1,2024-06-14T14:13:08.285Z,english_686.wav,0,1,462,24,4,Chinese,m,3,0.3,82.36920372,1.04035585
LLG,64,1,2024-06-14T14:13:08.285Z,english_686.wav,0,1,462,24,4,Chinese,m,4,0.32341667,5.8000707,1.51520661
LLG,65,1,2024-06-14T14:13:08.285Z,english_587.wav,0,1,525,24,4,Chinese,m,0,0,-33.32102811,0.7972352
LLG,65,1,2024-06-14T14:13:08.285Z,english_587.wav,0,1,525,24,4,Chinese,m,1,0.1,46.1287001,1.97425238
LLG,65,1,2024-06-14T14:13:08.285Z,english_587.wav,0,1,525,24,4,Chinese,m,2,0.2,-62.23894368,0.99609006
LLG,65,1,2024-06-14T14:13:08.285Z,english_587.wav,0,1,525,24,4,Chinese,m,3,0.3,36.67711132,1.18577707
LLG,65,1,2024-06-14T14:13:08.285Z,english_587.wav,0,1,525,24,4,Chinese,m,4,0.32341667,-11.53320103,1.64089558
LLG,66,1,2024-06-14T14:13:08.285Z,english_572.wav,0,0,780,24,4,Chinese,m,0,0,-16.16189062,1.82210005
LLG,66,1,2024-06-14T14:13:08.285Z,english_572.wav,0,0,780,24,4,Chinese,m,1,0.1,-40.8511413,0.80249033
LLG,66,1,2024-06-14T14:13:08.285Z,english_572.wav,0,0,780,24,4,Chinese,m,2,0.2,-77.3747243,0.69959732
LLG,66,1,2024-06-14T14:13:08.285Z,english_572.wav,0,0,780,24,4,Chinese,m,3,0.3,87.62803369,0.43311894
LLG,66,1,2024-06-14T14:13:08.285Z,english_572.wav,0,0,780,24,4,Chinese,m,4,0.32341667,81.6005998,1.25204325
LLG,67,1,2024-06-14T14:13:08.285Z,english_8.wav,0,0,594,24,4,Chinese,m,0,0,-11.83025711,1.51300734
LLG,67,1,2024-06-14T14:13:08.285Z,english_8.wav,0,0,594,24,4,Chinese,m,1,0.1,8.7470631,0.24000547
LLG,67,1,2024-06-14T14:13:08.285Z,english_8.wav,0,0,594,24,4,Chinese,m,2,0.2,-15.41843982,1.17952525
LLG,67,1,2024-06-14T14:13:08.285Z,english_8.wav,0,0,594,24,4,Chinese,m,3,0.3,-87.7437633,1.57032258
LLG,67,1,2024-06-14T14:13:08.285Z,english_8.wav,0,0,594,24,4,Chinese,m,4,0.32341667,-40.85253846,0.7584977
LLG,68,1,2024-06-14T14:13:08.285Z,english_484.wav,0,0,2391,24,4,Chinese,m,0,0,79.97188672,0.20745104
LLG,68,1,2024-06-14T14:13:08.285Z,english_484.wav,0,0,2391,24,4,Chinese,m,1,0.1,-84.58904822,1.46214797
LLG,68,1,2024-06-14T14:13:08.285Z,english_484.wav,0,0,2391,24,4,Chinese,m,2,0.2,70.2960477,0.40821612
LLG,68,1,2024-06-14T14:13:08.285Z,english_484.wav,0,0,2391,24,4,Chinese,m,3,0.3,-66.44520929,1.23203415
LLG,68,1,2024-06-14T14:13:08.285Z,english_484.wav,0,0,2391,24,4,Chinese,m,4,0.32341667,-78.91715359,1.26593617
LLG,69,1,2024-06-14T14:13:08.285Z,english_261.wav,0,0,1120,24,4,Chinese,m,0,0,-19.34212076,1.20182597
LLG,69,1,2024-06-14T14:13:08.285Z,english_261.wav,0,0,1120,24,4,Chinese,m,1,0.1,-90.49371254,0.701642
LLG,69,1,2024-06-14T14:13:08.285Z,english_261.wav,0,0,1120,24,4,Chinese,m,2,0.2,-2.84874079,0.72931556
LLG,69,1,2024-06-14T14:13:08.285Z,english_261.wav,0,0,1120,24,4,Chinese,m,3,0.3,26.59732755,0.86687176
LLG,69,1,2024-06-14T14:13:08.285Z,english_261.wav,0,0,1120,24,4,Chinese,m,4,0.32341667,39.97770901,1.42617677
LLG,70,1,2024-06-14T14:13:08.285Z,english_762.wav,0,0,975,24,4,Chinese,m,0,0,-56.40971946,1.43822993
LLG,70,1,2024-06-14T14:13:08.285Z,english_762.wav,0,0,975,24,4,Chinese,m,1,0.1,-9.09046034,1.11776807
LLG,70,1,2024-06-14T14:13:08.285Z,english_762.wav,0,0,975,24,4,Chinese,m,2,0.2,20.98892014,0.71531135
LLG,70,1,2024-06-14T14:13:08.285Z,english_762.wav,0,0,975,24,4,Chinese,m,3,0.3,-66.43296232,0.54997993
LLG,70,1,2024-06-14T14:13:08.285Z,english_762.wav,0,0,975,24,4,Chinese,m,4,0.32341667,-91.78640069,0.26897274
LLG,71,1,2024-06-14T14:13:08.285Z,english_772.wav,0,1,408,24,4,Chinese,m,0,0,-76.23750274,0.54712598
LLG,71,1,2024-06-14T14:13:08.285Z,english_772.wav,0,1,408,24,4,Chinese,m,1,0.1,54.42820472,1.66698734
LLG,71,1,2024-06-14T14:13:08.285Z,english_772.wav,0,1,408,24,4,Chinese,m,2,0.2,26.41325181,1.761061
LLG,71,1,2024-06-14T14:13:08.285Z,english_772.wav,0,1,408,24,4,Chinese,m,3,0.3,14.10037165,1.80899506
LLG,71,1,2024-06-14T14:13:08.285Z,english_772.wav,0,1,408,24,4,Chinese,m,4,0.32341667,-75.83605273,1.29882268
LLG,72,1,2024-06-14T14:13:08.285Z,english_18.wav,0,0,920,24,4,Chinese,m,0,0,-61.9567004,0.45038722
LLG,72,1,2024-06-14T14:13:08.285Z,english_18.wav,0,0,920,24,4,Chinese,m,1,0.1,39.2027204,1.56185221
LLG,72,1,2024-06-14T14:13:08.285Z,english_18.wav,0,0,920,24,4,Chinese,m,2,0.2,-0.0626834214,0.80652275
LLG,72,1,2024-06-14T14:13:08.285Z,english_18.wav,0,0,920,24,4,Chinese,m,3,0.3,-72.2820301,0.39505163
LLG,72,1,2024-06-14T14:13:08.285Z,english_18.wav,0,0,920,24,4,Chinese,m,4,0.323416667,-52.9459242,0.50402069
LLG,73,1,2024-06-14T14:13:08.285Z,english_144.wav,0,0,823,24,4,Chinese,m,0,0,-68.95587174,0.23806678
LLG,73,1,2024-06-14T14:13:08.285Z,english_144.wav,0,0,823,24,4,Chinese,m,1,0.1,-74.16141139,0.77020267
LLG,73,1,2024-06-14T14:13:08.285Z,english_144.wav,0,0,823,24,4,Chinese,m,2,0.2,-19.31034794,0.33858197
LLG,73,1,2024-06-14T14:13:08.285Z,english_144.wav,0,0,823,24,4,Chinese,m,3,0.3,-77.96768175,1.42512122
LLG,73,1,2024-06-14T14:13:08.285Z,english_144.wav,0,0,823,24,4,Chinese,m,4,0.32341667,3.46911061,0.57629619
LLG,74,1,2024-06-14T14:13:08.285Z,english_309.wav,0,0,627,24,4,Chinese,m,0,0,59.8258624,0.58100331
LLG,74,1,2024-06-14T14:13:08.285Z,english_309.wav,0,0,627,24,4,Chinese,m,1,0.1,73.70427758,0.81024997
LLG,74,1,2024-06-14T14:13:08.285Z,english_309.wav,0,0,627,24,4,Chinese,m,2,0.2,-8.71125849,0.10827203
LLG,74,1,2024-06-14T14:13:08.285Z,english_309.wav,0,0,627,24,4,Chinese,m,3,0.3,-86.6882155,0.09670208
LLG,74,1,2024-06-14T14:13:08.285Z,english_309.wav,0,0,627,24,4,Chinese,m,4,0.32341667,-90.77340978,1.53063904
LLG,75,1,2024-06-14T14:13:08.285Z,english_781.wav,0,1,854,24,4,Chinese,m,0,0,22.64916165,0.31928057
LLG,75,1,2024-06-14T14:13:08.285Z,english_781.wav,0,1,854,24,4,Chinese,m,1,0.1,6.89582518,1.4040275
LLG,75,1,2024-06-14T14:13:08.285Z,english_781.wav,0,1,854,24,4,Chinese,m,2,0.2,-79.07711894,0.86558079
LLG,75,1,2024-06-14T14:13:08.285Z,english_781.wav,0,1,854,24,4,Chinese,m,3,0.3,66.534152,0.14510309
LLG,75,1,2024-06-14T14:13:08.285Z,english_781.wav,0,1,854,24,4,Chinese,m,4,0.32341667,93.30494506,0.79620595
LLG,76,1,2024-06-14T14:13:08.285Z,english_705.wav,0,1,1510,24,4,Chinese,m,0,0,3.76426423,0.9500377
LLG,76,1,2024-06-14T14:13:08.285Z,english_705.wav,0,1,1510,24,4,Chinese,m,1,0.1,90.96696755,0.74173997
LLG,76,1,2024-06-14T14:13:08.285Z,english_705.wav,0,1,1510,24,4,Chinese,m,2,0.2,-32.86898574,1.78776637
LLG,76,1,2024-06-14T14:13:08.285Z,english_705.wav,0,1,1510,24,4,Chinese,m,3,0.3,-21.12550784,0.8178788
LLG,76,1,2024-06-14T14:13:08.285Z,english_705.wav,0,1,1510,24,4,Chinese,m,4,0.32341667,39.74077299,1.54913024
LLG,77,1,2024-06-14T14:13:08.285Z,english_810.wav,0,1,649,24,4,Chinese,m,0,0,44.6757801,0.77700382
LLG,77,1,2024-06-14T14:13:08.285Z,english_810.wav,0,1,649,24,4,Chinese,m,1,0.1,-98.4252216,1.25917073
LLG,77,1,2024-06-14T14:13:08.285Z,english_810.wav,0,1,649,24,4,Chinese,m,2,0.2,55.4106213,0.78203472
LLG,77,1,2024-06-14T14:13:08.285Z,english_810.wav,0,1,649,24,4,Chinese,m,3,0.3,-18.4676839,1.13021068
LLG,77,1,2024-06-14T14:13:08.285Z,english_810.wav,0,1,649,24,4,Chinese,m,4,0.323416667,0.0259169543,0.14578676
LLG,78,1,2024-06-14T14:13:08.285Z,english_825.wav,0,0,578,24,4,Chinese,m,0,0,9.96211161,0.17252736
LLG,78,1,2024-06-14T14:13:08.285Z,english_825.wav,0,0,578,24,4,Chinese,m,1,0.1,-28.44120521,0.52830291
LLG,78,1,2024-06-14T14:13:08.285Z,english_825.wav,0,0,578,24,4,Chinese,m,2,0.2,58.95311712,0.51646024
LLG,78,1,2024-06-14T14:13:08.285Z,english_825.wav,0,0,578,24,4,Chinese,m,3,0.3,-14.85414305,0.70859388
LLG,78,1,2024-06-14T14:13:08.285Z,english_825.wav,0,0,578,24,4,Chinese,m,4,0.32341667,85.14956963,0.64434305
LLG,79,1,2024-06-14T14:13:08.285Z,english_59.wav,0,0,625,24,4,Chinese,m,0,0,30.26604033,1.5973148
LLG,79,1,2024-06-14T14:13:08.285Z,english_59.wav,0,0,625,24,4,Chinese,m,1,0.1,25.69112756,0.24758472
LLG,79,1,2024-06-14T14:13:08.285Z,english_59.wav,0,0,625,24,4,Chinese,m,2,0.2,-24.85549033,0.1547886
LLG,79,1,2024-06-14T14:13:08.285Z,english_59.wav,0,0,625,24,4,Chinese,m,3,0.3,-31.2790444,0.30754036
LLG,79,1,2024-06-14T14:13:08.285Z,english_59.wav,0,0,625,24,4,Chinese,m,4,0.32341667,86.30355152,0.40312024
LLG,80,1,2024-06-14T14:13:08.285Z,english_408.wav,0,1,542,24,4,Chinese,m,0,0,-0.16211679,1.52185603
LLG,80,1,2024-06-14T14:13:08.285Z,english_408.wav,0,1,542,24,4,Chinese,m,1,0.1,16.68246491,0.27925492
LLG,80,1,2024-06-14T14:13:08.285Z,english_408.wav,0,1,542,24,4,Chinese,m,2,0.2,-84.31504289,0.96179544
LLG,80,1,2024-06-14T14:13:08.285Z,english_408.wav,0,1,542,24,4,Chinese,m,3,0.3,20.95362966,1.64669203
LLG,80,1,2024-06-14T14:13:08.285Z,english_408.wav,0,1,542,24,4,Chinese,m,4,0.32341667,15.25079186,1.54793764
LLG,81,1,2024-06-14T14:13:08.285Z,english_199.wav,0,1,1162,24,4,Chinese,m,0,0,-24.89956817,0.07306367
LLG,81,1,2024-06-14T14:13:08.285Z,english_199.wav,0,1,1162,24,4,Chinese,m,1,0.1,-48.49200931,0.10334581
LLG,81,1,2024-06-14T14:13:08.285Z,english_199.wav,0,1,1162,24,4,Chinese,m,2,0.2,-89.66548778,1.49062114
LLG,81,1,2024-06-14T14:13:08.285Z,english_199.wav,0,1,1162,24,4,Chinese,m,3,0.3,29.20785813,0.36717513
LLG,81,1,2024-06-14T14:13:08.285Z,english_199.wav,0,1,1162,24,4,Chinese,m,4,0.32341667,-88.68286362,1.33179809
LLG,82,1,2024-06-14T14:13:08.285Z,english_726.wav,0,1,1366,24,4,Chinese,m,0,0,76.65318619,0.71374833
LLG,82,1,2024-06-14T14:13:08.285Z,english_726.wav,0,1,1366,24,4,Chinese,m,1,0.1,62.97746083,1.94407191
LLG,82,1,2024-06-14T14:13:08.285Z,english_726.wav,0,1,1366,24,4,Chinese,m,2,0.2,-20.72245964,0.55951675
LLG,82,1,2024-06-14T14:13:08.285Z,english_726.wav,0,1,1366,24,4,Chinese,m,3,0.3,42.64953343,0.7826891
LLG,82,1,2024-06-14T14:13:08.285Z,english_726.wav,0,1,1366,24,4,Chinese,m,4,0.32341667,23.5514061,0.11592549
LLG,83,1,2024-06-14T14:13:08.285Z,english_632.wav,0,1,1204,24,4,Chinese,m,0,0,-56.22391322,1.21249895
LLG,83,1,2024-06-14T14:13:08.285Z,english_632.wav,0,1,1204,24,4,Chinese,m,1,0.1,-47.59423942,0.39515719
LLG,83,1,2024-06-14T14:13:08.285Z,english_632.wav,0,1,1204,24,4,Chinese,m,2,0.2,91.93727259,1.8528852
LLG,83,1,2024-06-14T14:13:08.285Z,english_632.wav,0,1,1204,24,4,Chinese,m,3,0.3,-33.89646621,1.67254104
LLG,83,1,2024-06-14T14:13:08.285Z,english_632.wav,0,1,1204,24,4,Chinese,m,4,0.32341667,46.88387871,1.21014685
LLG,84,1,2024-06-14T14:13:08.285Z,english_427.wav,0,0,2060,24,4,Chinese,m,0,0,38.10585738,0.62221409
LLG,84,1,2024-06-14T14:13:08.285Z,english_427.wav,0,0,2060,24,4,Chinese,m,1,0.1,75.26959407,1.20145201
LLG,84,1,2024-06-14T14:13:08.285Z,english_427.wav,0,0,2060,24,4,Chinese,m,2,0.2,-92.48152235,0.18894815
LLG,84,1,2024-06-14T14:13:08.285Z,english_427.wav,0,0,2060,24,4,Chinese,m,3,0.3,-38.24940669,0.36527681
LLG,84,1,2024-06-14T14:13:08.285Z,english_427.wav,0,0,2060,24,4,Chinese,m,4,0.32341667,-41.67637111,0.02898627
LLG,85,1,2024-06-14T14:13:08.285Z,english_830.wav,0,1,1161,24,4,Chinese,m,0,0,2.63258607,0.89301132
LLG,85,1,2024-06-14T14:13:08.285Z,english_830.wav,0,1,1161,24,4,Chinese,m,1,0.1,-31.8387274,1.32560067
LLG,85,1,2024-06-14T14:13:08.285Z,english_830.wav,0,1,1161,24,4,Chinese,m,2,0.2,-6.78563658,1.08718884
LLG,85,1,2024-06-14T14:13:08.285Z,english_830.wav,0,1,1161,24,4,Chinese,m,3,0.3,-57.52390495,0.53430446
LLG,85,1,2024-06-14T14:13:08.285Z,english_830.wav,0,1,1161,24,4,Chinese,m,4,0.32341667,51.13575953,0.53816607
LLG,86,1,2024-06-14T14:13:08.285Z,english_561.wav,0,1,1134,24,4,Chinese,m,0,0,62.21065415,1.32725493
LLG,86,1,2024-06-14T14:13:08.285Z,english_561.wav,0,1,1134,24,4,Chinese,m,1,0.1,-9.84770717,1.15871491
LLG,86,1,2024-06-14T14:13:08.285Z,english_561.wav,0,1,1134,24,4,Chinese,m,2,0.2,-12.92274306,0.82816789
LLG,86,1,2024-06-14T14:13:08.285Z,english_561.wav,0,1,1134,24,4,Chinese,m,3,0.3,16.08334811,1.72308293
LLG,86,1,2024-06-14T14:13:08.285Z,english_561.wav,0,1,1134,24,4,Chinese,m,4,0.32341667,-22.38830035,0.72943893
LLG,87,1,2024-06-14T14:13:08.285Z,english_231.wav,0,1,1702,24,4,Chinese,m,0,0,-57.04299033,1.30850831
LLG,87,1,2024-06-14T14:13:08.285Z,english_231.wav,0,1,1702,24,4,Chinese,m,1,0.1,-61.30294243,1.06317761
LLG,87,1,2024-06-14T14:13:08.285Z,english_231.wav,0,1,1702,24,4,Chinese,m,2,0.2,11.10207427,1.86768436
LLG,87,1,2024-06-14T14:13:08.285Z,english_231.wav,0,1,1702,24,4,Chinese,m,3,0.3,-1.38864911,1.42169342
LLG,87,1,2024-06-14T14:13:08.285Z,english_231.wav,0,1,1702,24,4,Chinese,m,4,0.32341667,-40.37897369,0.58634772
LLG,88,1,2024-06-14T14:13:08.285Z,english_669.wav,0,1,2428,24,4,Chinese,m,0,0,-58.38123624,0.53455866
LLG,88,1,2024-06-14T14:13:08.285Z,english_669.wav,0,1,2428,24,4,Chinese,m,1,0.1,-80.20155876,0.64376179
LLG,88,1,2024-06-14T14:13:08.285Z,english_669.wav,0,1,2428,24,4,Chinese,m,2,0.2,-25.59737246,0.76694756
LLG,88,1,2024-06-14T14:13:08.285Z,english_669.wav,0,1,2428,24,4,Chinese,m,3,0.3,-30.25633946,1.36842807
LLG,88,1,2024-06-14T14:13:08.285Z,english_669.wav,0,1,2428,24,4,Chinese,m,4,0.32341667,-70.78768349,0.06434218
LLG,89,1,2024-06-14T14:13:08.285Z,english_879.wav,0,1,1445,24,4,Chinese,m,0,0,-56.32485069,0.53184386
LLG,89,1,2024-06-14T14:13:08.285Z,english_879.wav,0,1,1445,24,4,Chinese,m,1,0.1,64.67592183,1.34296213
LLG,89,1,2024-06-14T14:13:08.285Z,english_879.wav,0,1,1445,24,4,Chinese,m,2,0.2,25.82204554,0.44649674
LLG,89,1,2024-06-14T14:13:08.285Z,english_879.wav,0,1,1445,24,4,Chinese,m,3,0.3,5.66794257,0.79707043
LLG,89,1,2024-06-14T14:13:08.285Z,english_879.wav,0,1,1445,24,4,Chinese,m,4,0.32341667,-31.65503708,1.19804995
LLG,90,1,2024-06-14T14:13:08.285Z,english_580.wav,0,0,604,24,4,Chinese,m,0,0,92.13406767,1.93694744
LLG,90,1,2024-06-14T14:13:08.285Z,english_580.wav,0,0,604,24,4,Chinese,m,1,0.1,-85.58685866,0.28773753
LLG,90,1,2024-06-14T14:13:08.285Z,english_580.wav,0,0,604,24,4,Chinese,m,2,0.2,57.10945482,0.86433335
LLG,90,1,2024-06-14T14:13:08.285Z,english_580.wav,0,0,604,24,4,Chinese,m,3,0.3,32.92004132,0.96651265
LLG,90,1,2024-06-14T14:13:08.285Z,english_580.wav,0,0,604,24,4,Chinese,m,4,0.32341667,52.08708517,1.25003658
LLG,91,1,2024-06-14T14:13:08.285Z,english_716.wav,0,1,519,24,4,Chinese,m,0,0,-41.01159081,1.70683796
LLG,91,1,2024-06-14T14:13:08.285Z,english_716.wav,0,1,519,24,4,Chinese,m,1,0.1,-51.78631031,1.57787804
LLG,91,1,2024-06-14T14:13:08.285Z,english_716.wav,0,1,519,24,4,Chinese,m,2,0.2,-25.7252513,1.76538287
LLG,91,1,2024-06-14T14:13:08.285Z,english_716.wav,0,1,519,24,4,Chinese,m,3,0.3,78.18950514,1.34280163
LLG,91,1,2024-06-14T14:13:08.285Z,english_716.wav,0,1,519,24,4,Chinese,m,4,0.32341667,-26.78025651,1.89346788
LLG,92,1,2024-06-14T14:13:08.285Z,english_962.wav,0,1,1258,24,4,Chinese,m,0,0,-55.512918,1.78332996
LLG,92,1,2024-06-14T14:13:08.285Z,english_962.wav,0,1,1258,24,4,Chinese,m,1,0.1,90.34773129,1.25956614
LLG,92,1,2024-06-14T14:13:08.285Z,english_962.wav,0,1,1258,24,4,Chinese,m,2,0.2,-3.10818459,0.72891593
LLG,92,1,2024-06-14T14:13:08.285Z,english_962.wav,0,1,1258,24,4,Chinese,m,3,0.3,50.27619033,1.49954356
LLG,92,1,2024-06-14T14:13:08.285Z,english_962.wav,0,1,1258,24,4,Chinese,m,4,0.32341667,-47.3196173,0.96339983
LLG,93,1,2024-06-14T14:13:08.285Z,english_865.wav,0,0,527,24,4,Chinese,m,0,0,57.45647421,1.64387024
LLG,93,1,2024-06-14T14:13:08.285Z,english_865.wav,0,0,527,24,4,Chinese,m,1,0.1,-62.30549211,0.05749027
LLG,93,1,2024-06-14T14:13:08.285Z,english_865.wav,0,0,527,24,4,Chinese,m,2,0.2,-35.85649312,0.09554773
LLG,93,1,2024-06-14T14:13:08.285Z,english_865.wav,0,0,527,24,4,Chinese,m,3,0.3,55.00701181,1.62598434
LLG,93,1,2024-06-14T14:13:08.285Z,english_865.wav,0,0,527,24,4,Chinese,m,4,0.32341667,-39.97662747,0.71232625
LLG,94,1,2024-06-14T14:13:08.285Z,english_347.wav,0,1,1159,24,4,Chinese,m,0,0,34.89178431,1.32203506
LLG,94,1,2024-06-14T14:13:08.285Z,english_347.wav,0,1,1159,24,4,Chinese,m,1,0.1,53.24978685,0.28714436
LLG,94,1,2024-06-14T14:13:08.285Z,english_347.wav,0,1,1159,24,4,Chinese,m,2,0.2,4.11185022,1.66093526
LLG,94,1,2024-06-14T14:13:08.285Z,english_347.wav,0,1,1159,24,4,Chinese,m,3,0.3,89.26663646,1.29826057
LLG,94,1,2024-06-14T14:13:08.285Z,english_347.wav,0,1,1159,24,4,Chinese,m,4,0.32341667,-53.02646266,0.05504814
LLG,95,1,2024-06-14T14:13:08.285Z,english_165.wav,0,1,408,24,4,Chinese,m,0,0,-65.85966689,0.99094124
LLG,95,1,2024-06-14T14:13:08.285Z,english_165.wav,0,1,408,24,4,Chinese,m,1,0.1,57.4210377,1.25140592
LLG,95,1,2024-06-14T14:13:08.285Z,english_165.wav,0,1,408,24,4,Chinese,m,2,0.2,-53.4891742,1.66606931
LLG,95,1,2024-06-14T14:13:08.285Z,english_165.wav,0,1,408,24,4,Chinese,m,3,0.3,-32.80877015,0.56557264
LLG,95,1,2024-06-14T14:13:08.285Z,english_165.wav,0,1,408,24,4,Chinese,m,4,0.32341667,-23.63509804,1.31427626
LLG,96,1,2024-06-14T14:13:08.285Z,english_11.wav,0,0,645,24,4,Chinese,m,0,0,-20.45826732,1.19869378
LLG,96,1,2024-06-14T14:13:08.285Z,english_11.wav,0,0,645,24,4,Chinese,m,1,0.1,-31.26113472,0.2059713
LLG,96,1,2024-06-14T14:13:08.285Z,english_11.wav,0,0,645,24,4,Chinese,m,2,0.2,84.03210455,0.62296143
LLG,96,1,2024-06-14T14:13:08.285Z,english_11.wav,0,0,645,24,4,Chinese,m,3,0.3,30.35463164,1.49781179
LLG,96,1,2024-06-14T14:13:08.285Z,english_11.wav,0,0,645,24,4,Chinese,m,4,0.32341667,-63.36217442,0.18750748
LLG,97,1,2024-06-14T14:13:08.285Z,english_960.wav,0,1,528,24,4,Chinese,m,0,0,35.80457434,0.79357899
LLG,97,1,2024-06-14T14:13:08.285Z,english_960.wav,0,1,528,24,4,Chinese,m,1,0.1,-19.98469691,0.63900775
LLG,97,1,2024-06-14T14:13:08.285Z,english_960.wav,0,1,528,24,4,Chinese,m,2,0.2,-8.88025322,1.83966222
LLG,97,1,2024-06-14T14:13:08.285Z,english_960.wav,0,1,528,24,4,Chinese,m,3,0.3,6.59365348,1.05168668
LLG,97,1,2024-06-14T14:13:08.285Z,english_960.wav,0,1,528,24,4,Chinese,m,4,0.32341667,64.0885905,1.66020449
LLG,98,1,2024-06-14T14:13:08.285Z,english_181.wav,0,0,1404,24,4,Chinese,m,0,0,-20.89133039,0.39550568
LLG,98,1,2024-06-14T14:13:08.285Z,english_181.wav,0,0,1404,24,4,Chinese,m,1,0.1,-68.36112581,0.87114476
LLG,98,1,2024-06-14T14:13:08.285Z,english_181.wav,0,0,1404,24,4,Chinese,m,2,0.2,-21.7912093,0.0214418
LLG,98,1,2024-06-14T14:13:08.285Z,english_181.wav,0,0,1404,24,4,Chinese,m,3,0.3,7.62752627,1.98777716
LLG,98,1,2024-06-14T14:13:08.285Z,english_181.wav,0,0,1404,24,4,Chinese,m,4,0.32341667,53.94324841,0.40706026
LLG,99,1,2024-06-14T14:13:08.285Z,english_844.wav,0,0,1886,24,4,Chinese,m,0,0,-84.59865618,1.95225136
LLG,99,1,2024-06-14T14:13:08.285Z,english_844.wav,0,0,1886,24,4,Chinese,m,1,0.1,2.74576488,1.66072701
LLG,99,1,2024-06-14T14:13:08.285Z,english_844.wav,0,0,1886,24,4,Chinese,m,2,0.2,-31.14414819,0.05165652
LLG,99,1,2024-06-14T14:13:08.285Z,english_844.wav,0,0,1886,24,4,Chinese,m,3,0.3,59.06244098,0.5878804
LLG,99,1,2024-06-14T14:13:08.285Z,english_844.wav,0,0,1886,24,4,Chinese,m,4,0.32341667,67.61674881,0.72232709
LLG,100,2,2024-06-14T14:13:08.285Z,english_333.wav,0,1,744,24,4,Chinese,m,0,0,61.26933292,0.50090252
LLG,100,2,2024-06-14T14:13:08.285Z,english_333.wav,0,1,744,24,4,Chinese,m,1,0.1,38.65533839,1.61630161
LLG,100,2,2024-06-14T14:13:08.285Z,english_333.wav,0,1,744,24,4,Chinese,m,2,0.2,-27.91605269,1.73322278
LLG,100,2,2024-06-14T14:13:08.285Z,english_333.wav,0,1,744,24,4,Chinese,m,3,0.3,36.00101096,0.67742762
LLG,100,2,2024-06-14T14:13:08.285Z,english_333.wav,0,1,744,24,4,Chinese,m,4,0.32341667,-78.35943708,0.46993908
LLG,101,2,2024-06-14T14:13:08.285Z,english_53.wav,0,0,721,24,4,Chinese,m,0,0,5.97237457,0.42230306
LLG,101,2,2024-06-14T14:13:08.285Z,english_53.wav,0,0,721,24,4,Chinese,m,1,0.1,-76.12131912,0.60624646
LLG,101,2,2024-06-14T14:13:08.285Z,english_53.wav,0,0,721,24,4,Chinese,m,2,0.2,55.18337216,0.26369256
LLG,101,2,2024-06-14T14:13:08.285Z,english_53.wav,0,0,721,24,4,Chinese,m,3,0.3,70.32610425,1.07400525
LLG,101,2,2024-06-14T14:13:08.285Z,english_53.wav,0,0,721,24,4,Chinese,m,4,0.32341667,26.40450832,0.2721545
LLG,102,2,2024-06-14T14:13:08.285Z,english_975.wav,0,0,755,24,4,Chinese,m,0,0,30.76275893,1.75032315
LLG,102,2,2024-06-14T14:13:08.285Z,english_975.wav,0,0,755,24,4,Chinese,m,1,0.1,-18.30184736,1.1766706
LLG,102,2,2024-06-14T14:13:08.285Z,english_975.wav,0,0,755,24,4,Chinese,m,2,0.2,88.92209311,0.11148121
LLG,102,2,2024-06-14T14:13:08.285Z,english_975.wav,0,0,755,24,4,Chinese,m,3,0.3,-15.78836893,1.00992181
LLG,102,2,2024-06-14T14:13:08.285Z,english_975.wav,0,0,755,24,4,Chinese,m,4,0.32341667,81.69873146,1.08252971
LLG,103,2,2024-06-14T14:13:08.285Z,english_833.wav,0,0,1483,24,4,Chinese,m,0,0,18.29317799,0.49951345
LLG,103,2,2024-06-14T14:13:08.285Z,english_833.wav,0,0,1483,24,4,Chinese,m,1,0.1,20.01945042,1.12176851
LLG,103,2,2024-06-14T14:13:08.285Z,english_833.wav,0,0,1483,24,4,Chinese,m,2,0.2,-77.99741705,0.59960618
LLG,103,2,2024-06-14T14:13:08.285Z,english_833.wav,0,0,1483,24,4,Chinese,m,3,0.3,19.36192697,0.50557433
LLG,103,2,2024-06-14T14:13:08.285Z,english_833.wav,0,0,1483,24,4,Chinese,m,4,0.32341667,43.06785988,0.3288339
LLG,104,2,2024-06-14T14:13:08.285Z,english_989.wav,0,0,660,24,4,Chinese,m,0,0,-51.1051603,1.00035195
LLG,104,2,2024-06-14T14:13:08.285Z,english_989.wav,0,0,660,24,4,Chinese,m,1,0.1,-91.26717948,0.46124463
LLG,104,2,2024-06-14T14:13:08.285Z,english_989.wav,0,0,660,24,4,Chinese,m,2,0.2,73.5145218,0.77735517
LLG,104,2,2024-06-14T14:13:08.285Z,english_989.wav,0,0,660,24,4,Chinese,m,3,0.3,54.43703181,1.21549894
LLG,104,2,2024-06-14T14:13:08.285Z,english_989.wav,0,0,660,24,4,Chinese,m,4,0.32341667,-36.95823638,0.33045291
LLG,105,2,2024-06-14T14:13:08.285Z,english_296.wav,0,0,746,24,4,Chinese,m,0,0,-4.92142852,1.99305172
LLG,105,2,2024-06-14T14:13:08.285Z,english_296.wav,0,0,746,24,4,Chinese,m,1,0.1,-5.74196289,0.92633133
LLG,105,2,2024-06-14T14:13:08.285Z,english_296.wav,0,0,746,24,4,Chinese,m,2,0.2,76.26647078,0.44879969
LLG,105,2,2024-06-14T14:13:08.285Z,english_296.wav,0,0,746,24,4,Chinese,m,3,0.3,-62.74030654,1.47417428
LLG,105,2,2024-06-14T14:13:08.285Z,english_296.wav,0,0,746,24,4,Chinese,m,4,0.32341667,-60.661992,1.05571007
LLG,106,2,2024-06-14T14:13:08.285Z,english_275.wav,0,1,856,24,4,Chinese,m,0,0,-1.14725012,0.71691039
LLG,106,2,2024-06-14T14:13:08.285Z,english_275.wav,0,1,856,24,4,Chinese,m,1,0.1,-90.43848863,0.74614953
LLG,106,2,2024-06-14T14:13:08.285Z,english_275.wav,0,1,856,24,4,Chinese,m,2,0.2,-40.03711279,1.94843862
LLG,106,2,2024-06-14T14:13:08.285Z,english_275.wav,0,1,856,24,4,Chinese,m,3,0.3,-29.12549604,0.32495742
LLG,106,2,2024-06-14T14:13:08.285Z,english_275.wav,0,1,856,24,4,Chinese,m,4,0.32341667,77.33253221,0.61649877
LLG,107,2,2024-06-14T14:13:08.285Z,english_70.wav,0,1,763,24,4,Chinese,m,0,0,-53.09237622,1.21678364
LLG,107,2,2024-06-14T14:13:08.285Z,english_70.wav,0,1,763,24,4,Chinese,m,1,0.1,85.97526897,0.94111324
LLG,107,2,2024-06-14T14:13:08.285Z,english_70.wav,0,1,763,24,4,Chinese,m,2,0.2,25.5645184,1.03926055
LLG,107,2,2024-06-14T14:13:08.285Z,english_70.wav,0,1,763,24,4,Chinese,m,3,0.3,1.25172137,0.29519406
LLG,107,2,2024-06-14T14:13:08.285Z,english_70.wav,0,1,763,24,4,Chinese,m,4,0.32341667,93.59431896,0.80175783
LLG,108,2,2024-06-14T14:13:08.285Z,english_702.wav,0,1,679,24,4,Chinese,m,0,0,-19.6614881,1.13820402
LLG,108,2,2024-06-14T14:13:08.285Z,english_702.wav,0,1,679,24,4,Chinese,m,1,0.1,-92.60133235,1.47755069
LLG,108,2,2024-06-14T14:13:08.285Z,english_702.wav,0,1,679,24,4,Chinese,m,2,0.2,-18.01071493,1.33705675
LLG,108,2,2024-06-14T14:13:08.285Z,english_702.wav,0,1,679,24,4,Chinese,m,3,0.3,91.54675011,0.59768286
LLG,108,2,2024-06-14T14:13:08.285Z,english_702.wav,0,1,679,24,4,Chinese,m,4,0.32341667,23.09112348,0.82103567
LLG,109,2,2024-06-14T14:13:08.285Z,english_881.wav,0,0,605,24,4,Chinese,m,0,0,7.28069095,1.60234882
LLG,109,2,2024-06-14T14:13:08.285Z,english_881.wav,0,0,605,24,4,Chinese,m,1,0.1,-64.28928902,0.93497238
LLG,109,2,2024-06-14T14:13:08.285Z,english_881.wav,0,0,605,24,4,Chinese,m,2,0.2,-2.07432692,0.58107235
LLG,109,2,2024-06-14T14:13:08.285Z,english_881.wav,0,0,605,24,4,Chinese,m,3,0.3,51.5536886,1.34691236
LLG,109,2,2024-06-14T14:13:08.285Z,english_881.wav,0,0,605,24,4,Chinese,m,4,0.32341667,65.74991707,0.85842561
LLG,110,2,2024-06-14T14:13:08.285Z,english_944.wav,0,1,1687,24,4,Chinese,m,0,0,70.24274457,0.61048125
LLG,110,2,2024-06-14T14:13:08.285Z,english_944.wav,0,1,1687,24,4,Chinese,m,1,0.1,-48.79231442,1.63310511
LLG,110,2,2024-06-14T14:13:08.285Z,english_944.wav,0,1,1687,24,4,Chinese,m,2,0.2,-6.42324239,0.21687347
LLG,110,2,2024-06-14T14:13:08.285Z,english_944.wav,0,1,1687,24,4,Chinese,m,3,0.3,-7.7338836,0.45027042
LLG,110,2,2024-06-14T14:13:08.285Z,english_944.wav,0,1,1687,24,4,Chinese,m,4,0.32341667,69.46240638,0.90306897
LLG,111,2,2024-06-14T14:13:08.285Z,english_109.wav,0,1,605,24,4,Chinese,m,0,0,44.56131593,1.07349586
LLG,111,2,2024-06-14T14:13:08.285Z,english_109.wav,0,1,605,24,4,Chinese,m,1,0.1,-35.23159756,1.27535987
LLG,111,2,2024-06-14T14:13:08.285Z,english_109.wav,0,1,605,24,4,Chinese,m,2,0.2,-19.62269282,1.28483541
LLG,111,2,2024-06-14T14:13:08.285Z,english_109.wav,0,1,605,24,4,Chinese,m,3,0.3,38.10372837,1.04109326
LLG,111,2,2024-06-14T14:13:08.285Z,english_109.wav,0,1,605,24,4,Chinese,m,4,0.32341667,-20.09605057,0.10213448
LLG,112,2,2024-06-14T14:13:08.285Z,english_357.wav,0,0,441,24,4,Chinese,m,0,0,76.35734026,1.14590216
LLG,112,2,2024-06-14T14:13:08.285Z,english_357.wav,0,0,441,24,4,Chinese,m,1,0.1,-86.84267031,0.53472093
LLG,112,2,2024-06-14T14:13:08.285Z,english_357.wav,0,0,441,24,4,Chinese,m,2,0.2,-64.6676431,0.54723503
LLG,112,2,2024-06-14T14:13:08.285Z,english_357.wav,0,0,441,24,4,Chinese,m,3,0.3,-69.9472318,1.29334783
LLG,112,2,2024-06-14T14:13:08.285Z,english_357.wav,0,0,441,24,4,Chinese,m,4,0.32341667,87.84988665,1.74725804
LLG,113,2,2024-06-14T14:13:08.285Z,english_633.wav,0,0,2017,24,4,Chinese,m,0,0,-53.72283933,1.23998369
LLG,113,2,2024-06-14T14:13:08.285Z,english_633.wav,0,0,2017,24,4,Chinese,m,1,0.1,14.71438877,1.35266241
LLG,113,2,2024-06-14T14:13:08.285Z,english_633.wav,0,0,2017,24,4,Chinese,m,2,0.2,95.18630031,0.66132985
LLG,113,2,2024-06-14T14:13:08.285Z,english_633.wav,0,0,2017,24,4,Chinese,m,3,0.3,96.89096157,0.52728002
LLG,113,2,2024-06-14T14:13:08.285Z,english_633.wav,0,0,2017,24,4,Chinese,m,4,0.32341667,8.38596779,1.4824282
LLG,114,2,2024-06-14T14:13:08.285Z,english_138.wav,0,0,589,24,4,Chinese,m,0,0,-79.80620147,0.37063564
LLG,114,2,2024-06-14T14:13:08.285Z,english_138.wav,0,0,589,24,4,Chinese,m,1,0.1,-15.42889109,0.81801141
LLG,114,2,2024-06-14T14:13:08.285Z,english_138.wav,0,0,589,24,4,Chinese,m,2,0.2,-88.31677226,0.0634538
LLG,114,2,2024-06-14T14:13:08.285Z,english_138.wav,0,0,589,24,4,Chinese,m,3,0.3,26.6486106,1.85131452
LLG,114,2,2024-06-14T14:13:08.285Z,english_138.wav,0,0,589,24,4,Chinese,m,4,0.32341667,-42.18894711,1.66059024
LLG,115,2,2024-06-14T14:13:08.285Z,english_650.wav,0,0,760,24,4,Chinese,m,0,0,-14.34164867,1.10695192
LLG,115,2,2024-06-14T14:13:08.285Z,english_650.wav,0,0,760,24,4,Chinese,m,1,0.1,-59.47569919,1.2442548
LLG,115,2,2024-06-14T14:13:08.285Z,english_650.wav,0,0,760,24,4,Chinese,m,2,0.2,-47.0995584,0.31281267
LLG,115,2,2024-06-14T14:13:08.285Z,english_650.wav,0,0,760,24,4,Chinese,m,3,0.3,-55.25841156,1.9869399
LLG,115,2,2024-06-14T14:13:08.285Z,english_650.wav,0,0,760,24,4,Chinese,m,4,0.32341667,83.92345375,1.10607629
LLG,116,2,2024-06-14T14:13:08.285Z,english_673.wav,0,1,1120,24,4,Chinese,m,0,0,-57.74220233,1.16794182
LLG,116,2,2024-06-14T14:13:08.285Z,english_673.wav,0,1,1120,24,4,Chinese,m,1,0.1,51.69168463,0.24005868
LLG,116,2,2024-06-14T14:13:08.285Z,english_673.wav,0,1,1120,24,4,Chinese,m,2,0.2,32.71998218,1.1491536
LLG,116,2,2024-06-14T14:13:08.285Z,english_673.wav,0,1,1120,24,4,Chinese,m,3,0.3,1.53841214,1.59180477
LLG,116,2,2024-06-14T14:13:08.285Z,english_673.wav,0,1,1120,24,4,Chinese,m,4,0.32341667,-95.68622946,1.00634228
LLG,117,2,2024-06-14T14:13:08.285Z,english_698.wav,0,1,519,24,4,Chinese,m,0,0,-86.30999669,1.66322514
LLG,117,2,2024-06-14T14:13:08.285Z,english_698.wav,0,1,519,24,4,Chinese,m,1,0.1,-91.60158578,1.16924533
LLG,117,2,2024-06-14T14:13:08.285Z,english_698.wav,0,1,519,24,4,Chinese,m,2,0.2,-41.16326515,1.29610919
LLG,117,2,2024-06-14T14:13:08.285Z,english_698.wav,0,1,519,24,4,Chinese,m,3,0.3,7.86252123,1.21006153
LLG,117,2,2024-06-14T14:13:08.285Z,english_698.wav,0,1,519,24,4,Chinese,m,4,0.32341667,25.04181708,1.83628755
LLG,118,2,2024-06-14T14:13:08.285Z,english_304.wav,0,0,599,24,4,Chinese,m,0,0,-80.7192326,0.54130022
LLG,118,2,2024-06-14T14:13:08.285Z,english_304.wav,0,0,599,24,4,Chinese,m,1,0.1,34.14230443,0.20766845
LLG,118,2,2024-06-14T14:13:08.285Z,english_304.wav,0,0,599,24,4,Chinese,m,2,0.2,-43.78548789,1.25157904
LLG,118,2,2024-06-14T14:13:08.285Z,english_304.wav,0,0,599,24,4,Chinese,m,3,0.3,85.79520644,0.76195837
LLG,118,2,2024-06-14T14:13:08.285Z,english_304.wav,0,0,599,24,4,Chinese,m,4,0.32341667,-29.32737886,0.20991234
LLG,119,2,2024-06-14T14:13:08.285Z,english_166.wav,0,1,893,24,4,Chinese,m,0,0,37.27670025,1.42766663
LLG,119,2,2024-06-14T14:13:08.285Z,english_166.wav,0,1,893,24,4,Chinese,m,1,0.1,34.38847046,0.72731767
LLG,119,2,2024-06-14T14:13:08.285Z,english_166.wav,0,1,893,24,4,Chinese,m,2,0.2,49.91842175,1.80608275
LLG,119,2,2024-06-14T14:13:08.285Z,english_166.wav,0,1,893,24,4,Chinese,m,3,0.3,56.9541748,1.91598421
LLG,119,2,2024-06-14T14:13:08.285Z,english_166.wav,0,1,893,24,4,Chinese,m,4,0.32341667,10.97290623,1.21084105
LLG,120,2,2024-06-14T14:13:08.285Z,english_651.wav,0,0,830,24,4,Chinese,m,0,0,94.66063372,0.16277223
LLG,120,2,2024-06-14T14:13:08.285Z,english_651.wav,0,0,830,24,4,Chinese,m,1,0.1,53.93234837,1.71236475
LLG,120,2,2024-06-14T14:13:08.285Z,english_651.wav,0,0,830,24,4,Chinese,m,2,0.2,-71.35755131,0.37376336
LLG,120,2,2024-06-14T14:13:08.285Z,english_651.wav,0,0,830,24,4,Chinese,m,3,0.3,50.84025958,0.80998932
LLG,120,2,2024-06-14T14:13:08.285Z,english_651.wav,0,0,830,24,4,Chinese,m,4,0.32341667,-24.67252949,0.23835763
LLG,121,2,2024-06-14T14:13:08.285Z,english_297.wav,0,0,614,24,4,Chinese,m,0,0,43.84745313,1.28698197
LLG,121,2,2024-06-14T14:13:08.285Z,english_297.wav,0,0,614,24,4,Chinese,m,1,0.1,-76.77337823,0.55126404
LLG,121,2,2024-06-14T14:13:08.285Z,english_297.wav,0,0,614,24,4,Chinese,m,2,0.2,52.72097055,0.14077967
LLG,121,2,2024-06-14T14:13:08.285Z,english_297.wav,0,0,614,24,4,Chinese,m,3,0.3,-53.36684977,1.29889067
LLG,121,2,2024-06-14T14:13:08.285Z,english_297.wav,0,0,614,24,4,Chinese,m,4,0.32341667,81.15212258,1.30715655
LLG,122,2,2024-06-14T14:13:08.285Z,english_598.wav,0,1,2124,24,4,Chinese,m,0,0,4.26365523,0.04069017
LLG,122,2,2024-06-14T14:13:08.285Z,english_598.wav,0,1,2124,24,4,Chinese,m,1,0.1,-29.634957,1.27980102
LLG,122,2,2024-06-14T14:13:08.285Z,english_598.wav,0,1,2124,24,4,Chinese,m,2,0.2,-17.49120793,0.98781586
LLG,122,2,2024-06-14T14:13:08.285Z,english_598.wav,0,1,2124,24,4,Chinese,m,3,0.3,-34.93876912,1.55939702
LLG,122,2,2024-06-14T14:13:08.285Z,english_598.wav,0,1,2124,24,4,Chinese,m,4,0.32341667,49.49845506,1.74128412
LLG,123,2,2024-06-14T14:13:08.285Z,english_421.wav,0,1,633,24,4,Chinese,m,0,0,25.39012861,1.47358925
LLG,123,2,2024-06-14T14:13:08.285Z,english_421.wav,0,1,633,24,4,Chinese,m,1,0.1,49.11153532,1.20920516
LLG,123,2,2024-06-14T14:13:08.285Z,english_421.wav,0,1,633,24,4,Chinese,m,2,0.2,38.93723883,0.72174872
LLG,123,2,2024-06-14T14:13:08.285Z,english_421.wav,0,1,633,24,4,Chinese,m,3,0.3,-9.34286459,0.24556907
LLG,123,2,2024-06-14T14:13:08.285Z,english_421.wav,0,1,633,24,4,Chinese,m,4,0.32341667,-9.28476392,0.87006143
LLG,124,2,2024-06-14T14:13:08.285Z,english_107.wav,0,1,1612,24,4,Chinese,m,0,0,-19.24931684,0.69122185
LLG,124,2,2024-06-14T14:13:08.285Z,english_107.wav,0,1,1612,24,4,Chinese,m,1,0.1,24.04874113,0.13674094
LLG,124,2,2024-06-14T14:13:08.285Z,english_107.wav,0,1,1612,24,4,Chinese,m,2,0.2,59.01955179,1.47608642
LLG,124,2,2024-06-14T14:13:08.285Z,english_107.wav,0,1,1612,24,4,Chinese,m,3,0.3,49.74315823,1.52525824
LLG,124,2,2024-06-14T14:13:08.285Z,english_107.wav,0,1,1612,24,4,Chinese,m,4,0.32341667,-75.23844627,0.11985114
LLG,125,2,2024-06-14T14:13:08.285Z,english_537.wav,0,1,1665,24,4,Chinese,m,0,0,70.8709352,0.55947112
LLG,125,2,2024-06-14T14:13:08.285Z,english_537.wav,0,1,1665,24,4,Chinese,m,1,0.1,32.34369018,1.10627241
LLG,125,2,2024-06-14T14:13:08.285Z,english_537.wav,0,1,1665,24,4,Chinese,m,2,0.2,-92.9302278,1.10842043
LLG,125,2,2024-06-14T14:13:08.285Z,english_537.wav,0,1,1665,24,4,Chinese,m,3,0.3,14.89115364,0.86800797
LLG,125,2,2024-06-14T14:13:08.285Z,english_537.wav,0,1,1665,24,4,Chinese,m,4,0.32341667,-67.12260703,1.7659473
LLG,126,2,2024-06-14T14:13:08.285Z,english_298.wav,0,0,604,24,4,Chinese,m,0,0,-71.75530507,0.91890611
LLG,126,2,2024-06-14T14:13:08.285Z,english_298.wav,0,0,604,24,4,Chinese,m,1,0.1,76.25876358,0.7322353
LLG,126,2,2024-06-14T14:13:08.285Z,english_298.wav,0,0,604,24,4,Chinese,m,2,0.2,11.95102224,0.50601445
LLG,126,2,2024-06-14T14:13:08.285Z,english_298.wav,0,0,604,24,4,Chinese,m,3,0.3,79.91037795,0.41160049
LLG,126,2,2024-06-14T14:13:08.285Z,english_298.wav,0,0,604,24,4,Chinese,m,4,0.32341667,30.12462174,0.81223035
LLG,127,2,2024-06-14T14:13:08.285Z,english_129.wav,0,1,792,24,4,Chinese,m,0,0,80.17800931,1.16690044
LLG,127,2,2024-06-14T14:13:08.285Z,english_129.wav,0,1,792,24,4,Chinese,m,1,0.1,6.7929614,1.89220933
LLG,127,2,2024-06-14T14:13:08.285Z,english_129.wav,0,1,792,24,4,Chinese,m,2,0.2,51.03188375,1.40122633
LLG,127,2,2024-06-14T14:13:08.285Z,english_129.wav,0,1,792,24,4,Chinese,m,3,0.3,-14.28174581,0.72131347
LLG,127,2,2024-06-14T14:13:08.285Z,english_129.wav,0,1,792,24,4,Chinese,m,4,0.32341667,32.60771632,1.30692003
LLG,128,2,2024-06-14T14:13:08.285Z,english_195.wav,0,1,591,24,4,Chinese,m,0,0,88.76446124,0.85936173
LLG,128,2,2024-06-14T14:13:08.285Z,english_195.wav,0,1,591,24,4,Chinese,m,1,0.1,56.50909504,1.06337161
LLG,128,2,2024-06-14T14:13:08.285Z,english_195.wav,0,1,591,24,4,Chinese,m,2,0.2,-5.11157055,1.01766647
LLG,128,2,2024-06-14T14:13:08.285Z,english_195.wav,0,1,591,24,4,Chinese,m,3,0.3,14.19517065,1.03928052
LLG,128,2,2024-06-14T14:13:08.285Z,english_195.wav,0,1,591,24,4,Chinese,m,4,0.32341667,67.19148892,1.18131313
LLG,129,2,2024-06-14T14:13:08.285Z,english_905.wav,0,0,528,24,4,Chinese,m,0,0,73.76258642,1.30259847
LLG,129,2,2024-06-14T14:13:08.285Z,english_905.wav,0,0,528,24,4,Chinese,m,1,0.1,49.84186991,0.15786419
LLG,129,2,2024-06-14T14:13:08.285Z,english_905.wav,0,0,528,24,4,Chinese,m,2,0.2,-84.55275191,0.47562292
LLG,129,2,2024-06-14T14:13:08.285Z,english_905.wav,0,0,528,24,4,Chinese,m,3,0.3,70.45460649,1.69272047
LLG,129,2,2024-06-14T14:13:08.285Z,english_905.wav,0,0,528,24,4,Chinese,m,4,0.32341667,-84.87734561,1.28570309
LLG,130,2,2024-06-14T14:13:08.285Z,english_67.wav,0,1,1142,24,4,Chinese,m,0,0,70.16279698,0.73199358
LLG,130,2,2024-06-14T14:13:08.285Z,english_67.wav,0,1,1142,24,4,Chinese,m,1,0.1,33.8182948,0.88382403
LLG,130,2,2024-06-14T14:13:08.285Z,english_67.wav,0,1,1142,24,4,Chinese,m,2,0.2,-49.10498957,1.67993254
LLG,130,2,2024-06-14T14:13:08.285Z,english_67.wav,0,1,1142,24,4,Chinese,m,3,0.3,-4.93823124,0.24455532
LLG,130,2,2024-06-14T14:13:08.285Z,english_67.wav,0,1,1142,24,4,Chinese,m,4,0.32341667,24.09614703,1.99747442
LLG,131,2,2024-06-14T14:13:08.285Z,english_489.wav,0,1,2446,24,4,Chinese,m,0,0,5.7057461,0.60142671
LLG,131,2,2024-06-14T14:13:08.285Z,english_489.wav,0,1,2446,24,4,Chinese,m,1,0.1,-88.87009038,1.38499056
LLG,131,2,2024-06-14T14:13:08.285Z,english_489.wav,0,1,2446,24,4,Chinese,m,2,0.2,73.69789316,0.38073994
LLG,131,2,2024-06-14T14:13:08.285Z,english_489.wav,0,1,2446,24,4,Chinese,m,3,0.3,8.66804208,0.90212706
LLG,131,2,2024-06-14T14:13:08.285Z,english_489.wav,0,1,2446,24,4,Chinese,m,4,0.32341667,-19.53009002,1.00729778
LLG,132,2,2024-06-14T14:13:08.285Z,english_929.wav,0,0,850,24,4,Chinese,m,0,0,29.19700723,1.75028237
LLG,132,2,2024-06-14T14:13:08.285Z,english_929.wav,0,0,850,24,4,Chinese,m,1,0.1,15.63825327,0.16776534
LLG,132,2,2024-06-14T14:13:08.285Z,english_929.wav,0,0,850,24,4,Chinese,m,2,0.2,3.65085895,0.15899819
LLG,132,2,2024-06-14T14:13:08.285Z,english_929.wav,0,0,850,24,4,Chinese,m,3,0.3,-91.18848108,0.41497916
LLG,132,2,2024-06-14T14:13:08.285Z,english_929.wav,0,0,850,24,4,Chinese,m,4,0.32341667,53.29025089,0.946821
LLG,133,2,2024-06-14T14:13:08.285Z,english_1000.wav,0,0,580,24,4,Chinese,m,0,0,27.35321797,1.01803417
LLG,133,2,2024-06-14T14:13:08.285Z,english_1000.wav,0,0,580,24,4,Chinese,m,1,0.1,42.13438871,0.4558176
LLG,133,2,2024-06-14T14:13:08.285Z,english_1000.wav,0,0,580,24,4,Chinese,m,2,0.2,95.34760893,0.52251179
LLG,133,2,2024-06-14T14:13:08.285Z,english_1000.wav,0,0,580,24,4,Chinese,m,3,0.3,-34.10168873,0.90165507
LLG,133,2,2024-06-14T14:13:08.285Z,english_1000.wav,0,0,580,24,4,Chinese,m,4,0.32341667,64.49689477,0.38395199
LLG,134,2,2024-06-14T14:13:08.285Z,english_117.wav,0,1,772,24,4,Chinese,m,0,0,-98.72491255,1.42659946
LLG,134,2,2024-06-14T14:13:08.285Z,english_117.wav,0,1,772,24,4,Chinese,m,1,0.1,-15.15642563,1.64599539
LLG,134,2,2024-06-14T14:13:08.285Z,english_117.wav,0,1,772,24,4,Chinese,m,2,0.2,24.45806353,0.97767705
LLG,134,2,2024-06-14T14:13:08.285Z,english_117.wav,0,1,772,24,4,Chinese,m,3,0.3,-80.67224668,0.37962884
LLG,134,2,2024-06-14T14:13:08.285Z,english_117.wav,0,1,772,24,4,Chinese,m,4,0.32341667,-97.50349755,0.74274723
LLG,135,2,2024-06-14T14:13:08.285Z,english_135.wav,0,1,983,24,4,Chinese,m,0,0,92.53632507,0.8813083
LLG,135,2,2024-06-14T14:13:08.285Z,english_135.wav,0,1,983,24,4,Chinese,m,1,0.1,42.68843281,1.60503348
LLG,135,2,2024-06-14T14:13:08.285Z,english_135.wav,0,1,983,24,4,Chinese,m,2,0.2,87.27237188,0.22265806
LLG,135,2,2024-06-14T14:13:08.285Z,english_135.wav,0,1,983,24,4,Chinese,m,3,0.3,-70.62725941,0.4233462
LLG,135,2,2024-06-14T14:13:08.285Z,english_135.wav,0,1,983,24,4,Chinese,m,4,0.32341667,91.37204548,0.99500327
LLG,136,2,2024-06-14T14:13:08.285Z,english_639.wav,0,1,588,24,4,Chinese,m,0,0,-8.64176861,1.80061108
LLG,136,2,2024-06-14T14:13:08.285Z,english_639.wav,0,1,588,24,4,Chinese,m,1,0.1,-2.28240571,0.32075858
LLG,136,2,2024-06-14T14:13:08.285Z,english_639.wav,0,1,588,24,4,Chinese,m,2,0.2,61.07673865,0.35362442
LLG,136,2,2024-06-14T14:13:08.285Z,english_639.wav,0,1,588,24,4,Chinese,m,3,0.3,-20.33592136,1.48415136
LLG,136,2,2024-06-14T14:13:08.285Z,english_639.wav,0,1,588,24,4,Chinese,m,4,0.32341667,-24.05835486,0.14560931
LLG,137,2,2024-06-14T14:13:08.285Z,english_847.wav,0,1,1495,24,4,Chinese,m,0,0,76.45550118,0.38890762
LLG,137,2,2024-06-14T14:13:08.285Z,english_847.wav,0,1,1495,24,4,Chinese,m,1,0.1,-18.38123868,1.01718805
LLG,137,2,2024-06-14T14:13:08.285Z,english_847.wav,0,1,1495,24,4,Chinese,m,2,0.2,18.403778,1.24872656
LLG,137,2,2024-06-14T14:13:08.285Z,english_847.wav,0,1,1495,24,4,Chinese,m,3,0.3,57.196546,0.81951257
LLG,137,2,2024-06-14T14:13:08.285Z,english_847.wav,0,1,1495,24,4,Chinese,m,4,0.32341667,32.99763753,0.74194876
LLG,138,2,2024-06-14T14:13:08.285Z,english_73.wav,0,1,434,24,4,Chinese,m,0,0,-73.49165063,1.41947215
LLG,138,2,2024-06-14T14:13:08.285Z,english_73.wav,0,1,434,24,4,Chinese,m,1,0.1,65.54847429,1.68852165
LLG,138,2,2024-06-14T14:13:08.285Z,english_73.wav,0,1,434,24,4,Chinese,m,2,0.2,-55.11967081,0.59259525
LLG,138,2,2024-06-14T14:13:08.285Z,english_73.wav,0,1,434,24,4,Chinese,m,3,0.3,68.77466141,0.85140805
LLG,138,2,2024-06-14T14:13:08.285Z,english_73.wav,0,1,434,24,4,Chinese,m,4,0.32341667,-37.79888894,1.17745107
LLG,139,2,2024-06-14T14:13:08.285Z,english_800.wav,0,0,586,24,4,Chinese,m,0,0,-9.91001254,0.13142639
LLG,139,2,2024-06-14T14:13:08.285Z,english_800.wav,0,0,586,24,4,Chinese,m,1,0.1,-86.79409322,1.71040153
LLG,139,2,2024-06-14T14:13:08.285Z,english_800.wav,0,0,586,24,4,Chinese,m,2,0.2,-27.39997365,0.18637657
LLG,139,2,2024-06-14T14:13:08.285Z,english_800.wav,0,0,586,24,4,Chinese,m,3,0.3,13.46737707,1.09766523
LLG,139,2,2024-06-14T14:13:08.285Z,english_800.wav,0,0,586,24,4,Chinese,m,4,0.32341667,-32.56208711,1.57940615
LLG,140,2,2024-06-14T14:13:08.285Z,english_853.wav,0,0,542,24,4,Chinese,m,0,0,87.83319324,0.81037323
LLG,140,2,2024-06-14T14:13:08.285Z,english_853.wav,0,0,542,24,4,Chinese,m,1,0.1,64.16710312,1.2495933
LLG,140,2,2024-06-14T14:13:08.285Z,english_853.wav,0,0,542,24,4,Chinese,m,2,0.2,12.98667351,0.22916278
LLG,140,2,2024-06-14T14:13:08.285Z,english_853.wav,0,0,542,24,4,Chinese,m,3,0.3,25.03434444,0.67764146
LLG,140,2,2024-06-14T14:13:08.285Z,english_853.wav,0,0,542,24,4,Chinese,m,4,0.32341667,98.3458188,0.13807639
LLG,141,2,2024-06-14T14:13:08.285Z,english_375.wav,0,1,524,24,4,Chinese,m,0,0,18.096335,0.30735121
LLG,141,2,2024-06-14T14:13:08.285Z,english_375.wav,0,1,524,24,4,Chinese,m,1,0.1,-55.77885891,1.17808606
LLG,141,2,2024-06-14T14:13:08.285Z,english_375.wav,0,1,524,24,4,Chinese,m,2,0.2,-79.80603762,1.03107785
LLG,141,2,2024-06-14T14:13:08.285Z,english_375.wav,0,1,524,24,4,Chinese,m,3,0.3,-57.7566014,0.46519988
LLG,141,2,2024-06-14T14:13:08.285Z,english_375.wav,0,1,524,24,4,Chinese,m,4,0.32341667,74.14673873,1.41875211
LLG,142,2,2024-06-14T14:13:08.285Z,english_93.wav,0,1,470,24,4,Chinese,m,0,0,-63.58558414,0.84265136
LLG,142,2,2024-06-14T14:13:08.285Z,english_93.wav,0,1,470,24,4,Chinese,m,1,0.1,47.93190562,0.45441634
LLG,142,2,2024-06-14T14:13:08.285Z,english_93.wav,0,1,470,24,4,Chinese,m,2,0.2,74.1463043,1.33476805
LLG,142,2,2024-06-14T14:13:08.285Z,english_93.wav,0,1,470,24,4,Chinese,m,3,0.3,46.42515129,0.61821532
LLG,142,2,2024-06-14T14:13:08.285Z,english_93.wav,0,1,470,24,4,Chinese,m,4,0.32341667,-19.17332826,1.94889868
LLG,143,2,2024-06-14T14:13:08.285Z,english_131.wav,0,1,318,24,4,Chinese,m,0,0,-90.65248477,1.67513221
LLG,143,2,2024-06-14T14:13:08.285Z,english_131.wav,0,1,318,24,4,Chinese,m,1,0.1,7.0988446,1.62916956
LLG,143,2,2024-06-14T14:13:08.285Z,english_131.wav,0,1,318,24,4,Chinese,m,2,0.2,-30.94637352,1.4017665
LLG,143,2,2024-06-14T14:13:08.285Z,english_131.wav,0,1,318,24,4,Chinese,m,3,0.3,-31.86179524,1.07276153
LLG,143,2,2024-06-14T14:13:08.285Z,english_131.wav,0,1,318,24,4,Chinese,m,4,0.32341667,1.85809033,1.80109071
LLG,144,2,2024-06-14T14:13:08.285Z,english_811.wav,0,1,360,24,4,Chinese,m,0,0,-51.03425556,1.55055496
LLG,144,2,2024-06-14T14:13:08.285Z,english_811.wav,0,1,360,24,4,Chinese,m,1,0.1,22.81695275,1.74830484
LLG,144,2,2024-06-14T14:13:08.285Z,english_811.wav,0,1,360,24,4,Chinese,m,2,0.2,73.06623682,1.24661488
LLG,144,2,2024-06-14T14:13:08.285Z,english_811.wav,0,1,360,24,4,Chinese,m,3,0.3,-9.17693151,0.09792889
LLG,144,2,2024-06-14T14:13:08.285Z,english_811.wav,0,1,360,24,4,Chinese,m,4,0.32341667,79.97760745,0.03735929
LLG,145,2,2024-06-14T14:13:08.285Z,english_690.wav,0,1,318,24,4,Chinese,m,0,0,33.047654,1.58265684
LLG,145,2,2024-06-14T14:13:08.285Z,english_690.wav,0,1,318,24,4,Chinese,m,1,0.1,0.0212167444,0.6931717
LLG,145,2,2024-06-14T14:13:08.285Z,english_690.wav,0,1,318,24,4,Chinese,m,2,0.2,21.343237,1.47002515
LLG,145,2,2024-06-14T14:13:08.285Z,english_690.wav,0,1,318,24,4,Chinese,m,3,0.3,35.4710796,1.9856235
LLG,145,2,2024-06-14T14:13:08.285Z,english_690.wav,0,1,318,24,4,Chinese,m,4,0.323416667,79.4400816,1.00479917
LLG,146,2,2024-06-14T14:13:08.285Z,english_366.wav,0,0,533,24,4,Chinese,m,0,0,30.08929792,0.87054072
LLG,146,2,2024-06-14T14:13:08.285Z,english_366.wav,0,0,533,24,4,Chinese,m,1,0.1,-17.9139155,0.34658018
LLG,146,2,2024-06-14T14:13:08.285Z,english_366.wav,0,0,533,24,4,Chinese,m,2,0.2,-66.75779592,0.49970414
LLG,146,2,2024-06-14T14:13:08.285Z,english_366.wav,0,0,533,24,4,Chinese,m,3,0.3,77.64459909,1.94720887
LLG,146,2,2024-06-14T14:13:08.285Z,english_366.wav,0,0,533,24,4,Chinese,m,4,0.32341667,72.64294537,1.76390144
LLG,147,2,2024-06-14T14:13:08.285Z,english_976.wav,0,1,553,24,4,Chinese,m,0,0,-92.49082032,0.30893725
LLG,147,2,2024-06-14T14:13:08.285Z,english_976.wav,0,1,553,24,4,Chinese,m,1,0.1,92.01562452,1.54393752
LLG,147,2,2024-06-14T14:13:08.285Z,english_976.wav,0,1,553,24,4,Chinese,m,2,0.2,-80.55764576,1.31466429
LLG,147,2,2024-06-14T14:13:08.285Z,english_976.wav,0,1,553,24,4,Chinese,m,3,0.3,-70.09009567,1.88171095
LLG,147,2,2024-06-14T14:13:08.285Z,english_976.wav,0,1,553,24,4,Chinese,m,4,0.32341667,-7.5394989,1.71314556
LLG,148,2,2024-06-14T14:13:08.285Z,english_402.wav,0,1,365,24,4,Chinese,m,0,0,-69.75327375,0.88104294
LLG,148,2,2024-06-14T14:13:08.285Z,english_402.wav,0,1,365,24,4,Chinese,m,1,0.1,-37.13247603,1.50830761
LLG,148,2,2024-06-14T14:13:08.285Z,english_402.wav,0,1,365,24,4,Chinese,m,2,0.2,95.06865819,0.86613458
LLG,148,2,2024-06-14T14:13:08.285Z,english_402.wav,0,1,365,24,4,Chinese,m,3,0.3,-83.65219271,1.46195184
LLG,148,2,2024-06-14T14:13:08.285Z,english_402.wav,0,1,365,24,4,Chinese,m,4,0.32341667,-39.65623645,1.78030697
LLG,149,2,2024-06-14T14:13:08.285Z,english_321.wav,0,1,238,24,4,Chinese,m,0,0,2.07721816,1.69623759
LLG,149,2,2024-06-14T14:13:08.285Z,english_321.wav,0,1,238,24,4,Chinese,m,1,0.1,59.48735819,1.35736687
LLG,149,2,2024-06-14T14:13:08.285Z,english_321.wav,0,1,238,24,4,Chinese,m,2,0.2,64.78149714,1.92920457
LLG,149,2,2024-06-14T14:13:08.285Z,english_321.wav,0,1,238,24,4,Chinese,m,3,0.3,65.58393414,0.66559077
LLG,149,2,2024-06-14T14:13:08.285Z,english_321.wav,0,1,238,24,4,Chinese,m,4,0.32341667,14.66673939,1.66523208
LLG,150,3,2024-06-14T14:13:08.285Z,english_566.wav,0,1,347,24,4,Chinese,m,0,0,70.56000247,1.04698608
LLG,150,3,2024-06-14T14:13:08.285Z,english_566.wav,0,1,347,24,4,Chinese,m,1,0.1,-0.18246418,1.13826263
LLG,150,3,2024-06-14T14:13:08.285Z,english_566.wav,0,1,347,24,4,Chinese,m,2,0.2,-23.7188651,1.91259561
LLG,150,3,2024-06-14T14:13:08.285Z,english_566.wav,0,1,347,24,4,Chinese,m,3,0.3,12.5469797,1.08561121
LLG,150,3,2024-06-14T14:13:08.285Z,english_566.wav,0,1,347,24,4,Chinese,m,4,0.32341667,-84.37997634,1.98926692
LLG,151,3,2024-06-14T14:13:08.285Z,english_987.wav,0,0,381,24,4,Chinese,m,0,0,91.33137772,1.82656395
LLG,151,3,2024-06-14T14:13:08.285Z,english_987.wav,0,0,381,24,4,Chinese,m,1,0.1,-39.20299527,1.12122948
LLG,151,3,2024-06-14T14:13:08.285Z,english_987.wav,0,0,381,24,4,Chinese,m,2,0.2,78.9852337,1.12025045
LLG,151,3,2024-06-14T14:13:08.285Z,english_987.wav,0,0,381,24,4,Chinese,m,3,0.3,-94.66209845,1.02557261
LLG,151,3,2024-06-14T14:13:08.285Z,english_987.wav,0,0,381,24,4,Chinese,m,4,0.32341667,-71.76730894,1.06580695
LLG,152,3,2024-06-14T14:13:08.285Z,english_308.wav,0,0,587,24,4,Chinese,m,0,0,71.04817524,1.27905886
LLG,152,3,2024-06-14T14:13:08.285Z,english_308.wav,0,0,587,24,4,Chinese,m,1,0.1,-29.23230128,0.28593244
LLG,152,3,2024-06-14T14:13:08.285Z,english_308.wav,0,0,587,24,4,Chinese,m,2,0.2,-23.90252129,0.87298087
LLG,152,3,2024-06-14T14:13:08.285Z,english_308.wav,0,0,587,24,4,Chinese,m,3,0.3,-20.50746627,0.50431278
LLG,152,3,2024-06-14T14:13:08.285Z,english_308.wav,0,0,587,24,4,Chinese,m,4,0.32341667,-25.31970697,1.06118321
LLG,153,3,2024-06-14T14:13:08.285Z,english_723.wav,0,0,599,24,4,Chinese,m,0,0,-85.17156731,1.02541656
LLG,153,3,2024-06-14T14:13:08.285Z,english_723.wav,0,0,599,24,4,Chinese,m,1,0.1,92.93654667,0.92088513
LLG,153,3,2024-06-14T14:13:08.285Z,english_723.wav,0,0,599,24,4,Chinese,m,2,0.2,-28.89042756,0.78256854
LLG,153,3,2024-06-14T14:13:08.285Z,english_723.wav,0,0,599,24,4,Chinese,m,3,0.3,36.79914563,1.22887413
LLG,153,3,2024-06-14T14:13:08.285Z,english_723.wav,0,0,599,24,4,Chinese,m,4,0.32341667,6.86426773,1.77193963
LLG,154,3,2024-06-14T14:13:08.285Z,english_447.wav,0,0,455,24,4,Chinese,m,0,0,38.77193801,0.52212734
LLG,154,3,2024-06-14T14:13:08.285Z,english_447.wav,0,0,455,24,4,Chinese,m,1,0.1,-3.53992528,0.58948567
LLG,154,3,2024-06-14T14:13:08.285Z,english_447.wav,0,0,455,24,4,Chinese,m,2,0.2,54.1888363,0.60662966
LLG,154,3,2024-06-14T14:13:08.285Z,english_447.wav,0,0,455,24,4,Chinese,m,3,0.3,-95.90180003,0.73195254
LLG,154,3,2024-06-14T14:13:08.285Z,english_447.wav,0,0,455,24,4,Chinese,m,4,0.32341667,48.32118178,0.21856551
LLG,155,3,2024-06-14T14:13:08.285Z,english_434.wav,0,1,436,24,4,Chinese,m,0,0,-4.12787863,0.96421208
LLG,155,3,2024-06-14T14:13:08.285Z,english_434.wav,0,1,436,24,4,Chinese,m,1,0.1,-30.19441281,1.08561731
LLG,155,3,2024-06-14T14:13:08.285Z,english_434.wav,0,1,436,24,4,Chinese,m,2,0.2,41.04377471,1.46356301
LLG,155,3,2024-06-14T14:13:08.285Z,english_434.wav,0,1,436,24,4,Chinese,m,3,0.3,-32.43591961,0.25116585
LLG,155,3,2024-06-14T14:13:08.285Z,english_434.wav,0,1,436,24,4,Chinese,m,4,0.32341667,61.53108406,0.73120458
LLG,156,3,2024-06-14T14:13:08.285Z,english_232.wav,0,0,603,24,4,Chinese,m,0,0,15.13134779,0.53160298
LLG,156,3,2024-06-14T14:13:08.285Z,english_232.wav,0,0,603,24,4,Chinese,m,1,0.1,-49.29605083,0.4519978
LLG,156,3,2024-06-14T14:13:08.285Z,english_232.wav,0,0,603,24,4,Chinese,m,2,0.2,59.10606455,0.39260156
LLG,156,3,2024-06-14T14:13:08.285Z,english_232.wav,0,0,603,24,4,Chinese,m,3,0.3,48.81708847,0.4692084
LLG,156,3,2024-06-14T14:13:08.285Z,english_232.wav,0,0,603,24,4,Chinese,m,4,0.32341667,14.83590121,0.46233459
LLG,157,3,2024-06-14T14:13:08.285Z,english_616.wav,0,1,377,24,4,Chinese,m,0,0,-71.12360497,0.83412473
LLG,157,3,2024-06-14T14:13:08.285Z,english_616.wav,0,1,377,24,4,Chinese,m,1,0.1,55.35355355,1.49185731
LLG,157,3,2024-06-14T14:13:08.285Z,english_616.wav,0,1,377,24,4,Chinese,m,2,0.2,-15.85026512,1.32170209
LLG,157,3,2024-06-14T14:13:08.285Z,english_616.wav,0,1,377,24,4,Chinese,m,3,0.3,-22.60587367,0.90458331
LLG,157,3,2024-06-14T14:13:08.285Z,english_616.wav,0,1,377,24,4,Chinese,m,4,0.32341667,-45.64131884,1.17134835
LLG,158,3,2024-06-14T14:13:08.285Z,english_87.wav,0,1,326,24,4,Chinese,m,0,0,54.83056612,1.56132998
LLG,158,3,2024-06-14T14:13:08.285Z,english_87.wav,0,1,326,24,4,Chinese,m,1,0.1,56.31531505,1.28614089
LLG,158,3,2024-06-14T14:13:08.285Z,english_87.wav,0,1,326,24,4,Chinese,m,2,0.2,-65.55002777,1.44579989
LLG,158,3,2024-06-14T14:13:08.285Z,english_87.wav,0,1,326,24,4,Chinese,m,3,0.3,-25.15788212,0.3607766
LLG,158,3,2024-06-14T14:13:08.285Z,english_87.wav,0,1,326,24,4,Chinese,m,4,0.32341667,22.72349562,0.17745198
LLG,159,3,2024-06-14T14:13:08.285Z,english_994.wav,0,1,245,24,4,Chinese,m,0,0,53.6083957,1.72152032
LLG,159,3,2024-06-14T14:13:08.285Z,english_994.wav,0,1,245,24,4,Chinese,m,1,0.1,62.5650281,0.97077126
LLG,159,3,2024-06-14T14:13:08.285Z,english_994.wav,0,1,245,24,4,Chinese,m,2,0.2,91.00734213,1.1154275
LLG,159,3,2024-06-14T14:13:08.285Z,english_994.wav,0,1,245,24,4,Chinese,m,3,0.3,-14.6853323,0.93534142
LLG,159,3,2024-06-14T14:13:08.285Z,english_994.wav,0,1,245,24,4,Chinese,m,4,0.32341667,42.94025292,1.51312842
LLG,160,3,2024-06-14T14:13:08.285Z,english_228.wav,0,1,362,24,4,Chinese,m,0,0,10.35680964,1.81276751
LLG,160,3,2024-06-14T14:13:08.285Z,english_228.wav,0,1,362,24,4,Chinese,m,1,0.1,-84.53961792,0.9819477
LLG,160,3,2024-06-14T14:13:08.285Z,english_228.wav,0,1,362,24,4,Chinese,m,2,0.2,38.41788342,1.68506606
LLG,160,3,2024-06-14T14:13:08.285Z,english_228.wav,0,1,362,24,4,Chinese,m,3,0.3,-9.18015311,0.19219142
LLG,160,3,2024-06-14T14:13:08.285Z,english_228.wav,0,1,362,24,4,Chinese,m,4,0.32341667,-12.25744947,1.99636764
LLG,161,3,2024-06-14T14:13:08.285Z,english_32.wav,0,1,654,24,4,Chinese,m,0,0,89.50349963,1.73304916
LLG,161,3,2024-06-14T14:13:08.285Z,english_32.wav,0,1,654,24,4,Chinese,m,1,0.1,51.51128255,0.02192789
LLG,161,3,2024-06-14T14:13:08.285Z,english_32.wav,0,1,654,24,4,Chinese,m,2,0.2,-58.32910347,1.71493142
LLG,161,3,2024-06-14T14:13:08.285Z,english_32.wav,0,1,654,24,4,Chinese,m,3,0.3,15.96172744,1.28451373
LLG,161,3,2024-06-14T14:13:08.285Z,english_32.wav,0,1,654,24,4,Chinese,m,4,0.32341667,84.40449403,1.22971166
LLG,162,3,2024-06-14T14:13:08.285Z,english_139.wav,0,1,858,24,4,Chinese,m,0,0,55.35526281,1.40478417
LLG,162,3,2024-06-14T14:13:08.285Z,english_139.wav,0,1,858,24,4,Chinese,m,1,0.1,-66.48550036,1.12007301
LLG,162,3,2024-06-14T14:13:08.285Z,english_139.wav,0,1,858,24,4,Chinese,m,2,0.2,21.45340352,1.58559909
LLG,162,3,2024-06-14T14:13:08.285Z,english_139.wav,0,1,858,24,4,Chinese,m,3,0.3,-32.80413748,1.13081383
LLG,162,3,2024-06-14T14:13:08.285Z,english_139.wav,0,1,858,24,4,Chinese,m,4,0.32341667,-77.32206638,0.38560717
LLG,163,3,2024-06-14T14:13:08.285Z,english_640.wav,0,0,392,24,4,Chinese,m,0,0,74.95875769,1.81273707
LLG,163,3,2024-06-14T14:13:08.285Z,english_640.wav,0,0,392,24,4,Chinese,m,1,0.1,87.73764633,1.50076703
LLG,163,3,2024-06-14T14:13:08.285Z,english_640.wav,0,0,392,24,4,Chinese,m,2,0.2,-71.36544648,0.25286143
LLG,163,3,2024-06-14T14:13:08.285Z,english_640.wav,0,0,392,24,4,Chinese,m,3,0.3,11.07583082,0.53181051
LLG,163,3,2024-06-14T14:13:08.285Z,english_640.wav,0,0,392,24,4,Chinese,m,4,0.32341667,18.32643638,0.76351343
LLG,164,3,2024-06-14T14:13:08.285Z,english_36.wav,0,0,498,24,4,Chinese,m,0,0,8.79498818,0.0614271
LLG,164,3,2024-06-14T14:13:08.285Z,english_36.wav,0,0,498,24,4,Chinese,m,1,0.1,-18.99628775,0.22652961
LLG,164,3,2024-06-14T14:13:08.285Z,english_36.wav,0,0,498,24,4,Chinese,m,2,0.2,-17.40156662,0.46484299
LLG,164,3,2024-06-14T14:13:08.285Z,english_36.wav,0,0,498,24,4,Chinese,m,3,0.3,-85.73958234,0.81464033
LLG,164,3,2024-06-14T14:13:08.285Z,english_36.wav,0,0,498,24,4,Chinese,m,4,0.32341667,45.44069908,0.21843777
LLG,165,3,2024-06-14T14:13:08.285Z,english_708.wav,0,1,1040,24,4,Chinese,m,0,0,-27.19248895,0.74061838
LLG,165,3,2024-06-14T14:13:08.285Z,english_708.wav,0,1,1040,24,4,Chinese,m,1,0.1,84.25795725,1.13599963
LLG,165,3,2024-06-14T14:13:08.285Z,english_708.wav,0,1,1040,24,4,Chinese,m,2,0.2,-19.19551503,1.10086254
LLG,165,3,2024-06-14T14:13:08.285Z,english_708.wav,0,1,1040,24,4,Chinese,m,3,0.3,29.88012033,0.53054382
LLG,165,3,2024-06-14T14:13:08.285Z,english_708.wav,0,1,1040,24,4,Chinese,m,4,0.32341667,46.0858662,1.51974387
LLG,166,3,2024-06-14T14:13:08.285Z,english_902.wav,0,1,401,24,4,Chinese,m,0,0,-4.27617126,0.16330526
LLG,166,3,2024-06-14T14:13:08.285Z,english_902.wav,0,1,401,24,4,Chinese,m,1,0.1,-5.01127315,0.62492789
LLG,166,3,2024-06-14T14:13:08.285Z,english_902.wav,0,1,401,24,4,Chinese,m,2,0.2,83.22080084,1.08638924
LLG,166,3,2024-06-14T14:13:08.285Z,english_902.wav,0,1,401,24,4,Chinese,m,3,0.3,77.56473772,1.61764227
LLG,166,3,2024-06-14T14:13:08.285Z,english_902.wav,0,1,401,24,4,Chinese,m,4,0.32341667,-13.02741535,1.72075309
LLG,167,3,2024-06-14T14:13:08.285Z,english_305.wav,0,1,463,24,4,Chinese,m,0,0,-23.95553444,0.70401859
LLG,167,3,2024-06-14T14:13:08.285Z,english_305.wav,0,1,463,24,4,Chinese,m,1,0.1,-97.95184299,0.00875292
LLG,167,3,2024-06-14T14:13:08.285Z,english_305.wav,0,1,463,24,4,Chinese,m,2,0.2,95.23338475,1.8427633
LLG,167,3,2024-06-14T14:13:08.285Z,english_305.wav,0,1,463,24,4,Chinese,m,3,0.3,10.74081096,1.83453859
LLG,167,3,2024-06-14T14:13:08.285Z,english_305.wav,0,1,463,24,4,Chinese,m,4,0.32341667,24.9757793,1.77535614
LLG,168,3,2024-06-14T14:13:08.285Z,english_551.wav,0,0,1558,24,4,Chinese,m,0,0,51.69986033,0.0331047
LLG,168,3,2024-06-14T14:13:08.285Z,english_551.wav,0,0,1558,24,4,Chinese,m,1,0.1,-91.31948841,0.51079487
LLG,168,3,2024-06-14T14:13:08.285Z,english_551.wav,0,0,1558,24,4,Chinese,m,2,0.2,12.24586311,1.83581854
LLG,168,3,2024-06-14T14:13:08.285Z,english_551.wav,0,0,1558,24,4,Chinese,m,3,0.3,-52.90680215,0.12201236
LLG,168,3,2024-06-14T14:13:08.285Z,english_551.wav,0,0,1558,24,4,Chinese,m,4,0.32341667,-27.23325687,1.55189277
LLG,169,3,2024-06-14T14:13:08.285Z,english_937.wav,0,1,336,24,4,Chinese,m,0,0,76.77394395,1.55370699
LLG,169,3,2024-06-14T14:13:08.285Z,english_937.wav,0,1,336,24,4,Chinese,m,1,0.1,49.33576264,1.82028848
LLG,169,3,2024-06-14T14:13:08.285Z,english_937.wav,0,1,336,24,4,Chinese,m,2,0.2,-87.39935237,1.42487505
LLG,169,3,2024-06-14T14:13:08.285Z,english_937.wav,0,1,336,24,4,Chinese,m,3,0.3,11.02170053,0.87896062
LLG,169,3,2024-06-14T14:13:08.285Z,english_937.wav,0,1,336,24,4,Chinese,m,4,0.32341667,91.99381322,0.96516852
LLG,170,3,2024-06-14T14:13:08.285Z,english_562.wav,0,0,670,24,4,Chinese,m,0,0,-40.22672309,0.64031882
LLG,170,3,2024-06-14T14:13:08.285Z,english_562.wav,0,0,670,24,4,Chinese,m,1,0.1,77.961849,0.7637006
LLG,170,3,2024-06-14T14:13:08.285Z,english_562.wav,0,0,670,24,4,Chinese,m,2,0.2,25.52463525,0.87632482
LLG,170,3,2024-06-14T14:13:08.285Z,english_562.wav,0,0,670,24,4,Chinese,m,3,0.3,84.62788358,0.98972612
LLG,170,3,2024-06-14T14:13:08.285Z,english_562.wav,0,0,670,24,4,Chinese,m,4,0.32341667,-53.67427145,0.74010285
LLG,171,3,2024-06-14T14:13:08.285Z,english_526.wav,0,0,554,24,4,Chinese,m,0,0,-32.34532461,0.924261
LLG,171,3,2024-06-14T14:13:08.285Z,english_526.wav,0,0,554,24,4,Chinese,m,1,0.1,-46.6208459,0.25414499
LLG,171,3,2024-06-14T14:13:08.285Z,english_526.wav,0,0,554,24,4,Chinese,m,2,0.2,-42.84927068,1.01925886
LLG,171,3,2024-06-14T14:13:08.285Z,english_526.wav,0,0,554,24,4,Chinese,m,3,0.3,3.47643827,0.65966822
LLG,171,3,2024-06-14T14:13:08.285Z,english_526.wav,0,0,554,24,4,Chinese,m,4,0.32341667,52.79087598,1.50872035
LLG,172,3,2024-06-14T14:13:08.285Z,english_312.wav,0,0,533,24,4,Chinese,m,0,0,44.01610098,1.36033213
LLG,172,3,2024-06-14T14:13:08.285Z,english_312.wav,0,0,533,24,4,Chinese,m,1,0.1,-34.76139374,0.08557756
LLG,172,3,2024-06-14T14:13:08.285Z,english_312.wav,0,0,533,24,4,Chinese,m,2,0.2,-43.47986862,1.06509633
LLG,172,3,2024-06-14T14:13:08.285Z,english_312.wav,0,0,533,24,4,Chinese,m,3,0.3,-9.79517271,0.67257935
LLG,172,3,2024-06-14T14:13:08.285Z,english_312.wav,0,0,533,24,4,Chinese,m,4,0.32341667,85.48914895,0.12614926
LLG,173,3,2024-06-14T14:13:08.285Z,english_826.wav,0,0,473,24,4,Chinese,m,0,0,24.96468068,1.6444456
LLG,173,3,2024-06-14T14:13:08.285Z,english_826.wav,0,0,473,24,4,Chinese,m,1,0.1,1.37616969,0.97947611
LLG,173,3,2024-06-14T14:13:08.285Z,english_826.wav,0,0,473,24,4,Chinese,m,2,0.2,-71.19975556,0.49097947
LLG,173,3,2024-06-14T14:13:08.285Z,english_826.wav,0,0,473,24,4,Chinese,m,3,0.3,-48.49913399,0.98819908
LLG,173,3,2024-06-14T14:13:08.285Z,english_826.wav,0,0,473,24,4,Chinese,m,4,0.32341667,40.69153462,1.05842158
LLG,174,3,2024-06-14T14:13:08.285Z,english_490.wav,0,1,361,24,4,Chinese,m,0,0,39.23640548,0.12600295
LLG,174,3,2024-06-14T14:13:08.285Z,english_490.wav,0,1,361,24,4,Chinese,m,1,0.1,-42.18123516,0.88631808
LLG,174,3,2024-06-14T14:13:08.285Z,english_490.wav,0,1,361,24,4,Chinese,m,2,0.2,53.94030347,1.76218548
LLG,174,3,2024-06-14T14:13:08.285Z,english_490.wav,0,1,361,24,4,Chinese,m,3,0.3,-65.41993581,1.86160188
LLG,174,3,2024-06-14T14:13:08.285Z,english_490.wav,0,1,361,24,4,Chinese,m,4,0.32341667,90.15742696,1.03493088
LLG,175,3,2024-06-14T14:13:08.285Z,english_754.wav,0,1,351,24,4,Chinese,m,0,0,-19.76675532,0.85408869
LLG,175,3,2024-06-14T14:13:08.285Z,english_754.wav,0,1,351,24,4,Chinese,m,1,0.1,34.48414938,1.68072852
LLG,175,3,2024-06-14T14:13:08.285Z,english_754.wav,0,1,351,24,4,Chinese,m,2,0.2,62.52568934,1.92334892
LLG,175,3,2024-06-14T14:13:08.285Z,english_754.wav,0,1,351,24,4,Chinese,m,3,0.3,25.41574935,0.35114342
LLG,175,3,2024-06-14T14:13:08.285Z,english_754.wav,0,1,351,24,4,Chinese,m,4,0.32341667,-36.16911462,0.9845535
LLG,176,3,2024-06-14T14:13:08.285Z,english_146.wav,0,0,1515,24,4,Chinese,m,0,0,-7.47107612,0.36907021
LLG,176,3,2024-06-14T14:13:08.285Z,english_146.wav,0,0,1515,24,4,Chinese,m,1,0.1,-10.73298436,0.24473139
LLG,176,3,2024-06-14T14:13:08.285Z,english_146.wav,0,0,1515,24,4,Chinese,m,2,0.2,-4.63341632,1.01983542
LLG,176,3,2024-06-14T14:13:08.285Z,english_146.wav,0,0,1515,24,4,Chinese,m,3,0.3,14.65491039,0.62607899
LLG,176,3,2024-06-14T14:13:08.285Z,english_146.wav,0,0,1515,24,4,Chinese,m,4,0.32341667,19.96333333,1.1005899
LLG,177,3,2024-06-14T14:13:08.285Z,english_106.wav,0,1,446,24,4,Chinese,m,0,0,-46.25200282,0.21046793
LLG,177,3,2024-06-14T14:13:08.285Z,english_106.wav,0,1,446,24,4,Chinese,m,1,0.1,-83.38564728,1.42142181
LLG,177,3,2024-06-14T14:13:08.285Z,english_106.wav,0,1,446,24,4,Chinese,m,2,0.2,68.00501759,0.86156936
LLG,177,3,2024-06-14T14:13:08.285Z,english_106.wav,0,1,446,24,4,Chinese,m,3,0.3,49.15199267,0.65348811
LLG,177,3,2024-06-14T14:13:08.285Z,english_106.wav,0,1,446,24,4,Chinese,m,4,0.32341667,-5.93966373,0.76273979
LLG,178,3,2024-06-14T14:13:08.285Z,english_385.wav,0,1,444,24,4,Chinese,m,0,0,-55.07910634,1.75648555
LLG,178,3,2024-06-14T14:13:08.285Z,english_385.wav,0,1,444,24,4,Chinese,m,1,0.1,-94.47680079,1.20856462
LLG,178,3,2024-06-14T14:13:08.285Z,english_385.wav,0,1,444,24,4,Chinese,m,2,0.2,38.70414457,0.98103352
LLG,178,3,2024-06-14T14:13:08.285Z,english_385.wav,0,1,444,24,4,Chinese,m,3,0.3,-46.17691,1.45745263
LLG,178,3,2024-06-14T14:13:08.285Z,english_385.wav,0,1,444,24,4,Chinese,m,4,0.32341667,2.5941508,0.88353815
LLG,179,3,2024-06-14T14:13:08.285Z,english_160.wav,0,0,617,24,4,Chinese,m,0,0,2.54964477,0.54357393
LLG,179,3,2024-06-14T14:13:08.285Z,english_160.wav,0,0,617,24,4,Chinese,m,1,0.1,26.84692557,1.29343216
LLG,179,3,2024-06-14T14:13:08.285Z,english_160.wav,0,0,617,24,4,Chinese,m,2,0.2,72.58457191,0.42070854
LLG,179,3,2024-06-14T14:13:08.285Z,english_160.wav,0,0,617,24,4,Chinese,m,3,0.3,-6.94481249,1.04489529
LLG,179,3,2024-06-14T14:13:08.285Z,english_160.wav,0,0,617,24,4,Chinese,m,4,0.32341667,35.80656171,0.26802137
LLG,180,3,2024-06-14T14:13:08.285Z,english_848.wav,0,1,404,24,4,Chinese,m,0,0,43.30233352,0.12582596
LLG,180,3,2024-06-14T14:13:08.285Z,english_848.wav,0,1,404,24,4,Chinese,m,1,0.1,-77.77691247,1.72621372
LLG,180,3,2024-06-14T14:13:08.285Z,english_848.wav,0,1,404,24,4,Chinese,m,2,0.2,-68.99020863,1.753656
LLG,180,3,2024-06-14T14:13:08.285Z,english_848.wav,0,1,404,24,4,Chinese,m,3,0.3,-43.68641023,1.37442753
LLG,180,3,2024-06-14T14:13:08.285Z,english_848.wav,0,1,404,24,4,Chinese,m,4,0.32341667,-14.19502025,1.04930351
LLG,181,3,2024-06-14T14:13:08.285Z,english_271.wav,0,0,929,24,4,Chinese,m,0,0,24.41564841,0.25667552
LLG,181,3,2024-06-14T14:13:08.285Z,english_271.wav,0,0,929,24,4,Chinese,m,1,0.1,-64.42577909,1.20221217
LLG,181,3,2024-06-14T14:13:08.285Z,english_271.wav,0,0,929,24,4,Chinese,m,2,0.2,32.27025317,0.24658485
LLG,181,3,2024-06-14T14:13:08.285Z,english_271.wav,0,0,929,24,4,Chinese,m,3,0.3,58.71212772,1.57844265
LLG,181,3,2024-06-14T14:13:08.285Z,english_271.wav,0,0,929,24,4,Chinese,m,4,0.32341667,46.7300547,1.00400066
LLG,182,3,2024-06-14T14:13:08.285Z,english_57.wav,0,0,714,24,4,Chinese,m,0,0,-27.39668164,1.97835384
LLG,182,3,2024-06-14T14:13:08.285Z,english_57.wav,0,0,714,24,4,Chinese,m,1,0.1,63.52389761,0.69906452
LLG,182,3,2024-06-14T14:13:08.285Z,english_57.wav,0,0,714,24,4,Chinese,m,2,0.2,-55.42033209,0.75389415
LLG,182,3,2024-06-14T14:13:08.285Z,english_57.wav,0,0,714,24,4,Chinese,m,3,0.3,40.81906742,0.20375649
LLG,182,3,2024-06-14T14:13:08.285Z,english_57.wav,0,0,714,24,4,Chinese,m,4,0.32341667,-12.75543821,1.65585112
LLG,183,3,2024-06-14T14:13:08.285Z,english_524.wav,0,0,850,24,4,Chinese,m,0,0,-67.97449296,0.75247726
LLG,183,3,2024-06-14T14:13:08.285Z,english_524.wav,0,0,850,24,4,Chinese,m,1,0.1,11.07328714,0.25589602
LLG,183,3,2024-06-14T14:13:08.285Z,english_524.wav,0,0,850,24,4,Chinese,m,2,0.2,-43.89657964,0.70559599
LLG,183,3,2024-06-14T14:13:08.285Z,english_524.wav,0,0,850,24,4,Chinese,m,3,0.3,-41.15015074,0.70218971
LLG,183,3,2024-06-14T14:13:08.285Z,english_524.wav,0,0,850,24,4,Chinese,m,4,0.32341667,-33.76804681,0.11352048
LLG,184,3,2024-06-14T14:13:08.285Z,english_267.wav,0,1,1097,24,4,Chinese,m,0,0,-83.13365237,1.47105267
LLG,184,3,2024-06-14T14:13:08.285Z,english_267.wav,0,1,1097,24,4,Chinese,m,1,0.1,76.30308178,0.87521108
LLG,184,3,2024-06-14T14:13:08.285Z,english_267.wav,0,1,1097,24,4,Chinese,m,2,0.2,53.87961391,1.04060287
LLG,184,3,2024-06-14T14:13:08.285Z,english_267.wav,0,1,1097,24,4,Chinese,m,3,0.3,62.72167491,0.25080793
LLG,184,3,2024-06-14T14:13:08.285Z,english_267.wav,0,1,1097,24,4,Chinese,m,4,0.32341667,-33.79574379,1.11989054
LLG,185,3,2024-06-14T14:13:08.285Z,english_278.wav,0,1,472,24,4,Chinese,m,0,0,-49.55521664,0.96598769
LLG,185,3,2024-06-14T14:13:08.285Z,english_278.wav,0,1,472,24,4,Chinese,m,1,0.1,60.24292507,1.32709354
LLG,185,3,2024-06-14T14:13:08.285Z,english_278.wav,0,1,472,24,4,Chinese,m,2,0.2,34.32984246,0.84496159
LLG,185,3,2024-06-14T14:13:08.285Z,english_278.wav,0,1,472,24,4,Chinese,m,3,0.3,91.69210883,1.50157491
LLG,185,3,2024-06-14T14:13:08.285Z,english_278.wav,0,1,472,24,4,Chinese,m,4,0.32341667,78.84715657,1.85534648
LLG,186,3,2024-06-14T14:13:08.285Z,english_757.wav,0,1,357,24,4,Chinese,m,0,0,-71.37581006,0.57944866
LLG,186,3,2024-06-14T14:13:08.285Z,english_757.wav,0,1,357,24,4,Chinese,m,1,0.1,-34.89028362,1.76833087
LLG,186,3,2024-06-14T14:13:08.285Z,english_757.wav,0,1,357,24,4,Chinese,m,2,0.2,97.72444176,0.43040584
LLG,186,3,2024-06-14T14:13:08.285Z,english_757.wav,0,1,357,24,4,Chinese,m,3,0.3,8.64322444,1.84780211
LLG,186,3,2024-06-14T14:13:08.285Z,english_757.wav,0,1,357,24,4,Chinese,m,4,0.32341667,-59.15215987,0.21714226
LLG,187,3,2024-06-14T14:13:08.285Z,english_921.wav,0,1,394,24,4,Chinese,m,0,0,60.93482672,0.06624465
LLG,187,3,2024-06-14T14:13:08.285Z,english_921.wav,0,1,394,24,4,Chinese,m,1,0.1,-71.63665921,1.88925143
LLG,187,3,2024-06-14T14:13:08.285Z,english_921.wav,0,1,394,24,4,Chinese,m,2,0.2,-30.77028929,0.40013084
LLG,187,3,2024-06-14T14:13:08.285Z,english_921.wav,0,1,394,24,4,Chinese,m,3,0.3,-44.68164597,1.26601564
LLG,187,3,2024-06-14T14:13:08.285Z,english_921.wav,0,1,394,24,4,Chinese,m,4,0.32341667,34.59415858,1.98956357
LLG,188,3,2024-06-14T14:13:08.285Z,english_984.wav,0,0,600,24,4,Chinese,m,0,0,-4.00148485,1.68596177
LLG,188,3,2024-06-14T14:13:08.285Z,english_984.wav,0,0,600,24,4,Chinese,m,1,0.1,26.28173365,0.06678014
LLG,188,3,2024-06-14T14:13:08.285Z,english_984.wav,0,0,600,24,4,Chinese,m,2,0.2,80.79042683,0.65490985
LLG,188,3,2024-06-14T14:13:08.285Z,english_984.wav,0,0,600,24,4,Chinese,m,3,0.3,94.69131331,0.57269921
LLG,188,3,2024-06-14T14:13:08.285Z,english_984.wav,0,0,600,24,4,Chinese,m,4,0.32341667,75.17511154,0.71264295
LLG,189,3,2024-06-14T14:13:08.285Z,english_291.wav,0,1,498,24,4,Chinese,m,0,0,-23.91479102,1.25533579
LLG,189,3,2024-06-14T14:13:08.285Z,english_291.wav,0,1,498,24,4,Chinese,m,1,0.1,-31.34063508,0.8599513
LLG,189,3,2024-06-14T14:13:08.285Z,english_291.wav,0,1,498,24,4,Chinese,m,2,0.2,-16.29866726,1.40556138
LLG,189,3,2024-06-14T14:13:08.285Z,english_291.wav,0,1,498,24,4,Chinese,m,3,0.3,10.36632866,0.42924112
LLG,189,3,2024-06-14T14:13:08.285Z,english_291.wav,0,1,498,24,4,Chinese,m,4,0.32341667,7.35722843,0.61564446
LLG,190,3,2024-06-14T14:13:08.285Z,english_991.wav,0,1,1621,24,4,Chinese,m,0,0,-73.33762004,0.7279734
LLG,190,3,2024-06-14T14:13:08.285Z,english_991.wav,0,1,1621,24,4,Chinese,m,1,0.1,-90.08677455,0.374322
LLG,190,3,2024-06-14T14:13:08.285Z,english_991.wav,0,1,1621,24,4,Chinese,m,2,0.2,-98.84294029,0.98894361
LLG,190,3,2024-06-14T14:13:08.285Z,english_991.wav,0,1,1621,24,4,Chinese,m,3,0.3,59.84972986,1.07774369
LLG,190,3,2024-06-14T14:13:08.285Z,english_991.wav,0,1,1621,24,4,Chinese,m,4,0.32341667,21.03568625,0.51480923
LLG,191,3,2024-06-14T14:13:08.285Z,english_184.wav,0,1,1474,24,4,Chinese,m,0,0,29.65201825,1.69567788
LLG,191,3,2024-06-14T14:13:08.285Z,english_184.wav,0,1,1474,24,4,Chinese,m,1,0.1,16.48348791,1.26735627
LLG,191,3,2024-06-14T14:13:08.285Z,english_184.wav,0,1,1474,24,4,Chinese,m,2,0.2,3.77448983,0.95352895
LLG,191,3,2024-06-14T14:13:08.285Z,english_184.wav,0,1,1474,24,4,Chinese,m,3,0.3,62.87502431,1.7991474
LLG,191,3,2024-06-14T14:13:08.285Z,english_184.wav,0,1,1474,24,4,Chinese,m,4,0.32341667,-8.82418577,0.98992659
LLG,192,3,2024-06-14T14:13:08.285Z,english_113.wav,0,1,263,24,4,Chinese,m,0,0,8.7952765,0.51001639
