subj,trial,block,date,stim,stim_order,response,rt,age,english,language,sex,param_index,segment,pitch,stretch
MJH_0616,0,0,2024-06-16T00:50:56.434Z,english_840.wav,0,1,8003,,,,,0,0,-27.11425843,1.31301797
MJH_0616,0,0,2024-06-16T00:50:56.434Z,english_840.wav,0,1,8003,,,,,1,0.1,-47.31494811,0.54280133
MJH_0616,0,0,2024-06-16T00:50:56.434Z,english_840.wav,0,1,8003,,,,,2,0.2,-88.66887426,0.14090987
MJH_0616,0,0,2024-06-16T00:50:56.434Z,english_840.wav,0,1,8003,,,,,3,0.3,7.86940595,0.11950116
MJH_0616,0,0,2024-06-16T00:50:56.434Z,english_840.wav,0,1,8003,,,,,4,0.32341667,87.61758205,1.48166624
MJH_0616,1,0,2024-06-16T00:50:56.434Z,english_620.wav,0,0,3630,,,,,0,0,-92.9203055,0.43561856
MJH_0616,1,0,2024-06-16T00:50:56.434Z,english_620.wav,0,0,3630,,,,,1,0.1,26.7086056,0.24535421
MJH_0616,1,0,2024-06-16T00:50:56.434Z,english_620.wav,0,0,3630,,,,,2,0.2,89.1883135,1.34102831
MJH_0616,1,0,2024-06-16T00:50:56.434Z,english_620.wav,0,0,3630,,,,,3,0.3,-0.0557738795,1.80103954
MJH_0616,1,0,2024-06-16T00:50:56.434Z,english_620.wav,0,0,3630,,,,,4,0.323416667,2.9787243,0.21248525
MJH_0616,2,0,2024-06-16T00:50:56.434Z,english_96.wav,0,1,163758,,,,,0,0,-2.60251168,1.33849038
MJH_0616,2,0,2024-06-16T00:50:56.434Z,english_96.wav,0,1,163758,,,,,1,0.1,3.1808695,1.03790095
MJH_0616,2,0,2024-06-16T00:50:56.434Z,english_96.wav,0,1,163758,,,,,2,0.2,-93.89625608,0.32730996
MJH_0616,2,0,2024-06-16T00:50:56.434Z,english_96.wav,0,1,163758,,,,,3,0.3,22.03695444,1.15118519
MJH_0616,2,0,2024-06-16T00:50:56.434Z,english_96.wav,0,1,163758,,,,,4,0.32341667,89.13776591,1.37996061
MJH_0616,3,0,2024-06-16T00:50:56.434Z,english_808.wav,0,0,6018,,,,,0,0,23.02589628,1.07384277
MJH_0616,3,0,2024-06-16T00:50:56.434Z,english_808.wav,0,0,6018,,,,,1,0.1,10.58817829,1.3919179
MJH_0616,3,0,2024-06-16T00:50:56.434Z,english_808.wav,0,0,6018,,,,,2,0.2,36.77134597,0.54960524
MJH_0616,3,0,2024-06-16T00:50:56.434Z,english_808.wav,0,0,6018,,,,,3,0.3,-30.31603221,1.95871365
MJH_0616,3,0,2024-06-16T00:50:56.434Z,english_808.wav,0,0,6018,,,,,4,0.32341667,9.74764343,0.79150541
MJH_0616,4,0,2024-06-16T00:50:56.434Z,english_677.wav,0,0,3434,,,,,0,0,74.92499355,0.4070184
MJH_0616,4,0,2024-06-16T00:50:56.434Z,english_677.wav,0,0,3434,,,,,1,0.1,35.44886391,0.82737557
MJH_0616,4,0,2024-06-16T00:50:56.434Z,english_677.wav,0,0,3434,,,,,2,0.2,3.82146975,0.46436239
MJH_0616,4,0,2024-06-16T00:50:56.434Z,english_677.wav,0,0,3434,,,,,3,0.3,10.3543008,1.40426898
MJH_0616,4,0,2024-06-16T00:50:56.434Z,english_677.wav,0,0,3434,,,,,4,0.32341667,-53.94170103,1.42138659
MJH_0616,5,0,2024-06-16T00:50:56.434Z,english_884.wav,0,0,7334,,,,,0,0,77.1498115,1.83268558
MJH_0616,5,0,2024-06-16T00:50:56.434Z,english_884.wav,0,0,7334,,,,,1,0.1,10.32602389,0.76817862
MJH_0616,5,0,2024-06-16T00:50:56.434Z,english_884.wav,0,0,7334,,,,,2,0.2,4.15464736,1.59331573
MJH_0616,5,0,2024-06-16T00:50:56.434Z,english_884.wav,0,0,7334,,,,,3,0.3,21.19252889,0.58913169
MJH_0616,5,0,2024-06-16T00:50:56.434Z,english_884.wav,0,0,7334,,,,,4,0.32341667,-7.11336122,0.81393531
MJH_0616,6,0,2024-06-16T00:50:56.434Z,english_107.wav,0,0,5616,,,,,0,0,-19.24931684,0.69122185
MJH_0616,6,0,2024-06-16T00:50:56.434Z,english_107.wav,0,0,5616,,,,,1,0.1,24.04874113,0.13674094
MJH_0616,6,0,2024-06-16T00:50:56.434Z,english_107.wav,0,0,5616,,,,,2,0.2,59.01955179,1.47608642
MJH_0616,6,0,2024-06-16T00:50:56.434Z,english_107.wav,0,0,5616,,,,,3,0.3,49.74315823,1.52525824
MJH_0616,6,0,2024-06-16T00:50:56.434Z,english_107.wav,0,0,5616,,,,,4,0.32341667,-75.23844627,0.11985114
MJH_0616,7,0,2024-06-16T00:50:56.434Z,english_734.wav,0,0,1107,,,,,0,0,23.12527103,1.15728247
MJH_0616,7,0,2024-06-16T00:50:56.434Z,english_734.wav,0,0,1107,,,,,1,0.1,70.97885261,1.10975856
MJH_0616,7,0,2024-06-16T00:50:56.434Z,english_734.wav,0,0,1107,,,,,2,0.2,-68.62860591,0.41126476
MJH_0616,7,0,2024-06-16T00:50:56.434Z,english_734.wav,0,0,1107,,,,,3,0.3,-14.81239301,1.45213782
MJH_0616,7,0,2024-06-16T00:50:56.434Z,english_734.wav,0,0,1107,,,,,4,0.32341667,-74.40513958,1.98917216
MJH_0616,8,0,2024-06-16T00:50:56.434Z,english_314.wav,0,1,1805,,,,,0,0,-64.95449137,1.33019215
MJH_0616,8,0,2024-06-16T00:50:56.434Z,english_314.wav,0,1,1805,,,,,1,0.1,41.76232806,0.95010379
MJH_0616,8,0,2024-06-16T00:50:56.434Z,english_314.wav,0,1,1805,,,,,2,0.2,68.0199099,0.0418164
MJH_0616,8,0,2024-06-16T00:50:56.434Z,english_314.wav,0,1,1805,,,,,3,0.3,-18.86846342,0.3847457
MJH_0616,8,0,2024-06-16T00:50:56.434Z,english_314.wav,0,1,1805,,,,,4,0.32341667,-2.58545886,1.31154336
MJH_0616,9,0,2024-06-16T00:50:56.434Z,english_357.wav,0,0,2123,,,,,0,0,76.35734026,1.14590216
MJH_0616,9,0,2024-06-16T00:50:56.434Z,english_357.wav,0,0,2123,,,,,1,0.1,-86.84267031,0.53472093
MJH_0616,9,0,2024-06-16T00:50:56.434Z,english_357.wav,0,0,2123,,,,,2,0.2,-64.6676431,0.54723503
MJH_0616,9,0,2024-06-16T00:50:56.434Z,english_357.wav,0,0,2123,,,,,3,0.3,-69.9472318,1.29334783
MJH_0616,9,0,2024-06-16T00:50:56.434Z,english_357.wav,0,0,2123,,,,,4,0.32341667,87.84988665,1.74725804
MJH_0616,10,0,2024-06-16T00:50:56.434Z,english_66.wav,0,1,3119,,,,,0,0,16.07147303,1.75051971
MJH_0616,10,0,2024-06-16T00:50:56.434Z,english_66.wav,0,1,3119,,,,,1,0.1,50.76577123,0.02971233
MJH_0616,10,0,2024-06-16T00:50:56.434Z,english_66.wav,0,1,3119,,,,,2,0.2,-29.1595681,0.63583886
MJH_0616,10,0,2024-06-16T00:50:56.434Z,english_66.wav,0,1,3119,,,,,3,0.3,-80.89120138,1.46734397
MJH_0616,10,0,2024-06-16T00:50:56.434Z,english_66.wav,0,1,3119,,,,,4,0.32341667,-8.46229461,1.61280944
MJH_0616,11,0,2024-06-16T00:50:56.434Z,english_710.wav,0,1,2181,,,,,0,0,-75.8732007,1.76991952
MJH_0616,11,0,2024-06-16T00:50:56.434Z,english_710.wav,0,1,2181,,,,,1,0.1,-57.22858583,1.84377411
MJH_0616,11,0,2024-06-16T00:50:56.434Z,english_710.wav,0,1,2181,,,,,2,0.2,28.4956072,1.20069914
MJH_0616,11,0,2024-06-16T00:50:56.434Z,english_710.wav,0,1,2181,,,,,3,0.3,-96.06281818,0.06088286
MJH_0616,11,0,2024-06-16T00:50:56.434Z,english_710.wav,0,1,2181,,,,,4,0.32341667,12.57492899,1.86160088
MJH_0616,12,0,2024-06-16T00:50:56.434Z,english_367.wav,0,0,6968,,,,,0,0,69.68935346,1.12532443
MJH_0616,12,0,2024-06-16T00:50:56.434Z,english_367.wav,0,0,6968,,,,,1,0.1,-21.84293244,1.15903886
MJH_0616,12,0,2024-06-16T00:50:56.434Z,english_367.wav,0,0,6968,,,,,2,0.2,-22.40126322,1.68834661
MJH_0616,12,0,2024-06-16T00:50:56.434Z,english_367.wav,0,0,6968,,,,,3,0.3,-77.83415675,1.78966274
MJH_0616,12,0,2024-06-16T00:50:56.434Z,english_367.wav,0,0,6968,,,,,4,0.32341667,18.42522507,1.57311162
MJH_0616,13,0,2024-06-16T00:50:56.434Z,english_799.wav,0,1,5379,,,,,0,0,-48.4958847,1.9233431
MJH_0616,13,0,2024-06-16T00:50:56.434Z,english_799.wav,0,1,5379,,,,,1,0.1,-9.52866418,1.11542891
MJH_0616,13,0,2024-06-16T00:50:56.434Z,english_799.wav,0,1,5379,,,,,2,0.2,1.94176449,0.95865462
MJH_0616,13,0,2024-06-16T00:50:56.434Z,english_799.wav,0,1,5379,,,,,3,0.3,5.71676827,0.6616034
MJH_0616,13,0,2024-06-16T00:50:56.434Z,english_799.wav,0,1,5379,,,,,4,0.32341667,30.27282792,1.91183458
MJH_0616,14,0,2024-06-16T00:50:56.434Z,english_680.wav,0,0,2693,,,,,0,0,93.24972168,1.89994278
MJH_0616,14,0,2024-06-16T00:50:56.434Z,english_680.wav,0,0,2693,,,,,1,0.1,21.55707386,1.06559033
MJH_0616,14,0,2024-06-16T00:50:56.434Z,english_680.wav,0,0,2693,,,,,2,0.2,-58.84044748,0.79606997
MJH_0616,14,0,2024-06-16T00:50:56.434Z,english_680.wav,0,0,2693,,,,,3,0.3,-13.55367876,0.35899559
MJH_0616,14,0,2024-06-16T00:50:56.434Z,english_680.wav,0,0,2693,,,,,4,0.32341667,17.98073729,1.50925573
MJH_0616,15,0,2024-06-16T00:50:56.434Z,english_439.wav,0,0,6007,,,,,0,0,-34.98153375,0.51703437
MJH_0616,15,0,2024-06-16T00:50:56.434Z,english_439.wav,0,0,6007,,,,,1,0.1,58.81829455,0.92552513
MJH_0616,15,0,2024-06-16T00:50:56.434Z,english_439.wav,0,0,6007,,,,,2,0.2,-39.64168408,1.94754337
MJH_0616,15,0,2024-06-16T00:50:56.434Z,english_439.wav,0,0,6007,,,,,3,0.3,-65.89684329,0.19153473
MJH_0616,15,0,2024-06-16T00:50:56.434Z,english_439.wav,0,0,6007,,,,,4,0.32341667,-18.09409032,1.29438445
MJH_0616,16,0,2024-06-16T00:50:56.434Z,english_817.wav,0,1,3688,,,,,0,0,58.06319333,0.77394069
MJH_0616,16,0,2024-06-16T00:50:56.434Z,english_817.wav,0,1,3688,,,,,1,0.1,0.91206114,0.81778066
MJH_0616,16,0,2024-06-16T00:50:56.434Z,english_817.wav,0,1,3688,,,,,2,0.2,-27.80824757,1.48752315
MJH_0616,16,0,2024-06-16T00:50:56.434Z,english_817.wav,0,1,3688,,,,,3,0.3,-73.7491051,0.41888886
MJH_0616,16,0,2024-06-16T00:50:56.434Z,english_817.wav,0,1,3688,,,,,4,0.32341667,69.75698508,0.93012443
MJH_0616,17,0,2024-06-16T00:50:56.434Z,english_205.wav,0,0,5853,,,,,0,0,55.03693902,1.41699591
MJH_0616,17,0,2024-06-16T00:50:56.434Z,english_205.wav,0,0,5853,,,,,1,0.1,59.05347117,0.25749205
MJH_0616,17,0,2024-06-16T00:50:56.434Z,english_205.wav,0,0,5853,,,,,2,0.2,-51.93258482,1.78695407
MJH_0616,17,0,2024-06-16T00:50:56.434Z,english_205.wav,0,0,5853,,,,,3,0.3,-18.66886592,0.11157042
MJH_0616,17,0,2024-06-16T00:50:56.434Z,english_205.wav,0,0,5853,,,,,4,0.32341667,-25.16213195,1.74030417
MJH_0616,18,0,2024-06-16T00:50:56.434Z,english_609.wav,0,1,1954,,,,,0,0,93.61263388,0.51617504
MJH_0616,18,0,2024-06-16T00:50:56.434Z,english_609.wav,0,1,1954,,,,,1,0.1,38.40290552,0.56544547
MJH_0616,18,0,2024-06-16T00:50:56.434Z,english_609.wav,0,1,1954,,,,,2,0.2,-21.94770243,0.43418402
MJH_0616,18,0,2024-06-16T00:50:56.434Z,english_609.wav,0,1,1954,,,,,3,0.3,-11.92302894,1.38818447
MJH_0616,18,0,2024-06-16T00:50:56.434Z,english_609.wav,0,1,1954,,,,,4,0.32341667,30.65806027,1.36410066
MJH_0616,19,0,2024-06-16T00:50:56.434Z,english_735.wav,0,0,907,,,,,0,0,51.40973306,0.29099813
MJH_0616,19,0,2024-06-16T00:50:56.434Z,english_735.wav,0,0,907,,,,,1,0.1,-5.42867159,1.62833375
MJH_0616,19,0,2024-06-16T00:50:56.434Z,english_735.wav,0,0,907,,,,,2,0.2,13.71146629,0.32849247
MJH_0616,19,0,2024-06-16T00:50:56.434Z,english_735.wav,0,0,907,,,,,3,0.3,-14.17202169,0.46991549
MJH_0616,19,0,2024-06-16T00:50:56.434Z,english_735.wav,0,0,907,,,,,4,0.32341667,14.98699592,0.51625305
MJH_0616,20,0,2024-06-16T00:50:56.434Z,english_401.wav,0,0,1426,,,,,0,0,-70.37998858,1.11338134
MJH_0616,20,0,2024-06-16T00:50:56.434Z,english_401.wav,0,0,1426,,,,,1,0.1,49.27188779,1.59691292
MJH_0616,20,0,2024-06-16T00:50:56.434Z,english_401.wav,0,0,1426,,,,,2,0.2,5.09566389,0.88679935
MJH_0616,20,0,2024-06-16T00:50:56.434Z,english_401.wav,0,0,1426,,,,,3,0.3,58.42368176,1.89749174
MJH_0616,20,0,2024-06-16T00:50:56.434Z,english_401.wav,0,0,1426,,,,,4,0.32341667,-43.06407799,1.35831765
MJH_0616,21,0,2024-06-16T00:50:56.434Z,english_342.wav,0,1,1283,,,,,0,0,78.00911228,0.99673345
MJH_0616,21,0,2024-06-16T00:50:56.434Z,english_342.wav,0,1,1283,,,,,1,0.1,-28.67768894,1.80563483
MJH_0616,21,0,2024-06-16T00:50:56.434Z,english_342.wav,0,1,1283,,,,,2,0.2,73.55618202,1.38552336
MJH_0616,21,0,2024-06-16T00:50:56.434Z,english_342.wav,0,1,1283,,,,,3,0.3,93.0509223,0.17145116
MJH_0616,21,0,2024-06-16T00:50:56.434Z,english_342.wav,0,1,1283,,,,,4,0.32341667,-2.74816459,0.15059009
MJH_0616,22,0,2024-06-16T00:50:56.434Z,english_72.wav,0,0,3782,,,,,0,0,3.79788214,1.04175162
MJH_0616,22,0,2024-06-16T00:50:56.434Z,english_72.wav,0,0,3782,,,,,1,0.1,-35.73428138,0.91099175
MJH_0616,22,0,2024-06-16T00:50:56.434Z,english_72.wav,0,0,3782,,,,,2,0.2,-30.83181688,0.34322307
MJH_0616,22,0,2024-06-16T00:50:56.434Z,english_72.wav,0,0,3782,,,,,3,0.3,-68.4260973,1.39599539
MJH_0616,22,0,2024-06-16T00:50:56.434Z,english_72.wav,0,0,3782,,,,,4,0.32341667,-10.87667298,0.78322702
MJH_0616,23,0,2024-06-16T00:50:56.434Z,english_965.wav,0,0,1610,,,,,0,0,-19.49526798,1.71910172
MJH_0616,23,0,2024-06-16T00:50:56.434Z,english_965.wav,0,0,1610,,,,,1,0.1,-33.46093545,1.16323176
MJH_0616,23,0,2024-06-16T00:50:56.434Z,english_965.wav,0,0,1610,,,,,2,0.2,95.24809114,0.56514201
MJH_0616,23,0,2024-06-16T00:50:56.434Z,english_965.wav,0,0,1610,,,,,3,0.3,26.23968625,1.82539978
MJH_0616,23,0,2024-06-16T00:50:56.434Z,english_965.wav,0,0,1610,,,,,4,0.32341667,15.70217089,1.7659451
MJH_0616,24,0,2024-06-16T00:50:56.434Z,english_834.wav,0,1,1054,,,,,0,0,-64.94927172,0.98752234
MJH_0616,24,0,2024-06-16T00:50:56.434Z,english_834.wav,0,1,1054,,,,,1,0.1,49.61052881,1.31122352
MJH_0616,24,0,2024-06-16T00:50:56.434Z,english_834.wav,0,1,1054,,,,,2,0.2,-25.04715585,0.09065599
MJH_0616,24,0,2024-06-16T00:50:56.434Z,english_834.wav,0,1,1054,,,,,3,0.3,95.09819394,1.07854905
MJH_0616,24,0,2024-06-16T00:50:56.434Z,english_834.wav,0,1,1054,,,,,4,0.32341667,84.16953653,1.76453498
MJH_0616,25,0,2024-06-16T00:50:56.434Z,english_10.wav,0,0,1218,,,,,0,0,-80.92247099,1.33142191
MJH_0616,25,0,2024-06-16T00:50:56.434Z,english_10.wav,0,0,1218,,,,,1,0.1,11.56157957,0.6588087
MJH_0616,25,0,2024-06-16T00:50:56.434Z,english_10.wav,0,0,1218,,,,,2,0.2,72.61501241,1.62851887
MJH_0616,25,0,2024-06-16T00:50:56.434Z,english_10.wav,0,0,1218,,,,,3,0.3,91.01400741,1.4109269
MJH_0616,25,0,2024-06-16T00:50:56.434Z,english_10.wav,0,0,1218,,,,,4,0.32341667,-64.58672822,0.76235223
MJH_0616,26,0,2024-06-16T00:50:56.434Z,english_250.wav,0,0,948,,,,,0,0,15.9272347,0.97372592
MJH_0616,26,0,2024-06-16T00:50:56.434Z,english_250.wav,0,0,948,,,,,1,0.1,-20.77070657,1.45189783
MJH_0616,26,0,2024-06-16T00:50:56.434Z,english_250.wav,0,0,948,,,,,2,0.2,-20.08480075,0.50513237
MJH_0616,26,0,2024-06-16T00:50:56.434Z,english_250.wav,0,0,948,,,,,3,0.3,-29.82576937,1.38910207
MJH_0616,26,0,2024-06-16T00:50:56.434Z,english_250.wav,0,0,948,,,,,4,0.32341667,87.83532187,1.51614456
MJH_0616,27,0,2024-06-16T00:50:56.434Z,english_648.wav,0,1,3027,,,,,0,0,-36.17742204,0.57576188
MJH_0616,27,0,2024-06-16T00:50:56.434Z,english_648.wav,0,1,3027,,,,,1,0.1,30.10697278,1.1310908
MJH_0616,27,0,2024-06-16T00:50:56.434Z,english_648.wav,0,1,3027,,,,,2,0.2,-67.31320052,1.67112441
MJH_0616,27,0,2024-06-16T00:50:56.434Z,english_648.wav,0,1,3027,,,,,3,0.3,-10.94597212,0.39641968
MJH_0616,27,0,2024-06-16T00:50:56.434Z,english_648.wav,0,1,3027,,,,,4,0.32341667,72.59648235,1.93789316
MJH_0616,28,0,2024-06-16T00:50:56.434Z,english_202.wav,0,0,1068,,,,,0,0,-30.7410802,1.48506999
MJH_0616,28,0,2024-06-16T00:50:56.434Z,english_202.wav,0,0,1068,,,,,1,0.1,-19.68361402,1.61937363
MJH_0616,28,0,2024-06-16T00:50:56.434Z,english_202.wav,0,0,1068,,,,,2,0.2,-9.93463647,0.73964021
MJH_0616,28,0,2024-06-16T00:50:56.434Z,english_202.wav,0,0,1068,,,,,3,0.3,-7.1971022,1.93955383
MJH_0616,28,0,2024-06-16T00:50:56.434Z,english_202.wav,0,0,1068,,,,,4,0.32341667,-23.97797133,1.43199581
MJH_0616,29,0,2024-06-16T00:50:56.434Z,english_320.wav,0,1,1091,,,,,0,0,-85.59568725,1.40519879
MJH_0616,29,0,2024-06-16T00:50:56.434Z,english_320.wav,0,1,1091,,,,,1,0.1,-85.79055124,0.4213256
MJH_0616,29,0,2024-06-16T00:50:56.434Z,english_320.wav,0,1,1091,,,,,2,0.2,-34.52195848,0.82537755
MJH_0616,29,0,2024-06-16T00:50:56.434Z,english_320.wav,0,1,1091,,,,,3,0.3,14.03031204,0.50617831
MJH_0616,29,0,2024-06-16T00:50:56.434Z,english_320.wav,0,1,1091,,,,,4,0.32341667,45.83597199,1.22725326
MJH_0616,30,0,2024-06-16T00:50:56.434Z,english_663.wav,0,0,2920,,,,,0,0,55.84438863,1.29444713
MJH_0616,30,0,2024-06-16T00:50:56.434Z,english_663.wav,0,0,2920,,,,,1,0.1,-89.02249371,0.90215198
MJH_0616,30,0,2024-06-16T00:50:56.434Z,english_663.wav,0,0,2920,,,,,2,0.2,-13.61345685,1.61104603
MJH_0616,30,0,2024-06-16T00:50:56.434Z,english_663.wav,0,0,2920,,,,,3,0.3,14.50375693,0.31375715
MJH_0616,30,0,2024-06-16T00:50:56.434Z,english_663.wav,0,0,2920,,,,,4,0.32341667,80.63633164,1.01784406
MJH_0616,31,0,2024-06-16T00:50:56.434Z,english_957.wav,0,0,1109,,,,,0,0,-8.34255742,0.77577071
MJH_0616,31,0,2024-06-16T00:50:56.434Z,english_957.wav,0,0,1109,,,,,1,0.1,-36.8236739,1.35435363
MJH_0616,31,0,2024-06-16T00:50:56.434Z,english_957.wav,0,0,1109,,,,,2,0.2,6.68978896,0.94592229
MJH_0616,31,0,2024-06-16T00:50:56.434Z,english_957.wav,0,0,1109,,,,,3,0.3,-85.51463088,0.8988777
MJH_0616,31,0,2024-06-16T00:50:56.434Z,english_957.wav,0,0,1109,,,,,4,0.32341667,-16.82289389,0.34403417
MJH_0616,32,0,2024-06-16T00:50:56.434Z,english_523.wav,0,0,1558,,,,,0,0,8.07414344,0.20594791
MJH_0616,32,0,2024-06-16T00:50:56.434Z,english_523.wav,0,0,1558,,,,,1,0.1,27.61667564,1.87511385
MJH_0616,32,0,2024-06-16T00:50:56.434Z,english_523.wav,0,0,1558,,,,,2,0.2,12.25175146,0.19246655
MJH_0616,32,0,2024-06-16T00:50:56.434Z,english_523.wav,0,0,1558,,,,,3,0.3,5.7333769,0.42766967
MJH_0616,32,0,2024-06-16T00:50:56.434Z,english_523.wav,0,0,1558,,,,,4,0.32341667,77.72310536,1.43882185
MJH_0616,33,0,2024-06-16T00:50:56.434Z,english_582.wav,0,0,2453,,,,,0,0,-29.81423477,0.27230029
MJH_0616,33,0,2024-06-16T00:50:56.434Z,english_582.wav,0,0,2453,,,,,1,0.1,37.42565533,0.84765039
MJH_0616,33,0,2024-06-16T00:50:56.434Z,english_582.wav,0,0,2453,,,,,2,0.2,79.58894888,1.99526631
MJH_0616,33,0,2024-06-16T00:50:56.434Z,english_582.wav,0,0,2453,,,,,3,0.3,49.55779855,1.55519667
MJH_0616,33,0,2024-06-16T00:50:56.434Z,english_582.wav,0,0,2453,,,,,4,0.32341667,54.00509918,1.66653349
MJH_0616,34,0,2024-06-16T00:50:56.434Z,english_411.wav,0,0,2686,,,,,0,0,75.357241,0.83773649
MJH_0616,34,0,2024-06-16T00:50:56.434Z,english_411.wav,0,0,2686,,,,,1,0.1,-55.75688593,0.80885485
MJH_0616,34,0,2024-06-16T00:50:56.434Z,english_411.wav,0,0,2686,,,,,2,0.2,61.10111178,0.61144368
MJH_0616,34,0,2024-06-16T00:50:56.434Z,english_411.wav,0,0,2686,,,,,3,0.3,90.25367142,0.73863407
MJH_0616,34,0,2024-06-16T00:50:56.434Z,english_411.wav,0,0,2686,,,,,4,0.32341667,26.85831553,0.4624235
MJH_0616,35,0,2024-06-16T00:50:56.434Z,english_82.wav,0,0,1856,,,,,0,0,-21.02351082,0.76668052
MJH_0616,35,0,2024-06-16T00:50:56.434Z,english_82.wav,0,0,1856,,,,,1,0.1,1.53612588,0.94640395
MJH_0616,35,0,2024-06-16T00:50:56.434Z,english_82.wav,0,0,1856,,,,,2,0.2,82.9198569,1.02754902
MJH_0616,35,0,2024-06-16T00:50:56.434Z,english_82.wav,0,0,1856,,,,,3,0.3,67.34737065,1.57368428
MJH_0616,35,0,2024-06-16T00:50:56.434Z,english_82.wav,0,0,1856,,,,,4,0.32341667,-34.9418752,0.67195212
MJH_0616,36,0,2024-06-16T00:50:56.434Z,english_350.wav,0,0,77164,,,,,0,0,97.64268741,0.61487918
MJH_0616,36,0,2024-06-16T00:50:56.434Z,english_350.wav,0,0,77164,,,,,1,0.1,23.96704837,0.40988424
MJH_0616,36,0,2024-06-16T00:50:56.434Z,english_350.wav,0,0,77164,,,,,2,0.2,50.30792237,0.86872158
MJH_0616,36,0,2024-06-16T00:50:56.434Z,english_350.wav,0,0,77164,,,,,3,0.3,71.77937185,1.01783109
MJH_0616,36,0,2024-06-16T00:50:56.434Z,english_350.wav,0,0,77164,,,,,4,0.32341667,-64.81416361,0.68761283
MJH_0616,37,0,2024-06-16T00:50:56.434Z,english_324.wav,0,1,1577,,,,,0,0,49.07155908,0.10864525
MJH_0616,37,0,2024-06-16T00:50:56.434Z,english_324.wav,0,1,1577,,,,,1,0.1,-58.77252084,1.61132735
MJH_0616,37,0,2024-06-16T00:50:56.434Z,english_324.wav,0,1,1577,,,,,2,0.2,-55.40155542,0.60180616
MJH_0616,37,0,2024-06-16T00:50:56.434Z,english_324.wav,0,1,1577,,,,,3,0.3,19.02224292,0.93555132
MJH_0616,37,0,2024-06-16T00:50:56.434Z,english_324.wav,0,1,1577,,,,,4,0.32341667,21.20382854,0.34417591
MJH_0616,38,0,2024-06-16T00:50:56.434Z,english_240.wav,0,0,1798,,,,,0,0,-96.55121617,1.04823872
MJH_0616,38,0,2024-06-16T00:50:56.434Z,english_240.wav,0,0,1798,,,,,1,0.1,73.99435309,1.11556714
MJH_0616,38,0,2024-06-16T00:50:56.434Z,english_240.wav,0,0,1798,,,,,2,0.2,-27.17256968,0.68795106
MJH_0616,38,0,2024-06-16T00:50:56.434Z,english_240.wav,0,0,1798,,,,,3,0.3,-2.05185553,1.30325309
MJH_0616,38,0,2024-06-16T00:50:56.434Z,english_240.wav,0,0,1798,,,,,4,0.32341667,80.37406519,0.86977317
MJH_0616,39,0,2024-06-16T00:50:56.434Z,english_891.wav,0,1,3898,,,,,0,0,21.29241244,0.7419472
MJH_0616,39,0,2024-06-16T00:50:56.434Z,english_891.wav,0,1,3898,,,,,1,0.1,-1.23713702,1.09270952
MJH_0616,39,0,2024-06-16T00:50:56.434Z,english_891.wav,0,1,3898,,,,,2,0.2,-74.86460599,0.8129571
MJH_0616,39,0,2024-06-16T00:50:56.434Z,english_891.wav,0,1,3898,,,,,3,0.3,18.81587233,0.16019775
MJH_0616,39,0,2024-06-16T00:50:56.434Z,english_891.wav,0,1,3898,,,,,4,0.32341667,35.3489582,1.17476401
MJH_0616,40,0,2024-06-16T00:50:56.434Z,english_865.wav,0,0,6603,,,,,0,0,57.45647421,1.64387024
MJH_0616,40,0,2024-06-16T00:50:56.434Z,english_865.wav,0,0,6603,,,,,1,0.1,-62.30549211,0.05749027
MJH_0616,40,0,2024-06-16T00:50:56.434Z,english_865.wav,0,0,6603,,,,,2,0.2,-35.85649312,0.09554773
MJH_0616,40,0,2024-06-16T00:50:56.434Z,english_865.wav,0,0,6603,,,,,3,0.3,55.00701181,1.62598434
MJH_0616,40,0,2024-06-16T00:50:56.434Z,english_865.wav,0,0,6603,,,,,4,0.32341667,-39.97662747,0.71232625
MJH_0616,41,0,2024-06-16T00:50:56.434Z,english_963.wav,0,0,1717,,,,,0,0,-60.03327616,0.86711865
MJH_0616,41,0,2024-06-16T00:50:56.434Z,english_963.wav,0,0,1717,,,,,1,0.1,-15.51067414,1.69273621
MJH_0616,41,0,2024-06-16T00:50:56.434Z,english_963.wav,0,0,1717,,,,,2,0.2,59.36715957,0.74157302
MJH_0616,41,0,2024-06-16T00:50:56.434Z,english_963.wav,0,0,1717,,,,,3,0.3,-98.70464219,1.73078555
MJH_0616,41,0,2024-06-16T00:50:56.434Z,english_963.wav,0,0,1717,,,,,4,0.32341667,37.26723218,1.37482324
MJH_0616,42,0,2024-06-16T00:50:56.434Z,english_88.wav,0,0,2340,,,,,0,0,26.55889683,1.3027014
MJH_0616,42,0,2024-06-16T00:50:56.434Z,english_88.wav,0,0,2340,,,,,1,0.1,31.00356365,0.67122251
MJH_0616,42,0,2024-06-16T00:50:56.434Z,english_88.wav,0,0,2340,,,,,2,0.2,-60.56468942,0.59704477
MJH_0616,42,0,2024-06-16T00:50:56.434Z,english_88.wav,0,0,2340,,,,,3,0.3,-56.53017227,1.68194373
MJH_0616,42,0,2024-06-16T00:50:56.434Z,english_88.wav,0,0,2340,,,,,4,0.32341667,-78.90279024,0.42277005
MJH_0616,43,0,2024-06-16T00:50:56.434Z,english_286.wav,0,0,1217,,,,,0,0,-94.9495111,0.49849168
MJH_0616,43,0,2024-06-16T00:50:56.434Z,english_286.wav,0,0,1217,,,,,1,0.1,-25.05656786,1.27672914
MJH_0616,43,0,2024-06-16T00:50:56.434Z,english_286.wav,0,0,1217,,,,,2,0.2,59.61150177,0.14515846
MJH_0616,43,0,2024-06-16T00:50:56.434Z,english_286.wav,0,0,1217,,,,,3,0.3,-32.97544875,1.67164973
MJH_0616,43,0,2024-06-16T00:50:56.434Z,english_286.wav,0,0,1217,,,,,4,0.32341667,7.58095242,0.86492177
MJH_0616,44,0,2024-06-16T00:50:56.434Z,english_504.wav,0,0,1107,,,,,0,0,4.11468456,0.75379057
MJH_0616,44,0,2024-06-16T00:50:56.434Z,english_504.wav,0,0,1107,,,,,1,0.1,70.56620437,1.18348717
MJH_0616,44,0,2024-06-16T00:50:56.434Z,english_504.wav,0,0,1107,,,,,2,0.2,3.26767498,0.25360202
MJH_0616,44,0,2024-06-16T00:50:56.434Z,english_504.wav,0,0,1107,,,,,3,0.3,-3.14493553,1.87094491
MJH_0616,44,0,2024-06-16T00:50:56.434Z,english_504.wav,0,0,1107,,,,,4,0.32341667,43.57926014,0.110125
MJH_0616,45,0,2024-06-16T00:50:56.434Z,english_866.wav,0,0,984,,,,,0,0,-75.90204766,0.10539101
MJH_0616,45,0,2024-06-16T00:50:56.434Z,english_866.wav,0,0,984,,,,,1,0.1,-89.66881049,1.63294926
MJH_0616,45,0,2024-06-16T00:50:56.434Z,english_866.wav,0,0,984,,,,,2,0.2,-86.78535298,0.21421971
MJH_0616,45,0,2024-06-16T00:50:56.434Z,english_866.wav,0,0,984,,,,,3,0.3,50.96369643,1.47001367
MJH_0616,45,0,2024-06-16T00:50:56.434Z,english_866.wav,0,0,984,,,,,4,0.32341667,36.94157773,1.56453662
MJH_0616,46,0,2024-06-16T00:50:56.434Z,english_203.wav,0,0,1512,,,,,0,0,-22.28277813,1.31475846
MJH_0616,46,0,2024-06-16T00:50:56.434Z,english_203.wav,0,0,1512,,,,,1,0.1,13.21695477,1.08922412
MJH_0616,46,0,2024-06-16T00:50:56.434Z,english_203.wav,0,0,1512,,,,,2,0.2,63.23651974,0.55450355
MJH_0616,46,0,2024-06-16T00:50:56.434Z,english_203.wav,0,0,1512,,,,,3,0.3,-20.14830746,1.72034007
MJH_0616,46,0,2024-06-16T00:50:56.434Z,english_203.wav,0,0,1512,,,,,4,0.32341667,-78.55276631,0.92481053
MJH_0616,47,0,2024-06-16T00:50:56.434Z,english_893.wav,0,0,708,,,,,0,0,17.19699967,0.82427167
MJH_0616,47,0,2024-06-16T00:50:56.434Z,english_893.wav,0,0,708,,,,,1,0.1,57.52525856,1.49866988
MJH_0616,47,0,2024-06-16T00:50:56.434Z,english_893.wav,0,0,708,,,,,2,0.2,13.30661706,0.84536161
MJH_0616,47,0,2024-06-16T00:50:56.434Z,english_893.wav,0,0,708,,,,,3,0.3,33.02687073,0.10168024
MJH_0616,47,0,2024-06-16T00:50:56.434Z,english_893.wav,0,0,708,,,,,4,0.32341667,-64.43392463,0.7117056
MJH_0616,48,0,2024-06-16T00:50:56.434Z,english_192.wav,0,1,5096,,,,,0,0,78.04280759,0.73118961
MJH_0616,48,0,2024-06-16T00:50:56.434Z,english_192.wav,0,1,5096,,,,,1,0.1,-85.52188616,0.7164391
MJH_0616,48,0,2024-06-16T00:50:56.434Z,english_192.wav,0,1,5096,,,,,2,0.2,-14.2601202,1.68273927
MJH_0616,48,0,2024-06-16T00:50:56.434Z,english_192.wav,0,1,5096,,,,,3,0.3,29.76504865,0.51501418
MJH_0616,48,0,2024-06-16T00:50:56.434Z,english_192.wav,0,1,5096,,,,,4,0.32341667,82.81048791,1.16986294
MJH_0616,49,0,2024-06-16T00:50:56.434Z,english_3.wav,0,1,1982,,,,,0,0,-57.66547148,1.73485112
MJH_0616,49,0,2024-06-16T00:50:56.434Z,english_3.wav,0,1,1982,,,,,1,0.1,-70.60568286,1.4226462
MJH_0616,49,0,2024-06-16T00:50:56.434Z,english_3.wav,0,1,1982,,,,,2,0.2,70.86912423,1.06235888
MJH_0616,49,0,2024-06-16T00:50:56.434Z,english_3.wav,0,1,1982,,,,,3,0.3,-17.39285893,1.05619652
MJH_0616,49,0,2024-06-16T00:50:56.434Z,english_3.wav,0,1,1982,,,,,4,0.32341667,-60.61780379,1.35606233
MJH_0616,50,1,2024-06-16T00:50:56.434Z,english_127.wav,0,0,2163,,,,,0,0,-69.70750805,0.25070661
MJH_0616,50,1,2024-06-16T00:50:56.434Z,english_127.wav,0,0,2163,,,,,1,0.1,-23.17484413,1.1475992
MJH_0616,50,1,2024-06-16T00:50:56.434Z,english_127.wav,0,0,2163,,,,,2,0.2,16.27024862,1.99299371
MJH_0616,50,1,2024-06-16T00:50:56.434Z,english_127.wav,0,0,2163,,,,,3,0.3,-50.08342814,0.57749513
MJH_0616,50,1,2024-06-16T00:50:56.434Z,english_127.wav,0,0,2163,,,,,4,0.32341667,22.60332787,1.27832678
MJH_0616,51,1,2024-06-16T00:50:56.434Z,english_597.wav,0,0,4544,,,,,0,0,-83.66792118,0.17389721
MJH_0616,51,1,2024-06-16T00:50:56.434Z,english_597.wav,0,0,4544,,,,,1,0.1,-19.98744657,0.39349672
MJH_0616,51,1,2024-06-16T00:50:56.434Z,english_597.wav,0,0,4544,,,,,2,0.2,-30.38458549,1.97590818
MJH_0616,51,1,2024-06-16T00:50:56.434Z,english_597.wav,0,0,4544,,,,,3,0.3,-63.4406446,1.84988074
MJH_0616,51,1,2024-06-16T00:50:56.434Z,english_597.wav,0,0,4544,,,,,4,0.32341667,25.67812426,1.17620678
MJH_0616,52,1,2024-06-16T00:50:56.434Z,english_698.wav,0,0,1148,,,,,0,0,-86.30999669,1.66322514
MJH_0616,52,1,2024-06-16T00:50:56.434Z,english_698.wav,0,0,1148,,,,,1,0.1,-91.60158578,1.16924533
MJH_0616,52,1,2024-06-16T00:50:56.434Z,english_698.wav,0,0,1148,,,,,2,0.2,-41.16326515,1.29610919
MJH_0616,52,1,2024-06-16T00:50:56.434Z,english_698.wav,0,0,1148,,,,,3,0.3,7.86252123,1.21006153
MJH_0616,52,1,2024-06-16T00:50:56.434Z,english_698.wav,0,0,1148,,,,,4,0.32341667,25.04181708,1.83628755
MJH_0616,53,1,2024-06-16T00:50:56.434Z,english_752.wav,0,0,5264,,,,,0,0,-89.50526135,1.26833375
MJH_0616,53,1,2024-06-16T00:50:56.434Z,english_752.wav,0,0,5264,,,,,1,0.1,16.42916277,1.25445964
MJH_0616,53,1,2024-06-16T00:50:56.434Z,english_752.wav,0,0,5264,,,,,2,0.2,-62.11724863,1.84048801
MJH_0616,53,1,2024-06-16T00:50:56.434Z,english_752.wav,0,0,5264,,,,,3,0.3,-22.7839786,0.96813738
MJH_0616,53,1,2024-06-16T00:50:56.434Z,english_752.wav,0,0,5264,,,,,4,0.32341667,21.77934146,1.95604557
MJH_0616,54,1,2024-06-16T00:50:56.434Z,english_741.wav,0,1,3319,,,,,0,0,-74.62614727,1.92216761
MJH_0616,54,1,2024-06-16T00:50:56.434Z,english_741.wav,0,1,3319,,,,,1,0.1,33.834367,1.50741835
MJH_0616,54,1,2024-06-16T00:50:56.434Z,english_741.wav,0,1,3319,,,,,2,0.2,-60.21329901,0.74273648
MJH_0616,54,1,2024-06-16T00:50:56.434Z,english_741.wav,0,1,3319,,,,,3,0.3,-95.39639135,0.98175705
MJH_0616,54,1,2024-06-16T00:50:56.434Z,english_741.wav,0,1,3319,,,,,4,0.32341667,3.10560698,0.9878567
MJH_0616,55,1,2024-06-16T00:50:56.434Z,english_273.wav,0,0,874,,,,,0,0,-44.98289573,1.94838534
MJH_0616,55,1,2024-06-16T00:50:56.434Z,english_273.wav,0,0,874,,,,,1,0.1,24.32546199,0.68888608
MJH_0616,55,1,2024-06-16T00:50:56.434Z,english_273.wav,0,0,874,,,,,2,0.2,61.84573583,1.95265796
MJH_0616,55,1,2024-06-16T00:50:56.434Z,english_273.wav,0,0,874,,,,,3,0.3,-1.88803465,1.62060328
MJH_0616,55,1,2024-06-16T00:50:56.434Z,english_273.wav,0,0,874,,,,,4,0.32341667,57.02125087,0.94638053
MJH_0616,56,1,2024-06-16T00:50:56.434Z,english_905.wav,0,0,1993,,,,,0,0,73.76258642,1.30259847
MJH_0616,56,1,2024-06-16T00:50:56.434Z,english_905.wav,0,0,1993,,,,,1,0.1,49.84186991,0.15786419
MJH_0616,56,1,2024-06-16T00:50:56.434Z,english_905.wav,0,0,1993,,,,,2,0.2,-84.55275191,0.47562292
MJH_0616,56,1,2024-06-16T00:50:56.434Z,english_905.wav,0,0,1993,,,,,3,0.3,70.45460649,1.69272047
MJH_0616,56,1,2024-06-16T00:50:56.434Z,english_905.wav,0,0,1993,,,,,4,0.32341667,-84.87734561,1.28570309
MJH_0616,57,1,2024-06-16T00:50:56.434Z,english_784.wav,0,0,1141,,,,,0,0,8.33598236,1.26617784
MJH_0616,57,1,2024-06-16T00:50:56.434Z,english_784.wav,0,0,1141,,,,,1,0.1,-95.44591543,0.3784594
MJH_0616,57,1,2024-06-16T00:50:56.434Z,english_784.wav,0,0,1141,,,,,2,0.2,-36.57026964,1.54775832
MJH_0616,57,1,2024-06-16T00:50:56.434Z,english_784.wav,0,0,1141,,,,,3,0.3,21.49915707,0.94378056
MJH_0616,57,1,2024-06-16T00:50:56.434Z,english_784.wav,0,0,1141,,,,,4,0.32341667,14.63720491,0.98781772
MJH_0616,58,1,2024-06-16T00:50:56.434Z,english_466.wav,0,1,855,,,,,0,0,59.64739432,1.91119383
MJH_0616,58,1,2024-06-16T00:50:56.434Z,english_466.wav,0,1,855,,,,,1,0.1,-20.63646321,1.29572765
MJH_0616,58,1,2024-06-16T00:50:56.434Z,english_466.wav,0,1,855,,,,,2,0.2,62.86141463,0.99944191
MJH_0616,58,1,2024-06-16T00:50:56.434Z,english_466.wav,0,1,855,,,,,3,0.3,-65.74461877,1.01221774
MJH_0616,58,1,2024-06-16T00:50:56.434Z,english_466.wav,0,1,855,,,,,4,0.32341667,44.70090984,0.89697717
MJH_0616,59,1,2024-06-16T00:50:56.434Z,english_833.wav,0,0,4761,,,,,0,0,18.29317799,0.49951345
MJH_0616,59,1,2024-06-16T00:50:56.434Z,english_833.wav,0,0,4761,,,,,1,0.1,20.01945042,1.12176851
MJH_0616,59,1,2024-06-16T00:50:56.434Z,english_833.wav,0,0,4761,,,,,2,0.2,-77.99741705,0.59960618
MJH_0616,59,1,2024-06-16T00:50:56.434Z,english_833.wav,0,0,4761,,,,,3,0.3,19.36192697,0.50557433
MJH_0616,59,1,2024-06-16T00:50:56.434Z,english_833.wav,0,0,4761,,,,,4,0.32341667,43.06785988,0.3288339
MJH_0616,60,1,2024-06-16T00:50:56.434Z,english_395.wav,0,1,1387,,,,,0,0,12.69072165,1.18485033
MJH_0616,60,1,2024-06-16T00:50:56.434Z,english_395.wav,0,1,1387,,,,,1,0.1,16.88915645,0.64230571
MJH_0616,60,1,2024-06-16T00:50:56.434Z,english_395.wav,0,1,1387,,,,,2,0.2,49.23789678,0.95454364
MJH_0616,60,1,2024-06-16T00:50:56.434Z,english_395.wav,0,1,1387,,,,,3,0.3,39.87613746,0.75997929
MJH_0616,60,1,2024-06-16T00:50:56.434Z,english_395.wav,0,1,1387,,,,,4,0.32341667,70.90138048,1.50770695
MJH_0616,61,1,2024-06-16T00:50:56.434Z,english_720.wav,0,0,1401,,,,,0,0,85.23240719,1.23446246
MJH_0616,61,1,2024-06-16T00:50:56.434Z,english_720.wav,0,0,1401,,,,,1,0.1,78.65958559,0.77382892
MJH_0616,61,1,2024-06-16T00:50:56.434Z,english_720.wav,0,0,1401,,,,,2,0.2,-56.45174874,0.48705718
MJH_0616,61,1,2024-06-16T00:50:56.434Z,english_720.wav,0,0,1401,,,,,3,0.3,71.88898266,1.42335328
MJH_0616,61,1,2024-06-16T00:50:56.434Z,english_720.wav,0,0,1401,,,,,4,0.32341667,-9.13482,1.32495619
MJH_0616,62,1,2024-06-16T00:50:56.434Z,english_491.wav,0,1,1138,,,,,0,0,-58.06424917,1.23740358
MJH_0616,62,1,2024-06-16T00:50:56.434Z,english_491.wav,0,1,1138,,,,,1,0.1,-10.73132445,0.97891215
MJH_0616,62,1,2024-06-16T00:50:56.434Z,english_491.wav,0,1,1138,,,,,2,0.2,17.9230478,0.17588849
MJH_0616,62,1,2024-06-16T00:50:56.434Z,english_491.wav,0,1,1138,,,,,3,0.3,-41.27614743,0.52166982
MJH_0616,62,1,2024-06-16T00:50:56.434Z,english_491.wav,0,1,1138,,,,,4,0.32341667,-30.17832464,1.65640468
MJH_0616,63,1,2024-06-16T00:50:56.434Z,english_508.wav,0,0,894,,,,,0,0,-21.23116318,1.79614382
MJH_0616,63,1,2024-06-16T00:50:56.434Z,english_508.wav,0,0,894,,,,,1,0.1,-27.56583205,0.60449395
MJH_0616,63,1,2024-06-16T00:50:56.434Z,english_508.wav,0,0,894,,,,,2,0.2,64.21774851,0.56582153
MJH_0616,63,1,2024-06-16T00:50:56.434Z,english_508.wav,0,0,894,,,,,3,0.3,-9.24056951,1.01665474
MJH_0616,63,1,2024-06-16T00:50:56.434Z,english_508.wav,0,0,894,,,,,4,0.32341667,-9.74670904,0.78905044
MJH_0616,64,1,2024-06-16T00:50:56.434Z,english_199.wav,0,1,2526,,,,,0,0,-24.89956817,0.07306367
MJH_0616,64,1,2024-06-16T00:50:56.434Z,english_199.wav,0,1,2526,,,,,1,0.1,-48.49200931,0.10334581
MJH_0616,64,1,2024-06-16T00:50:56.434Z,english_199.wav,0,1,2526,,,,,2,0.2,-89.66548778,1.49062114
MJH_0616,64,1,2024-06-16T00:50:56.434Z,english_199.wav,0,1,2526,,,,,3,0.3,29.20785813,0.36717513
MJH_0616,64,1,2024-06-16T00:50:56.434Z,english_199.wav,0,1,2526,,,,,4,0.32341667,-88.68286362,1.33179809
MJH_0616,65,1,2024-06-16T00:50:56.434Z,english_267.wav,0,0,2096,,,,,0,0,-83.13365237,1.47105267
MJH_0616,65,1,2024-06-16T00:50:56.434Z,english_267.wav,0,0,2096,,,,,1,0.1,76.30308178,0.87521108
MJH_0616,65,1,2024-06-16T00:50:56.434Z,english_267.wav,0,0,2096,,,,,2,0.2,53.87961391,1.04060287
MJH_0616,65,1,2024-06-16T00:50:56.434Z,english_267.wav,0,0,2096,,,,,3,0.3,62.72167491,0.25080793
MJH_0616,65,1,2024-06-16T00:50:56.434Z,english_267.wav,0,0,2096,,,,,4,0.32341667,-33.79574379,1.11989054
MJH_0616,66,1,2024-06-16T00:50:56.434Z,english_933.wav,0,0,5248,,,,,0,0,-48.12258855,1.54767366
MJH_0616,66,1,2024-06-16T00:50:56.434Z,english_933.wav,0,0,5248,,,,,1,0.1,27.26905516,0.30219473
MJH_0616,66,1,2024-06-16T00:50:56.434Z,english_933.wav,0,0,5248,,,,,2,0.2,0.35087756,1.50410475
MJH_0616,66,1,2024-06-16T00:50:56.434Z,english_933.wav,0,0,5248,,,,,3,0.3,94.96402149,1.44820406
MJH_0616,66,1,2024-06-16T00:50:56.434Z,english_933.wav,0,0,5248,,,,,4,0.32341667,61.52669097,0.05049928
MJH_0616,67,1,2024-06-16T00:50:56.434Z,english_577.wav,0,0,894,,,,,0,0,0.60742169,1.18439754
MJH_0616,67,1,2024-06-16T00:50:56.434Z,english_577.wav,0,0,894,,,,,1,0.1,-16.75441018,1.17258894
MJH_0616,67,1,2024-06-16T00:50:56.434Z,english_577.wav,0,0,894,,,,,2,0.2,32.29278586,0.00832478
MJH_0616,67,1,2024-06-16T00:50:56.434Z,english_577.wav,0,0,894,,,,,3,0.3,94.63733595,1.24529525
MJH_0616,67,1,2024-06-16T00:50:56.434Z,english_577.wav,0,0,894,,,,,4,0.32341667,-75.78119055,0.24980342
MJH_0616,68,1,2024-06-16T00:50:56.434Z,english_406.wav,0,0,616,,,,,0,0,28.09923375,1.43312072
MJH_0616,68,1,2024-06-16T00:50:56.434Z,english_406.wav,0,0,616,,,,,1,0.1,-15.10813675,0.8890381
MJH_0616,68,1,2024-06-16T00:50:56.434Z,english_406.wav,0,0,616,,,,,2,0.2,-12.43931725,0.60560557
MJH_0616,68,1,2024-06-16T00:50:56.434Z,english_406.wav,0,0,616,,,,,3,0.3,-27.33468297,1.13565345
MJH_0616,68,1,2024-06-16T00:50:56.434Z,english_406.wav,0,0,616,,,,,4,0.32341667,-62.66931892,1.8467177
MJH_0616,69,1,2024-06-16T00:50:56.434Z,english_281.wav,0,1,1012,,,,,0,0,-55.42099824,1.64310908
MJH_0616,69,1,2024-06-16T00:50:56.434Z,english_281.wav,0,1,1012,,,,,1,0.1,30.44020676,0.76997124
MJH_0616,69,1,2024-06-16T00:50:56.434Z,english_281.wav,0,1,1012,,,,,2,0.2,53.34739709,0.1940809
MJH_0616,69,1,2024-06-16T00:50:56.434Z,english_281.wav,0,1,1012,,,,,3,0.3,-32.26512488,0.25794937
MJH_0616,69,1,2024-06-16T00:50:56.434Z,english_281.wav,0,1,1012,,,,,4,0.32341667,-59.86883114,1.27043487
MJH_0616,70,1,2024-06-16T00:50:56.434Z,english_608.wav,0,0,989,,,,,0,0,78.8022196,1.54390555
MJH_0616,70,1,2024-06-16T00:50:56.434Z,english_608.wav,0,0,989,,,,,1,0.1,59.03316834,1.36513164
MJH_0616,70,1,2024-06-16T00:50:56.434Z,english_608.wav,0,0,989,,,,,2,0.2,-13.94961152,0.78716897
MJH_0616,70,1,2024-06-16T00:50:56.434Z,english_608.wav,0,0,989,,,,,3,0.3,55.83681575,1.29889886
MJH_0616,70,1,2024-06-16T00:50:56.434Z,english_608.wav,0,0,989,,,,,4,0.32341667,-13.77656228,0.44376749
MJH_0616,71,1,2024-06-16T00:50:56.434Z,english_751.wav,0,1,1093,,,,,0,0,45.03630887,0.43450625
MJH_0616,71,1,2024-06-16T00:50:56.434Z,english_751.wav,0,1,1093,,,,,1,0.1,46.59103402,1.30072592
MJH_0616,71,1,2024-06-16T00:50:56.434Z,english_751.wav,0,1,1093,,,,,2,0.2,-30.90440374,1.20093797
MJH_0616,71,1,2024-06-16T00:50:56.434Z,english_751.wav,0,1,1093,,,,,3,0.3,-61.26470289,0.81911259
MJH_0616,71,1,2024-06-16T00:50:56.434Z,english_751.wav,0,1,1093,,,,,4,0.32341667,34.91384756,0.19140491
MJH_0616,72,1,2024-06-16T00:50:56.434Z,english_910.wav,0,0,6104,,,,,0,0,-5.78748479,0.61840584
MJH_0616,72,1,2024-06-16T00:50:56.434Z,english_910.wav,0,0,6104,,,,,1,0.1,25.040103,1.20431928
MJH_0616,72,1,2024-06-16T00:50:56.434Z,english_910.wav,0,0,6104,,,,,2,0.2,-40.66398147,1.66594732
MJH_0616,72,1,2024-06-16T00:50:56.434Z,english_910.wav,0,0,6104,,,,,3,0.3,-99.21011725,0.99007018
MJH_0616,72,1,2024-06-16T00:50:56.434Z,english_910.wav,0,0,6104,,,,,4,0.32341667,30.82754841,0.23705338
MJH_0616,73,1,2024-06-16T00:50:56.434Z,english_715.wav,0,1,711,,,,,0,0,-64.21420564,1.80154013
MJH_0616,73,1,2024-06-16T00:50:56.434Z,english_715.wav,0,1,711,,,,,1,0.1,77.40813629,0.51096517
MJH_0616,73,1,2024-06-16T00:50:56.434Z,english_715.wav,0,1,711,,,,,2,0.2,-98.26791609,0.49870215
MJH_0616,73,1,2024-06-16T00:50:56.434Z,english_715.wav,0,1,711,,,,,3,0.3,-32.66334796,0.64344691
MJH_0616,73,1,2024-06-16T00:50:56.434Z,english_715.wav,0,1,711,,,,,4,0.32341667,93.12500574,1.17662216
MJH_0616,74,1,2024-06-16T00:50:56.434Z,english_889.wav,0,0,6645,,,,,0,0,-92.0683747,0.69619005
MJH_0616,74,1,2024-06-16T00:50:56.434Z,english_889.wav,0,0,6645,,,,,1,0.1,92.92883541,1.46059979
MJH_0616,74,1,2024-06-16T00:50:56.434Z,english_889.wav,0,0,6645,,,,,2,0.2,-38.78028918,1.13034103
MJH_0616,74,1,2024-06-16T00:50:56.434Z,english_889.wav,0,0,6645,,,,,3,0.3,33.48812202,1.0639125
MJH_0616,74,1,2024-06-16T00:50:56.434Z,english_889.wav,0,0,6645,,,,,4,0.32341667,68.79643169,0.42066581
MJH_0616,75,1,2024-06-16T00:50:56.434Z,english_97.wav,0,1,666,,,,,0,0,57.21139396,1.63402743
MJH_0616,75,1,2024-06-16T00:50:56.434Z,english_97.wav,0,1,666,,,,,1,0.1,-7.40408397,0.54734888
MJH_0616,75,1,2024-06-16T00:50:56.434Z,english_97.wav,0,1,666,,,,,2,0.2,77.7995227,1.5228594
MJH_0616,75,1,2024-06-16T00:50:56.434Z,english_97.wav,0,1,666,,,,,3,0.3,-51.1747528,1.13050105
MJH_0616,75,1,2024-06-16T00:50:56.434Z,english_97.wav,0,1,666,,,,,4,0.32341667,77.11982253,0.82586999
MJH_0616,76,1,2024-06-16T00:50:56.434Z,english_435.wav,0,0,1055,,,,,0,0,-61.49548479,0.36819492
MJH_0616,76,1,2024-06-16T00:50:56.434Z,english_435.wav,0,0,1055,,,,,1,0.1,18.53940612,1.77990606
MJH_0616,76,1,2024-06-16T00:50:56.434Z,english_435.wav,0,0,1055,,,,,2,0.2,-39.20879804,1.09377229
MJH_0616,76,1,2024-06-16T00:50:56.434Z,english_435.wav,0,0,1055,,,,,3,0.3,-30.66509024,1.98213584
MJH_0616,76,1,2024-06-16T00:50:56.434Z,english_435.wav,0,0,1055,,,,,4,0.32341667,7.07056367,0.5936591
MJH_0616,77,1,2024-06-16T00:50:56.434Z,english_119.wav,0,1,1170,,,,,0,0,-72.13623542,1.33116293
MJH_0616,77,1,2024-06-16T00:50:56.434Z,english_119.wav,0,1,1170,,,,,1,0.1,-47.93500709,0.14257244
MJH_0616,77,1,2024-06-16T00:50:56.434Z,english_119.wav,0,1,1170,,,,,2,0.2,91.39212861,1.10285667
MJH_0616,77,1,2024-06-16T00:50:56.434Z,english_119.wav,0,1,1170,,,,,3,0.3,-4.62561099,0.57572872
MJH_0616,77,1,2024-06-16T00:50:56.434Z,english_119.wav,0,1,1170,,,,,4,0.32341667,-33.86599352,1.36512269
MJH_0616,78,1,2024-06-16T00:50:56.434Z,english_579.wav,0,0,2071,,,,,0,0,78.52989573,1.74799876
MJH_0616,78,1,2024-06-16T00:50:56.434Z,english_579.wav,0,0,2071,,,,,1,0.1,-26.17758211,0.36264633
MJH_0616,78,1,2024-06-16T00:50:56.434Z,english_579.wav,0,0,2071,,,,,2,0.2,-65.60231522,1.15645327
MJH_0616,78,1,2024-06-16T00:50:56.434Z,english_579.wav,0,0,2071,,,,,3,0.3,-66.03357835,1.81639149
MJH_0616,78,1,2024-06-16T00:50:56.434Z,english_579.wav,0,0,2071,,,,,4,0.32341667,-36.23940811,1.38509752
MJH_0616,79,1,2024-06-16T00:50:56.434Z,english_138.wav,0,0,850,,,,,0,0,-79.80620147,0.37063564
MJH_0616,79,1,2024-06-16T00:50:56.434Z,english_138.wav,0,0,850,,,,,1,0.1,-15.42889109,0.81801141
MJH_0616,79,1,2024-06-16T00:50:56.434Z,english_138.wav,0,0,850,,,,,2,0.2,-88.31677226,0.0634538
MJH_0616,79,1,2024-06-16T00:50:56.434Z,english_138.wav,0,0,850,,,,,3,0.3,26.6486106,1.85131452
MJH_0616,79,1,2024-06-16T00:50:56.434Z,english_138.wav,0,0,850,,,,,4,0.32341667,-42.18894711,1.66059024
MJH_0616,80,1,2024-06-16T00:50:56.434Z,english_12.wav,0,1,1081,,,,,0,0,48.33680056,1.48429429
MJH_0616,80,1,2024-06-16T00:50:56.434Z,english_12.wav,0,1,1081,,,,,1,0.1,27.41870997,0.15715938
MJH_0616,80,1,2024-06-16T00:50:56.434Z,english_12.wav,0,1,1081,,,,,2,0.2,-39.95667364,0.62940339
MJH_0616,80,1,2024-06-16T00:50:56.434Z,english_12.wav,0,1,1081,,,,,3,0.3,73.52964836,0.05281398
MJH_0616,80,1,2024-06-16T00:50:56.434Z,english_12.wav,0,1,1081,,,,,4,0.32341667,-36.35494906,1.6412938
MJH_0616,81,1,2024-06-16T00:50:56.434Z,english_189.wav,0,1,6617,,,,,0,0,-22.70456848,0.82906961
MJH_0616,81,1,2024-06-16T00:50:56.434Z,english_189.wav,0,1,6617,,,,,1,0.1,-12.00888723,0.58408113
MJH_0616,81,1,2024-06-16T00:50:56.434Z,english_189.wav,0,1,6617,,,,,2,0.2,15.14046376,0.19058783
MJH_0616,81,1,2024-06-16T00:50:56.434Z,english_189.wav,0,1,6617,,,,,3,0.3,-19.30106293,0.57788611
MJH_0616,81,1,2024-06-16T00:50:56.434Z,english_189.wav,0,1,6617,,,,,4,0.32341667,-20.57313834,0.32577637
MJH_0616,82,1,2024-06-16T00:50:56.434Z,english_433.wav,0,0,1523,,,,,0,0,-74.58178472,0.69852952
MJH_0616,82,1,2024-06-16T00:50:56.434Z,english_433.wav,0,0,1523,,,,,1,0.1,-50.00917691,1.92405883
MJH_0616,82,1,2024-06-16T00:50:56.434Z,english_433.wav,0,0,1523,,,,,2,0.2,48.18572343,0.3905825
MJH_0616,82,1,2024-06-16T00:50:56.434Z,english_433.wav,0,0,1523,,,,,3,0.3,-63.95387597,0.31453116
MJH_0616,82,1,2024-06-16T00:50:56.434Z,english_433.wav,0,0,1523,,,,,4,0.32341667,-68.91859183,1.4953114
MJH_0616,83,1,2024-06-16T00:50:56.434Z,english_116.wav,0,0,1046,,,,,0,0,47.3382154,1.30986561
MJH_0616,83,1,2024-06-16T00:50:56.434Z,english_116.wav,0,0,1046,,,,,1,0.1,-82.57412589,0.36649927
MJH_0616,83,1,2024-06-16T00:50:56.434Z,english_116.wav,0,0,1046,,,,,2,0.2,24.81754674,1.53598436
MJH_0616,83,1,2024-06-16T00:50:56.434Z,english_116.wav,0,0,1046,,,,,3,0.3,61.93416492,1.65694634
MJH_0616,83,1,2024-06-16T00:50:56.434Z,english_116.wav,0,0,1046,,,,,4,0.32341667,-97.8286579,0.40343631
MJH_0616,84,1,2024-06-16T00:50:56.434Z,english_913.wav,0,1,921,,,,,0,0,27.9375346,0.72243167
MJH_0616,84,1,2024-06-16T00:50:56.434Z,english_913.wav,0,1,921,,,,,1,0.1,41.67879689,1.59129257
MJH_0616,84,1,2024-06-16T00:50:56.434Z,english_913.wav,0,1,921,,,,,2,0.2,-50.96955224,1.19382874
MJH_0616,84,1,2024-06-16T00:50:56.434Z,english_913.wav,0,1,921,,,,,3,0.3,93.1868058,0.86840853
MJH_0616,84,1,2024-06-16T00:50:56.434Z,english_913.wav,0,1,921,,,,,4,0.32341667,83.79752677,0.21021697
MJH_0616,85,1,2024-06-16T00:50:56.434Z,english_566.wav,0,0,659,,,,,0,0,70.56000247,1.04698608
MJH_0616,85,1,2024-06-16T00:50:56.434Z,english_566.wav,0,0,659,,,,,1,0.1,-0.18246418,1.13826263
MJH_0616,85,1,2024-06-16T00:50:56.434Z,english_566.wav,0,0,659,,,,,2,0.2,-23.7188651,1.91259561
MJH_0616,85,1,2024-06-16T00:50:56.434Z,english_566.wav,0,0,659,,,,,3,0.3,12.5469797,1.08561121
MJH_0616,85,1,2024-06-16T00:50:56.434Z,english_566.wav,0,0,659,,,,,4,0.32341667,-84.37997634,1.98926692
MJH_0616,86,1,2024-06-16T00:50:56.434Z,english_134.wav,0,1,1104,,,,,0,0,70.72156413,1.84700732
MJH_0616,86,1,2024-06-16T00:50:56.434Z,english_134.wav,0,1,1104,,,,,1,0.1,-64.20531103,1.20878884
MJH_0616,86,1,2024-06-16T00:50:56.434Z,english_134.wav,0,1,1104,,,,,2,0.2,35.7891913,0.51924654
MJH_0616,86,1,2024-06-16T00:50:56.434Z,english_134.wav,0,1,1104,,,,,3,0.3,-77.33475241,1.95615398
MJH_0616,86,1,2024-06-16T00:50:56.434Z,english_134.wav,0,1,1104,,,,,4,0.32341667,85.6978336,1.72102519
MJH_0616,87,1,2024-06-16T00:50:56.434Z,english_842.wav,0,0,546,,,,,0,0,-48.5952207,0.12382156
MJH_0616,87,1,2024-06-16T00:50:56.434Z,english_842.wav,0,0,546,,,,,1,0.1,29.19485822,1.75564688
MJH_0616,87,1,2024-06-16T00:50:56.434Z,english_842.wav,0,0,546,,,,,2,0.2,84.54328152,0.24815543
MJH_0616,87,1,2024-06-16T00:50:56.434Z,english_842.wav,0,0,546,,,,,3,0.3,69.99994667,1.2885643
MJH_0616,87,1,2024-06-16T00:50:56.434Z,english_842.wav,0,0,546,,,,,4,0.32341667,56.72069463,0.70518165
MJH_0616,88,1,2024-06-16T00:50:56.434Z,english_443.wav,0,0,595,,,,,0,0,0.608638,1.06022382
MJH_0616,88,1,2024-06-16T00:50:56.434Z,english_443.wav,0,0,595,,,,,1,0.1,15.80398242,1.02694767
MJH_0616,88,1,2024-06-16T00:50:56.434Z,english_443.wav,0,0,595,,,,,2,0.2,-53.8454718,0.72801533
MJH_0616,88,1,2024-06-16T00:50:56.434Z,english_443.wav,0,0,595,,,,,3,0.3,32.36058062,1.22153209
MJH_0616,88,1,2024-06-16T00:50:56.434Z,english_443.wav,0,0,595,,,,,4,0.32341667,41.23353215,0.58841963
MJH_0616,89,1,2024-06-16T00:50:56.434Z,english_373.wav,0,0,363,,,,,0,0,-63.66458186,0.61104768
MJH_0616,89,1,2024-06-16T00:50:56.434Z,english_373.wav,0,0,363,,,,,1,0.1,-61.42386056,1.64905001
MJH_0616,89,1,2024-06-16T00:50:56.434Z,english_373.wav,0,0,363,,,,,2,0.2,-78.74831974,1.44355649
MJH_0616,89,1,2024-06-16T00:50:56.434Z,english_373.wav,0,0,363,,,,,3,0.3,-23.23108213,1.63671726
MJH_0616,89,1,2024-06-16T00:50:56.434Z,english_373.wav,0,0,363,,,,,4,0.32341667,-77.15694383,1.96911306
MJH_0616,90,1,2024-06-16T00:50:56.434Z,english_270.wav,0,0,457,,,,,0,0,-54.89328754,1.02368747
MJH_0616,90,1,2024-06-16T00:50:56.434Z,english_270.wav,0,0,457,,,,,1,0.1,-41.12345733,1.74263534
MJH_0616,90,1,2024-06-16T00:50:56.434Z,english_270.wav,0,0,457,,,,,2,0.2,79.03328036,0.45342006
MJH_0616,90,1,2024-06-16T00:50:56.434Z,english_270.wav,0,0,457,,,,,3,0.3,-87.71335894,1.29911503
MJH_0616,90,1,2024-06-16T00:50:56.434Z,english_270.wav,0,0,457,,,,,4,0.32341667,-48.20373708,0.95859349
MJH_0616,91,1,2024-06-16T00:50:56.434Z,english_723.wav,0,0,598,,,,,0,0,-85.17156731,1.02541656
MJH_0616,91,1,2024-06-16T00:50:56.434Z,english_723.wav,0,0,598,,,,,1,0.1,92.93654667,0.92088513
MJH_0616,91,1,2024-06-16T00:50:56.434Z,english_723.wav,0,0,598,,,,,2,0.2,-28.89042756,0.78256854
MJH_0616,91,1,2024-06-16T00:50:56.434Z,english_723.wav,0,0,598,,,,,3,0.3,36.79914563,1.22887413
MJH_0616,91,1,2024-06-16T00:50:56.434Z,english_723.wav,0,0,598,,,,,4,0.32341667,6.86426773,1.77193963
MJH_0616,92,1,2024-06-16T00:50:56.434Z,english_632.wav,0,0,649,,,,,0,0,-56.22391322,1.21249895
MJH_0616,92,1,2024-06-16T00:50:56.434Z,english_632.wav,0,0,649,,,,,1,0.1,-47.59423942,0.39515719
MJH_0616,92,1,2024-06-16T00:50:56.434Z,english_632.wav,0,0,649,,,,,2,0.2,91.93727259,1.8528852
MJH_0616,92,1,2024-06-16T00:50:56.434Z,english_632.wav,0,0,649,,,,,3,0.3,-33.89646621,1.67254104
MJH_0616,92,1,2024-06-16T00:50:56.434Z,english_632.wav,0,0,649,,,,,4,0.32341667,46.88387871,1.21014685
MJH_0616,93,1,2024-06-16T00:50:56.434Z,english_647.wav,0,0,726,,,,,0,0,-8.76796469,1.6238225
MJH_0616,93,1,2024-06-16T00:50:56.434Z,english_647.wav,0,0,726,,,,,1,0.1,-49.13996982,1.56934089
MJH_0616,93,1,2024-06-16T00:50:56.434Z,english_647.wav,0,0,726,,,,,2,0.2,43.79634461,0.78560304
MJH_0616,93,1,2024-06-16T00:50:56.434Z,english_647.wav,0,0,726,,,,,3,0.3,5.5781311,0.61771672
MJH_0616,93,1,2024-06-16T00:50:56.434Z,english_647.wav,0,0,726,,,,,4,0.32341667,17.41251701,1.2404866
MJH_0616,94,1,2024-06-16T00:50:56.434Z,english_914.wav,0,1,4704,,,,,0,0,37.51857345,0.04486829
MJH_0616,94,1,2024-06-16T00:50:56.434Z,english_914.wav,0,1,4704,,,,,1,0.1,-30.53068311,1.18486584
MJH_0616,94,1,2024-06-16T00:50:56.434Z,english_914.wav,0,1,4704,,,,,2,0.2,-12.980452,1.58356311
MJH_0616,94,1,2024-06-16T00:50:56.434Z,english_914.wav,0,1,4704,,,,,3,0.3,-99.09260462,1.35478251
MJH_0616,94,1,2024-06-16T00:50:56.434Z,english_914.wav,0,1,4704,,,,,4,0.32341667,-34.91402533,1.16671671
MJH_0616,95,1,2024-06-16T00:50:56.434Z,english_216.wav,0,0,487,,,,,0,0,-62.2888105,1.07577895
MJH_0616,95,1,2024-06-16T00:50:56.434Z,english_216.wav,0,0,487,,,,,1,0.1,-52.19325919,1.07125686
MJH_0616,95,1,2024-06-16T00:50:56.434Z,english_216.wav,0,0,487,,,,,2,0.2,-77.81566322,1.51342084
MJH_0616,95,1,2024-06-16T00:50:56.434Z,english_216.wav,0,0,487,,,,,3,0.3,73.5246301,1.37714716
MJH_0616,95,1,2024-06-16T00:50:56.434Z,english_216.wav,0,0,487,,,,,4,0.32341667,73.4409389,1.55456291
MJH_0616,96,1,2024-06-16T00:50:56.434Z,english_248.wav,0,1,3730,,,,,0,0,62.49888219,0.01612638
MJH_0616,96,1,2024-06-16T00:50:56.434Z,english_248.wav,0,1,3730,,,,,1,0.1,-37.43052778,0.65001727
MJH_0616,96,1,2024-06-16T00:50:56.434Z,english_248.wav,0,1,3730,,,,,2,0.2,50.26474258,1.10053755
MJH_0616,96,1,2024-06-16T00:50:56.434Z,english_248.wav,0,1,3730,,,,,3,0.3,-90.47385391,0.93833438
MJH_0616,96,1,2024-06-16T00:50:56.434Z,english_248.wav,0,1,3730,,,,,4,0.32341667,-16.4169983,1.90627888
MJH_0616,97,1,2024-06-16T00:50:56.434Z,english_604.wav,0,0,1660,,,,,0,0,11.37360706,1.9162078
MJH_0616,97,1,2024-06-16T00:50:56.434Z,english_604.wav,0,0,1660,,,,,1,0.1,-50.20832577,0.59247461
MJH_0616,97,1,2024-06-16T00:50:56.434Z,english_604.wav,0,0,1660,,,,,2,0.2,-34.39542541,1.79911242
MJH_0616,97,1,2024-06-16T00:50:56.434Z,english_604.wav,0,0,1660,,,,,3,0.3,-9.87560088,0.998763
MJH_0616,97,1,2024-06-16T00:50:56.434Z,english_604.wav,0,0,1660,,,,,4,0.32341667,34.71454295,0.76768671
MJH_0616,98,1,2024-06-16T00:50:56.434Z,english_738.wav,0,0,2445,,,,,0,0,-37.88087101,1.83397703
MJH_0616,98,1,2024-06-16T00:50:56.434Z,english_738.wav,0,0,2445,,,,,1,0.1,-16.85966727,1.52099356
MJH_0616,98,1,2024-06-16T00:50:56.434Z,english_738.wav,0,0,2445,,,,,2,0.2,-79.76891938,1.69283951
MJH_0616,98,1,2024-06-16T00:50:56.434Z,english_738.wav,0,0,2445,,,,,3,0.3,-82.30918252,1.81957343
MJH_0616,98,1,2024-06-16T00:50:56.434Z,english_738.wav,0,0,2445,,,,,4,0.32341667,59.65991076,0.75908376
MJH_0616,99,1,2024-06-16T00:50:56.434Z,english_695.wav,0,0,840,,,,,0,0,-74.02191529,1.19534619
MJH_0616,99,1,2024-06-16T00:50:56.434Z,english_695.wav,0,0,840,,,,,1,0.1,54.28596986,0.93917139
MJH_0616,99,1,2024-06-16T00:50:56.434Z,english_695.wav,0,0,840,,,,,2,0.2,-13.22196683,0.1241488
MJH_0616,99,1,2024-06-16T00:50:56.434Z,english_695.wav,0,0,840,,,,,3,0.3,1.82272444,1.20091234
MJH_0616,99,1,2024-06-16T00:50:56.434Z,english_695.wav,0,0,840,,,,,4,0.32341667,-11.74905262,0.46222147
MJH_0616,100,2,2024-06-16T00:50:56.434Z,english_372.wav,0,1,882,,,,,0,0,-10.50721777,1.53321121
MJH_0616,100,2,2024-06-16T00:50:56.434Z,english_372.wav,0,1,882,,,,,1,0.1,60.4890014,1.14830486
MJH_0616,100,2,2024-06-16T00:50:56.434Z,english_372.wav,0,1,882,,,,,2,0.2,35.20626745,1.01416029
MJH_0616,100,2,2024-06-16T00:50:56.434Z,english_372.wav,0,1,882,,,,,3,0.3,-86.52802988,1.14285759
MJH_0616,100,2,2024-06-16T00:50:56.434Z,english_372.wav,0,1,882,,,,,4,0.32341667,85.69336351,1.69996326
MJH_0616,101,2,2024-06-16T00:50:56.434Z,english_802.wav,0,1,849,,,,,0,0,44.11448731,1.89082481
MJH_0616,101,2,2024-06-16T00:50:56.434Z,english_802.wav,0,1,849,,,,,1,0.1,27.89646601,1.73386287
MJH_0616,101,2,2024-06-16T00:50:56.434Z,english_802.wav,0,1,849,,,,,2,0.2,-19.36127415,0.34468699
MJH_0616,101,2,2024-06-16T00:50:56.434Z,english_802.wav,0,1,849,,,,,3,0.3,15.17899174,0.39328876
MJH_0616,101,2,2024-06-16T00:50:56.434Z,english_802.wav,0,1,849,,,,,4,0.32341667,-18.70870555,1.25778986
MJH_0616,102,2,2024-06-16T00:50:56.434Z,english_773.wav,0,0,630,,,,,0,0,-97.46951928,0.54003315
MJH_0616,102,2,2024-06-16T00:50:56.434Z,english_773.wav,0,0,630,,,,,1,0.1,85.58858853,1.35505424
MJH_0616,102,2,2024-06-16T00:50:56.434Z,english_773.wav,0,0,630,,,,,2,0.2,-54.69649905,1.09283168
MJH_0616,102,2,2024-06-16T00:50:56.434Z,english_773.wav,0,0,630,,,,,3,0.3,-97.24656559,1.42526307
MJH_0616,102,2,2024-06-16T00:50:56.434Z,english_773.wav,0,0,630,,,,,4,0.32341667,40.28006613,0.69844725
MJH_0616,103,2,2024-06-16T00:50:56.434Z,english_697.wav,0,1,2910,,,,,0,0,34.8877197,0.10761674
MJH_0616,103,2,2024-06-16T00:50:56.434Z,english_697.wav,0,1,2910,,,,,1,0.1,-0.0129750448,0.88035305
MJH_0616,103,2,2024-06-16T00:50:56.434Z,english_697.wav,0,1,2910,,,,,2,0.2,48.8877829,0.12183403
MJH_0616,103,2,2024-06-16T00:50:56.434Z,english_697.wav,0,1,2910,,,,,3,0.3,68.5745634,0.55306263
MJH_0616,103,2,2024-06-16T00:50:56.434Z,english_697.wav,0,1,2910,,,,,4,0.323416667,18.9536775,1.83833688
MJH_0616,104,2,2024-06-16T00:50:56.434Z,english_740.wav,0,0,651,,,,,0,0,17.63845752,0.65519257
MJH_0616,104,2,2024-06-16T00:50:56.434Z,english_740.wav,0,0,651,,,,,1,0.1,36.88289119,0.996231
MJH_0616,104,2,2024-06-16T00:50:56.434Z,english_740.wav,0,0,651,,,,,2,0.2,-63.85348159,0.85360158
MJH_0616,104,2,2024-06-16T00:50:56.434Z,english_740.wav,0,0,651,,,,,3,0.3,-97.96670479,1.42654033
MJH_0616,104,2,2024-06-16T00:50:56.434Z,english_740.wav,0,0,651,,,,,4,0.32341667,43.035587,1.01691569
MJH_0616,105,2,2024-06-16T00:50:56.434Z,english_868.wav,0,1,1244,,,,,0,0,-32.61379415,0.76599538
MJH_0616,105,2,2024-06-16T00:50:56.434Z,english_868.wav,0,1,1244,,,,,1,0.1,-13.61007492,0.34348987
MJH_0616,105,2,2024-06-16T00:50:56.434Z,english_868.wav,0,1,1244,,,,,2,0.2,-35.23756027,0.26787397
MJH_0616,105,2,2024-06-16T00:50:56.434Z,english_868.wav,0,1,1244,,,,,3,0.3,83.12333319,0.46343078
MJH_0616,105,2,2024-06-16T00:50:56.434Z,english_868.wav,0,1,1244,,,,,4,0.32341667,62.80865362,1.59158725
MJH_0616,106,2,2024-06-16T00:50:56.434Z,english_552.wav,0,0,712,,,,,0,0,-54.22317773,0.14479657
MJH_0616,106,2,2024-06-16T00:50:56.434Z,english_552.wav,0,0,712,,,,,1,0.1,23.75537749,1.96762023
MJH_0616,106,2,2024-06-16T00:50:56.434Z,english_552.wav,0,0,712,,,,,2,0.2,-67.43154965,0.75812729
MJH_0616,106,2,2024-06-16T00:50:56.434Z,english_552.wav,0,0,712,,,,,3,0.3,-83.62242399,0.84420129
MJH_0616,106,2,2024-06-16T00:50:56.434Z,english_552.wav,0,0,712,,,,,4,0.32341667,64.2322812,0.73382384
MJH_0616,107,2,2024-06-16T00:50:56.434Z,english_506.wav,0,1,3398,,,,,0,0,-17.73769578,0.98447335
MJH_0616,107,2,2024-06-16T00:50:56.434Z,english_506.wav,0,1,3398,,,,,1,0.1,-41.45582363,0.94666259
MJH_0616,107,2,2024-06-16T00:50:56.434Z,english_506.wav,0,1,3398,,,,,2,0.2,30.66866042,0.72831062
MJH_0616,107,2,2024-06-16T00:50:56.434Z,english_506.wav,0,1,3398,,,,,3,0.3,59.8078046,1.02790064
MJH_0616,107,2,2024-06-16T00:50:56.434Z,english_506.wav,0,1,3398,,,,,4,0.32341667,84.38248427,0.39724826
MJH_0616,108,2,2024-06-16T00:50:56.434Z,english_585.wav,0,0,2448,,,,,0,0,-47.47167609,0.91486293
MJH_0616,108,2,2024-06-16T00:50:56.434Z,english_585.wav,0,0,2448,,,,,1,0.1,-85.73018253,0.8051019
MJH_0616,108,2,2024-06-16T00:50:56.434Z,english_585.wav,0,0,2448,,,,,2,0.2,4.69567907,1.25289508
MJH_0616,108,2,2024-06-16T00:50:56.434Z,english_585.wav,0,0,2448,,,,,3,0.3,51.83381109,0.83258124
MJH_0616,108,2,2024-06-16T00:50:56.434Z,english_585.wav,0,0,2448,,,,,4,0.32341667,14.12777642,1.43411439
MJH_0616,109,2,2024-06-16T00:50:56.434Z,english_877.wav,0,1,1651,,,,,0,0,49.36401037,1.25510861
MJH_0616,109,2,2024-06-16T00:50:56.434Z,english_877.wav,0,1,1651,,,,,1,0.1,15.17280231,0.84700305
MJH_0616,109,2,2024-06-16T00:50:56.434Z,english_877.wav,0,1,1651,,,,,2,0.2,22.36436744,0.32703774
MJH_0616,109,2,2024-06-16T00:50:56.434Z,english_877.wav,0,1,1651,,,,,3,0.3,-25.51979868,1.72637958
MJH_0616,109,2,2024-06-16T00:50:56.434Z,english_877.wav,0,1,1651,,,,,4,0.32341667,-55.72443313,0.52117686
MJH_0616,110,2,2024-06-16T00:50:56.434Z,english_704.wav,0,0,625,,,,,0,0,-24.48288207,0.92043902
MJH_0616,110,2,2024-06-16T00:50:56.434Z,english_704.wav,0,0,625,,,,,1,0.1,-9.94163531,0.96595902
MJH_0616,110,2,2024-06-16T00:50:56.434Z,english_704.wav,0,0,625,,,,,2,0.2,74.85271107,1.40327859
MJH_0616,110,2,2024-06-16T00:50:56.434Z,english_704.wav,0,0,625,,,,,3,0.3,-38.44921803,1.07325586
MJH_0616,110,2,2024-06-16T00:50:56.434Z,english_704.wav,0,0,625,,,,,4,0.32341667,-21.20994959,1.87555588
MJH_0616,111,2,2024-06-16T00:50:56.434Z,english_239.wav,0,1,940,,,,,0,0,87.44943986,1.42022081
MJH_0616,111,2,2024-06-16T00:50:56.434Z,english_239.wav,0,1,940,,,,,1,0.1,50.09814929,0.64261102
MJH_0616,111,2,2024-06-16T00:50:56.434Z,english_239.wav,0,1,940,,,,,2,0.2,-20.91132269,0.17156284
MJH_0616,111,2,2024-06-16T00:50:56.434Z,english_239.wav,0,1,940,,,,,3,0.3,1.56869958,1.89365974
MJH_0616,111,2,2024-06-16T00:50:56.434Z,english_239.wav,0,1,940,,,,,4,0.32341667,15.23790706,1.86939691
MJH_0616,112,2,2024-06-16T00:50:56.434Z,english_394.wav,0,0,954,,,,,0,0,73.08757955,1.29313131
MJH_0616,112,2,2024-06-16T00:50:56.434Z,english_394.wav,0,0,954,,,,,1,0.1,5.60908311,0.62691873
MJH_0616,112,2,2024-06-16T00:50:56.434Z,english_394.wav,0,0,954,,,,,2,0.2,76.56705043,1.4938005
MJH_0616,112,2,2024-06-16T00:50:56.434Z,english_394.wav,0,0,954,,,,,3,0.3,18.85166324,1.2266925
MJH_0616,112,2,2024-06-16T00:50:56.434Z,english_394.wav,0,0,954,,,,,4,0.32341667,8.45052692,0.67844158
MJH_0616,113,2,2024-06-16T00:50:56.434Z,english_260.wav,0,1,758,,,,,0,0,-45.73422918,1.75247731
MJH_0616,113,2,2024-06-16T00:50:56.434Z,english_260.wav,0,1,758,,,,,1,0.1,-23.757295,1.29821829
MJH_0616,113,2,2024-06-16T00:50:56.434Z,english_260.wav,0,1,758,,,,,2,0.2,-1.17180464,0.50372963
MJH_0616,113,2,2024-06-16T00:50:56.434Z,english_260.wav,0,1,758,,,,,3,0.3,42.98000529,1.19905143
MJH_0616,113,2,2024-06-16T00:50:56.434Z,english_260.wav,0,1,758,,,,,4,0.32341667,7.49715463,0.66690199
MJH_0616,114,2,2024-06-16T00:50:56.434Z,english_426.wav,0,0,683,,,,,0,0,84.66887763,0.58495982
MJH_0616,114,2,2024-06-16T00:50:56.434Z,english_426.wav,0,0,683,,,,,1,0.1,6.08176803,0.31710055
MJH_0616,114,2,2024-06-16T00:50:56.434Z,english_426.wav,0,0,683,,,,,2,0.2,90.82211143,1.7123379
MJH_0616,114,2,2024-06-16T00:50:56.434Z,english_426.wav,0,0,683,,,,,3,0.3,42.04787562,1.38911617
MJH_0616,114,2,2024-06-16T00:50:56.434Z,english_426.wav,0,0,683,,,,,4,0.32341667,-40.19306584,1.84862951
MJH_0616,115,2,2024-06-16T00:50:56.434Z,english_870.wav,0,1,1437,,,,,0,0,-85.66751388,1.70746054
MJH_0616,115,2,2024-06-16T00:50:56.434Z,english_870.wav,0,1,1437,,,,,1,0.1,30.55194498,0.68953906
MJH_0616,115,2,2024-06-16T00:50:56.434Z,english_870.wav,0,1,1437,,,,,2,0.2,-98.28008273,1.62274852
MJH_0616,115,2,2024-06-16T00:50:56.434Z,english_870.wav,0,1,1437,,,,,3,0.3,-58.1418371,0.74531017
MJH_0616,115,2,2024-06-16T00:50:56.434Z,english_870.wav,0,1,1437,,,,,4,0.32341667,81.20200135,1.06596266
MJH_0616,116,2,2024-06-16T00:50:56.434Z,english_513.wav,0,1,2023,,,,,0,0,76.78578212,0.02403043
MJH_0616,116,2,2024-06-16T00:50:56.434Z,english_513.wav,0,1,2023,,,,,1,0.1,20.42124481,0.85164369
MJH_0616,116,2,2024-06-16T00:50:56.434Z,english_513.wav,0,1,2023,,,,,2,0.2,83.32251122,1.08658436
MJH_0616,116,2,2024-06-16T00:50:56.434Z,english_513.wav,0,1,2023,,,,,3,0.3,47.28432413,0.40639055
MJH_0616,116,2,2024-06-16T00:50:56.434Z,english_513.wav,0,1,2023,,,,,4,0.32341667,-50.64117466,1.29336046
MJH_0616,117,2,2024-06-16T00:50:56.434Z,english_571.wav,0,0,4593,,,,,0,0,-42.92588422,0.65590276
MJH_0616,117,2,2024-06-16T00:50:56.434Z,english_571.wav,0,0,4593,,,,,1,0.1,-87.39276897,1.8306878
MJH_0616,117,2,2024-06-16T00:50:56.434Z,english_571.wav,0,0,4593,,,,,2,0.2,19.06282168,0.06889765
MJH_0616,117,2,2024-06-16T00:50:56.434Z,english_571.wav,0,0,4593,,,,,3,0.3,-99.30459792,0.29364209
MJH_0616,117,2,2024-06-16T00:50:56.434Z,english_571.wav,0,0,4593,,,,,4,0.32341667,41.25263337,1.388798
MJH_0616,118,2,2024-06-16T00:50:56.434Z,english_399.wav,0,1,818,,,,,0,0,77.00947727,0.99570417
MJH_0616,118,2,2024-06-16T00:50:56.434Z,english_399.wav,0,1,818,,,,,1,0.1,68.68212777,1.08385584
MJH_0616,118,2,2024-06-16T00:50:56.434Z,english_399.wav,0,1,818,,,,,2,0.2,29.89909441,0.2210854
MJH_0616,118,2,2024-06-16T00:50:56.434Z,english_399.wav,0,1,818,,,,,3,0.3,-37.60275897,0.41623588
MJH_0616,118,2,2024-06-16T00:50:56.434Z,english_399.wav,0,1,818,,,,,4,0.32341667,-61.49193386,0.38461981
MJH_0616,119,2,2024-06-16T00:50:56.434Z,english_968.wav,0,0,581,,,,,0,0,-36.76350372,0.52322451
MJH_0616,119,2,2024-06-16T00:50:56.434Z,english_968.wav,0,0,581,,,,,1,0.1,-99.8991193,0.66419732
MJH_0616,119,2,2024-06-16T00:50:56.434Z,english_968.wav,0,0,581,,,,,2,0.2,27.503089,0.44232096
MJH_0616,119,2,2024-06-16T00:50:56.434Z,english_968.wav,0,0,581,,,,,3,0.3,-34.85106147,1.90778707
MJH_0616,119,2,2024-06-16T00:50:56.434Z,english_968.wav,0,0,581,,,,,4,0.32341667,68.2869663,0.59652698
MJH_0616,120,2,2024-06-16T00:50:56.434Z,english_280.wav,0,0,4058,,,,,0,0,88.60957906,0.0301642
MJH_0616,120,2,2024-06-16T00:50:56.434Z,english_280.wav,0,0,4058,,,,,1,0.1,84.68226706,1.61205195
MJH_0616,120,2,2024-06-16T00:50:56.434Z,english_280.wav,0,0,4058,,,,,2,0.2,-77.43679957,1.42137195
MJH_0616,120,2,2024-06-16T00:50:56.434Z,english_280.wav,0,0,4058,,,,,3,0.3,45.11946934,1.73240953
MJH_0616,120,2,2024-06-16T00:50:56.434Z,english_280.wav,0,0,4058,,,,,4,0.32341667,-36.96988582,0.09602122
MJH_0616,121,2,2024-06-16T00:50:56.434Z,english_325.wav,0,1,1000,,,,,0,0,-36.86035688,0.2784687
MJH_0616,121,2,2024-06-16T00:50:56.434Z,english_325.wav,0,1,1000,,,,,1,0.1,-55.38569655,1.41229923
MJH_0616,121,2,2024-06-16T00:50:56.434Z,english_325.wav,0,1,1000,,,,,2,0.2,-56.86017215,0.83316938
MJH_0616,121,2,2024-06-16T00:50:56.434Z,english_325.wav,0,1,1000,,,,,3,0.3,-98.19449268,0.3465596
MJH_0616,121,2,2024-06-16T00:50:56.434Z,english_325.wav,0,1,1000,,,,,4,0.32341667,-6.42447902,1.41863786
MJH_0616,122,2,2024-06-16T00:50:56.434Z,english_438.wav,0,0,925,,,,,0,0,31.75305261,1.38451981
MJH_0616,122,2,2024-06-16T00:50:56.434Z,english_438.wav,0,0,925,,,,,1,0.1,20.27112767,1.99020027
MJH_0616,122,2,2024-06-16T00:50:56.434Z,english_438.wav,0,0,925,,,,,2,0.2,66.65258945,0.15645945
MJH_0616,122,2,2024-06-16T00:50:56.434Z,english_438.wav,0,0,925,,,,,3,0.3,70.72003494,1.37678514
MJH_0616,122,2,2024-06-16T00:50:56.434Z,english_438.wav,0,0,925,,,,,4,0.32341667,59.11013505,0.82730153
MJH_0616,123,2,2024-06-16T00:50:56.434Z,english_651.wav,0,0,788,,,,,0,0,94.66063372,0.16277223
MJH_0616,123,2,2024-06-16T00:50:56.434Z,english_651.wav,0,0,788,,,,,1,0.1,53.93234837,1.71236475
MJH_0616,123,2,2024-06-16T00:50:56.434Z,english_651.wav,0,0,788,,,,,2,0.2,-71.35755131,0.37376336
MJH_0616,123,2,2024-06-16T00:50:56.434Z,english_651.wav,0,0,788,,,,,3,0.3,50.84025958,0.80998932
MJH_0616,123,2,2024-06-16T00:50:56.434Z,english_651.wav,0,0,788,,,,,4,0.32341667,-24.67252949,0.23835763
MJH_0616,124,2,2024-06-16T00:50:56.434Z,english_753.wav,0,1,737,,,,,0,0,38.61944715,0.75641923
MJH_0616,124,2,2024-06-16T00:50:56.434Z,english_753.wav,0,1,737,,,,,1,0.1,-76.3398938,1.17320485
MJH_0616,124,2,2024-06-16T00:50:56.434Z,english_753.wav,0,1,737,,,,,2,0.2,-80.92813522,0.63072958
MJH_0616,124,2,2024-06-16T00:50:56.434Z,english_753.wav,0,1,737,,,,,3,0.3,-16.48508052,1.96252246
MJH_0616,124,2,2024-06-16T00:50:56.434Z,english_753.wav,0,1,737,,,,,4,0.32341667,16.23487259,1.97125296
MJH_0616,125,2,2024-06-16T00:50:56.434Z,english_61.wav,0,0,935,,,,,0,0,-58.73450167,1.5196582
MJH_0616,125,2,2024-06-16T00:50:56.434Z,english_61.wav,0,0,935,,,,,1,0.1,-68.77732169,0.79346499
MJH_0616,125,2,2024-06-16T00:50:56.434Z,english_61.wav,0,0,935,,,,,2,0.2,-61.07430116,0.90548432
MJH_0616,125,2,2024-06-16T00:50:56.434Z,english_61.wav,0,0,935,,,,,3,0.3,-87.12791991,1.71431728
MJH_0616,125,2,2024-06-16T00:50:56.434Z,english_61.wav,0,0,935,,,,,4,0.32341667,47.32358741,0.57778581
MJH_0616,126,2,2024-06-16T00:50:56.434Z,english_796.wav,0,0,622,,,,,0,0,57.52331511,0.93419081
MJH_0616,126,2,2024-06-16T00:50:56.434Z,english_796.wav,0,0,622,,,,,1,0.1,-53.71774571,0.77950231
MJH_0616,126,2,2024-06-16T00:50:56.434Z,english_796.wav,0,0,622,,,,,2,0.2,-36.09214461,0.54947466
MJH_0616,126,2,2024-06-16T00:50:56.434Z,english_796.wav,0,0,622,,,,,3,0.3,23.21783142,1.69054841
MJH_0616,126,2,2024-06-16T00:50:56.434Z,english_796.wav,0,0,622,,,,,4,0.32341667,-74.52171885,0.76047802
MJH_0616,127,2,2024-06-16T00:50:56.434Z,english_800.wav,0,1,1604,,,,,0,0,-9.91001254,0.13142639
MJH_0616,127,2,2024-06-16T00:50:56.434Z,english_800.wav,0,1,1604,,,,,1,0.1,-86.79409322,1.71040153
MJH_0616,127,2,2024-06-16T00:50:56.434Z,english_800.wav,0,1,1604,,,,,2,0.2,-27.39997365,0.18637657
MJH_0616,127,2,2024-06-16T00:50:56.434Z,english_800.wav,0,1,1604,,,,,3,0.3,13.46737707,1.09766523
MJH_0616,127,2,2024-06-16T00:50:56.434Z,english_800.wav,0,1,1604,,,,,4,0.32341667,-32.56208711,1.57940615
MJH_0616,128,2,2024-06-16T00:50:56.434Z,english_937.wav,0,0,1719,,,,,0,0,76.77394395,1.55370699
MJH_0616,128,2,2024-06-16T00:50:56.434Z,english_937.wav,0,0,1719,,,,,1,0.1,49.33576264,1.82028848
MJH_0616,128,2,2024-06-16T00:50:56.434Z,english_937.wav,0,0,1719,,,,,2,0.2,-87.39935237,1.42487505
MJH_0616,128,2,2024-06-16T00:50:56.434Z,english_937.wav,0,0,1719,,,,,3,0.3,11.02170053,0.87896062
MJH_0616,128,2,2024-06-16T00:50:56.434Z,english_937.wav,0,0,1719,,,,,4,0.32341667,91.99381322,0.96516852
MJH_0616,129,2,2024-06-16T00:50:56.434Z,english_921.wav,0,0,686,,,,,0,0,60.93482672,0.06624465
MJH_0616,129,2,2024-06-16T00:50:56.434Z,english_921.wav,0,0,686,,,,,1,0.1,-71.63665921,1.88925143
MJH_0616,129,2,2024-06-16T00:50:56.434Z,english_921.wav,0,0,686,,,,,2,0.2,-30.77028929,0.40013084
MJH_0616,129,2,2024-06-16T00:50:56.434Z,english_921.wav,0,0,686,,,,,3,0.3,-44.68164597,1.26601564
MJH_0616,129,2,2024-06-16T00:50:56.434Z,english_921.wav,0,0,686,,,,,4,0.32341667,34.59415858,1.98956357
MJH_0616,130,2,2024-06-16T00:50:56.434Z,english_71.wav,0,0,466,,,,,0,0,-89.06637534,0.37218892
MJH_0616,130,2,2024-06-16T00:50:56.434Z,english_71.wav,0,0,466,,,,,1,0.1,-28.638437,1.29479557
MJH_0616,130,2,2024-06-16T00:50:56.434Z,english_71.wav,0,0,466,,,,,2,0.2,-8.31899436,1.34818575
MJH_0616,130,2,2024-06-16T00:50:56.434Z,english_71.wav,0,0,466,,,,,3,0.3,67.7820648,1.24266832
MJH_0616,130,2,2024-06-16T00:50:56.434Z,english_71.wav,0,0,466,,,,,4,0.32341667,4.09606073,1.38884894
MJH_0616,131,2,2024-06-16T00:50:56.434Z,english_405.wav,0,1,798,,,,,0,0,-94.88566807,1.97726842
MJH_0616,131,2,2024-06-16T00:50:56.434Z,english_405.wav,0,1,798,,,,,1,0.1,45.39575719,1.2658567
MJH_0616,131,2,2024-06-16T00:50:56.434Z,english_405.wav,0,1,798,,,,,2,0.2,-94.78509898,0.10443365
MJH_0616,131,2,2024-06-16T00:50:56.434Z,english_405.wav,0,1,798,,,,,3,0.3,54.14618135,0.24635614
MJH_0616,131,2,2024-06-16T00:50:56.434Z,english_405.wav,0,1,798,,,,,4,0.32341667,-20.18916124,0.76836832
MJH_0616,132,2,2024-06-16T00:50:56.434Z,english_210.wav,0,0,510,,,,,0,0,43.03172008,0.27268056
MJH_0616,132,2,2024-06-16T00:50:56.434Z,english_210.wav,0,0,510,,,,,1,0.1,58.48529179,0.59270989
MJH_0616,132,2,2024-06-16T00:50:56.434Z,english_210.wav,0,0,510,,,,,2,0.2,57.29337371,1.57355776
MJH_0616,132,2,2024-06-16T00:50:56.434Z,english_210.wav,0,0,510,,,,,3,0.3,-45.34642936,1.97663548
MJH_0616,132,2,2024-06-16T00:50:56.434Z,english_210.wav,0,0,510,,,,,4,0.32341667,-3.49486879,1.39997912
MJH_0616,133,2,2024-06-16T00:50:56.434Z,english_634.wav,0,0,486,,,,,0,0,-94.29539956,0.6011183
MJH_0616,133,2,2024-06-16T00:50:56.434Z,english_634.wav,0,0,486,,,,,1,0.1,28.41708136,1.15242669
MJH_0616,133,2,2024-06-16T00:50:56.434Z,english_634.wav,0,0,486,,,,,2,0.2,-99.13935281,0.68826906
MJH_0616,133,2,2024-06-16T00:50:56.434Z,english_634.wav,0,0,486,,,,,3,0.3,-78.11216949,1.44169335
MJH_0616,133,2,2024-06-16T00:50:56.434Z,english_634.wav,0,0,486,,,,,4,0.32341667,-54.5881907,0.90266094
MJH_0616,134,2,2024-06-16T00:50:56.434Z,english_195.wav,0,1,999,,,,,0,0,88.76446124,0.85936173
MJH_0616,134,2,2024-06-16T00:50:56.434Z,english_195.wav,0,1,999,,,,,1,0.1,56.50909504,1.06337161
MJH_0616,134,2,2024-06-16T00:50:56.434Z,english_195.wav,0,1,999,,,,,2,0.2,-5.11157055,1.01766647
MJH_0616,134,2,2024-06-16T00:50:56.434Z,english_195.wav,0,1,999,,,,,3,0.3,14.19517065,1.03928052
MJH_0616,134,2,2024-06-16T00:50:56.434Z,english_195.wav,0,1,999,,,,,4,0.32341667,67.19148892,1.18131313
MJH_0616,135,2,2024-06-16T00:50:56.434Z,english_853.wav,0,0,628,,,,,0,0,87.83319324,0.81037323
MJH_0616,135,2,2024-06-16T00:50:56.434Z,english_853.wav,0,0,628,,,,,1,0.1,64.16710312,1.2495933
MJH_0616,135,2,2024-06-16T00:50:56.434Z,english_853.wav,0,0,628,,,,,2,0.2,12.98667351,0.22916278
MJH_0616,135,2,2024-06-16T00:50:56.434Z,english_853.wav,0,0,628,,,,,3,0.3,25.03434444,0.67764146
MJH_0616,135,2,2024-06-16T00:50:56.434Z,english_853.wav,0,0,628,,,,,4,0.32341667,98.3458188,0.13807639
MJH_0616,136,2,2024-06-16T00:50:56.434Z,english_231.wav,0,0,618,,,,,0,0,-57.04299033,1.30850831
MJH_0616,136,2,2024-06-16T00:50:56.434Z,english_231.wav,0,0,618,,,,,1,0.1,-61.30294243,1.06317761
MJH_0616,136,2,2024-06-16T00:50:56.434Z,english_231.wav,0,0,618,,,,,2,0.2,11.10207427,1.86768436
MJH_0616,136,2,2024-06-16T00:50:56.434Z,english_231.wav,0,0,618,,,,,3,0.3,-1.38864911,1.42169342
MJH_0616,136,2,2024-06-16T00:50:56.434Z,english_231.wav,0,0,618,,,,,4,0.32341667,-40.37897369,0.58634772
MJH_0616,137,2,2024-06-16T00:50:56.434Z,english_811.wav,0,0,773,,,,,0,0,-51.03425556,1.55055496
MJH_0616,137,2,2024-06-16T00:50:56.434Z,english_811.wav,0,0,773,,,,,1,0.1,22.81695275,1.74830484
MJH_0616,137,2,2024-06-16T00:50:56.434Z,english_811.wav,0,0,773,,,,,2,0.2,73.06623682,1.24661488
MJH_0616,137,2,2024-06-16T00:50:56.434Z,english_811.wav,0,0,773,,,,,3,0.3,-9.17693151,0.09792889
MJH_0616,137,2,2024-06-16T00:50:56.434Z,english_811.wav,0,0,773,,,,,4,0.32341667,79.97760745,0.03735929
MJH_0616,138,2,2024-06-16T00:50:56.434Z,english_313.wav,0,0,684,,,,,0,0,63.86599335,0.35841412
MJH_0616,138,2,2024-06-16T00:50:56.434Z,english_313.wav,0,0,684,,,,,1,0.1,-55.89800258,0.35021793
MJH_0616,138,2,2024-06-16T00:50:56.434Z,english_313.wav,0,0,684,,,,,2,0.2,90.86254046,1.77750413
MJH_0616,138,2,2024-06-16T00:50:56.434Z,english_313.wav,0,0,684,,,,,3,0.3,0.53087649,1.87396687
MJH_0616,138,2,2024-06-16T00:50:56.434Z,english_313.wav,0,0,684,,,,,4,0.32341667,-69.87913817,1.16176786
MJH_0616,139,2,2024-06-16T00:50:56.434Z,english_451.wav,0,0,6401,,,,,0,0,-87.31297583,0.44823779
MJH_0616,139,2,2024-06-16T00:50:56.434Z,english_451.wav,0,0,6401,,,,,1,0.1,-44.51362963,0.44678563
MJH_0616,139,2,2024-06-16T00:50:56.434Z,english_451.wav,0,0,6401,,,,,2,0.2,-15.52945473,1.69444841
MJH_0616,139,2,2024-06-16T00:50:56.434Z,english_451.wav,0,0,6401,,,,,3,0.3,11.70886435,0.18586344
MJH_0616,139,2,2024-06-16T00:50:56.434Z,english_451.wav,0,0,6401,,,,,4,0.32341667,82.84342256,0.9677256
MJH_0616,140,2,2024-06-16T00:50:56.434Z,english_721.wav,0,0,462,,,,,0,0,-1.67193172,0.23966059
MJH_0616,140,2,2024-06-16T00:50:56.434Z,english_721.wav,0,0,462,,,,,1,0.1,23.81304459,1.61361986
MJH_0616,140,2,2024-06-16T00:50:56.434Z,english_721.wav,0,0,462,,,,,2,0.2,94.27532923,0.58045828
MJH_0616,140,2,2024-06-16T00:50:56.434Z,english_721.wav,0,0,462,,,,,3,0.3,10.08520391,1.63757532
MJH_0616,140,2,2024-06-16T00:50:56.434Z,english_721.wav,0,0,462,,,,,4,0.32341667,-26.68837018,1.4581473
MJH_0616,141,2,2024-06-16T00:50:56.434Z,english_788.wav,0,1,1504,,,,,0,0,-93.79628683,0.67330318
MJH_0616,141,2,2024-06-16T00:50:56.434Z,english_788.wav,0,1,1504,,,,,1,0.1,-45.29703147,1.33385595
MJH_0616,141,2,2024-06-16T00:50:56.434Z,english_788.wav,0,1,1504,,,,,2,0.2,-46.01001772,1.35248941
MJH_0616,141,2,2024-06-16T00:50:56.434Z,english_788.wav,0,1,1504,,,,,3,0.3,-56.6729179,1.33220146
MJH_0616,141,2,2024-06-16T00:50:56.434Z,english_788.wav,0,1,1504,,,,,4,0.32341667,51.29020462,1.32468206
MJH_0616,142,2,2024-06-16T00:50:56.434Z,english_902.wav,0,0,590,,,,,0,0,-4.27617126,0.16330526
MJH_0616,142,2,2024-06-16T00:50:56.434Z,english_902.wav,0,0,590,,,,,1,0.1,-5.01127315,0.62492789
MJH_0616,142,2,2024-06-16T00:50:56.434Z,english_902.wav,0,0,590,,,,,2,0.2,83.22080084,1.08638924
MJH_0616,142,2,2024-06-16T00:50:56.434Z,english_902.wav,0,0,590,,,,,3,0.3,77.56473772,1.61764227
MJH_0616,142,2,2024-06-16T00:50:56.434Z,english_902.wav,0,0,590,,,,,4,0.32341667,-13.02741535,1.72075309
MJH_0616,143,2,2024-06-16T00:50:56.434Z,english_233.wav,0,0,575,,,,,0,0,-3.83672366,0.89757337
MJH_0616,143,2,2024-06-16T00:50:56.434Z,english_233.wav,0,0,575,,,,,1,0.1,-39.8423846,0.76715273
MJH_0616,143,2,2024-06-16T00:50:56.434Z,english_233.wav,0,0,575,,,,,2,0.2,85.69163348,1.38961473
MJH_0616,143,2,2024-06-16T00:50:56.434Z,english_233.wav,0,0,575,,,,,3,0.3,40.61484277,0.78787282
MJH_0616,143,2,2024-06-16T00:50:56.434Z,english_233.wav,0,0,575,,,,,4,0.32341667,-44.9800047,0.48224738
MJH_0616,144,2,2024-06-16T00:50:56.434Z,english_474.wav,0,0,1690,,,,,0,0,42.88606971,0.87351765
MJH_0616,144,2,2024-06-16T00:50:56.434Z,english_474.wav,0,0,1690,,,,,1,0.1,6.82691085,1.08551449
MJH_0616,144,2,2024-06-16T00:50:56.434Z,english_474.wav,0,0,1690,,,,,2,0.2,-33.80031927,1.99847166
MJH_0616,144,2,2024-06-16T00:50:56.434Z,english_474.wav,0,0,1690,,,,,3,0.3,-97.18672796,0.27470298
MJH_0616,144,2,2024-06-16T00:50:56.434Z,english_474.wav,0,0,1690,,,,,4,0.32341667,-4.7462475,0.02962094
MJH_0616,145,2,2024-06-16T00:50:56.434Z,english_355.wav,0,1,985,,,,,0,0,33.6784286,1.28512049
MJH_0616,145,2,2024-06-16T00:50:56.434Z,english_355.wav,0,1,985,,,,,1,0.1,30.74796889,1.04729355
MJH_0616,145,2,2024-06-16T00:50:56.434Z,english_355.wav,0,1,985,,,,,2,0.2,71.39310534,0.74339822
MJH_0616,145,2,2024-06-16T00:50:56.434Z,english_355.wav,0,1,985,,,,,3,0.3,38.16266559,0.86152361
MJH_0616,145,2,2024-06-16T00:50:56.434Z,english_355.wav,0,1,985,,,,,4,0.32341667,-39.8799084,1.83215587
MJH_0616,146,2,2024-06-16T00:50:56.434Z,english_688.wav,0,0,1268,,,,,0,0,-45.64286614,1.06356906
MJH_0616,146,2,2024-06-16T00:50:56.434Z,english_688.wav,0,0,1268,,,,,1,0.1,39.73956276,0.85197809
MJH_0616,146,2,2024-06-16T00:50:56.434Z,english_688.wav,0,0,1268,,,,,2,0.2,40.53719602,0.68718846
MJH_0616,146,2,2024-06-16T00:50:56.434Z,english_688.wav,0,0,1268,,,,,3,0.3,-71.29470492,1.67995478
MJH_0616,146,2,2024-06-16T00:50:56.434Z,english_688.wav,0,0,1268,,,,,4,0.32341667,73.7490074,1.45979079
MJH_0616,147,2,2024-06-16T00:50:56.434Z,english_702.wav,0,1,1191,,,,,0,0,-19.6614881,1.13820402
MJH_0616,147,2,2024-06-16T00:50:56.434Z,english_702.wav,0,1,1191,,,,,1,0.1,-92.60133235,1.47755069
MJH_0616,147,2,2024-06-16T00:50:56.434Z,english_702.wav,0,1,1191,,,,,2,0.2,-18.01071493,1.33705675
MJH_0616,147,2,2024-06-16T00:50:56.434Z,english_702.wav,0,1,1191,,,,,3,0.3,91.54675011,0.59768286
MJH_0616,147,2,2024-06-16T00:50:56.434Z,english_702.wav,0,1,1191,,,,,4,0.32341667,23.09112348,0.82103567
MJH_0616,148,2,2024-06-16T00:50:56.434Z,english_510.wav,0,0,768,,,,,0,0,-39.77235695,0.97080384
MJH_0616,148,2,2024-06-16T00:50:56.434Z,english_510.wav,0,0,768,,,,,1,0.1,-55.9025784,0.1022914
MJH_0616,148,2,2024-06-16T00:50:56.434Z,english_510.wav,0,0,768,,,,,2,0.2,42.12378864,1.56878682
MJH_0616,148,2,2024-06-16T00:50:56.434Z,english_510.wav,0,0,768,,,,,3,0.3,-5.9333084,1.19302163
MJH_0616,148,2,2024-06-16T00:50:56.434Z,english_510.wav,0,0,768,,,,,4,0.32341667,84.8199861,1.45606517
MJH_0616,149,2,2024-06-16T00:50:56.434Z,english_352.wav,0,0,555,,,,,0,0,71.64354449,0.18312459
MJH_0616,149,2,2024-06-16T00:50:56.434Z,english_352.wav,0,0,555,,,,,1,0.1,53.2516906,1.19991438
MJH_0616,149,2,2024-06-16T00:50:56.434Z,english_352.wav,0,0,555,,,,,2,0.2,28.90726554,1.21095973
MJH_0616,149,2,2024-06-16T00:50:56.434Z,english_352.wav,0,0,555,,,,,3,0.3,-49.8940387,1.61067418
MJH_0616,149,2,2024-06-16T00:50:56.434Z,english_352.wav,0,0,555,,,,,4,0.32341667,21.76832357,1.26376439
MJH_0616,150,3,2024-06-16T00:50:56.434Z,english_277.wav,0,1,3568,,,,,0,0,57.10742469,0.00973607
MJH_0616,150,3,2024-06-16T00:50:56.434Z,english_277.wav,0,1,3568,,,,,1,0.1,-91.86277199,0.30409245
MJH_0616,150,3,2024-06-16T00:50:56.434Z,english_277.wav,0,1,3568,,,,,2,0.2,15.18492706,1.04533503
MJH_0616,150,3,2024-06-16T00:50:56.434Z,english_277.wav,0,1,3568,,,,,3,0.3,-70.52173838,1.32138987
MJH_0616,150,3,2024-06-16T00:50:56.434Z,english_277.wav,0,1,3568,,,,,4,0.32341667,87.41438228,0.22027268
MJH_0616,151,3,2024-06-16T00:50:56.434Z,english_335.wav,0,0,764,,,,,0,0,2.73277154,0.73564724
MJH_0616,151,3,2024-06-16T00:50:56.434Z,english_335.wav,0,0,764,,,,,1,0.1,-7.1950175,0.15546095
MJH_0616,151,3,2024-06-16T00:50:56.434Z,english_335.wav,0,0,764,,,,,2,0.2,60.45920583,0.90435367
MJH_0616,151,3,2024-06-16T00:50:56.434Z,english_335.wav,0,0,764,,,,,3,0.3,-26.91989021,0.56661996
MJH_0616,151,3,2024-06-16T00:50:56.434Z,english_335.wav,0,0,764,,,,,4,0.32341667,-2.30142169,1.21763394
MJH_0616,152,3,2024-06-16T00:50:56.434Z,english_904.wav,0,0,643,,,,,0,0,54.28678019,0.96279628
MJH_0616,152,3,2024-06-16T00:50:56.434Z,english_904.wav,0,0,643,,,,,1,0.1,-13.24417266,0.20212872
MJH_0616,152,3,2024-06-16T00:50:56.434Z,english_904.wav,0,0,643,,,,,2,0.2,18.94666669,1.39381084
MJH_0616,152,3,2024-06-16T00:50:56.434Z,english_904.wav,0,0,643,,,,,3,0.3,-21.97018078,1.57516234
MJH_0616,152,3,2024-06-16T00:50:56.434Z,english_904.wav,0,0,643,,,,,4,0.32341667,4.05624244,0.97228596
MJH_0616,153,3,2024-06-16T00:50:56.434Z,english_595.wav,0,0,1126,,,,,0,0,-39.84727911,1.6526444
MJH_0616,153,3,2024-06-16T00:50:56.434Z,english_595.wav,0,0,1126,,,,,1,0.1,-68.85607622,1.11711065
MJH_0616,153,3,2024-06-16T00:50:56.434Z,english_595.wav,0,0,1126,,,,,2,0.2,23.68364187,1.96516016
MJH_0616,153,3,2024-06-16T00:50:56.434Z,english_595.wav,0,0,1126,,,,,3,0.3,-80.51887658,0.34053421
MJH_0616,153,3,2024-06-16T00:50:56.434Z,english_595.wav,0,0,1126,,,,,4,0.32341667,-94.66311932,1.22603371
MJH_0616,154,3,2024-06-16T00:50:56.434Z,english_838.wav,0,1,1412,,,,,0,0,-46.43239877,0.57293762
MJH_0616,154,3,2024-06-16T00:50:56.434Z,english_838.wav,0,1,1412,,,,,1,0.1,-0.77549132,1.65450135
MJH_0616,154,3,2024-06-16T00:50:56.434Z,english_838.wav,0,1,1412,,,,,2,0.2,-47.56158581,0.30574951
MJH_0616,154,3,2024-06-16T00:50:56.434Z,english_838.wav,0,1,1412,,,,,3,0.3,7.18116474,0.96315644
MJH_0616,154,3,2024-06-16T00:50:56.434Z,english_838.wav,0,1,1412,,,,,4,0.32341667,-87.38880816,0.83017899
MJH_0616,155,3,2024-06-16T00:50:56.434Z,english_962.wav,0,0,532,,,,,0,0,-55.512918,1.78332996
MJH_0616,155,3,2024-06-16T00:50:56.434Z,english_962.wav,0,0,532,,,,,1,0.1,90.34773129,1.25956614
MJH_0616,155,3,2024-06-16T00:50:56.434Z,english_962.wav,0,0,532,,,,,2,0.2,-3.10818459,0.72891593
MJH_0616,155,3,2024-06-16T00:50:56.434Z,english_962.wav,0,0,532,,,,,3,0.3,50.27619033,1.49954356
MJH_0616,155,3,2024-06-16T00:50:56.434Z,english_962.wav,0,0,532,,,,,4,0.32341667,-47.3196173,0.96339983
MJH_0616,156,3,2024-06-16T00:50:56.434Z,english_287.wav,0,0,746,,,,,0,0,-5.71925808,1.04112926
MJH_0616,156,3,2024-06-16T00:50:56.434Z,english_287.wav,0,0,746,,,,,1,0.1,-94.78041007,0.35149142
MJH_0616,156,3,2024-06-16T00:50:56.434Z,english_287.wav,0,0,746,,,,,2,0.2,8.34641368,0.86781598
MJH_0616,156,3,2024-06-16T00:50:56.434Z,english_287.wav,0,0,746,,,,,3,0.3,36.34893025,1.897904
MJH_0616,156,3,2024-06-16T00:50:56.434Z,english_287.wav,0,0,746,,,,,4,0.32341667,-22.47689594,0.5607403
MJH_0616,157,3,2024-06-16T00:50:56.434Z,english_184.wav,0,0,879,,,,,0,0,29.65201825,1.69567788
MJH_0616,157,3,2024-06-16T00:50:56.434Z,english_184.wav,0,0,879,,,,,1,0.1,16.48348791,1.26735627
MJH_0616,157,3,2024-06-16T00:50:56.434Z,english_184.wav,0,0,879,,,,,2,0.2,3.77448983,0.95352895
MJH_0616,157,3,2024-06-16T00:50:56.434Z,english_184.wav,0,0,879,,,,,3,0.3,62.87502431,1.7991474
MJH_0616,157,3,2024-06-16T00:50:56.434Z,english_184.wav,0,0,879,,,,,4,0.32341667,-8.82418577,0.98992659
MJH_0616,158,3,2024-06-16T00:50:56.434Z,english_86.wav,0,0,1359,,,,,0,0,-48.59393833,1.45450552
MJH_0616,158,3,2024-06-16T00:50:56.434Z,english_86.wav,0,0,1359,,,,,1,0.1,77.37095157,1.8635573
MJH_0616,158,3,2024-06-16T00:50:56.434Z,english_86.wav,0,0,1359,,,,,2,0.2,44.19816726,1.174515
MJH_0616,158,3,2024-06-16T00:50:56.434Z,english_86.wav,0,0,1359,,,,,3,0.3,-99.780271,1.46785746
MJH_0616,158,3,2024-06-16T00:50:56.434Z,english_86.wav,0,0,1359,,,,,4,0.32341667,38.96545556,0.99607158
MJH_0616,159,3,2024-06-16T00:50:56.434Z,english_475.wav,0,0,1661,,,,,0,0,-68.25626322,0.40988158
MJH_0616,159,3,2024-06-16T00:50:56.434Z,english_475.wav,0,0,1661,,,,,1,0.1,-56.46648788,1.90107213
MJH_0616,159,3,2024-06-16T00:50:56.434Z,english_475.wav,0,0,1661,,,,,2,0.2,49.77560279,0.54721615
MJH_0616,159,3,2024-06-16T00:50:56.434Z,english_475.wav,0,0,1661,,,,,3,0.3,-41.74178488,1.80730726
MJH_0616,159,3,2024-06-16T00:50:56.434Z,english_475.wav,0,0,1661,,,,,4,0.32341667,-60.3255454,0.11427958
MJH_0616,160,3,2024-06-16T00:50:56.434Z,english_881.wav,0,1,1401,,,,,0,0,7.28069095,1.60234882
MJH_0616,160,3,2024-06-16T00:50:56.434Z,english_881.wav,0,1,1401,,,,,1,0.1,-64.28928902,0.93497238
MJH_0616,160,3,2024-06-16T00:50:56.434Z,english_881.wav,0,1,1401,,,,,2,0.2,-2.07432692,0.58107235
MJH_0616,160,3,2024-06-16T00:50:56.434Z,english_881.wav,0,1,1401,,,,,3,0.3,51.5536886,1.34691236
MJH_0616,160,3,2024-06-16T00:50:56.434Z,english_881.wav,0,1,1401,,,,,4,0.32341667,65.74991707,0.85842561
MJH_0616,161,3,2024-06-16T00:50:56.434Z,english_144.wav,0,0,775,,,,,0,0,-68.95587174,0.23806678
MJH_0616,161,3,2024-06-16T00:50:56.434Z,english_144.wav,0,0,775,,,,,1,0.1,-74.16141139,0.77020267
MJH_0616,161,3,2024-06-16T00:50:56.434Z,english_144.wav,0,0,775,,,,,2,0.2,-19.31034794,0.33858197
MJH_0616,161,3,2024-06-16T00:50:56.434Z,english_144.wav,0,0,775,,,,,3,0.3,-77.96768175,1.42512122
MJH_0616,161,3,2024-06-16T00:50:56.434Z,english_144.wav,0,0,775,,,,,4,0.32341667,3.46911061,0.57629619
MJH_0616,162,3,2024-06-16T00:50:56.434Z,english_449.wav,0,0,1257,,,,,0,0,-46.54576765,0.60085197
MJH_0616,162,3,2024-06-16T00:50:56.434Z,english_449.wav,0,0,1257,,,,,1,0.1,20.05422573,1.74901032
MJH_0616,162,3,2024-06-16T00:50:56.434Z,english_449.wav,0,0,1257,,,,,2,0.2,54.52400621,1.9506545
MJH_0616,162,3,2024-06-16T00:50:56.434Z,english_449.wav,0,0,1257,,,,,3,0.3,73.66855139,1.81044704
MJH_0616,162,3,2024-06-16T00:50:56.434Z,english_449.wav,0,0,1257,,,,,4,0.32341667,-1.88675615,0.93562966
MJH_0616,163,3,2024-06-16T00:50:56.434Z,english_900.wav,0,1,927,,,,,0,0,-54.93304755,1.64865849
MJH_0616,163,3,2024-06-16T00:50:56.434Z,english_900.wav,0,1,927,,,,,1,0.1,58.88524349,1.11215591
MJH_0616,163,3,2024-06-16T00:50:56.434Z,english_900.wav,0,1,927,,,,,2,0.2,-67.87194092,0.89823705
MJH_0616,163,3,2024-06-16T00:50:56.434Z,english_900.wav,0,1,927,,,,,3,0.3,20.66021993,1.30060406
MJH_0616,163,3,2024-06-16T00:50:56.434Z,english_900.wav,0,1,927,,,,,4,0.32341667,-10.79853151,1.95850441
MJH_0616,164,3,2024-06-16T00:50:56.434Z,english_961.wav,0,0,1224,,,,,0,0,20.81275789,1.87720953
MJH_0616,164,3,2024-06-16T00:50:56.434Z,english_961.wav,0,0,1224,,,,,1,0.1,46.48072234,1.43497285
MJH_0616,164,3,2024-06-16T00:50:56.434Z,english_961.wav,0,0,1224,,,,,2,0.2,79.36291712,1.9095844
MJH_0616,164,3,2024-06-16T00:50:56.434Z,english_961.wav,0,0,1224,,,,,3,0.3,7.86976501,0.20821065
MJH_0616,164,3,2024-06-16T00:50:56.434Z,english_961.wav,0,0,1224,,,,,4,0.32341667,-45.45751668,0.0640973
MJH_0616,165,3,2024-06-16T00:50:56.434Z,english_246.wav,0,1,1496,,,,,0,0,-62.23082525,0.02615808
MJH_0616,165,3,2024-06-16T00:50:56.434Z,english_246.wav,0,1,1496,,,,,1,0.1,59.67623932,1.52596932
MJH_0616,165,3,2024-06-16T00:50:56.434Z,english_246.wav,0,1,1496,,,,,2,0.2,-63.30715513,1.87080553
MJH_0616,165,3,2024-06-16T00:50:56.434Z,english_246.wav,0,1,1496,,,,,3,0.3,15.41118057,0.81226596
MJH_0616,165,3,2024-06-16T00:50:56.434Z,english_246.wav,0,1,1496,,,,,4,0.32341667,90.60814582,0.64975072
MJH_0616,166,3,2024-06-16T00:50:56.434Z,english_969.wav,0,1,1128,,,,,0,0,0.27440165,1.49550116
MJH_0616,166,3,2024-06-16T00:50:56.434Z,english_969.wav,0,1,1128,,,,,1,0.1,32.90941676,1.08086357
MJH_0616,166,3,2024-06-16T00:50:56.434Z,english_969.wav,0,1,1128,,,,,2,0.2,65.54691775,0.25687245
MJH_0616,166,3,2024-06-16T00:50:56.434Z,english_969.wav,0,1,1128,,,,,3,0.3,38.11090315,0.33107225
MJH_0616,166,3,2024-06-16T00:50:56.434Z,english_969.wav,0,1,1128,,,,,4,0.32341667,-66.49311905,0.72842933
MJH_0616,167,3,2024-06-16T00:50:56.434Z,english_956.wav,0,1,660,,,,,0,0,-98.71257913,1.5828524
MJH_0616,167,3,2024-06-16T00:50:56.434Z,english_956.wav,0,1,660,,,,,1,0.1,-36.05702295,0.66985857
MJH_0616,167,3,2024-06-16T00:50:56.434Z,english_956.wav,0,1,660,,,,,2,0.2,-31.95582623,0.13798036
MJH_0616,167,3,2024-06-16T00:50:56.434Z,english_956.wav,0,1,660,,,,,3,0.3,-81.31295359,0.22663358
MJH_0616,167,3,2024-06-16T00:50:56.434Z,english_956.wav,0,1,660,,,,,4,0.32341667,45.09425789,0.54862974
MJH_0616,168,3,2024-06-16T00:50:56.434Z,english_84.wav,0,0,1050,,,,,0,0,-42.35488886,0.45116064
MJH_0616,168,3,2024-06-16T00:50:56.434Z,english_84.wav,0,0,1050,,,,,1,0.1,17.86576323,1.91320005
MJH_0616,168,3,2024-06-16T00:50:56.434Z,english_84.wav,0,0,1050,,,,,2,0.2,-56.36172821,1.53140363
MJH_0616,168,3,2024-06-16T00:50:56.434Z,english_84.wav,0,0,1050,,,,,3,0.3,69.8537656,0.53091011
MJH_0616,168,3,2024-06-16T00:50:56.434Z,english_84.wav,0,0,1050,,,,,4,0.32341667,-47.30652012,1.59279301
MJH_0616,169,3,2024-06-16T00:50:56.434Z,english_398.wav,0,0,593,,,,,0,0,-72.24204172,0.50855809
MJH_0616,169,3,2024-06-16T00:50:56.434Z,english_398.wav,0,0,593,,,,,1,0.1,29.80242672,0.68040596
MJH_0616,169,3,2024-06-16T00:50:56.434Z,english_398.wav,0,0,593,,,,,2,0.2,-29.26741326,1.59063958
MJH_0616,169,3,2024-06-16T00:50:56.434Z,english_398.wav,0,0,593,,,,,3,0.3,30.68380911,1.71035635
MJH_0616,169,3,2024-06-16T00:50:56.434Z,english_398.wav,0,0,593,,,,,4,0.32341667,-23.61694816,1.737831
MJH_0616,170,3,2024-06-16T00:50:56.434Z,english_288.wav,0,0,783,,,,,0,0,35.15100251,1.01330681
MJH_0616,170,3,2024-06-16T00:50:56.434Z,english_288.wav,0,0,783,,,,,1,0.1,49.55485069,0.90213232
MJH_0616,170,3,2024-06-16T00:50:56.434Z,english_288.wav,0,0,783,,,,,2,0.2,28.604189,1.8181607
MJH_0616,170,3,2024-06-16T00:50:56.434Z,english_288.wav,0,0,783,,,,,3,0.3,38.59633835,1.82579698
MJH_0616,170,3,2024-06-16T00:50:56.434Z,english_288.wav,0,0,783,,,,,4,0.32341667,-98.9026904,0.14571105
MJH_0616,171,3,2024-06-16T00:50:56.434Z,english_232.wav,0,1,853,,,,,0,0,15.13134779,0.53160298
MJH_0616,171,3,2024-06-16T00:50:56.434Z,english_232.wav,0,1,853,,,,,1,0.1,-49.29605083,0.4519978
MJH_0616,171,3,2024-06-16T00:50:56.434Z,english_232.wav,0,1,853,,,,,2,0.2,59.10606455,0.39260156
MJH_0616,171,3,2024-06-16T00:50:56.434Z,english_232.wav,0,1,853,,,,,3,0.3,48.81708847,0.4692084
MJH_0616,171,3,2024-06-16T00:50:56.434Z,english_232.wav,0,1,853,,,,,4,0.32341667,14.83590121,0.46233459
MJH_0616,172,3,2024-06-16T00:50:56.434Z,english_550.wav,0,1,828,,,,,0,0,19.46608022,0.78600887
MJH_0616,172,3,2024-06-16T00:50:56.434Z,english_550.wav,0,1,828,,,,,1,0.1,-94.3556307,1.03273328
MJH_0616,172,3,2024-06-16T00:50:56.434Z,english_550.wav,0,1,828,,,,,2,0.2,-80.90695222,0.36941932
MJH_0616,172,3,2024-06-16T00:50:56.434Z,english_550.wav,0,1,828,,,,,3,0.3,-65.36230075,0.47038634
MJH_0616,172,3,2024-06-16T00:50:56.434Z,english_550.wav,0,1,828,,,,,4,0.32341667,-18.45722395,0.11798167
MJH_0616,173,3,2024-06-16T00:50:56.434Z,english_306.wav,0,1,1036,,,,,0,0,-78.46406697,1.96625377
MJH_0616,173,3,2024-06-16T00:50:56.434Z,english_306.wav,0,1,1036,,,,,1,0.1,-60.64765069,1.9128761
MJH_0616,173,3,2024-06-16T00:50:56.434Z,english_306.wav,0,1,1036,,,,,2,0.2,41.654101,0.92284414
MJH_0616,173,3,2024-06-16T00:50:56.434Z,english_306.wav,0,1,1036,,,,,3,0.3,58.45609749,1.12546267
MJH_0616,173,3,2024-06-16T00:50:56.434Z,english_306.wav,0,1,1036,,,,,4,0.32341667,-89.32145871,0.77622038
MJH_0616,174,3,2024-06-16T00:50:56.434Z,english_744.wav,0,0,701,,,,,0,0,43.39686976,0.75505854
MJH_0616,174,3,2024-06-16T00:50:56.434Z,english_744.wav,0,0,701,,,,,1,0.1,-61.67573043,1.01311725
MJH_0616,174,3,2024-06-16T00:50:56.434Z,english_744.wav,0,0,701,,,,,2,0.2,0.51873183,0.73457108
MJH_0616,174,3,2024-06-16T00:50:56.434Z,english_744.wav,0,0,701,,,,,3,0.3,12.88130512,0.90154102
MJH_0616,174,3,2024-06-16T00:50:56.434Z,english_744.wav,0,0,701,,,,,4,0.32341667,57.31714449,1.01338509
MJH_0616,175,3,2024-06-16T00:50:56.434Z,english_971.wav,0,1,5048,,,,,0,0,27.0641734,0.01013217
MJH_0616,175,3,2024-06-16T00:50:56.434Z,english_971.wav,0,1,5048,,,,,1,0.1,-43.13434162,0.95424486
MJH_0616,175,3,2024-06-16T00:50:56.434Z,english_971.wav,0,1,5048,,,,,2,0.2,83.45364082,1.16332163
MJH_0616,175,3,2024-06-16T00:50:56.434Z,english_971.wav,0,1,5048,,,,,3,0.3,46.6736971,0.56494555
MJH_0616,175,3,2024-06-16T00:50:56.434Z,english_971.wav,0,1,5048,,,,,4,0.32341667,-28.9166607,0.73596031
MJH_0616,176,3,2024-06-16T00:50:56.434Z,english_137.wav,0,0,420,,,,,0,0,-81.54177422,0.16940048
MJH_0616,176,3,2024-06-16T00:50:56.434Z,english_137.wav,0,0,420,,,,,1,0.1,48.50229113,1.33204053
MJH_0616,176,3,2024-06-16T00:50:56.434Z,english_137.wav,0,0,420,,,,,2,0.2,-43.40912925,1.8593258
MJH_0616,176,3,2024-06-16T00:50:56.434Z,english_137.wav,0,0,420,,,,,3,0.3,54.89578869,1.77805515
MJH_0616,176,3,2024-06-16T00:50:56.434Z,english_137.wav,0,0,420,,,,,4,0.32341667,90.09778797,1.80981769
MJH_0616,177,3,2024-06-16T00:50:56.434Z,english_675.wav,0,0,476,,,,,0,0,-31.75128323,1.35198954
MJH_0616,177,3,2024-06-16T00:50:56.434Z,english_675.wav,0,0,476,,,,,1,0.1,60.52679753,1.32787853
MJH_0616,177,3,2024-06-16T00:50:56.434Z,english_675.wav,0,0,476,,,,,2,0.2,-22.8835824,1.57632911
MJH_0616,177,3,2024-06-16T00:50:56.434Z,english_675.wav,0,0,476,,,,,3,0.3,-6.32596177,0.80140737
MJH_0616,177,3,2024-06-16T00:50:56.434Z,english_675.wav,0,0,476,,,,,4,0.32341667,-61.06491024,0.99818917
MJH_0616,178,3,2024-06-16T00:50:56.434Z,english_760.wav,0,1,941,,,,,0,0,24.3902693,0.67210823
MJH_0616,178,3,2024-06-16T00:50:56.434Z,english_760.wav,0,1,941,,,,,1,0.1,-0.0247174936,1.89588113
MJH_0616,178,3,2024-06-16T00:50:56.434Z,english_760.wav,0,1,941,,,,,2,0.2,82.8662613,0.23432987
MJH_0616,178,3,2024-06-16T00:50:56.434Z,english_760.wav,0,1,941,,,,,3,0.3,-7.97314524,1.20797246
MJH_0616,178,3,2024-06-16T00:50:56.434Z,english_760.wav,0,1,941,,,,,4,0.323416667,-6.32438983,1.72866971
MJH_0616,179,3,2024-06-16T00:50:56.434Z,english_460.wav,0,0,1299,,,,,0,0,-93.21492338,1.97422145
MJH_0616,179,3,2024-06-16T00:50:56.434Z,english_460.wav,0,0,1299,,,,,1,0.1,-65.59669931,0.48313428
MJH_0616,179,3,2024-06-16T00:50:56.434Z,english_460.wav,0,0,1299,,,,,2,0.2,76.47030005,0.91916034
MJH_0616,179,3,2024-06-16T00:50:56.434Z,english_460.wav,0,0,1299,,,,,3,0.3,-24.62267943,0.34121923
MJH_0616,179,3,2024-06-16T00:50:56.434Z,english_460.wav,0,0,1299,,,,,4,0.32341667,17.6428759,0.75894887
MJH_0616,180,3,2024-06-16T00:50:56.434Z,english_85.wav,0,0,489,,,,,0,0,69.91092253,1.07696769
MJH_0616,180,3,2024-06-16T00:50:56.434Z,english_85.wav,0,0,489,,,,,1,0.1,90.04885235,1.65675227
MJH_0616,180,3,2024-06-16T00:50:56.434Z,english_85.wav,0,0,489,,,,,2,0.2,-54.471964,1.18566865
MJH_0616,180,3,2024-06-16T00:50:56.434Z,english_85.wav,0,0,489,,,,,3,0.3,-32.42862041,0.43131811
MJH_0616,180,3,2024-06-16T00:50:56.434Z,english_85.wav,0,0,489,,,,,4,0.32341667,-26.25094384,1.88641509
MJH_0616,181,3,2024-06-16T00:50:56.434Z,english_60.wav,0,1,1003,,,,,0,0,82.53369854,0.66834278
MJH_0616,181,3,2024-06-16T00:50:56.434Z,english_60.wav,0,1,1003,,,,,1,0.1,60.14491878,1.16350573
MJH_0616,181,3,2024-06-16T00:50:56.434Z,english_60.wav,0,1,1003,,,,,2,0.2,-26.84704149,1.24827189
MJH_0616,181,3,2024-06-16T00:50:56.434Z,english_60.wav,0,1,1003,,,,,3,0.3,-19.8784386,0.70182905
MJH_0616,181,3,2024-06-16T00:50:56.434Z,english_60.wav,0,1,1003,,,,,4,0.32341667,-26.04492652,0.20173025
MJH_0616,182,3,2024-06-16T00:50:56.434Z,english_952.wav,0,0,586,,,,,0,0,64.91746033,1.00586425
MJH_0616,182,3,2024-06-16T00:50:56.434Z,english_952.wav,0,0,586,,,,,1,0.1,-25.84234774,1.28790365
MJH_0616,182,3,2024-06-16T00:50:56.434Z,english_952.wav,0,0,586,,,,,2,0.2,60.30097417,1.6668124
MJH_0616,182,3,2024-06-16T00:50:56.434Z,english_952.wav,0,0,586,,,,,3,0.3,-98.0606555,1.44616756
MJH_0616,182,3,2024-06-16T00:50:56.434Z,english_952.wav,0,0,586,,,,,4,0.32341667,-77.98984902,0.15831209
MJH_0616,183,3,2024-06-16T00:50:56.434Z,english_492.wav,0,1,1376,,,,,0,0,-66.2832746,0.52930651
MJH_0616,183,3,2024-06-16T00:50:56.434Z,english_492.wav,0,1,1376,,,,,1,0.1,-19.36008054,1.11739795
MJH_0616,183,3,2024-06-16T00:50:56.434Z,english_492.wav,0,1,1376,,,,,2,0.2,95.25769545,1.86018292
MJH_0616,183,3,2024-06-16T00:50:56.434Z,english_492.wav,0,1,1376,,,,,3,0.3,-42.69351484,0.07313262
MJH_0616,183,3,2024-06-16T00:50:56.434Z,english_492.wav,0,1,1376,,,,,4,0.32341667,48.13359561,0.30480454
MJH_0616,184,3,2024-06-16T00:50:56.434Z,english_810.wav,0,1,1403,,,,,0,0,44.6757801,0.77700382
MJH_0616,184,3,2024-06-16T00:50:56.434Z,english_810.wav,0,1,1403,,,,,1,0.1,-98.4252216,1.25917073
MJH_0616,184,3,2024-06-16T00:50:56.434Z,english_810.wav,0,1,1403,,,,,2,0.2,55.4106213,0.78203472
MJH_0616,184,3,2024-06-16T00:50:56.434Z,english_810.wav,0,1,1403,,,,,3,0.3,-18.4676839,1.13021068
MJH_0616,184,3,2024-06-16T00:50:56.434Z,english_810.wav,0,1,1403,,,,,4,0.323416667,0.0259169543,0.14578676
MJH_0616,185,3,2024-06-16T00:50:56.434Z,english_428.wav,0,0,630,,,,,0,0,-98.34466569,1.83106884
MJH_0616,185,3,2024-06-16T00:50:56.434Z,english_428.wav,0,0,630,,,,,1,0.1,-10.51162175,1.34345266
MJH_0616,185,3,2024-06-16T00:50:56.434Z,english_428.wav,0,0,630,,,,,2,0.2,97.93427859,0.65853672
MJH_0616,185,3,2024-06-16T00:50:56.434Z,english_428.wav,0,0,630,,,,,3,0.3,35.61870537,1.28105878
MJH_0616,185,3,2024-06-16T00:50:56.434Z,english_428.wav,0,0,630,,,,,4,0.32341667,-12.49352836,0.15324236
MJH_0616,186,3,2024-06-16T00:50:56.434Z,english_99.wav,0,1,1366,,,,,0,0,9.75149611,0.79411887
MJH_0616,186,3,2024-06-16T00:50:56.434Z,english_99.wav,0,1,1366,,,,,1,0.1,-7.37998228,0.53064308
MJH_0616,186,3,2024-06-16T00:50:56.434Z,english_99.wav,0,1,1366,,,,,2,0.2,29.15889261,0.10254027
MJH_0616,186,3,2024-06-16T00:50:56.434Z,english_99.wav,0,1,1366,,,,,3,0.3,-23.23230809,0.53999741
MJH_0616,186,3,2024-06-16T00:50:56.434Z,english_99.wav,0,1,1366,,,,,4,0.32341667,51.25937721,0.74302856
MJH_0616,187,3,2024-06-16T00:50:56.434Z,english_359.wav,0,1,3261,,,,,0,0,95.13315851,1.5844105
MJH_0616,187,3,2024-06-16T00:50:56.434Z,english_359.wav,0,1,3261,,,,,1,0.1,95.71495863,0.46491803
MJH_0616,187,3,2024-06-16T00:50:56.434Z,english_359.wav,0,1,3261,,,,,2,0.2,4.56295435,1.17107987
MJH_0616,187,3,2024-06-16T00:50:56.434Z,english_359.wav,0,1,3261,,,,,3,0.3,-11.93773809,0.63485582
MJH_0616,187,3,2024-06-16T00:50:56.434Z,english_359.wav,0,1,3261,,,,,4,0.32341667,-75.72789111,0.10666132
MJH_0616,188,3,2024-06-16T00:50:56.434Z,english_49.wav,0,0,723,,,,,0,0,-6.08822071,0.36436507
MJH_0616,188,3,2024-06-16T00:50:56.434Z,english_49.wav,0,0,723,,,,,1,0.1,-56.0367764,1.66948988
MJH_0616,188,3,2024-06-16T00:50:56.434Z,english_49.wav,0,0,723,,,,,2,0.2,-51.95657584,1.20554654
MJH_0616,188,3,2024-06-16T00:50:56.434Z,english_49.wav,0,0,723,,,,,3,0.3,-59.93208112,0.31084089
MJH_0616,188,3,2024-06-16T00:50:56.434Z,english_49.wav,0,0,723,,,,,4,0.32341667,-7.85847813,0.44223059
MJH_0616,189,3,2024-06-16T00:50:56.434Z,english_62.wav,0,0,568,,,,,0,0,17.28527913,1.12530616
MJH_0616,189,3,2024-06-16T00:50:56.434Z,english_62.wav,0,0,568,,,,,1,0.1,8.63936001,1.09357984
MJH_0616,189,3,2024-06-16T00:50:56.434Z,english_62.wav,0,0,568,,,,,2,0.2,-69.0074729,1.07648496
MJH_0616,189,3,2024-06-16T00:50:56.434Z,english_62.wav,0,0,568,,,,,3,0.3,-18.85502465,0.36768209
MJH_0616,189,3,2024-06-16T00:50:56.434Z,english_62.wav,0,0,568,,,,,4,0.32341667,59.46739627,0.39033463
MJH_0616,190,3,2024-06-16T00:50:56.434Z,english_964.wav,0,0,610,,,,,0,0,11.04708611,0.74384055
MJH_0616,190,3,2024-06-16T00:50:56.434Z,english_964.wav,0,0,610,,,,,1,0.1,-10.67848967,0.46038505
MJH_0616,190,3,2024-06-16T00:50:56.434Z,english_964.wav,0,0,610,,,,,2,0.2,64.95328634,0.80934661
MJH_0616,190,3,2024-06-16T00:50:56.434Z,english_964.wav,0,0,610,,,,,3,0.3,-78.10341524,1.94282647
MJH_0616,190,3,2024-06-16T00:50:56.434Z,english_964.wav,0,0,610,,,,,4,0.32341667,-48.61651995,1.99482071
MJH_0616,191,3,2024-06-16T00:50:56.434Z,english_767.wav,0,0,582,,,,,0,0,29.63321135,0.17563718
MJH_0616,191,3,2024-06-16T00:50:56.434Z,english_767.wav,0,0,582,,,,,1,0.1,-31.63783795,0.61981002
MJH_0616,191,3,2024-06-16T00:50:56.434Z,english_767.wav,0,0,582,,,,,2,0.2,56.53254366,1.38773128
MJH_0616,191,3,2024-06-16T00:50:56.434Z,english_767.wav,0,0,582,,,,,3,0.3,52.69149806,1.37795514
MJH_0616,191,3,2024-06-16T00:50:56.434Z,english_767.wav,0,0,582,,,,,4,0.32341667,-0.8536295,1.97315338
MJH_0616,192,3,2024-06-16T00:50:56.434Z,english_934.wav,0,0,607,,,,,0,0,48.23169593,1.38760579
MJH_0616,192,3,2024-06-16T00:50:56.434Z,english_934.wav,0,0,607,,,,,1,0.1,42.81145804,1.74622613
MJH_0616,192,3,2024-06-16T00:50:56.434Z,english_934.wav,0,0,607,,,,,2,0.2,79.06411095,0.2874918
MJH_0616,192,3,2024-06-16T00:50:56.434Z,english_934.wav,0,0,607,,,,,3,0.3,69.44528076,1.61606763
MJH_0616,192,3,2024-06-16T00:50:56.434Z,english_934.wav,0,0,607,,,,,4,0.32341667,88.54940569,1.62058381
MJH_0616,193,3,2024-06-16T00:50:56.434Z,english_222.wav,0,0,435,,,,,0,0,-5.8882644,0.97478352
MJH_0616,193,3,2024-06-16T00:50:56.434Z,english_222.wav,0,0,435,,,,,1,0.1,-15.4334302,1.79573252
MJH_0616,193,3,2024-06-16T00:50:56.434Z,english_222.wav,0,0,435,,,,,2,0.2,-39.50203868,1.71948726
MJH_0616,193,3,2024-06-16T00:50:56.434Z,english_222.wav,0,0,435,,,,,3,0.3,67.79027175,0.41699719
MJH_0616,193,3,2024-06-16T00:50:56.434Z,english_222.wav,0,0,435,,,,,4,0.32341667,-43.17344259,0.26315099
MJH_0616,194,3,2024-06-16T00:50:56.434Z,english_929.wav,0,1,794,,,,,0,0,29.19700723,1.75028237
MJH_0616,194,3,2024-06-16T00:50:56.434Z,english_929.wav,0,1,794,,,,,1,0.1,15.63825327,0.16776534
MJH_0616,194,3,2024-06-16T00:50:56.434Z,english_929.wav,0,1,794,,,,,2,0.2,3.65085895,0.15899819
MJH_0616,194,3,2024-06-16T00:50:56.434Z,english_929.wav,0,1,794,,,,,3,0.3,-91.18848108,0.41497916
MJH_0616,194,3,2024-06-16T00:50:56.434Z,english_929.wav,0,1,794,,,,,4,0.32341667,53.29025089,0.946821
MJH_0616,195,3,2024-06-16T00:50:56.434Z,english_584.wav,0,0,565,,,,,0,0,10.38934641,1.28044862
MJH_0616,195,3,2024-06-16T00:50:56.434Z,english_584.wav,0,0,565,,,,,1,0.1,16.58552078,0.12750447
MJH_0616,195,3,2024-06-16T00:50:56.434Z,english_584.wav,0,0,565,,,,,2,0.2,93.24376001,0.67889343
MJH_0616,195,3,2024-06-16T00:50:56.434Z,english_584.wav,0,0,565,,,,,3,0.3,-17.62367845,1.20299248
MJH_0616,195,3,2024-06-16T00:50:56.434Z,english_584.wav,0,0,565,,,,,4,0.32341667,35.31863132,1.61660781
MJH_0616,196,3,2024-06-16T00:50:56.434Z,english_899.wav,0,1,837,,,,,0,0,34.44970312,1.0262563
MJH_0616,196,3,2024-06-16T00:50:56.434Z,english_899.wav,0,1,837,,,,,1,0.1,-73.97598586,0.5565938
MJH_0616,196,3,2024-06-16T00:50:56.434Z,english_899.wav,0,1,837,,,,,2,0.2,4.84970015,0.08950317
MJH_0616,196,3,2024-06-16T00:50:56.434Z,english_899.wav,0,1,837,,,,,3,0.3,25.99530817,1.10823657
MJH_0616,196,3,2024-06-16T00:50:56.434Z,english_899.wav,0,1,837,,,,,4,0.32341667,7.0197251,1.27665612
MJH_0616,197,3,2024-06-16T00:50:56.434Z,english_643.wav,0,1,1959,,,,,0,0,-40.15003434,1.60262153
MJH_0616,197,3,2024-06-16T00:50:56.434Z,english_643.wav,0,1,1959,,,,,1,0.1,-24.12893917,1.7682358
MJH_0616,197,3,2024-06-16T00:50:56.434Z,english_643.wav,0,1,1959,,,,,2,0.2,-40.66556796,0.31725537
MJH_0616,197,3,2024-06-16T00:50:56.434Z,english_643.wav,0,1,1959,,,,,3,0.3,75.01987067,0.56722121
MJH_0616,197,3,2024-06-16T00:50:56.434Z,english_643.wav,0,1,1959,,,,,4,0.32341667,29.71481383,1.87277365
MJH_0616,198,3,2024-06-16T00:50:56.434Z,english_575.wav,0,1,1750,,,,,0,0,61.73461998,1.8510319
MJH_0616,198,3,2024-06-16T00:50:56.434Z,english_575.wav,0,1,1750,,,,,1,0.1,-88.57549656,1.54102878
MJH_0616,198,3,2024-06-16T00:50:56.434Z,english_575.wav,0,1,1750,,,,,2,0.2,-30.88461278,1.19801244
MJH_0616,198,3,2024-06-16T00:50:56.434Z,english_575.wav,0,1,1750,,,,,3,0.3,-63.73327026,1.20026237
MJH_0616,198,3,2024-06-16T00:50:56.434Z,english_575.wav,0,1,1750,,,,,4,0.32341667,-0.55806298,1.04112184
MJH_0616,199,3,2024-06-16T00:50:56.434Z,english_446.wav,0,0,578,,,,,0,0,-50.90487531,0.84721497
MJH_0616,199,3,2024-06-16T00:50:56.434Z,english_446.wav,0,0,578,,,,,1,0.1,77.9515464,0.90863808
MJH_0616,199,3,2024-06-16T00:50:56.434Z,english_446.wav,0,0,578,,,,,2,0.2,12.96913102,0.45582271
MJH_0616,199,3,2024-06-16T00:50:56.434Z,english_446.wav,0,0,578,,,,,3,0.3,31.20275809,0.65529325
MJH_0616,199,3,2024-06-16T00:50:56.434Z,english_446.wav,0,0,578,,,,,4,0.32341667,-30.39700356,0.08422993
MJH_0616,200,4,2024-06-16T00:50:56.434Z,english_483.wav,0,0,789,,,,,0,0,-5.76716701,0.46419013
MJH_0616,200,4,2024-06-16T00:50:56.434Z,english_483.wav,0,0,789,,,,,1,0.1,70.49761143,1.51640771
MJH_0616,200,4,2024-06-16T00:50:56.434Z,english_483.wav,0,0,789,,,,,2,0.2,-45.60331281,0.16811565
MJH_0616,200,4,2024-06-16T00:50:56.434Z,english_483.wav,0,0,789,,,,,3,0.3,83.6717315,0.53401791
MJH_0616,200,4,2024-06-16T00:50:56.434Z,english_483.wav,0,0,789,,,,,4,0.32341667,-49.24362833,1.0404632
MJH_0616,201,4,2024-06-16T00:50:56.434Z,english_531.wav,0,1,1890,,,,,0,0,-79.40575395,0.23141906
MJH_0616,201,4,2024-06-16T00:50:56.434Z,english_531.wav,0,1,1890,,,,,1,0.1,24.69139357,1.34739197
MJH_0616,201,4,2024-06-16T00:50:56.434Z,english_531.wav,0,1,1890,,,,,2,0.2,31.85465478,0.44473315
MJH_0616,201,4,2024-06-16T00:50:56.434Z,english_531.wav,0,1,1890,,,,,3,0.3,0.37788074,1.31624907
MJH_0616,201,4,2024-06-16T00:50:56.434Z,english_531.wav,0,1,1890,,,,,4,0.32341667,-42.85922685,0.82105614
MJH_0616,202,4,2024-06-16T00:50:56.434Z,english_991.wav,0,0,582,,,,,0,0,-73.33762004,0.7279734
MJH_0616,202,4,2024-06-16T00:50:56.434Z,english_991.wav,0,0,582,,,,,1,0.1,-90.08677455,0.374322
MJH_0616,202,4,2024-06-16T00:50:56.434Z,english_991.wav,0,0,582,,,,,2,0.2,-98.84294029,0.98894361
MJH_0616,202,4,2024-06-16T00:50:56.434Z,english_991.wav,0,0,582,,,,,3,0.3,59.84972986,1.07774369
MJH_0616,202,4,2024-06-16T00:50:56.434Z,english_991.wav,0,0,582,,,,,4,0.32341667,21.03568625,0.51480923
MJH_0616,203,4,2024-06-16T00:50:56.434Z,english_836.wav,0,1,829,,,,,0,0,34.85846782,1.04017402
MJH_0616,203,4,2024-06-16T00:50:56.434Z,english_836.wav,0,1,829,,,,,1,0.1,41.54458908,0.35535359
MJH_0616,203,4,2024-06-16T00:50:56.434Z,english_836.wav,0,1,829,,,,,2,0.2,23.27363575,0.10471693
