subj,trial,block,date,stim,stim_order,response,rt,age,english,language,sex,param_index,segment,pitch,stretch
ZZX,0,0,2024-06-13T15:11:31.085Z,english_298.wav,0,0,8727,21,5,Chinese,m,0,0,-71.75530507,0.91890611
ZZX,0,0,2024-06-13T15:11:31.085Z,english_298.wav,0,0,8727,21,5,Chinese,m,1,0.1,76.25876358,0.7322353
ZZX,0,0,2024-06-13T15:11:31.085Z,english_298.wav,0,0,8727,21,5,Chinese,m,2,0.2,11.95102224,0.50601445
ZZX,0,0,2024-06-13T15:11:31.085Z,english_298.wav,0,0,8727,21,5,Chinese,m,3,0.3,79.91037795,0.41160049
ZZX,0,0,2024-06-13T15:11:31.085Z,english_298.wav,0,0,8727,21,5,Chinese,m,4,0.32341667,30.12462174,0.81223035
ZZX,1,0,2024-06-13T15:12:21.047Z,english_554.wav,0,1,3388,21,5,Chinese,m,0,0,9.57607907,1.93967122
ZZX,1,0,2024-06-13T15:12:21.047Z,english_554.wav,0,1,3388,21,5,Chinese,m,1,0.1,29.37398753,1.74360796
ZZX,1,0,2024-06-13T15:12:21.047Z,english_554.wav,0,1,3388,21,5,Chinese,m,2,0.2,-58.71210794,0.37945994
ZZX,1,0,2024-06-13T15:12:21.047Z,english_554.wav,0,1,3388,21,5,Chinese,m,3,0.3,-10.7927705,1.56347046
ZZX,1,0,2024-06-13T15:12:21.047Z,english_554.wav,0,1,3388,21,5,Chinese,m,4,0.32341667,21.8128915,1.38248676
ZZX,2,0,2024-06-13T15:12:21.047Z,english_386.wav,0,1,2996,21,5,Chinese,m,0,0,74.56899624,1.79299743
ZZX,2,0,2024-06-13T15:12:21.047Z,english_386.wav,0,1,2996,21,5,Chinese,m,1,0.1,25.94107183,0.16071221
ZZX,2,0,2024-06-13T15:12:21.047Z,english_386.wav,0,1,2996,21,5,Chinese,m,2,0.2,41.2839149,0.21721497
ZZX,2,0,2024-06-13T15:12:21.047Z,english_386.wav,0,1,2996,21,5,Chinese,m,3,0.3,14.47866495,1.22036918
ZZX,2,0,2024-06-13T15:12:21.047Z,english_386.wav,0,1,2996,21,5,Chinese,m,4,0.32341667,-14.73959674,1.81871952
ZZX,3,0,2024-06-13T15:12:21.047Z,english_964.wav,0,1,2199,21,5,Chinese,m,0,0,11.04708611,0.74384055
ZZX,3,0,2024-06-13T15:12:21.047Z,english_964.wav,0,1,2199,21,5,Chinese,m,1,0.1,-10.67848967,0.46038505
ZZX,3,0,2024-06-13T15:12:21.047Z,english_964.wav,0,1,2199,21,5,Chinese,m,2,0.2,64.95328634,0.80934661
ZZX,3,0,2024-06-13T15:12:21.047Z,english_964.wav,0,1,2199,21,5,Chinese,m,3,0.3,-78.10341524,1.94282647
ZZX,3,0,2024-06-13T15:12:21.047Z,english_964.wav,0,1,2199,21,5,Chinese,m,4,0.32341667,-48.61651995,1.99482071
ZZX,4,0,2024-06-13T15:12:21.047Z,english_282.wav,0,0,2417,21,5,Chinese,m,0,0,0.76940706,0.32837311
ZZX,4,0,2024-06-13T15:12:21.047Z,english_282.wav,0,0,2417,21,5,Chinese,m,1,0.1,85.14494722,0.39977994
ZZX,4,0,2024-06-13T15:12:21.047Z,english_282.wav,0,0,2417,21,5,Chinese,m,2,0.2,-92.43433596,0.62065738
ZZX,4,0,2024-06-13T15:12:21.047Z,english_282.wav,0,0,2417,21,5,Chinese,m,3,0.3,-98.42888083,0.06200237
ZZX,4,0,2024-06-13T15:12:21.047Z,english_282.wav,0,0,2417,21,5,Chinese,m,4,0.32341667,-32.58662549,1.4193679
ZZX,5,0,2024-06-13T15:12:21.047Z,english_985.wav,0,1,3212,21,5,Chinese,m,0,0,31.76144354,0.46805505
ZZX,5,0,2024-06-13T15:12:21.047Z,english_985.wav,0,1,3212,21,5,Chinese,m,1,0.1,49.0534069,1.72857245
ZZX,5,0,2024-06-13T15:12:21.047Z,english_985.wav,0,1,3212,21,5,Chinese,m,2,0.2,-59.14058353,0.05336254
ZZX,5,0,2024-06-13T15:12:21.047Z,english_985.wav,0,1,3212,21,5,Chinese,m,3,0.3,-36.25561351,0.45417652
ZZX,5,0,2024-06-13T15:12:21.047Z,english_985.wav,0,1,3212,21,5,Chinese,m,4,0.32341667,-53.50268286,1.33850641
ZZX,6,0,2024-06-13T15:12:21.047Z,english_453.wav,0,0,1127,21,5,Chinese,m,0,0,-60.23429987,1.87756573
ZZX,6,0,2024-06-13T15:12:21.047Z,english_453.wav,0,0,1127,21,5,Chinese,m,1,0.1,80.38725697,0.94070469
ZZX,6,0,2024-06-13T15:12:21.047Z,english_453.wav,0,0,1127,21,5,Chinese,m,2,0.2,66.16689695,1.71191258
ZZX,6,0,2024-06-13T15:12:21.047Z,english_453.wav,0,0,1127,21,5,Chinese,m,3,0.3,-59.46214637,0.56012011
ZZX,6,0,2024-06-13T15:12:21.047Z,english_453.wav,0,0,1127,21,5,Chinese,m,4,0.32341667,-39.76201882,0.35119419
ZZX,7,0,2024-06-13T15:12:21.047Z,english_608.wav,0,0,804,21,5,Chinese,m,0,0,78.8022196,1.54390555
ZZX,7,0,2024-06-13T15:12:21.047Z,english_608.wav,0,0,804,21,5,Chinese,m,1,0.1,59.03316834,1.36513164
ZZX,7,0,2024-06-13T15:12:21.047Z,english_608.wav,0,0,804,21,5,Chinese,m,2,0.2,-13.94961152,0.78716897
ZZX,7,0,2024-06-13T15:12:21.047Z,english_608.wav,0,0,804,21,5,Chinese,m,3,0.3,55.83681575,1.29889886
ZZX,7,0,2024-06-13T15:12:21.047Z,english_608.wav,0,0,804,21,5,Chinese,m,4,0.32341667,-13.77656228,0.44376749
ZZX,8,0,2024-06-13T15:12:21.047Z,english_542.wav,0,1,1326,21,5,Chinese,m,0,0,-75.53633957,0.40538048
ZZX,8,0,2024-06-13T15:12:21.047Z,english_542.wav,0,1,1326,21,5,Chinese,m,1,0.1,-65.83593262,1.98560632
ZZX,8,0,2024-06-13T15:12:21.047Z,english_542.wav,0,1,1326,21,5,Chinese,m,2,0.2,-66.8010443,1.18970355
ZZX,8,0,2024-06-13T15:12:21.047Z,english_542.wav,0,1,1326,21,5,Chinese,m,3,0.3,89.94318033,1.00543009
ZZX,8,0,2024-06-13T15:12:21.047Z,english_542.wav,0,1,1326,21,5,Chinese,m,4,0.32341667,-28.80984484,1.15995836
ZZX,9,0,2024-06-13T15:12:21.047Z,english_158.wav,0,1,407,21,5,Chinese,m,0,0,33.09785739,1.71128449
ZZX,9,0,2024-06-13T15:12:21.047Z,english_158.wav,0,1,407,21,5,Chinese,m,1,0.1,-85.08083727,1.56145129
ZZX,9,0,2024-06-13T15:12:21.047Z,english_158.wav,0,1,407,21,5,Chinese,m,2,0.2,97.70701203,0.69707892
ZZX,9,0,2024-06-13T15:12:21.047Z,english_158.wav,0,1,407,21,5,Chinese,m,3,0.3,2.54261044,1.19647348
ZZX,9,0,2024-06-13T15:12:21.047Z,english_158.wav,0,1,407,21,5,Chinese,m,4,0.32341667,-59.73934841,1.17782448
ZZX,10,0,2024-06-13T15:12:21.047Z,english_580.wav,0,0,668,21,5,Chinese,m,0,0,92.13406767,1.93694744
ZZX,10,0,2024-06-13T15:12:21.047Z,english_580.wav,0,0,668,21,5,Chinese,m,1,0.1,-85.58685866,0.28773753
ZZX,10,0,2024-06-13T15:12:21.047Z,english_580.wav,0,0,668,21,5,Chinese,m,2,0.2,57.10945482,0.86433335
ZZX,10,0,2024-06-13T15:12:21.047Z,english_580.wav,0,0,668,21,5,Chinese,m,3,0.3,32.92004132,0.96651265
ZZX,10,0,2024-06-13T15:12:21.047Z,english_580.wav,0,0,668,21,5,Chinese,m,4,0.32341667,52.08708517,1.25003658
ZZX,11,0,2024-06-13T15:12:21.047Z,english_114.wav,0,1,1257,21,5,Chinese,m,0,0,32.66189176,0.56529239
ZZX,11,0,2024-06-13T15:12:21.047Z,english_114.wav,0,1,1257,21,5,Chinese,m,1,0.1,11.50533392,1.79520186
ZZX,11,0,2024-06-13T15:12:21.047Z,english_114.wav,0,1,1257,21,5,Chinese,m,2,0.2,-73.58201401,1.4619954
ZZX,11,0,2024-06-13T15:12:21.047Z,english_114.wav,0,1,1257,21,5,Chinese,m,3,0.3,-8.93644113,0.78288211
ZZX,11,0,2024-06-13T15:12:21.047Z,english_114.wav,0,1,1257,21,5,Chinese,m,4,0.32341667,-2.4794064,0.66376764
ZZX,12,0,2024-06-13T15:12:21.047Z,english_955.wav,0,0,550,21,5,Chinese,m,0,0,-93.58498903,1.26703381
ZZX,12,0,2024-06-13T15:12:21.047Z,english_955.wav,0,0,550,21,5,Chinese,m,1,0.1,-11.56731864,0.51967441
ZZX,12,0,2024-06-13T15:12:21.047Z,english_955.wav,0,0,550,21,5,Chinese,m,2,0.2,60.37787928,1.0313906
ZZX,12,0,2024-06-13T15:12:21.047Z,english_955.wav,0,0,550,21,5,Chinese,m,3,0.3,83.42366765,1.58878747
ZZX,12,0,2024-06-13T15:12:21.047Z,english_955.wav,0,0,550,21,5,Chinese,m,4,0.32341667,-60.32056418,1.0025339
ZZX,13,0,2024-06-13T15:12:21.047Z,english_473.wav,0,0,520,21,5,Chinese,m,0,0,2.94536382,1.14273616
ZZX,13,0,2024-06-13T15:12:21.047Z,english_473.wav,0,0,520,21,5,Chinese,m,1,0.1,67.15962,0.71228689
ZZX,13,0,2024-06-13T15:12:21.047Z,english_473.wav,0,0,520,21,5,Chinese,m,2,0.2,-20.48190634,1.20280034
ZZX,13,0,2024-06-13T15:12:21.047Z,english_473.wav,0,0,520,21,5,Chinese,m,3,0.3,20.58811131,0.94325649
ZZX,13,0,2024-06-13T15:12:21.047Z,english_473.wav,0,0,520,21,5,Chinese,m,4,0.32341667,-71.10919795,1.82149668
ZZX,14,0,2024-06-13T15:12:21.047Z,english_465.wav,0,0,876,21,5,Chinese,m,0,0,40.04056426,1.33778995
ZZX,14,0,2024-06-13T15:12:21.047Z,english_465.wav,0,0,876,21,5,Chinese,m,1,0.1,-97.28817369,0.1899685
ZZX,14,0,2024-06-13T15:12:21.047Z,english_465.wav,0,0,876,21,5,Chinese,m,2,0.2,-58.72937184,1.35609136
ZZX,14,0,2024-06-13T15:12:21.047Z,english_465.wav,0,0,876,21,5,Chinese,m,3,0.3,82.2448524,1.94032164
ZZX,14,0,2024-06-13T15:12:21.047Z,english_465.wav,0,0,876,21,5,Chinese,m,4,0.32341667,-29.20233879,0.27858753
ZZX,15,0,2024-06-13T15:12:21.047Z,english_331.wav,0,0,1373,21,5,Chinese,m,0,0,12.66323204,1.93220763
ZZX,15,0,2024-06-13T15:12:21.047Z,english_331.wav,0,0,1373,21,5,Chinese,m,1,0.1,-81.78605138,1.48237299
ZZX,15,0,2024-06-13T15:12:21.047Z,english_331.wav,0,0,1373,21,5,Chinese,m,2,0.2,59.07546792,1.15413743
ZZX,15,0,2024-06-13T15:12:21.047Z,english_331.wav,0,0,1373,21,5,Chinese,m,3,0.3,-83.73170191,1.02182823
ZZX,15,0,2024-06-13T15:12:21.047Z,english_331.wav,0,0,1373,21,5,Chinese,m,4,0.32341667,3.10587362,0.81670354
ZZX,16,0,2024-06-13T15:12:21.047Z,english_59.wav,0,0,868,21,5,Chinese,m,0,0,30.26604033,1.5973148
ZZX,16,0,2024-06-13T15:12:21.047Z,english_59.wav,0,0,868,21,5,Chinese,m,1,0.1,25.69112756,0.24758472
ZZX,16,0,2024-06-13T15:12:21.047Z,english_59.wav,0,0,868,21,5,Chinese,m,2,0.2,-24.85549033,0.1547886
ZZX,16,0,2024-06-13T15:12:21.047Z,english_59.wav,0,0,868,21,5,Chinese,m,3,0.3,-31.2790444,0.30754036
ZZX,16,0,2024-06-13T15:12:21.047Z,english_59.wav,0,0,868,21,5,Chinese,m,4,0.32341667,86.30355152,0.40312024
ZZX,17,0,2024-06-13T15:12:21.047Z,english_610.wav,0,1,1027,21,5,Chinese,m,0,0,-14.96432812,0.5672697
ZZX,17,0,2024-06-13T15:12:21.047Z,english_610.wav,0,1,1027,21,5,Chinese,m,1,0.1,48.51886955,0.75156182
ZZX,17,0,2024-06-13T15:12:21.047Z,english_610.wav,0,1,1027,21,5,Chinese,m,2,0.2,47.07358548,0.38846335
ZZX,17,0,2024-06-13T15:12:21.047Z,english_610.wav,0,1,1027,21,5,Chinese,m,3,0.3,17.30383174,1.52072292
ZZX,17,0,2024-06-13T15:12:21.047Z,english_610.wav,0,1,1027,21,5,Chinese,m,4,0.32341667,1.51764356,1.56024836
ZZX,18,0,2024-06-13T15:12:21.047Z,english_953.wav,0,0,814,21,5,Chinese,m,0,0,-16.02430182,0.31806788
ZZX,18,0,2024-06-13T15:12:21.047Z,english_953.wav,0,0,814,21,5,Chinese,m,1,0.1,29.58660593,0.5983964
ZZX,18,0,2024-06-13T15:12:21.047Z,english_953.wav,0,0,814,21,5,Chinese,m,2,0.2,-69.77021268,1.47459901
ZZX,18,0,2024-06-13T15:12:21.047Z,english_953.wav,0,0,814,21,5,Chinese,m,3,0.3,10.24378989,1.63555671
ZZX,18,0,2024-06-13T15:12:21.047Z,english_953.wav,0,0,814,21,5,Chinese,m,4,0.32341667,-68.66835117,1.74756834
ZZX,19,0,2024-06-13T15:12:21.047Z,english_167.wav,0,1,713,21,5,Chinese,m,0,0,57.26975159,0.44729063
ZZX,19,0,2024-06-13T15:12:21.047Z,english_167.wav,0,1,713,21,5,Chinese,m,1,0.1,54.31010869,1.623568
ZZX,19,0,2024-06-13T15:12:21.047Z,english_167.wav,0,1,713,21,5,Chinese,m,2,0.2,99.57020207,0.28743218
ZZX,19,0,2024-06-13T15:12:21.047Z,english_167.wav,0,1,713,21,5,Chinese,m,3,0.3,27.92735821,0.71837494
ZZX,19,0,2024-06-13T15:12:21.047Z,english_167.wav,0,1,713,21,5,Chinese,m,4,0.32341667,73.13424206,1.35815305
ZZX,20,0,2024-06-13T15:12:21.047Z,english_342.wav,0,0,1338,21,5,Chinese,m,0,0,78.00911228,0.99673345
ZZX,20,0,2024-06-13T15:12:21.047Z,english_342.wav,0,0,1338,21,5,Chinese,m,1,0.1,-28.67768894,1.80563483
ZZX,20,0,2024-06-13T15:12:21.047Z,english_342.wav,0,0,1338,21,5,Chinese,m,2,0.2,73.55618202,1.38552336
ZZX,20,0,2024-06-13T15:12:21.047Z,english_342.wav,0,0,1338,21,5,Chinese,m,3,0.3,93.0509223,0.17145116
ZZX,20,0,2024-06-13T15:12:21.047Z,english_342.wav,0,0,1338,21,5,Chinese,m,4,0.32341667,-2.74816459,0.15059009
ZZX,21,0,2024-06-13T15:12:21.047Z,english_703.wav,0,0,391,21,5,Chinese,m,0,0,21.25560127,1.22587136
ZZX,21,0,2024-06-13T15:12:21.047Z,english_703.wav,0,0,391,21,5,Chinese,m,1,0.1,-5.61566417,1.28752652
ZZX,21,0,2024-06-13T15:12:21.047Z,english_703.wav,0,0,391,21,5,Chinese,m,2,0.2,-88.15973778,1.61643937
ZZX,21,0,2024-06-13T15:12:21.047Z,english_703.wav,0,0,391,21,5,Chinese,m,3,0.3,39.86499493,1.32560109
ZZX,21,0,2024-06-13T15:12:21.047Z,english_703.wav,0,0,391,21,5,Chinese,m,4,0.32341667,64.67338156,0.74206522
ZZX,22,0,2024-06-13T15:12:21.047Z,english_895.wav,0,0,1455,21,5,Chinese,m,0,0,-36.05432491,1.57991636
ZZX,22,0,2024-06-13T15:12:21.047Z,english_895.wav,0,0,1455,21,5,Chinese,m,1,0.1,0.27991529,1.29141926
ZZX,22,0,2024-06-13T15:12:21.047Z,english_895.wav,0,0,1455,21,5,Chinese,m,2,0.2,-68.50060493,0.78617821
ZZX,22,0,2024-06-13T15:12:21.047Z,english_895.wav,0,0,1455,21,5,Chinese,m,3,0.3,-65.34452755,0.53071912
ZZX,22,0,2024-06-13T15:12:21.047Z,english_895.wav,0,0,1455,21,5,Chinese,m,4,0.32341667,44.30205494,1.44568828
ZZX,23,0,2024-06-13T15:12:21.047Z,english_991.wav,0,0,432,21,5,Chinese,m,0,0,-73.33762004,0.7279734
ZZX,23,0,2024-06-13T15:12:21.047Z,english_991.wav,0,0,432,21,5,Chinese,m,1,0.1,-90.08677455,0.374322
ZZX,23,0,2024-06-13T15:12:21.047Z,english_991.wav,0,0,432,21,5,Chinese,m,2,0.2,-98.84294029,0.98894361
ZZX,23,0,2024-06-13T15:12:21.047Z,english_991.wav,0,0,432,21,5,Chinese,m,3,0.3,59.84972986,1.07774369
ZZX,23,0,2024-06-13T15:12:21.047Z,english_991.wav,0,0,432,21,5,Chinese,m,4,0.32341667,21.03568625,0.51480923
ZZX,24,0,2024-06-13T15:12:21.047Z,english_276.wav,0,1,203,21,5,Chinese,m,0,0,-87.25523595,1.1918401
ZZX,24,0,2024-06-13T15:12:21.047Z,english_276.wav,0,1,203,21,5,Chinese,m,1,0.1,16.91650801,0.89399115
ZZX,24,0,2024-06-13T15:12:21.047Z,english_276.wav,0,1,203,21,5,Chinese,m,2,0.2,-40.09372932,0.89701806
ZZX,24,0,2024-06-13T15:12:21.047Z,english_276.wav,0,1,203,21,5,Chinese,m,3,0.3,3.19229046,1.98333504
ZZX,24,0,2024-06-13T15:12:21.047Z,english_276.wav,0,1,203,21,5,Chinese,m,4,0.32341667,18.84785296,1.85350493
ZZX,25,0,2024-06-13T15:12:21.047Z,english_715.wav,0,0,973,21,5,Chinese,m,0,0,-64.21420564,1.80154013
ZZX,25,0,2024-06-13T15:12:21.047Z,english_715.wav,0,0,973,21,5,Chinese,m,1,0.1,77.40813629,0.51096517
ZZX,25,0,2024-06-13T15:12:21.047Z,english_715.wav,0,0,973,21,5,Chinese,m,2,0.2,-98.26791609,0.49870215
ZZX,25,0,2024-06-13T15:12:21.047Z,english_715.wav,0,0,973,21,5,Chinese,m,3,0.3,-32.66334796,0.64344691
ZZX,25,0,2024-06-13T15:12:21.047Z,english_715.wav,0,0,973,21,5,Chinese,m,4,0.32341667,93.12500574,1.17662216
ZZX,26,0,2024-06-13T15:12:21.047Z,english_888.wav,0,1,522,21,5,Chinese,m,0,0,-75.11317729,0.15619421
ZZX,26,0,2024-06-13T15:12:21.047Z,english_888.wav,0,1,522,21,5,Chinese,m,1,0.1,-15.41916561,1.45351631
ZZX,26,0,2024-06-13T15:12:21.047Z,english_888.wav,0,1,522,21,5,Chinese,m,2,0.2,30.82770832,1.60154734
ZZX,26,0,2024-06-13T15:12:21.047Z,english_888.wav,0,1,522,21,5,Chinese,m,3,0.3,69.72581111,1.09787436
ZZX,26,0,2024-06-13T15:12:21.047Z,english_888.wav,0,1,522,21,5,Chinese,m,4,0.32341667,-21.6620698,1.3760261
ZZX,27,0,2024-06-13T15:12:21.047Z,english_108.wav,0,1,314,21,5,Chinese,m,0,0,-20.69942707,0.77052949
ZZX,27,0,2024-06-13T15:12:21.047Z,english_108.wav,0,1,314,21,5,Chinese,m,1,0.1,-59.42152954,1.01445352
ZZX,27,0,2024-06-13T15:12:21.047Z,english_108.wav,0,1,314,21,5,Chinese,m,2,0.2,-8.09170222,0.42363715
ZZX,27,0,2024-06-13T15:12:21.047Z,english_108.wav,0,1,314,21,5,Chinese,m,3,0.3,21.99826779,1.45799831
ZZX,27,0,2024-06-13T15:12:21.047Z,english_108.wav,0,1,314,21,5,Chinese,m,4,0.32341667,56.38973361,1.71498507
ZZX,28,0,2024-06-13T15:12:21.047Z,english_293.wav,0,1,471,21,5,Chinese,m,0,0,-22.15906653,1.76366583
ZZX,28,0,2024-06-13T15:12:21.047Z,english_293.wav,0,1,471,21,5,Chinese,m,1,0.1,-88.62057809,0.55660069
ZZX,28,0,2024-06-13T15:12:21.047Z,english_293.wav,0,1,471,21,5,Chinese,m,2,0.2,-18.47979893,1.17282558
ZZX,28,0,2024-06-13T15:12:21.047Z,english_293.wav,0,1,471,21,5,Chinese,m,3,0.3,-74.2852497,0.49477424
ZZX,28,0,2024-06-13T15:12:21.047Z,english_293.wav,0,1,471,21,5,Chinese,m,4,0.32341667,59.45323022,0.66659794
ZZX,29,0,2024-06-13T15:12:21.047Z,english_555.wav,0,1,628,21,5,Chinese,m,0,0,69.49762262,1.08530069
ZZX,29,0,2024-06-13T15:12:21.047Z,english_555.wav,0,1,628,21,5,Chinese,m,1,0.1,42.72159746,0.99979939
ZZX,29,0,2024-06-13T15:12:21.047Z,english_555.wav,0,1,628,21,5,Chinese,m,2,0.2,96.74773092,1.75882447
ZZX,29,0,2024-06-13T15:12:21.047Z,english_555.wav,0,1,628,21,5,Chinese,m,3,0.3,-27.92411753,1.36775981
ZZX,29,0,2024-06-13T15:12:21.047Z,english_555.wav,0,1,628,21,5,Chinese,m,4,0.32341667,33.93273626,0.90104071
ZZX,30,0,2024-06-13T15:12:21.047Z,english_548.wav,0,1,1506,21,5,Chinese,m,0,0,19.39315344,0.41811488
ZZX,30,0,2024-06-13T15:12:21.047Z,english_548.wav,0,1,1506,21,5,Chinese,m,1,0.1,82.09582914,1.70384437
ZZX,30,0,2024-06-13T15:12:21.047Z,english_548.wav,0,1,1506,21,5,Chinese,m,2,0.2,-65.55781301,1.82142436
ZZX,30,0,2024-06-13T15:12:21.047Z,english_548.wav,0,1,1506,21,5,Chinese,m,3,0.3,-5.02691035,1.13784798
ZZX,30,0,2024-06-13T15:12:21.047Z,english_548.wav,0,1,1506,21,5,Chinese,m,4,0.32341667,62.63141303,1.73168063
ZZX,31,0,2024-06-13T15:12:21.047Z,english_154.wav,0,0,2077,21,5,Chinese,m,0,0,69.79630433,0.95543174
ZZX,31,0,2024-06-13T15:12:21.047Z,english_154.wav,0,0,2077,21,5,Chinese,m,1,0.1,-67.81892388,1.87835363
ZZX,31,0,2024-06-13T15:12:21.047Z,english_154.wav,0,0,2077,21,5,Chinese,m,2,0.2,14.97335347,1.19287874
ZZX,31,0,2024-06-13T15:12:21.047Z,english_154.wav,0,0,2077,21,5,Chinese,m,3,0.3,8.47433965,1.12321966
ZZX,31,0,2024-06-13T15:12:21.047Z,english_154.wav,0,0,2077,21,5,Chinese,m,4,0.32341667,32.47098569,0.66995817
ZZX,32,0,2024-06-13T15:12:21.047Z,english_239.wav,0,0,4128,21,5,Chinese,m,0,0,87.44943986,1.42022081
ZZX,32,0,2024-06-13T15:12:21.047Z,english_239.wav,0,0,4128,21,5,Chinese,m,1,0.1,50.09814929,0.64261102
ZZX,32,0,2024-06-13T15:12:21.047Z,english_239.wav,0,0,4128,21,5,Chinese,m,2,0.2,-20.91132269,0.17156284
ZZX,32,0,2024-06-13T15:12:21.047Z,english_239.wav,0,0,4128,21,5,Chinese,m,3,0.3,1.56869958,1.89365974
ZZX,32,0,2024-06-13T15:12:21.047Z,english_239.wav,0,0,4128,21,5,Chinese,m,4,0.32341667,15.23790706,1.86939691
ZZX,33,0,2024-06-13T15:12:21.047Z,english_400.wav,0,0,2962,21,5,Chinese,m,0,0,-9.17924521,1.06898792
ZZX,33,0,2024-06-13T15:12:21.047Z,english_400.wav,0,0,2962,21,5,Chinese,m,1,0.1,-51.0410118,0.05890524
ZZX,33,0,2024-06-13T15:12:21.047Z,english_400.wav,0,0,2962,21,5,Chinese,m,2,0.2,66.2548805,1.54728483
ZZX,33,0,2024-06-13T15:12:21.047Z,english_400.wav,0,0,2962,21,5,Chinese,m,3,0.3,92.33374018,1.43953162
ZZX,33,0,2024-06-13T15:12:21.047Z,english_400.wav,0,0,2962,21,5,Chinese,m,4,0.32341667,-60.80730989,1.12546459
ZZX,34,0,2024-06-13T15:12:21.047Z,english_32.wav,0,0,466,21,5,Chinese,m,0,0,89.50349963,1.73304916
ZZX,34,0,2024-06-13T15:12:21.047Z,english_32.wav,0,0,466,21,5,Chinese,m,1,0.1,51.51128255,0.02192789
ZZX,34,0,2024-06-13T15:12:21.047Z,english_32.wav,0,0,466,21,5,Chinese,m,2,0.2,-58.32910347,1.71493142
ZZX,34,0,2024-06-13T15:12:21.047Z,english_32.wav,0,0,466,21,5,Chinese,m,3,0.3,15.96172744,1.28451373
ZZX,34,0,2024-06-13T15:12:21.047Z,english_32.wav,0,0,466,21,5,Chinese,m,4,0.32341667,84.40449403,1.22971166
ZZX,35,0,2024-06-13T15:12:21.047Z,english_235.wav,0,1,367,21,5,Chinese,m,0,0,-1.09951899,1.56432712
ZZX,35,0,2024-06-13T15:12:21.047Z,english_235.wav,0,1,367,21,5,Chinese,m,1,0.1,-96.83918407,0.18127978
ZZX,35,0,2024-06-13T15:12:21.047Z,english_235.wav,0,1,367,21,5,Chinese,m,2,0.2,96.22116446,1.26168206
ZZX,35,0,2024-06-13T15:12:21.047Z,english_235.wav,0,1,367,21,5,Chinese,m,3,0.3,48.9502898,1.98140435
ZZX,35,0,2024-06-13T15:12:21.047Z,english_235.wav,0,1,367,21,5,Chinese,m,4,0.32341667,38.18641725,0.52366779
ZZX,36,0,2024-06-13T15:12:21.047Z,english_625.wav,0,1,1744,21,5,Chinese,m,0,0,25.70847239,1.1960971
ZZX,36,0,2024-06-13T15:12:21.047Z,english_625.wav,0,1,1744,21,5,Chinese,m,1,0.1,-37.82303983,0.02795501
ZZX,36,0,2024-06-13T15:12:21.047Z,english_625.wav,0,1,1744,21,5,Chinese,m,2,0.2,38.52328891,1.10198652
ZZX,36,0,2024-06-13T15:12:21.047Z,english_625.wav,0,1,1744,21,5,Chinese,m,3,0.3,-23.93667478,0.08852642
ZZX,36,0,2024-06-13T15:12:21.047Z,english_625.wav,0,1,1744,21,5,Chinese,m,4,0.32341667,-53.98326942,1.59813041
ZZX,37,0,2024-06-13T15:12:21.047Z,english_979.wav,0,1,436,21,5,Chinese,m,0,0,-1.00654814,1.61411081
ZZX,37,0,2024-06-13T15:12:21.047Z,english_979.wav,0,1,436,21,5,Chinese,m,1,0.1,18.39835707,1.30464512
ZZX,37,0,2024-06-13T15:12:21.047Z,english_979.wav,0,1,436,21,5,Chinese,m,2,0.2,-42.91789413,0.93120215
ZZX,37,0,2024-06-13T15:12:21.047Z,english_979.wav,0,1,436,21,5,Chinese,m,3,0.3,-58.29527223,0.87145212
ZZX,37,0,2024-06-13T15:12:21.047Z,english_979.wav,0,1,436,21,5,Chinese,m,4,0.32341667,86.14740424,1.17332389
ZZX,38,0,2024-06-13T15:12:21.047Z,english_797.wav,0,0,105,21,5,Chinese,m,0,0,-10.77604935,1.75152448
ZZX,38,0,2024-06-13T15:12:21.047Z,english_797.wav,0,0,105,21,5,Chinese,m,1,0.1,76.52998448,0.25625033
ZZX,38,0,2024-06-13T15:12:21.047Z,english_797.wav,0,0,105,21,5,Chinese,m,2,0.2,-52.30950648,1.63910521
ZZX,38,0,2024-06-13T15:12:21.047Z,english_797.wav,0,0,105,21,5,Chinese,m,3,0.3,-19.27189704,1.44412191
ZZX,38,0,2024-06-13T15:12:21.047Z,english_797.wav,0,0,105,21,5,Chinese,m,4,0.32341667,-68.52312916,1.41513857
ZZX,39,0,2024-06-13T15:12:21.047Z,english_387.wav,0,1,272,21,5,Chinese,m,0,0,14.25538659,0.59610882
ZZX,39,0,2024-06-13T15:12:21.047Z,english_387.wav,0,1,272,21,5,Chinese,m,1,0.1,-5.8057983,0.93453474
ZZX,39,0,2024-06-13T15:12:21.047Z,english_387.wav,0,1,272,21,5,Chinese,m,2,0.2,-2.59288607,1.87880123
ZZX,39,0,2024-06-13T15:12:21.047Z,english_387.wav,0,1,272,21,5,Chinese,m,3,0.3,19.33055559,0.79709693
ZZX,39,0,2024-06-13T15:12:21.047Z,english_387.wav,0,1,272,21,5,Chinese,m,4,0.32341667,-85.57173801,0.90161027
ZZX,40,0,2024-06-13T15:12:21.047Z,english_266.wav,0,1,1409,21,5,Chinese,m,0,0,16.70772117,0.81064175
ZZX,40,0,2024-06-13T15:12:21.047Z,english_266.wav,0,1,1409,21,5,Chinese,m,1,0.1,-61.82971906,1.48442032
ZZX,40,0,2024-06-13T15:12:21.047Z,english_266.wav,0,1,1409,21,5,Chinese,m,2,0.2,-31.41060896,1.39445033
ZZX,40,0,2024-06-13T15:12:21.047Z,english_266.wav,0,1,1409,21,5,Chinese,m,3,0.3,-8.94045194,1.01594082
ZZX,40,0,2024-06-13T15:12:21.047Z,english_266.wav,0,1,1409,21,5,Chinese,m,4,0.32341667,-27.43066022,0.75934284
ZZX,41,0,2024-06-13T15:12:21.047Z,english_343.wav,0,0,1005,21,5,Chinese,m,0,0,-26.15456552,0.99905336
ZZX,41,0,2024-06-13T15:12:21.047Z,english_343.wav,0,0,1005,21,5,Chinese,m,1,0.1,-4.26522308,0.59066439
ZZX,41,0,2024-06-13T15:12:21.047Z,english_343.wav,0,0,1005,21,5,Chinese,m,2,0.2,55.3227334,1.69088488
ZZX,41,0,2024-06-13T15:12:21.047Z,english_343.wav,0,0,1005,21,5,Chinese,m,3,0.3,-26.26518208,1.70645599
ZZX,41,0,2024-06-13T15:12:21.047Z,english_343.wav,0,0,1005,21,5,Chinese,m,4,0.32341667,-18.3065251,0.13143106
ZZX,42,0,2024-06-13T15:12:21.047Z,english_252.wav,0,1,656,21,5,Chinese,m,0,0,79.75601627,0.77799761
ZZX,42,0,2024-06-13T15:12:21.047Z,english_252.wav,0,1,656,21,5,Chinese,m,1,0.1,17.00183399,1.07711339
ZZX,42,0,2024-06-13T15:12:21.047Z,english_252.wav,0,1,656,21,5,Chinese,m,2,0.2,-25.42800597,0.7917181
ZZX,42,0,2024-06-13T15:12:21.047Z,english_252.wav,0,1,656,21,5,Chinese,m,3,0.3,-47.65138194,1.47632881
ZZX,42,0,2024-06-13T15:12:21.047Z,english_252.wav,0,1,656,21,5,Chinese,m,4,0.32341667,35.10652067,1.65919103
ZZX,43,0,2024-06-13T15:12:21.047Z,english_494.wav,0,0,2436,21,5,Chinese,m,0,0,-3.60210196,0.92014098
ZZX,43,0,2024-06-13T15:12:21.047Z,english_494.wav,0,0,2436,21,5,Chinese,m,1,0.1,-0.0120609558,1.08763174
ZZX,43,0,2024-06-13T15:12:21.047Z,english_494.wav,0,0,2436,21,5,Chinese,m,2,0.2,-75.2550513,0.29239621
ZZX,43,0,2024-06-13T15:12:21.047Z,english_494.wav,0,0,2436,21,5,Chinese,m,3,0.3,39.6800445,0.26357805
ZZX,43,0,2024-06-13T15:12:21.047Z,english_494.wav,0,0,2436,21,5,Chinese,m,4,0.323416667,78.1977592,1.67878037
ZZX,44,0,2024-06-13T15:12:21.047Z,english_367.wav,0,0,1921,21,5,Chinese,m,0,0,69.68935346,1.12532443
ZZX,44,0,2024-06-13T15:12:21.047Z,english_367.wav,0,0,1921,21,5,Chinese,m,1,0.1,-21.84293244,1.15903886
ZZX,44,0,2024-06-13T15:12:21.047Z,english_367.wav,0,0,1921,21,5,Chinese,m,2,0.2,-22.40126322,1.68834661
ZZX,44,0,2024-06-13T15:12:21.047Z,english_367.wav,0,0,1921,21,5,Chinese,m,3,0.3,-77.83415675,1.78966274
ZZX,44,0,2024-06-13T15:12:21.047Z,english_367.wav,0,0,1921,21,5,Chinese,m,4,0.32341667,18.42522507,1.57311162
ZZX,45,0,2024-06-13T15:12:21.047Z,english_73.wav,0,0,1791,21,5,Chinese,m,0,0,-73.49165063,1.41947215
ZZX,45,0,2024-06-13T15:12:21.047Z,english_73.wav,0,0,1791,21,5,Chinese,m,1,0.1,65.54847429,1.68852165
ZZX,45,0,2024-06-13T15:12:21.047Z,english_73.wav,0,0,1791,21,5,Chinese,m,2,0.2,-55.11967081,0.59259525
ZZX,45,0,2024-06-13T15:12:21.047Z,english_73.wav,0,0,1791,21,5,Chinese,m,3,0.3,68.77466141,0.85140805
ZZX,45,0,2024-06-13T15:12:21.047Z,english_73.wav,0,0,1791,21,5,Chinese,m,4,0.32341667,-37.79888894,1.17745107
ZZX,46,0,2024-06-13T15:12:21.047Z,english_759.wav,0,0,2506,21,5,Chinese,m,0,0,22.56482953,0.32974928
ZZX,46,0,2024-06-13T15:12:21.047Z,english_759.wav,0,0,2506,21,5,Chinese,m,1,0.1,-26.57515882,0.74944663
ZZX,46,0,2024-06-13T15:12:21.047Z,english_759.wav,0,0,2506,21,5,Chinese,m,2,0.2,58.52096087,0.73148935
ZZX,46,0,2024-06-13T15:12:21.047Z,english_759.wav,0,0,2506,21,5,Chinese,m,3,0.3,67.88336338,0.69769471
ZZX,46,0,2024-06-13T15:12:21.047Z,english_759.wav,0,0,2506,21,5,Chinese,m,4,0.32341667,-98.7178367,1.46371733
ZZX,47,0,2024-06-13T15:12:21.047Z,english_980.wav,0,0,2251,21,5,Chinese,m,0,0,-32.33629208,1.21290567
ZZX,47,0,2024-06-13T15:12:21.047Z,english_980.wav,0,0,2251,21,5,Chinese,m,1,0.1,-4.4140807,0.22350007
ZZX,47,0,2024-06-13T15:12:21.047Z,english_980.wav,0,0,2251,21,5,Chinese,m,2,0.2,76.81412515,1.68078519
ZZX,47,0,2024-06-13T15:12:21.047Z,english_980.wav,0,0,2251,21,5,Chinese,m,3,0.3,-16.24877133,0.16816052
ZZX,47,0,2024-06-13T15:12:21.047Z,english_980.wav,0,0,2251,21,5,Chinese,m,4,0.32341667,-26.44128118,1.48722631
ZZX,48,0,2024-06-13T15:12:21.047Z,english_995.wav,0,0,1243,21,5,Chinese,m,0,0,49.33707883,0.89732458
ZZX,48,0,2024-06-13T15:12:21.047Z,english_995.wav,0,0,1243,21,5,Chinese,m,1,0.1,54.78730957,0.49662083
ZZX,48,0,2024-06-13T15:12:21.047Z,english_995.wav,0,0,1243,21,5,Chinese,m,2,0.2,-5.99414072,0.83265132
ZZX,48,0,2024-06-13T15:12:21.047Z,english_995.wav,0,0,1243,21,5,Chinese,m,3,0.3,26.8687238,1.32035917
ZZX,48,0,2024-06-13T15:12:21.047Z,english_995.wav,0,0,1243,21,5,Chinese,m,4,0.32341667,38.3348194,1.99869744
ZZX,49,0,2024-06-13T15:12:21.047Z,english_514.wav,0,0,2354,21,5,Chinese,m,0,0,-61.65105701,1.12509033
ZZX,49,0,2024-06-13T15:12:21.047Z,english_514.wav,0,0,2354,21,5,Chinese,m,1,0.1,49.84264816,0.78701739
ZZX,49,0,2024-06-13T15:12:21.047Z,english_514.wav,0,0,2354,21,5,Chinese,m,2,0.2,14.14440898,0.37052689
ZZX,49,0,2024-06-13T15:12:21.047Z,english_514.wav,0,0,2354,21,5,Chinese,m,3,0.3,-30.10662908,1.42053426
ZZX,49,0,2024-06-13T15:12:21.047Z,english_514.wav,0,0,2354,21,5,Chinese,m,4,0.32341667,90.48337022,1.94621598
ZZX,50,1,2024-06-13T15:15:57.755Z,english_540.wav,0,0,1575,21,5,Chinese,m,0,0,-46.6752609,1.16352469
ZZX,50,1,2024-06-13T15:15:57.755Z,english_540.wav,0,0,1575,21,5,Chinese,m,1,0.1,-93.20209644,0.0234781
ZZX,50,1,2024-06-13T15:15:57.755Z,english_540.wav,0,0,1575,21,5,Chinese,m,2,0.2,64.96419662,0.05926191
ZZX,50,1,2024-06-13T15:15:57.755Z,english_540.wav,0,0,1575,21,5,Chinese,m,3,0.3,-12.16484387,1.47406284
ZZX,50,1,2024-06-13T15:15:57.755Z,english_540.wav,0,0,1575,21,5,Chinese,m,4,0.32341667,-44.34688232,0.60104864
ZZX,51,1,2024-06-13T15:15:57.755Z,english_682.wav,0,0,1403,21,5,Chinese,m,0,0,-19.80167737,1.6131825
ZZX,51,1,2024-06-13T15:15:57.755Z,english_682.wav,0,0,1403,21,5,Chinese,m,1,0.1,-30.98220326,1.03205672
ZZX,51,1,2024-06-13T15:15:57.755Z,english_682.wav,0,0,1403,21,5,Chinese,m,2,0.2,26.07010201,1.08357256
ZZX,51,1,2024-06-13T15:15:57.755Z,english_682.wav,0,0,1403,21,5,Chinese,m,3,0.3,-7.79776739,1.70642947
ZZX,51,1,2024-06-13T15:15:57.755Z,english_682.wav,0,0,1403,21,5,Chinese,m,4,0.32341667,-10.9148898,0.86858281
ZZX,52,1,2024-06-13T15:15:57.755Z,english_65.wav,0,0,795,21,5,Chinese,m,0,0,-46.88015867,0.62230507
ZZX,52,1,2024-06-13T15:15:57.755Z,english_65.wav,0,0,795,21,5,Chinese,m,1,0.1,54.34027197,1.12355997
ZZX,52,1,2024-06-13T15:15:57.755Z,english_65.wav,0,0,795,21,5,Chinese,m,2,0.2,-65.46386729,1.0507031
ZZX,52,1,2024-06-13T15:15:57.755Z,english_65.wav,0,0,795,21,5,Chinese,m,3,0.3,-66.7533487,0.71238348
ZZX,52,1,2024-06-13T15:15:57.755Z,english_65.wav,0,0,795,21,5,Chinese,m,4,0.32341667,-12.18147599,0.41048607
ZZX,53,1,2024-06-13T15:15:57.755Z,english_597.wav,0,1,2343,21,5,Chinese,m,0,0,-83.66792118,0.17389721
ZZX,53,1,2024-06-13T15:15:57.755Z,english_597.wav,0,1,2343,21,5,Chinese,m,1,0.1,-19.98744657,0.39349672
ZZX,53,1,2024-06-13T15:15:57.755Z,english_597.wav,0,1,2343,21,5,Chinese,m,2,0.2,-30.38458549,1.97590818
ZZX,53,1,2024-06-13T15:15:57.755Z,english_597.wav,0,1,2343,21,5,Chinese,m,3,0.3,-63.4406446,1.84988074
ZZX,53,1,2024-06-13T15:15:57.755Z,english_597.wav,0,1,2343,21,5,Chinese,m,4,0.32341667,25.67812426,1.17620678
ZZX,54,1,2024-06-13T15:15:57.755Z,english_911.wav,0,0,625,21,5,Chinese,m,0,0,62.6913709,0.89860539
ZZX,54,1,2024-06-13T15:15:57.755Z,english_911.wav,0,0,625,21,5,Chinese,m,1,0.1,-28.7089255,0.06791792
ZZX,54,1,2024-06-13T15:15:57.755Z,english_911.wav,0,0,625,21,5,Chinese,m,2,0.2,-71.03383871,1.00076401
ZZX,54,1,2024-06-13T15:15:57.755Z,english_911.wav,0,0,625,21,5,Chinese,m,3,0.3,93.02773855,1.24961505
ZZX,54,1,2024-06-13T15:15:57.755Z,english_911.wav,0,0,625,21,5,Chinese,m,4,0.32341667,93.73973981,1.26639778
ZZX,55,1,2024-06-13T15:15:57.755Z,english_96.wav,0,1,5528,21,5,Chinese,m,0,0,-2.60251168,1.33849038
ZZX,55,1,2024-06-13T15:15:57.755Z,english_96.wav,0,1,5528,21,5,Chinese,m,1,0.1,3.1808695,1.03790095
ZZX,55,1,2024-06-13T15:15:57.755Z,english_96.wav,0,1,5528,21,5,Chinese,m,2,0.2,-93.89625608,0.32730996
ZZX,55,1,2024-06-13T15:15:57.755Z,english_96.wav,0,1,5528,21,5,Chinese,m,3,0.3,22.03695444,1.15118519
ZZX,55,1,2024-06-13T15:15:57.755Z,english_96.wav,0,1,5528,21,5,Chinese,m,4,0.32341667,89.13776591,1.37996061
ZZX,56,1,2024-06-13T15:15:57.755Z,english_268.wav,0,1,2088,21,5,Chinese,m,0,0,55.18591224,1.47327052
ZZX,56,1,2024-06-13T15:15:57.755Z,english_268.wav,0,1,2088,21,5,Chinese,m,1,0.1,47.37483414,0.95932673
ZZX,56,1,2024-06-13T15:15:57.755Z,english_268.wav,0,1,2088,21,5,Chinese,m,2,0.2,46.97410588,1.80275919
ZZX,56,1,2024-06-13T15:15:57.755Z,english_268.wav,0,1,2088,21,5,Chinese,m,3,0.3,-64.08979313,1.6474991
ZZX,56,1,2024-06-13T15:15:57.755Z,english_268.wav,0,1,2088,21,5,Chinese,m,4,0.32341667,35.8590447,1.56533667
ZZX,57,1,2024-06-13T15:15:57.755Z,english_430.wav,0,0,1082,21,5,Chinese,m,0,0,72.23510535,0.8682214
ZZX,57,1,2024-06-13T15:15:57.755Z,english_430.wav,0,0,1082,21,5,Chinese,m,1,0.1,-9.56156918,0.26781202
ZZX,57,1,2024-06-13T15:15:57.755Z,english_430.wav,0,0,1082,21,5,Chinese,m,2,0.2,36.71559936,1.38873793
ZZX,57,1,2024-06-13T15:15:57.755Z,english_430.wav,0,0,1082,21,5,Chinese,m,3,0.3,-33.55254317,0.29076709
ZZX,57,1,2024-06-13T15:15:57.755Z,english_430.wav,0,0,1082,21,5,Chinese,m,4,0.32341667,-25.71861109,0.30869259
ZZX,58,1,2024-06-13T15:15:57.755Z,english_204.wav,0,1,2551,21,5,Chinese,m,0,0,67.46317025,1.58701212
ZZX,58,1,2024-06-13T15:15:57.755Z,english_204.wav,0,1,2551,21,5,Chinese,m,1,0.1,38.91463365,1.82178317
ZZX,58,1,2024-06-13T15:15:57.755Z,english_204.wav,0,1,2551,21,5,Chinese,m,2,0.2,-85.28377865,1.60361911
ZZX,58,1,2024-06-13T15:15:57.755Z,english_204.wav,0,1,2551,21,5,Chinese,m,3,0.3,55.65505401,0.21823774
ZZX,58,1,2024-06-13T15:15:57.755Z,english_204.wav,0,1,2551,21,5,Chinese,m,4,0.32341667,56.32983288,0.04661671
ZZX,59,1,2024-06-13T15:15:57.755Z,english_475.wav,0,0,649,21,5,Chinese,m,0,0,-68.25626322,0.40988158
ZZX,59,1,2024-06-13T15:15:57.755Z,english_475.wav,0,0,649,21,5,Chinese,m,1,0.1,-56.46648788,1.90107213
ZZX,59,1,2024-06-13T15:15:57.755Z,english_475.wav,0,0,649,21,5,Chinese,m,2,0.2,49.77560279,0.54721615
ZZX,59,1,2024-06-13T15:15:57.755Z,english_475.wav,0,0,649,21,5,Chinese,m,3,0.3,-41.74178488,1.80730726
ZZX,59,1,2024-06-13T15:15:57.755Z,english_475.wav,0,0,649,21,5,Chinese,m,4,0.32341667,-60.3255454,0.11427958
ZZX,60,1,2024-06-13T15:15:57.755Z,english_965.wav,0,0,524,21,5,Chinese,m,0,0,-19.49526798,1.71910172
ZZX,60,1,2024-06-13T15:15:57.755Z,english_965.wav,0,0,524,21,5,Chinese,m,1,0.1,-33.46093545,1.16323176
ZZX,60,1,2024-06-13T15:15:57.755Z,english_965.wav,0,0,524,21,5,Chinese,m,2,0.2,95.24809114,0.56514201
ZZX,60,1,2024-06-13T15:15:57.755Z,english_965.wav,0,0,524,21,5,Chinese,m,3,0.3,26.23968625,1.82539978
ZZX,60,1,2024-06-13T15:15:57.755Z,english_965.wav,0,0,524,21,5,Chinese,m,4,0.32341667,15.70217089,1.7659451
ZZX,61,1,2024-06-13T15:15:57.755Z,english_573.wav,0,1,479,21,5,Chinese,m,0,0,-46.41950257,0.98293374
ZZX,61,1,2024-06-13T15:15:57.755Z,english_573.wav,0,1,479,21,5,Chinese,m,1,0.1,-92.58424164,0.99885906
ZZX,61,1,2024-06-13T15:15:57.755Z,english_573.wav,0,1,479,21,5,Chinese,m,2,0.2,21.8123883,0.65769494
ZZX,61,1,2024-06-13T15:15:57.755Z,english_573.wav,0,1,479,21,5,Chinese,m,3,0.3,16.48756951,0.46238493
ZZX,61,1,2024-06-13T15:15:57.755Z,english_573.wav,0,1,479,21,5,Chinese,m,4,0.32341667,-54.36863361,0.72259175
ZZX,62,1,2024-06-13T15:15:57.755Z,english_537.wav,0,0,440,21,5,Chinese,m,0,0,70.8709352,0.55947112
ZZX,62,1,2024-06-13T15:15:57.755Z,english_537.wav,0,0,440,21,5,Chinese,m,1,0.1,32.34369018,1.10627241
ZZX,62,1,2024-06-13T15:15:57.755Z,english_537.wav,0,0,440,21,5,Chinese,m,2,0.2,-92.9302278,1.10842043
ZZX,62,1,2024-06-13T15:15:57.755Z,english_537.wav,0,0,440,21,5,Chinese,m,3,0.3,14.89115364,0.86800797
ZZX,62,1,2024-06-13T15:15:57.755Z,english_537.wav,0,0,440,21,5,Chinese,m,4,0.32341667,-67.12260703,1.7659473
ZZX,63,1,2024-06-13T15:15:57.755Z,english_36.wav,0,0,763,21,5,Chinese,m,0,0,8.79498818,0.0614271
ZZX,63,1,2024-06-13T15:15:57.755Z,english_36.wav,0,0,763,21,5,Chinese,m,1,0.1,-18.99628775,0.22652961
ZZX,63,1,2024-06-13T15:15:57.755Z,english_36.wav,0,0,763,21,5,Chinese,m,2,0.2,-17.40156662,0.46484299
ZZX,63,1,2024-06-13T15:15:57.755Z,english_36.wav,0,0,763,21,5,Chinese,m,3,0.3,-85.73958234,0.81464033
ZZX,63,1,2024-06-13T15:15:57.755Z,english_36.wav,0,0,763,21,5,Chinese,m,4,0.32341667,45.44069908,0.21843777
ZZX,64,1,2024-06-13T15:15:57.755Z,english_207.wav,0,1,338,21,5,Chinese,m,0,0,-64.55688296,1.06406661
ZZX,64,1,2024-06-13T15:15:57.755Z,english_207.wav,0,1,338,21,5,Chinese,m,1,0.1,98.33987034,1.58122859
ZZX,64,1,2024-06-13T15:15:57.755Z,english_207.wav,0,1,338,21,5,Chinese,m,2,0.2,-40.48281934,1.31381917
ZZX,64,1,2024-06-13T15:15:57.755Z,english_207.wav,0,1,338,21,5,Chinese,m,3,0.3,-36.48143513,0.83233835
ZZX,64,1,2024-06-13T15:15:57.755Z,english_207.wav,0,1,338,21,5,Chinese,m,4,0.32341667,-87.11188062,0.12663517
ZZX,65,1,2024-06-13T15:15:57.755Z,english_218.wav,0,1,613,21,5,Chinese,m,0,0,87.3373499,1.94084006
ZZX,65,1,2024-06-13T15:15:57.755Z,english_218.wav,0,1,613,21,5,Chinese,m,1,0.1,-14.87903436,0.13305972
ZZX,65,1,2024-06-13T15:15:57.755Z,english_218.wav,0,1,613,21,5,Chinese,m,2,0.2,-31.97943339,1.11441312
ZZX,65,1,2024-06-13T15:15:57.755Z,english_218.wav,0,1,613,21,5,Chinese,m,3,0.3,-60.49311609,1.83933377
ZZX,65,1,2024-06-13T15:15:57.755Z,english_218.wav,0,1,613,21,5,Chinese,m,4,0.32341667,-63.68242647,1.41053301
ZZX,66,1,2024-06-13T15:15:57.755Z,english_457.wav,0,0,1580,21,5,Chinese,m,0,0,-73.30847947,0.35525387
ZZX,66,1,2024-06-13T15:15:57.755Z,english_457.wav,0,0,1580,21,5,Chinese,m,1,0.1,-25.74413936,0.90483023
ZZX,66,1,2024-06-13T15:15:57.755Z,english_457.wav,0,0,1580,21,5,Chinese,m,2,0.2,8.82772976,1.30004432
ZZX,66,1,2024-06-13T15:15:57.755Z,english_457.wav,0,0,1580,21,5,Chinese,m,3,0.3,-2.30416086,0.93422762
ZZX,66,1,2024-06-13T15:15:57.755Z,english_457.wav,0,0,1580,21,5,Chinese,m,4,0.32341667,-34.04493945,1.31504388
ZZX,67,1,2024-06-13T15:15:57.755Z,english_977.wav,0,0,722,21,5,Chinese,m,0,0,63.46196139,0.87194913
ZZX,67,1,2024-06-13T15:15:57.755Z,english_977.wav,0,0,722,21,5,Chinese,m,1,0.1,-23.64022125,1.67919547
ZZX,67,1,2024-06-13T15:15:57.755Z,english_977.wav,0,0,722,21,5,Chinese,m,2,0.2,31.65242203,0.97011806
ZZX,67,1,2024-06-13T15:15:57.755Z,english_977.wav,0,0,722,21,5,Chinese,m,3,0.3,16.19881364,1.40431802
ZZX,67,1,2024-06-13T15:15:57.755Z,english_977.wav,0,0,722,21,5,Chinese,m,4,0.32341667,-33.08554183,1.02563167
ZZX,68,1,2024-06-13T15:15:57.755Z,english_567.wav,0,0,2570,21,5,Chinese,m,0,0,26.28994663,0.43358591
ZZX,68,1,2024-06-13T15:15:57.755Z,english_567.wav,0,0,2570,21,5,Chinese,m,1,0.1,-84.76959918,0.96759171
ZZX,68,1,2024-06-13T15:15:57.755Z,english_567.wav,0,0,2570,21,5,Chinese,m,2,0.2,-17.21635209,0.27115372
ZZX,68,1,2024-06-13T15:15:57.755Z,english_567.wav,0,0,2570,21,5,Chinese,m,3,0.3,-93.28005251,1.2000135
ZZX,68,1,2024-06-13T15:15:57.755Z,english_567.wav,0,0,2570,21,5,Chinese,m,4,0.32341667,55.01605665,1.11881456
ZZX,69,1,2024-06-13T15:15:57.755Z,english_212.wav,0,0,496,21,5,Chinese,m,0,0,-8.03708838,0.69940518
ZZX,69,1,2024-06-13T15:15:57.755Z,english_212.wav,0,0,496,21,5,Chinese,m,1,0.1,72.60121642,1.0039509
ZZX,69,1,2024-06-13T15:15:57.755Z,english_212.wav,0,0,496,21,5,Chinese,m,2,0.2,-98.76374397,1.17731185
ZZX,69,1,2024-06-13T15:15:57.755Z,english_212.wav,0,0,496,21,5,Chinese,m,3,0.3,31.47742107,0.88066499
ZZX,69,1,2024-06-13T15:15:57.755Z,english_212.wav,0,0,496,21,5,Chinese,m,4,0.32341667,53.59344022,0.33624016
ZZX,70,1,2024-06-13T15:15:57.755Z,english_148.wav,0,1,725,21,5,Chinese,m,0,0,-15.87588743,0.13468567
ZZX,70,1,2024-06-13T15:15:57.755Z,english_148.wav,0,1,725,21,5,Chinese,m,1,0.1,66.05332506,1.11017862
ZZX,70,1,2024-06-13T15:15:57.755Z,english_148.wav,0,1,725,21,5,Chinese,m,2,0.2,50.59551539,0.42983488
ZZX,70,1,2024-06-13T15:15:57.755Z,english_148.wav,0,1,725,21,5,Chinese,m,3,0.3,-59.45276716,0.2729575
ZZX,70,1,2024-06-13T15:15:57.755Z,english_148.wav,0,1,725,21,5,Chinese,m,4,0.32341667,58.4155276,0.65396017
ZZX,71,1,2024-06-13T15:15:57.755Z,english_865.wav,0,0,1412,21,5,Chinese,m,0,0,57.45647421,1.64387024
ZZX,71,1,2024-06-13T15:15:57.755Z,english_865.wav,0,0,1412,21,5,Chinese,m,1,0.1,-62.30549211,0.05749027
ZZX,71,1,2024-06-13T15:15:57.755Z,english_865.wav,0,0,1412,21,5,Chinese,m,2,0.2,-35.85649312,0.09554773
ZZX,71,1,2024-06-13T15:15:57.755Z,english_865.wav,0,0,1412,21,5,Chinese,m,3,0.3,55.00701181,1.62598434
ZZX,71,1,2024-06-13T15:15:57.755Z,english_865.wav,0,0,1412,21,5,Chinese,m,4,0.32341667,-39.97662747,0.71232625
ZZX,72,1,2024-06-13T15:15:57.755Z,english_489.wav,0,1,1082,21,5,Chinese,m,0,0,5.7057461,0.60142671
ZZX,72,1,2024-06-13T15:15:57.755Z,english_489.wav,0,1,1082,21,5,Chinese,m,1,0.1,-88.87009038,1.38499056
ZZX,72,1,2024-06-13T15:15:57.755Z,english_489.wav,0,1,1082,21,5,Chinese,m,2,0.2,73.69789316,0.38073994
ZZX,72,1,2024-06-13T15:15:57.755Z,english_489.wav,0,1,1082,21,5,Chinese,m,3,0.3,8.66804208,0.90212706
ZZX,72,1,2024-06-13T15:15:57.755Z,english_489.wav,0,1,1082,21,5,Chinese,m,4,0.32341667,-19.53009002,1.00729778
ZZX,73,1,2024-06-13T15:15:57.755Z,english_824.wav,0,1,1190,21,5,Chinese,m,0,0,80.46503136,1.43025592
ZZX,73,1,2024-06-13T15:15:57.755Z,english_824.wav,0,1,1190,21,5,Chinese,m,1,0.1,-48.668347,0.89138167
ZZX,73,1,2024-06-13T15:15:57.755Z,english_824.wav,0,1,1190,21,5,Chinese,m,2,0.2,37.27765876,1.91281619
ZZX,73,1,2024-06-13T15:15:57.755Z,english_824.wav,0,1,1190,21,5,Chinese,m,3,0.3,-91.29945309,0.71335031
ZZX,73,1,2024-06-13T15:15:57.755Z,english_824.wav,0,1,1190,21,5,Chinese,m,4,0.32341667,14.46507007,0.89780818
ZZX,74,1,2024-06-13T15:15:57.755Z,english_222.wav,0,1,233,21,5,Chinese,m,0,0,-5.8882644,0.97478352
ZZX,74,1,2024-06-13T15:15:57.755Z,english_222.wav,0,1,233,21,5,Chinese,m,1,0.1,-15.4334302,1.79573252
ZZX,74,1,2024-06-13T15:15:57.755Z,english_222.wav,0,1,233,21,5,Chinese,m,2,0.2,-39.50203868,1.71948726
ZZX,74,1,2024-06-13T15:15:57.755Z,english_222.wav,0,1,233,21,5,Chinese,m,3,0.3,67.79027175,0.41699719
ZZX,74,1,2024-06-13T15:15:57.755Z,english_222.wav,0,1,233,21,5,Chinese,m,4,0.32341667,-43.17344259,0.26315099
ZZX,75,1,2024-06-13T15:15:57.755Z,english_116.wav,0,1,353,21,5,Chinese,m,0,0,47.3382154,1.30986561
ZZX,75,1,2024-06-13T15:15:57.755Z,english_116.wav,0,1,353,21,5,Chinese,m,1,0.1,-82.57412589,0.36649927
ZZX,75,1,2024-06-13T15:15:57.755Z,english_116.wav,0,1,353,21,5,Chinese,m,2,0.2,24.81754674,1.53598436
ZZX,75,1,2024-06-13T15:15:57.755Z,english_116.wav,0,1,353,21,5,Chinese,m,3,0.3,61.93416492,1.65694634
ZZX,75,1,2024-06-13T15:15:57.755Z,english_116.wav,0,1,353,21,5,Chinese,m,4,0.32341667,-97.8286579,0.40343631
ZZX,76,1,2024-06-13T15:15:57.755Z,english_633.wav,0,1,637,21,5,Chinese,m,0,0,-53.72283933,1.23998369
ZZX,76,1,2024-06-13T15:15:57.755Z,english_633.wav,0,1,637,21,5,Chinese,m,1,0.1,14.71438877,1.35266241
ZZX,76,1,2024-06-13T15:15:57.755Z,english_633.wav,0,1,637,21,5,Chinese,m,2,0.2,95.18630031,0.66132985
ZZX,76,1,2024-06-13T15:15:57.755Z,english_633.wav,0,1,637,21,5,Chinese,m,3,0.3,96.89096157,0.52728002
ZZX,76,1,2024-06-13T15:15:57.755Z,english_633.wav,0,1,637,21,5,Chinese,m,4,0.32341667,8.38596779,1.4824282
ZZX,77,1,2024-06-13T15:15:57.755Z,english_848.wav,0,0,833,21,5,Chinese,m,0,0,43.30233352,0.12582596
ZZX,77,1,2024-06-13T15:15:57.755Z,english_848.wav,0,0,833,21,5,Chinese,m,1,0.1,-77.77691247,1.72621372
ZZX,77,1,2024-06-13T15:15:57.755Z,english_848.wav,0,0,833,21,5,Chinese,m,2,0.2,-68.99020863,1.753656
ZZX,77,1,2024-06-13T15:15:57.755Z,english_848.wav,0,0,833,21,5,Chinese,m,3,0.3,-43.68641023,1.37442753
ZZX,77,1,2024-06-13T15:15:57.755Z,english_848.wav,0,0,833,21,5,Chinese,m,4,0.32341667,-14.19502025,1.04930351
ZZX,78,1,2024-06-13T15:15:57.755Z,english_710.wav,0,0,888,21,5,Chinese,m,0,0,-75.8732007,1.76991952
ZZX,78,1,2024-06-13T15:15:57.755Z,english_710.wav,0,0,888,21,5,Chinese,m,1,0.1,-57.22858583,1.84377411
ZZX,78,1,2024-06-13T15:15:57.755Z,english_710.wav,0,0,888,21,5,Chinese,m,2,0.2,28.4956072,1.20069914
ZZX,78,1,2024-06-13T15:15:57.755Z,english_710.wav,0,0,888,21,5,Chinese,m,3,0.3,-96.06281818,0.06088286
ZZX,78,1,2024-06-13T15:15:57.755Z,english_710.wav,0,0,888,21,5,Chinese,m,4,0.32341667,12.57492899,1.86160088
ZZX,79,1,2024-06-13T15:15:57.755Z,english_671.wav,0,1,606,21,5,Chinese,m,0,0,32.91930287,1.74193101
ZZX,79,1,2024-06-13T15:15:57.755Z,english_671.wav,0,1,606,21,5,Chinese,m,1,0.1,6.16976114,0.51820224
ZZX,79,1,2024-06-13T15:15:57.755Z,english_671.wav,0,1,606,21,5,Chinese,m,2,0.2,-34.00390264,0.07120536
ZZX,79,1,2024-06-13T15:15:57.755Z,english_671.wav,0,1,606,21,5,Chinese,m,3,0.3,18.374511,0.3828633
ZZX,79,1,2024-06-13T15:15:57.755Z,english_671.wav,0,1,606,21,5,Chinese,m,4,0.32341667,-2.98713897,1.2592669
ZZX,80,1,2024-06-13T15:15:57.755Z,english_989.wav,0,0,1399,21,5,Chinese,m,0,0,-51.1051603,1.00035195
ZZX,80,1,2024-06-13T15:15:57.755Z,english_989.wav,0,0,1399,21,5,Chinese,m,1,0.1,-91.26717948,0.46124463
ZZX,80,1,2024-06-13T15:15:57.755Z,english_989.wav,0,0,1399,21,5,Chinese,m,2,0.2,73.5145218,0.77735517
ZZX,80,1,2024-06-13T15:15:57.755Z,english_989.wav,0,0,1399,21,5,Chinese,m,3,0.3,54.43703181,1.21549894
ZZX,80,1,2024-06-13T15:15:57.755Z,english_989.wav,0,0,1399,21,5,Chinese,m,4,0.32341667,-36.95823638,0.33045291
ZZX,81,1,2024-06-13T15:15:57.755Z,english_766.wav,0,0,621,21,5,Chinese,m,0,0,-86.57417509,1.21737292
ZZX,81,1,2024-06-13T15:15:57.755Z,english_766.wav,0,0,621,21,5,Chinese,m,1,0.1,-67.75686223,1.61484435
ZZX,81,1,2024-06-13T15:15:57.755Z,english_766.wav,0,0,621,21,5,Chinese,m,2,0.2,74.21258041,1.47872362
ZZX,81,1,2024-06-13T15:15:57.755Z,english_766.wav,0,0,621,21,5,Chinese,m,3,0.3,65.20164426,1.81064247
ZZX,81,1,2024-06-13T15:15:57.755Z,english_766.wav,0,0,621,21,5,Chinese,m,4,0.32341667,-26.41371036,1.37776493
ZZX,82,1,2024-06-13T15:15:57.755Z,english_70.wav,0,0,357,21,5,Chinese,m,0,0,-53.09237622,1.21678364
ZZX,82,1,2024-06-13T15:15:57.755Z,english_70.wav,0,0,357,21,5,Chinese,m,1,0.1,85.97526897,0.94111324
ZZX,82,1,2024-06-13T15:15:57.755Z,english_70.wav,0,0,357,21,5,Chinese,m,2,0.2,25.5645184,1.03926055
ZZX,82,1,2024-06-13T15:15:57.755Z,english_70.wav,0,0,357,21,5,Chinese,m,3,0.3,1.25172137,0.29519406
ZZX,82,1,2024-06-13T15:15:57.755Z,english_70.wav,0,0,357,21,5,Chinese,m,4,0.32341667,93.59431896,0.80175783
ZZX,83,1,2024-06-13T15:15:57.755Z,english_353.wav,0,0,339,21,5,Chinese,m,0,0,51.44050484,0.16518243
ZZX,83,1,2024-06-13T15:15:57.755Z,english_353.wav,0,0,339,21,5,Chinese,m,1,0.1,-8.32491594,1.32533476
ZZX,83,1,2024-06-13T15:15:57.755Z,english_353.wav,0,0,339,21,5,Chinese,m,2,0.2,-53.32966552,0.41923861
ZZX,83,1,2024-06-13T15:15:57.755Z,english_353.wav,0,0,339,21,5,Chinese,m,3,0.3,68.29246543,1.87374553
ZZX,83,1,2024-06-13T15:15:57.755Z,english_353.wav,0,0,339,21,5,Chinese,m,4,0.32341667,-32.22441747,1.13071195
ZZX,84,1,2024-06-13T15:15:57.755Z,english_600.wav,0,1,791,21,5,Chinese,m,0,0,37.30285492,1.23507691
ZZX,84,1,2024-06-13T15:15:57.755Z,english_600.wav,0,1,791,21,5,Chinese,m,1,0.1,57.58729363,0.65453179
ZZX,84,1,2024-06-13T15:15:57.755Z,english_600.wav,0,1,791,21,5,Chinese,m,2,0.2,-74.33256695,1.70226061
ZZX,84,1,2024-06-13T15:15:57.755Z,english_600.wav,0,1,791,21,5,Chinese,m,3,0.3,-35.711252,0.4723836
ZZX,84,1,2024-06-13T15:15:57.755Z,english_600.wav,0,1,791,21,5,Chinese,m,4,0.32341667,3.54782198,0.49080622
ZZX,85,1,2024-06-13T15:15:57.755Z,english_579.wav,0,0,1052,21,5,Chinese,m,0,0,78.52989573,1.74799876
ZZX,85,1,2024-06-13T15:15:57.755Z,english_579.wav,0,0,1052,21,5,Chinese,m,1,0.1,-26.17758211,0.36264633
ZZX,85,1,2024-06-13T15:15:57.755Z,english_579.wav,0,0,1052,21,5,Chinese,m,2,0.2,-65.60231522,1.15645327
ZZX,85,1,2024-06-13T15:15:57.755Z,english_579.wav,0,0,1052,21,5,Chinese,m,3,0.3,-66.03357835,1.81639149
ZZX,85,1,2024-06-13T15:15:57.755Z,english_579.wav,0,0,1052,21,5,Chinese,m,4,0.32341667,-36.23940811,1.38509752
ZZX,86,1,2024-06-13T15:15:57.755Z,english_982.wav,0,0,600,21,5,Chinese,m,0,0,12.44046596,0.81508625
ZZX,86,1,2024-06-13T15:15:57.755Z,english_982.wav,0,0,600,21,5,Chinese,m,1,0.1,-60.41666302,0.92712357
ZZX,86,1,2024-06-13T15:15:57.755Z,english_982.wav,0,0,600,21,5,Chinese,m,2,0.2,-35.31499742,0.77678916
ZZX,86,1,2024-06-13T15:15:57.755Z,english_982.wav,0,0,600,21,5,Chinese,m,3,0.3,-10.96739076,1.0294352
ZZX,86,1,2024-06-13T15:15:57.755Z,english_982.wav,0,0,600,21,5,Chinese,m,4,0.32341667,44.50624474,1.1322674
ZZX,87,1,2024-06-13T15:15:57.755Z,english_476.wav,0,1,471,21,5,Chinese,m,0,0,67.27413703,1.71507594
ZZX,87,1,2024-06-13T15:15:57.755Z,english_476.wav,0,1,471,21,5,Chinese,m,1,0.1,-35.99891676,1.5691203
ZZX,87,1,2024-06-13T15:15:57.755Z,english_476.wav,0,1,471,21,5,Chinese,m,2,0.2,53.1347651,0.1869461
ZZX,87,1,2024-06-13T15:15:57.755Z,english_476.wav,0,1,471,21,5,Chinese,m,3,0.3,-27.53585108,0.94822926
ZZX,87,1,2024-06-13T15:15:57.755Z,english_476.wav,0,1,471,21,5,Chinese,m,4,0.32341667,13.88563074,1.63186757
ZZX,88,1,2024-06-13T15:15:57.755Z,english_140.wav,0,1,744,21,5,Chinese,m,0,0,-63.97366245,1.49783115
ZZX,88,1,2024-06-13T15:15:57.755Z,english_140.wav,0,1,744,21,5,Chinese,m,1,0.1,-84.90656008,1.37250299
ZZX,88,1,2024-06-13T15:15:57.755Z,english_140.wav,0,1,744,21,5,Chinese,m,2,0.2,93.42782744,0.10650492
ZZX,88,1,2024-06-13T15:15:57.755Z,english_140.wav,0,1,744,21,5,Chinese,m,3,0.3,11.57634117,0.84315206
ZZX,88,1,2024-06-13T15:15:57.755Z,english_140.wav,0,1,744,21,5,Chinese,m,4,0.32341667,80.35905055,1.26233419
ZZX,89,1,2024-06-13T15:15:57.755Z,english_56.wav,0,1,531,21,5,Chinese,m,0,0,47.39262259,1.7837475
ZZX,89,1,2024-06-13T15:15:57.755Z,english_56.wav,0,1,531,21,5,Chinese,m,1,0.1,8.89686315,1.39740624
ZZX,89,1,2024-06-13T15:15:57.755Z,english_56.wav,0,1,531,21,5,Chinese,m,2,0.2,-49.65570225,0.11209095
ZZX,89,1,2024-06-13T15:15:57.755Z,english_56.wav,0,1,531,21,5,Chinese,m,3,0.3,44.77904805,1.4946119
ZZX,89,1,2024-06-13T15:15:57.755Z,english_56.wav,0,1,531,21,5,Chinese,m,4,0.32341667,-94.65832844,1.03498606
ZZX,90,1,2024-06-13T15:15:57.755Z,english_160.wav,0,1,661,21,5,Chinese,m,0,0,2.54964477,0.54357393
ZZX,90,1,2024-06-13T15:15:57.755Z,english_160.wav,0,1,661,21,5,Chinese,m,1,0.1,26.84692557,1.29343216
ZZX,90,1,2024-06-13T15:15:57.755Z,english_160.wav,0,1,661,21,5,Chinese,m,2,0.2,72.58457191,0.42070854
ZZX,90,1,2024-06-13T15:15:57.755Z,english_160.wav,0,1,661,21,5,Chinese,m,3,0.3,-6.94481249,1.04489529
ZZX,90,1,2024-06-13T15:15:57.755Z,english_160.wav,0,1,661,21,5,Chinese,m,4,0.32341667,35.80656171,0.26802137
ZZX,91,1,2024-06-13T15:15:57.755Z,english_736.wav,0,0,1304,21,5,Chinese,m,0,0,44.94907169,1.40223879
ZZX,91,1,2024-06-13T15:15:57.755Z,english_736.wav,0,0,1304,21,5,Chinese,m,1,0.1,-89.05982676,1.76358699
ZZX,91,1,2024-06-13T15:15:57.755Z,english_736.wav,0,0,1304,21,5,Chinese,m,2,0.2,27.88925208,0.99111008
ZZX,91,1,2024-06-13T15:15:57.755Z,english_736.wav,0,0,1304,21,5,Chinese,m,3,0.3,77.01163693,1.90426439
ZZX,91,1,2024-06-13T15:15:57.755Z,english_736.wav,0,0,1304,21,5,Chinese,m,4,0.32341667,-28.23601136,1.97036362
ZZX,92,1,2024-06-13T15:15:57.755Z,english_686.wav,0,0,684,21,5,Chinese,m,0,0,-30.40223154,0.36787347
ZZX,92,1,2024-06-13T15:15:57.755Z,english_686.wav,0,0,684,21,5,Chinese,m,1,0.1,40.30213926,1.54584144
ZZX,92,1,2024-06-13T15:15:57.755Z,english_686.wav,0,0,684,21,5,Chinese,m,2,0.2,68.68183252,1.54645212
ZZX,92,1,2024-06-13T15:15:57.755Z,english_686.wav,0,0,684,21,5,Chinese,m,3,0.3,82.36920372,1.04035585
ZZX,92,1,2024-06-13T15:15:57.755Z,english_686.wav,0,0,684,21,5,Chinese,m,4,0.32341667,5.8000707,1.51520661
ZZX,93,1,2024-06-13T15:15:57.755Z,english_996.wav,0,1,1400,21,5,Chinese,m,0,0,-71.70531914,1.36459419
ZZX,93,1,2024-06-13T15:15:57.755Z,english_996.wav,0,1,1400,21,5,Chinese,m,1,0.1,-47.61419544,0.5051745
ZZX,93,1,2024-06-13T15:15:57.755Z,english_996.wav,0,1,1400,21,5,Chinese,m,2,0.2,48.0330823,1.09957376
ZZX,93,1,2024-06-13T15:15:57.755Z,english_996.wav,0,1,1400,21,5,Chinese,m,3,0.3,34.27821317,0.27950682
ZZX,93,1,2024-06-13T15:15:57.755Z,english_996.wav,0,1,1400,21,5,Chinese,m,4,0.32341667,-72.4662587,0.22836241
ZZX,94,1,2024-06-13T15:15:57.755Z,english_389.wav,0,1,357,21,5,Chinese,m,0,0,36.16487693,1.25286497
ZZX,94,1,2024-06-13T15:15:57.755Z,english_389.wav,0,1,357,21,5,Chinese,m,1,0.1,-97.36259769,1.31396789
ZZX,94,1,2024-06-13T15:15:57.755Z,english_389.wav,0,1,357,21,5,Chinese,m,2,0.2,24.50411951,1.84060757
ZZX,94,1,2024-06-13T15:15:57.755Z,english_389.wav,0,1,357,21,5,Chinese,m,3,0.3,43.1395046,0.64046023
ZZX,94,1,2024-06-13T15:15:57.755Z,english_389.wav,0,1,357,21,5,Chinese,m,4,0.32341667,85.14605982,1.47992762
ZZX,95,1,2024-06-13T15:15:57.755Z,english_912.wav,0,1,473,21,5,Chinese,m,0,0,-43.64864707,0.87210048
ZZX,95,1,2024-06-13T15:15:57.755Z,english_912.wav,0,1,473,21,5,Chinese,m,1,0.1,94.54433808,1.43243955
ZZX,95,1,2024-06-13T15:15:57.755Z,english_912.wav,0,1,473,21,5,Chinese,m,2,0.2,67.98324072,1.49899487
ZZX,95,1,2024-06-13T15:15:57.755Z,english_912.wav,0,1,473,21,5,Chinese,m,3,0.3,9.27329172,0.42663795
ZZX,95,1,2024-06-13T15:15:57.755Z,english_912.wav,0,1,473,21,5,Chinese,m,4,0.32341667,-55.44973818,0.19299009
ZZX,96,1,2024-06-13T15:15:57.755Z,english_689.wav,0,0,770,21,5,Chinese,m,0,0,42.02822248,1.89069384
ZZX,96,1,2024-06-13T15:15:57.755Z,english_689.wav,0,0,770,21,5,Chinese,m,1,0.1,-61.92185233,0.33123617
ZZX,96,1,2024-06-13T15:15:57.755Z,english_689.wav,0,0,770,21,5,Chinese,m,2,0.2,-8.45156809,0.5478675
ZZX,96,1,2024-06-13T15:15:57.755Z,english_689.wav,0,0,770,21,5,Chinese,m,3,0.3,15.09500637,0.80334133
ZZX,96,1,2024-06-13T15:15:57.755Z,english_689.wav,0,0,770,21,5,Chinese,m,4,0.32341667,8.33163023,1.42024866
ZZX,97,1,2024-06-13T15:15:57.755Z,english_198.wav,0,1,331,21,5,Chinese,m,0,0,-3.53881338,0.6033193
ZZX,97,1,2024-06-13T15:15:57.755Z,english_198.wav,0,1,331,21,5,Chinese,m,1,0.1,58.04445454,0.57837506
ZZX,97,1,2024-06-13T15:15:57.755Z,english_198.wav,0,1,331,21,5,Chinese,m,2,0.2,67.39523563,1.37850613
ZZX,97,1,2024-06-13T15:15:57.755Z,english_198.wav,0,1,331,21,5,Chinese,m,3,0.3,56.58835275,0.73107668
ZZX,97,1,2024-06-13T15:15:57.755Z,english_198.wav,0,1,331,21,5,Chinese,m,4,0.32341667,7.34595052,0.42006089
ZZX,98,1,2024-06-13T15:15:57.755Z,english_110.wav,0,1,531,21,5,Chinese,m,0,0,87.43016285,1.84693198
ZZX,98,1,2024-06-13T15:15:57.755Z,english_110.wav,0,1,531,21,5,Chinese,m,1,0.1,-22.53798338,0.72868036
ZZX,98,1,2024-06-13T15:15:57.755Z,english_110.wav,0,1,531,21,5,Chinese,m,2,0.2,60.38266123,1.6889543
ZZX,98,1,2024-06-13T15:15:57.755Z,english_110.wav,0,1,531,21,5,Chinese,m,3,0.3,50.75224473,0.97311446
ZZX,98,1,2024-06-13T15:15:57.755Z,english_110.wav,0,1,531,21,5,Chinese,m,4,0.32341667,87.78495288,0.46157718
ZZX,99,1,2024-06-13T15:15:57.755Z,english_602.wav,0,0,966,21,5,Chinese,m,0,0,-53.18857274,1.95117352
ZZX,99,1,2024-06-13T15:15:57.755Z,english_602.wav,0,0,966,21,5,Chinese,m,1,0.1,-52.96167371,1.1427253
ZZX,99,1,2024-06-13T15:15:57.755Z,english_602.wav,0,0,966,21,5,Chinese,m,2,0.2,38.20784676,1.10694813
ZZX,99,1,2024-06-13T15:15:57.755Z,english_602.wav,0,0,966,21,5,Chinese,m,3,0.3,46.0178344,0.8717932
ZZX,99,1,2024-06-13T15:15:57.755Z,english_602.wav,0,0,966,21,5,Chinese,m,4,0.32341667,78.11630752,0.71626065
ZZX,100,2,2024-06-13T15:19:58.620Z,english_941.wav,0,0,1014,21,5,Chinese,m,0,0,88.25484185,1.5236155
ZZX,100,2,2024-06-13T15:19:58.620Z,english_941.wav,0,0,1014,21,5,Chinese,m,1,0.1,29.23312353,0.93469446
ZZX,100,2,2024-06-13T15:19:58.620Z,english_941.wav,0,0,1014,21,5,Chinese,m,2,0.2,-73.60888885,0.44203051
ZZX,100,2,2024-06-13T15:19:58.620Z,english_941.wav,0,0,1014,21,5,Chinese,m,3,0.3,-38.35663254,1.28625712
ZZX,100,2,2024-06-13T15:19:58.620Z,english_941.wav,0,0,1014,21,5,Chinese,m,4,0.32341667,-37.21470774,1.264942
ZZX,101,2,2024-06-13T15:19:58.620Z,english_368.wav,0,0,31783,21,5,Chinese,m,0,0,-25.00542805,1.03431482
ZZX,101,2,2024-06-13T15:19:58.620Z,english_368.wav,0,0,31783,21,5,Chinese,m,1,0.1,-48.20991773,0.92366821
ZZX,101,2,2024-06-13T15:19:58.620Z,english_368.wav,0,0,31783,21,5,Chinese,m,2,0.2,-51.83604218,0.34019883
ZZX,101,2,2024-06-13T15:19:58.620Z,english_368.wav,0,0,31783,21,5,Chinese,m,3,0.3,14.57062672,1.21184807
ZZX,101,2,2024-06-13T15:19:58.620Z,english_368.wav,0,0,31783,21,5,Chinese,m,4,0.32341667,-26.77020505,0.81530657
ZZX,102,2,2024-06-13T15:19:58.620Z,english_884.wav,0,0,12027,21,5,Chinese,m,0,0,77.1498115,1.83268558
ZZX,102,2,2024-06-13T15:19:58.620Z,english_884.wav,0,0,12027,21,5,Chinese,m,1,0.1,10.32602389,0.76817862
ZZX,102,2,2024-06-13T15:19:58.620Z,english_884.wav,0,0,12027,21,5,Chinese,m,2,0.2,4.15464736,1.59331573
ZZX,102,2,2024-06-13T15:19:58.620Z,english_884.wav,0,0,12027,21,5,Chinese,m,3,0.3,21.19252889,0.58913169
ZZX,102,2,2024-06-13T15:19:58.620Z,english_884.wav,0,0,12027,21,5,Chinese,m,4,0.32341667,-7.11336122,0.81393531
ZZX,103,2,2024-06-13T15:19:58.620Z,english_916.wav,0,1,7365,21,5,Chinese,m,0,0,-50.62314768,0.5519299
ZZX,103,2,2024-06-13T15:19:58.620Z,english_916.wav,0,1,7365,21,5,Chinese,m,1,0.1,-52.55300278,1.16723516
ZZX,103,2,2024-06-13T15:19:58.620Z,english_916.wav,0,1,7365,21,5,Chinese,m,2,0.2,54.298582,1.72376738
ZZX,103,2,2024-06-13T15:19:58.620Z,english_916.wav,0,1,7365,21,5,Chinese,m,3,0.3,-23.99088857,0.41493786
ZZX,103,2,2024-06-13T15:19:58.620Z,english_916.wav,0,1,7365,21,5,Chinese,m,4,0.32341667,4.88948607,1.97918138
ZZX,104,2,2024-06-13T15:19:58.620Z,english_547.wav,0,0,2527,21,5,Chinese,m,0,0,30.48969685,1.04682874
ZZX,104,2,2024-06-13T15:19:58.620Z,english_547.wav,0,0,2527,21,5,Chinese,m,1,0.1,-38.27442703,0.75017858
ZZX,104,2,2024-06-13T15:19:58.620Z,english_547.wav,0,0,2527,21,5,Chinese,m,2,0.2,29.58442849,0.7996645
ZZX,104,2,2024-06-13T15:19:58.620Z,english_547.wav,0,0,2527,21,5,Chinese,m,3,0.3,-4.27268154,1.92102789
ZZX,104,2,2024-06-13T15:19:58.620Z,english_547.wav,0,0,2527,21,5,Chinese,m,4,0.32341667,58.02076364,1.77056707
ZZX,105,2,2024-06-13T15:19:58.620Z,english_630.wav,0,0,4589,21,5,Chinese,m,0,0,97.25925287,0.34607754
ZZX,105,2,2024-06-13T15:19:58.620Z,english_630.wav,0,0,4589,21,5,Chinese,m,1,0.1,76.95662127,0.15996234
ZZX,105,2,2024-06-13T15:19:58.620Z,english_630.wav,0,0,4589,21,5,Chinese,m,2,0.2,5.01423186,1.73874617
ZZX,105,2,2024-06-13T15:19:58.620Z,english_630.wav,0,0,4589,21,5,Chinese,m,3,0.3,-27.88706711,0.41181915
ZZX,105,2,2024-06-13T15:19:58.620Z,english_630.wav,0,0,4589,21,5,Chinese,m,4,0.32341667,90.69966072,0.77788697
ZZX,106,2,2024-06-13T15:19:58.620Z,english_178.wav,0,1,23927,21,5,Chinese,m,0,0,-14.41838744,0.71193749
ZZX,106,2,2024-06-13T15:19:58.620Z,english_178.wav,0,1,23927,21,5,Chinese,m,1,0.1,64.59665955,0.54024543
ZZX,106,2,2024-06-13T15:19:58.620Z,english_178.wav,0,1,23927,21,5,Chinese,m,2,0.2,-96.76492712,1.78065704
ZZX,106,2,2024-06-13T15:19:58.620Z,english_178.wav,0,1,23927,21,5,Chinese,m,3,0.3,-50.00654232,1.40559917
ZZX,106,2,2024-06-13T15:19:58.620Z,english_178.wav,0,1,23927,21,5,Chinese,m,4,0.32341667,42.56426636,0.99785593
ZZX,107,2,2024-06-13T15:19:58.620Z,english_406.wav,0,1,6848,21,5,Chinese,m,0,0,28.09923375,1.43312072
ZZX,107,2,2024-06-13T15:19:58.620Z,english_406.wav,0,1,6848,21,5,Chinese,m,1,0.1,-15.10813675,0.8890381
ZZX,107,2,2024-06-13T15:19:58.620Z,english_406.wav,0,1,6848,21,5,Chinese,m,2,0.2,-12.43931725,0.60560557
ZZX,107,2,2024-06-13T15:19:58.620Z,english_406.wav,0,1,6848,21,5,Chinese,m,3,0.3,-27.33468297,1.13565345
ZZX,107,2,2024-06-13T15:19:58.620Z,english_406.wav,0,1,6848,21,5,Chinese,m,4,0.32341667,-62.66931892,1.8467177
ZZX,108,2,2024-06-13T15:19:58.620Z,english_168.wav,0,1,322,21,5,Chinese,m,0,0,-69.10300998,1.14537751
ZZX,108,2,2024-06-13T15:19:58.620Z,english_168.wav,0,1,322,21,5,Chinese,m,1,0.1,-24.44784794,1.06854972
ZZX,108,2,2024-06-13T15:19:58.620Z,english_168.wav,0,1,322,21,5,Chinese,m,2,0.2,35.31321785,0.45192262
ZZX,108,2,2024-06-13T15:19:58.620Z,english_168.wav,0,1,322,21,5,Chinese,m,3,0.3,-41.77498511,0.2846318
ZZX,108,2,2024-06-13T15:19:58.620Z,english_168.wav,0,1,322,21,5,Chinese,m,4,0.32341667,19.92389913,0.9853942
ZZX,109,2,2024-06-13T15:19:58.620Z,english_712.wav,0,0,464,21,5,Chinese,m,0,0,-69.83835125,1.15670948
ZZX,109,2,2024-06-13T15:19:58.620Z,english_712.wav,0,0,464,21,5,Chinese,m,1,0.1,-89.98535393,0.40201287
ZZX,109,2,2024-06-13T15:19:58.620Z,english_712.wav,0,0,464,21,5,Chinese,m,2,0.2,47.33040466,0.06412681
ZZX,109,2,2024-06-13T15:19:58.620Z,english_712.wav,0,0,464,21,5,Chinese,m,3,0.3,-32.03166139,1.50973484
ZZX,109,2,2024-06-13T15:19:58.620Z,english_712.wav,0,0,464,21,5,Chinese,m,4,0.32341667,-5.29851616,1.18377017
ZZX,110,2,2024-06-13T15:19:58.620Z,english_768.wav,0,1,394,21,5,Chinese,m,0,0,-28.93145359,1.5002074
ZZX,110,2,2024-06-13T15:19:58.620Z,english_768.wav,0,1,394,21,5,Chinese,m,1,0.1,59.49166151,1.15432208
ZZX,110,2,2024-06-13T15:19:58.620Z,english_768.wav,0,1,394,21,5,Chinese,m,2,0.2,41.87955621,0.01731471
ZZX,110,2,2024-06-13T15:19:58.620Z,english_768.wav,0,1,394,21,5,Chinese,m,3,0.3,-92.17589111,0.98337229
ZZX,110,2,2024-06-13T15:19:58.620Z,english_768.wav,0,1,394,21,5,Chinese,m,4,0.32341667,15.2364545,0.4381055
ZZX,111,2,2024-06-13T15:19:58.620Z,english_193.wav,0,1,10,21,5,Chinese,m,0,0,98.63199606,1.10219899
ZZX,111,2,2024-06-13T15:19:58.620Z,english_193.wav,0,1,10,21,5,Chinese,m,1,0.1,38.06859183,1.75752318
ZZX,111,2,2024-06-13T15:19:58.620Z,english_193.wav,0,1,10,21,5,Chinese,m,2,0.2,58.19309996,1.8701857
ZZX,111,2,2024-06-13T15:19:58.620Z,english_193.wav,0,1,10,21,5,Chinese,m,3,0.3,70.68425501,1.90449871
ZZX,111,2,2024-06-13T15:19:58.620Z,english_193.wav,0,1,10,21,5,Chinese,m,4,0.32341667,89.06926868,1.70479661
ZZX,112,2,2024-06-13T15:19:58.620Z,english_76.wav,0,1,143,21,5,Chinese,m,0,0,24.78743387,1.26829138
ZZX,112,2,2024-06-13T15:19:58.620Z,english_76.wav,0,1,143,21,5,Chinese,m,1,0.1,-7.95135802,1.4446717
ZZX,112,2,2024-06-13T15:19:58.620Z,english_76.wav,0,1,143,21,5,Chinese,m,2,0.2,-9.56689875,0.88177173
ZZX,112,2,2024-06-13T15:19:58.620Z,english_76.wav,0,1,143,21,5,Chinese,m,3,0.3,-78.25819759,1.63003096
ZZX,112,2,2024-06-13T15:19:58.620Z,english_76.wav,0,1,143,21,5,Chinese,m,4,0.32341667,26.4311908,1.97074408
ZZX,113,2,2024-06-13T15:19:58.620Z,english_503.wav,0,0,222,21,5,Chinese,m,0,0,-62.81458057,1.15988152
ZZX,113,2,2024-06-13T15:19:58.620Z,english_503.wav,0,0,222,21,5,Chinese,m,1,0.1,17.97702429,0.58853345
ZZX,113,2,2024-06-13T15:19:58.620Z,english_503.wav,0,0,222,21,5,Chinese,m,2,0.2,-8.2980926,1.29983279
ZZX,113,2,2024-06-13T15:19:58.620Z,english_503.wav,0,0,222,21,5,Chinese,m,3,0.3,-62.4217389,1.42406205
ZZX,113,2,2024-06-13T15:19:58.620Z,english_503.wav,0,0,222,21,5,Chinese,m,4,0.32341667,18.11027086,0.84018378
ZZX,114,2,2024-06-13T15:19:58.620Z,english_427.wav,0,1,164,21,5,Chinese,m,0,0,38.10585738,0.62221409
ZZX,114,2,2024-06-13T15:19:58.620Z,english_427.wav,0,1,164,21,5,Chinese,m,1,0.1,75.26959407,1.20145201
ZZX,114,2,2024-06-13T15:19:58.620Z,english_427.wav,0,1,164,21,5,Chinese,m,2,0.2,-92.48152235,0.18894815
ZZX,114,2,2024-06-13T15:19:58.620Z,english_427.wav,0,1,164,21,5,Chinese,m,3,0.3,-38.24940669,0.36527681
ZZX,114,2,2024-06-13T15:19:58.620Z,english_427.wav,0,1,164,21,5,Chinese,m,4,0.32341667,-41.67637111,0.02898627
ZZX,115,2,2024-06-13T15:19:58.620Z,english_362.wav,0,1,76,21,5,Chinese,m,0,0,12.71485551,1.44490364
ZZX,115,2,2024-06-13T15:19:58.620Z,english_362.wav,0,1,76,21,5,Chinese,m,1,0.1,-18.83660308,1.3029027
ZZX,115,2,2024-06-13T15:19:58.620Z,english_362.wav,0,1,76,21,5,Chinese,m,2,0.2,-52.07271323,1.10609828
ZZX,115,2,2024-06-13T15:19:58.620Z,english_362.wav,0,1,76,21,5,Chinese,m,3,0.3,-29.96931661,1.18379787
ZZX,115,2,2024-06-13T15:19:58.620Z,english_362.wav,0,1,76,21,5,Chinese,m,4,0.32341667,-9.99178163,1.80996789
ZZX,116,2,2024-06-13T15:19:58.620Z,english_812.wav,0,1,340,21,5,Chinese,m,0,0,70.24469457,0.85599223
ZZX,116,2,2024-06-13T15:19:58.620Z,english_812.wav,0,1,340,21,5,Chinese,m,1,0.1,-27.51466786,0.39005905
ZZX,116,2,2024-06-13T15:19:58.620Z,english_812.wav,0,1,340,21,5,Chinese,m,2,0.2,60.55844263,1.43275618
ZZX,116,2,2024-06-13T15:19:58.620Z,english_812.wav,0,1,340,21,5,Chinese,m,3,0.3,52.93607499,1.34329238
ZZX,116,2,2024-06-13T15:19:58.620Z,english_812.wav,0,1,340,21,5,Chinese,m,4,0.32341667,74.74872052,0.96810209
ZZX,117,2,2024-06-13T15:19:58.620Z,english_708.wav,0,0,332,21,5,Chinese,m,0,0,-27.19248895,0.74061838
ZZX,117,2,2024-06-13T15:19:58.620Z,english_708.wav,0,0,332,21,5,Chinese,m,1,0.1,84.25795725,1.13599963
ZZX,117,2,2024-06-13T15:19:58.620Z,english_708.wav,0,0,332,21,5,Chinese,m,2,0.2,-19.19551503,1.10086254
ZZX,117,2,2024-06-13T15:19:58.620Z,english_708.wav,0,0,332,21,5,Chinese,m,3,0.3,29.88012033,0.53054382
ZZX,117,2,2024-06-13T15:19:58.620Z,english_708.wav,0,0,332,21,5,Chinese,m,4,0.32341667,46.0858662,1.51974387
ZZX,118,2,2024-06-13T15:19:58.620Z,english_295.wav,0,1,332,21,5,Chinese,m,0,0,-76.51454746,1.12273409
ZZX,118,2,2024-06-13T15:19:58.620Z,english_295.wav,0,1,332,21,5,Chinese,m,1,0.1,-96.9380047,0.2018376
ZZX,118,2,2024-06-13T15:19:58.620Z,english_295.wav,0,1,332,21,5,Chinese,m,2,0.2,-72.79782389,1.81703153
ZZX,118,2,2024-06-13T15:19:58.620Z,english_295.wav,0,1,332,21,5,Chinese,m,3,0.3,-31.86888898,0.31799467
ZZX,118,2,2024-06-13T15:19:58.620Z,english_295.wav,0,1,332,21,5,Chinese,m,4,0.32341667,-51.47839766,0.71777059
ZZX,119,2,2024-06-13T15:19:58.620Z,english_98.wav,0,1,200,21,5,Chinese,m,0,0,-23.07451683,0.55932234
ZZX,119,2,2024-06-13T15:19:58.620Z,english_98.wav,0,1,200,21,5,Chinese,m,1,0.1,58.83766866,1.03192869
ZZX,119,2,2024-06-13T15:19:58.620Z,english_98.wav,0,1,200,21,5,Chinese,m,2,0.2,75.90401246,1.16154403
ZZX,119,2,2024-06-13T15:19:58.620Z,english_98.wav,0,1,200,21,5,Chinese,m,3,0.3,-86.31256295,0.50819795
ZZX,119,2,2024-06-13T15:19:58.620Z,english_98.wav,0,1,200,21,5,Chinese,m,4,0.32341667,26.17624316,1.94690859
ZZX,120,2,2024-06-13T15:19:58.620Z,english_872.wav,0,1,91,21,5,Chinese,m,0,0,0.56374655,0.10935802
ZZX,120,2,2024-06-13T15:19:58.620Z,english_872.wav,0,1,91,21,5,Chinese,m,1,0.1,-70.88107799,0.91778609
ZZX,120,2,2024-06-13T15:19:58.620Z,english_872.wav,0,1,91,21,5,Chinese,m,2,0.2,6.46677515,1.38740199
ZZX,120,2,2024-06-13T15:19:58.620Z,english_872.wav,0,1,91,21,5,Chinese,m,3,0.3,-23.51354109,0.12682507
ZZX,120,2,2024-06-13T15:19:58.620Z,english_872.wav,0,1,91,21,5,Chinese,m,4,0.32341667,81.64578493,0.71067476
ZZX,121,2,2024-06-13T15:19:58.620Z,english_126.wav,0,1,151,21,5,Chinese,m,0,0,-71.89060105,0.84485729
ZZX,121,2,2024-06-13T15:19:58.620Z,english_126.wav,0,1,151,21,5,Chinese,m,1,0.1,-54.28004149,1.61340521
ZZX,121,2,2024-06-13T15:19:58.620Z,english_126.wav,0,1,151,21,5,Chinese,m,2,0.2,67.0997098,1.10892805
ZZX,121,2,2024-06-13T15:19:58.620Z,english_126.wav,0,1,151,21,5,Chinese,m,3,0.3,-96.31741745,1.20133652
ZZX,121,2,2024-06-13T15:19:58.620Z,english_126.wav,0,1,151,21,5,Chinese,m,4,0.32341667,22.67293764,0.33470898
ZZX,122,2,2024-06-13T15:19:58.620Z,english_187.wav,0,1,73,21,5,Chinese,m,0,0,-18.35695568,0.61755768
ZZX,122,2,2024-06-13T15:19:58.620Z,english_187.wav,0,1,73,21,5,Chinese,m,1,0.1,10.21632188,1.6626445
ZZX,122,2,2024-06-13T15:19:58.620Z,english_187.wav,0,1,73,21,5,Chinese,m,2,0.2,0.69047377,0.70950015
ZZX,122,2,2024-06-13T15:19:58.620Z,english_187.wav,0,1,73,21,5,Chinese,m,3,0.3,67.68385624,0.8856252
ZZX,122,2,2024-06-13T15:19:58.620Z,english_187.wav,0,1,73,21,5,Chinese,m,4,0.32341667,48.15291114,1.92627472
ZZX,123,2,2024-06-13T15:19:58.620Z,english_994.wav,0,0,292,21,5,Chinese,m,0,0,53.6083957,1.72152032
ZZX,123,2,2024-06-13T15:19:58.620Z,english_994.wav,0,0,292,21,5,Chinese,m,1,0.1,62.5650281,0.97077126
ZZX,123,2,2024-06-13T15:19:58.620Z,english_994.wav,0,0,292,21,5,Chinese,m,2,0.2,91.00734213,1.1154275
ZZX,123,2,2024-06-13T15:19:58.620Z,english_994.wav,0,0,292,21,5,Chinese,m,3,0.3,-14.6853323,0.93534142
ZZX,123,2,2024-06-13T15:19:58.620Z,english_994.wav,0,0,292,21,5,Chinese,m,4,0.32341667,42.94025292,1.51312842
ZZX,124,2,2024-06-13T15:19:58.620Z,english_163.wav,0,1,817,21,5,Chinese,m,0,0,-28.85321754,1.43434597
ZZX,124,2,2024-06-13T15:19:58.620Z,english_163.wav,0,1,817,21,5,Chinese,m,1,0.1,9.37410395,1.75766865
ZZX,124,2,2024-06-13T15:19:58.620Z,english_163.wav,0,1,817,21,5,Chinese,m,2,0.2,-43.22266742,0.90391943
ZZX,124,2,2024-06-13T15:19:58.620Z,english_163.wav,0,1,817,21,5,Chinese,m,3,0.3,48.63715122,1.21743426
ZZX,124,2,2024-06-13T15:19:58.620Z,english_163.wav,0,1,817,21,5,Chinese,m,4,0.32341667,-94.22333204,1.8516503
ZZX,125,2,2024-06-13T15:19:58.620Z,english_921.wav,0,0,311,21,5,Chinese,m,0,0,60.93482672,0.06624465
ZZX,125,2,2024-06-13T15:19:58.620Z,english_921.wav,0,0,311,21,5,Chinese,m,1,0.1,-71.63665921,1.88925143
ZZX,125,2,2024-06-13T15:19:58.620Z,english_921.wav,0,0,311,21,5,Chinese,m,2,0.2,-30.77028929,0.40013084
ZZX,125,2,2024-06-13T15:19:58.620Z,english_921.wav,0,0,311,21,5,Chinese,m,3,0.3,-44.68164597,1.26601564
ZZX,125,2,2024-06-13T15:19:58.620Z,english_921.wav,0,0,311,21,5,Chinese,m,4,0.32341667,34.59415858,1.98956357
ZZX,126,2,2024-06-13T15:19:58.620Z,english_40.wav,0,1,274,21,5,Chinese,m,0,0,20.98315678,0.33544846
ZZX,126,2,2024-06-13T15:19:58.620Z,english_40.wav,0,1,274,21,5,Chinese,m,1,0.1,80.64974175,0.81764939
ZZX,126,2,2024-06-13T15:19:58.620Z,english_40.wav,0,1,274,21,5,Chinese,m,2,0.2,5.38930518,0.17548883
ZZX,126,2,2024-06-13T15:19:58.620Z,english_40.wav,0,1,274,21,5,Chinese,m,3,0.3,18.83593916,0.83674413
ZZX,126,2,2024-06-13T15:19:58.620Z,english_40.wav,0,1,274,21,5,Chinese,m,4,0.32341667,-14.62145671,0.80890384
ZZX,127,2,2024-06-13T15:19:58.620Z,english_237.wav,0,1,144,21,5,Chinese,m,0,0,-40.35335157,0.42178982
ZZX,127,2,2024-06-13T15:19:58.620Z,english_237.wav,0,1,144,21,5,Chinese,m,1,0.1,42.86374565,0.6060796
ZZX,127,2,2024-06-13T15:19:58.620Z,english_237.wav,0,1,144,21,5,Chinese,m,2,0.2,7.79480372,0.58312984
ZZX,127,2,2024-06-13T15:19:58.620Z,english_237.wav,0,1,144,21,5,Chinese,m,3,0.3,-48.50613844,1.50499267
ZZX,127,2,2024-06-13T15:19:58.620Z,english_237.wav,0,1,144,21,5,Chinese,m,4,0.32341667,17.78174719,1.72211243
ZZX,128,2,2024-06-13T15:19:58.620Z,english_530.wav,0,1,2196,21,5,Chinese,m,0,0,21.55057906,0.25130805
ZZX,128,2,2024-06-13T15:19:58.620Z,english_530.wav,0,1,2196,21,5,Chinese,m,1,0.1,-20.17265513,0.96020899
ZZX,128,2,2024-06-13T15:19:58.620Z,english_530.wav,0,1,2196,21,5,Chinese,m,2,0.2,-52.07974762,1.55252741
ZZX,128,2,2024-06-13T15:19:58.620Z,english_530.wav,0,1,2196,21,5,Chinese,m,3,0.3,87.36384387,1.19622655
ZZX,128,2,2024-06-13T15:19:58.620Z,english_530.wav,0,1,2196,21,5,Chinese,m,4,0.32341667,-72.92256984,0.75880724
ZZX,129,2,2024-06-13T15:19:58.620Z,english_471.wav,0,1,635,21,5,Chinese,m,0,0,47.42131089,0.58869392
ZZX,129,2,2024-06-13T15:19:58.620Z,english_471.wav,0,1,635,21,5,Chinese,m,1,0.1,-63.95282256,1.74739294
ZZX,129,2,2024-06-13T15:19:58.620Z,english_471.wav,0,1,635,21,5,Chinese,m,2,0.2,31.67244378,1.10105994
ZZX,129,2,2024-06-13T15:19:58.620Z,english_471.wav,0,1,635,21,5,Chinese,m,3,0.3,40.6572625,0.54790015
ZZX,129,2,2024-06-13T15:19:58.620Z,english_471.wav,0,1,635,21,5,Chinese,m,4,0.32341667,-18.6332399,1.33029013
ZZX,130,2,2024-06-13T15:19:58.620Z,english_808.wav,0,1,398,21,5,Chinese,m,0,0,23.02589628,1.07384277
ZZX,130,2,2024-06-13T15:19:58.620Z,english_808.wav,0,1,398,21,5,Chinese,m,1,0.1,10.58817829,1.3919179
ZZX,130,2,2024-06-13T15:19:58.620Z,english_808.wav,0,1,398,21,5,Chinese,m,2,0.2,36.77134597,0.54960524
ZZX,130,2,2024-06-13T15:19:58.620Z,english_808.wav,0,1,398,21,5,Chinese,m,3,0.3,-30.31603221,1.95871365
ZZX,130,2,2024-06-13T15:19:58.620Z,english_808.wav,0,1,398,21,5,Chinese,m,4,0.32341667,9.74764343,0.79150541
ZZX,131,2,2024-06-13T15:19:58.620Z,english_129.wav,0,1,679,21,5,Chinese,m,0,0,80.17800931,1.16690044
ZZX,131,2,2024-06-13T15:19:58.620Z,english_129.wav,0,1,679,21,5,Chinese,m,1,0.1,6.7929614,1.89220933
ZZX,131,2,2024-06-13T15:19:58.620Z,english_129.wav,0,1,679,21,5,Chinese,m,2,0.2,51.03188375,1.40122633
ZZX,131,2,2024-06-13T15:19:58.620Z,english_129.wav,0,1,679,21,5,Chinese,m,3,0.3,-14.28174581,0.72131347
ZZX,131,2,2024-06-13T15:19:58.620Z,english_129.wav,0,1,679,21,5,Chinese,m,4,0.32341667,32.60771632,1.30692003
ZZX,132,2,2024-06-13T15:19:58.620Z,english_341.wav,0,0,342,21,5,Chinese,m,0,0,-3.29192029,0.92007635
ZZX,132,2,2024-06-13T15:19:58.620Z,english_341.wav,0,0,342,21,5,Chinese,m,1,0.1,-63.07334109,0.76766635
ZZX,132,2,2024-06-13T15:19:58.620Z,english_341.wav,0,0,342,21,5,Chinese,m,2,0.2,-52.81319379,0.00478881
ZZX,132,2,2024-06-13T15:19:58.620Z,english_341.wav,0,0,342,21,5,Chinese,m,3,0.3,47.65296252,0.69804387
ZZX,132,2,2024-06-13T15:19:58.620Z,english_341.wav,0,0,342,21,5,Chinese,m,4,0.32341667,-2.67842738,0.15231077
ZZX,133,2,2024-06-13T15:19:58.620Z,english_890.wav,0,1,269,21,5,Chinese,m,0,0,-68.21158685,0.82535308
ZZX,133,2,2024-06-13T15:19:58.620Z,english_890.wav,0,1,269,21,5,Chinese,m,1,0.1,-83.19360642,1.79167423
ZZX,133,2,2024-06-13T15:19:58.620Z,english_890.wav,0,1,269,21,5,Chinese,m,2,0.2,79.13343252,0.78297904
ZZX,133,2,2024-06-13T15:19:58.620Z,english_890.wav,0,1,269,21,5,Chinese,m,3,0.3,80.54326003,0.23441015
ZZX,133,2,2024-06-13T15:19:58.620Z,english_890.wav,0,1,269,21,5,Chinese,m,4,0.32341667,-30.48737523,1.41044901
ZZX,134,2,2024-06-13T15:19:58.620Z,english_566.wav,0,0,40,21,5,Chinese,m,0,0,70.56000247,1.04698608
ZZX,134,2,2024-06-13T15:19:58.620Z,english_566.wav,0,0,40,21,5,Chinese,m,1,0.1,-0.18246418,1.13826263
ZZX,134,2,2024-06-13T15:19:58.620Z,english_566.wav,0,0,40,21,5,Chinese,m,2,0.2,-23.7188651,1.91259561
ZZX,134,2,2024-06-13T15:19:58.620Z,english_566.wav,0,0,40,21,5,Chinese,m,3,0.3,12.5469797,1.08561121
ZZX,134,2,2024-06-13T15:19:58.620Z,english_566.wav,0,0,40,21,5,Chinese,m,4,0.32341667,-84.37997634,1.98926692
ZZX,135,2,2024-06-13T15:19:58.620Z,english_809.wav,0,0,282,21,5,Chinese,m,0,0,-9.08149959,0.73203403
ZZX,135,2,2024-06-13T15:19:58.620Z,english_809.wav,0,0,282,21,5,Chinese,m,1,0.1,12.16544582,0.53159531
ZZX,135,2,2024-06-13T15:19:58.620Z,english_809.wav,0,0,282,21,5,Chinese,m,2,0.2,40.52205867,1.48114639
ZZX,135,2,2024-06-13T15:19:58.620Z,english_809.wav,0,0,282,21,5,Chinese,m,3,0.3,-94.19679153,1.77078339
ZZX,135,2,2024-06-13T15:19:58.620Z,english_809.wav,0,0,282,21,5,Chinese,m,4,0.32341667,-5.82752377,1.36117577
ZZX,136,2,2024-06-13T15:19:58.620Z,english_688.wav,0,0,42,21,5,Chinese,m,0,0,-45.64286614,1.06356906
ZZX,136,2,2024-06-13T15:19:58.620Z,english_688.wav,0,0,42,21,5,Chinese,m,1,0.1,39.73956276,0.85197809
ZZX,136,2,2024-06-13T15:19:58.620Z,english_688.wav,0,0,42,21,5,Chinese,m,2,0.2,40.53719602,0.68718846
ZZX,136,2,2024-06-13T15:19:58.620Z,english_688.wav,0,0,42,21,5,Chinese,m,3,0.3,-71.29470492,1.67995478
ZZX,136,2,2024-06-13T15:19:58.620Z,english_688.wav,0,0,42,21,5,Chinese,m,4,0.32341667,73.7490074,1.45979079
ZZX,137,2,2024-06-13T15:19:58.620Z,english_707.wav,0,0,615,21,5,Chinese,m,0,0,-17.04120346,1.06535483
ZZX,137,2,2024-06-13T15:19:58.620Z,english_707.wav,0,0,615,21,5,Chinese,m,1,0.1,-57.44917128,0.89541794
ZZX,137,2,2024-06-13T15:19:58.620Z,english_707.wav,0,0,615,21,5,Chinese,m,2,0.2,90.75848643,1.64838001
ZZX,137,2,2024-06-13T15:19:58.620Z,english_707.wav,0,0,615,21,5,Chinese,m,3,0.3,96.79852424,0.75431717
ZZX,137,2,2024-06-13T15:19:58.620Z,english_707.wav,0,0,615,21,5,Chinese,m,4,0.32341667,27.01716591,0.48082071
ZZX,138,2,2024-06-13T15:19:58.620Z,english_698.wav,0,1,399,21,5,Chinese,m,0,0,-86.30999669,1.66322514
ZZX,138,2,2024-06-13T15:19:58.620Z,english_698.wav,0,1,399,21,5,Chinese,m,1,0.1,-91.60158578,1.16924533
ZZX,138,2,2024-06-13T15:19:58.620Z,english_698.wav,0,1,399,21,5,Chinese,m,2,0.2,-41.16326515,1.29610919
ZZX,138,2,2024-06-13T15:19:58.620Z,english_698.wav,0,1,399,21,5,Chinese,m,3,0.3,7.86252123,1.21006153
ZZX,138,2,2024-06-13T15:19:58.620Z,english_698.wav,0,1,399,21,5,Chinese,m,4,0.32341667,25.04181708,1.83628755
ZZX,139,2,2024-06-13T15:19:58.620Z,english_22.wav,0,1,1367,21,5,Chinese,m,0,0,78.11206964,1.48448967
ZZX,139,2,2024-06-13T15:19:58.620Z,english_22.wav,0,1,1367,21,5,Chinese,m,1,0.1,30.08823316,0.28770474
ZZX,139,2,2024-06-13T15:19:58.620Z,english_22.wav,0,1,1367,21,5,Chinese,m,2,0.2,62.70691674,1.03274311
ZZX,139,2,2024-06-13T15:19:58.620Z,english_22.wav,0,1,1367,21,5,Chinese,m,3,0.3,-69.9857022,0.45071415
ZZX,139,2,2024-06-13T15:19:58.620Z,english_22.wav,0,1,1367,21,5,Chinese,m,4,0.32341667,-1.96178027,0.30900593
ZZX,140,2,2024-06-13T15:19:58.620Z,english_521.wav,0,0,248,21,5,Chinese,m,0,0,-39.78859965,1.84590666
ZZX,140,2,2024-06-13T15:19:58.620Z,english_521.wav,0,0,248,21,5,Chinese,m,1,0.1,94.65680132,0.33665341
ZZX,140,2,2024-06-13T15:19:58.620Z,english_521.wav,0,0,248,21,5,Chinese,m,2,0.2,-68.68225016,1.01474729
ZZX,140,2,2024-06-13T15:19:58.620Z,english_521.wav,0,0,248,21,5,Chinese,m,3,0.3,19.56493677,0.73624599
ZZX,140,2,2024-06-13T15:19:58.620Z,english_521.wav,0,0,248,21,5,Chinese,m,4,0.32341667,69.42990376,1.4391639
ZZX,141,2,2024-06-13T15:19:58.620Z,english_920.wav,0,1,312,21,5,Chinese,m,0,0,95.7501832,1.54313256
ZZX,141,2,2024-06-13T15:19:58.620Z,english_920.wav,0,1,312,21,5,Chinese,m,1,0.1,-3.19831823,1.33500472
ZZX,141,2,2024-06-13T15:19:58.620Z,english_920.wav,0,1,312,21,5,Chinese,m,2,0.2,-16.96134457,1.12819963
ZZX,141,2,2024-06-13T15:19:58.620Z,english_920.wav,0,1,312,21,5,Chinese,m,3,0.3,-28.81747413,1.72147256
ZZX,141,2,2024-06-13T15:19:58.620Z,english_920.wav,0,1,312,21,5,Chinese,m,4,0.32341667,42.63505928,0.57593815
ZZX,142,2,2024-06-13T15:19:58.620Z,english_509.wav,0,1,551,21,5,Chinese,m,0,0,58.37136146,0.93627824
ZZX,142,2,2024-06-13T15:19:58.620Z,english_509.wav,0,1,551,21,5,Chinese,m,1,0.1,-30.59588084,1.268957
ZZX,142,2,2024-06-13T15:19:58.620Z,english_509.wav,0,1,551,21,5,Chinese,m,2,0.2,-42.62400689,0.87018438
ZZX,142,2,2024-06-13T15:19:58.620Z,english_509.wav,0,1,551,21,5,Chinese,m,3,0.3,58.46483968,1.67134466
ZZX,142,2,2024-06-13T15:19:58.620Z,english_509.wav,0,1,551,21,5,Chinese,m,4,0.32341667,44.09610342,1.96584472
ZZX,143,2,2024-06-13T15:19:58.620Z,english_264.wav,0,1,495,21,5,Chinese,m,0,0,16.10521774,1.02407609
ZZX,143,2,2024-06-13T15:19:58.620Z,english_264.wav,0,1,495,21,5,Chinese,m,1,0.1,-43.55481907,1.4393598
ZZX,143,2,2024-06-13T15:19:58.620Z,english_264.wav,0,1,495,21,5,Chinese,m,2,0.2,-16.87093852,1.31552174
ZZX,143,2,2024-06-13T15:19:58.620Z,english_264.wav,0,1,495,21,5,Chinese,m,3,0.3,-81.41755984,1.17516842
ZZX,143,2,2024-06-13T15:19:58.620Z,english_264.wav,0,1,495,21,5,Chinese,m,4,0.32341667,-76.00277997,0.613195
ZZX,144,2,2024-06-13T15:19:58.620Z,english_349.wav,0,1,193,21,5,Chinese,m,0,0,-10.00495534,0.36915768
ZZX,144,2,2024-06-13T15:19:58.620Z,english_349.wav,0,1,193,21,5,Chinese,m,1,0.1,54.31199814,0.83111041
ZZX,144,2,2024-06-13T15:19:58.620Z,english_349.wav,0,1,193,21,5,Chinese,m,2,0.2,48.17968705,1.70147194
ZZX,144,2,2024-06-13T15:19:58.620Z,english_349.wav,0,1,193,21,5,Chinese,m,3,0.3,8.48926652,1.08588898
ZZX,144,2,2024-06-13T15:19:58.620Z,english_349.wav,0,1,193,21,5,Chinese,m,4,0.32341667,42.05620052,0.02584958
ZZX,145,2,2024-06-13T15:19:58.620Z,english_616.wav,0,1,58,21,5,Chinese,m,0,0,-71.12360497,0.83412473
ZZX,145,2,2024-06-13T15:19:58.620Z,english_616.wav,0,1,58,21,5,Chinese,m,1,0.1,55.35355355,1.49185731
ZZX,145,2,2024-06-13T15:19:58.620Z,english_616.wav,0,1,58,21,5,Chinese,m,2,0.2,-15.85026512,1.32170209
ZZX,145,2,2024-06-13T15:19:58.620Z,english_616.wav,0,1,58,21,5,Chinese,m,3,0.3,-22.60587367,0.90458331
ZZX,145,2,2024-06-13T15:19:58.620Z,english_616.wav,0,1,58,21,5,Chinese,m,4,0.32341667,-45.64131884,1.17134835
ZZX,146,2,2024-06-13T15:19:58.620Z,english_47.wav,0,0,295,21,5,Chinese,m,0,0,70.62381491,1.36620222
ZZX,146,2,2024-06-13T15:19:58.620Z,english_47.wav,0,0,295,21,5,Chinese,m,1,0.1,-43.60565268,0.47559644
ZZX,146,2,2024-06-13T15:19:58.620Z,english_47.wav,0,0,295,21,5,Chinese,m,2,0.2,29.54670776,0.92078875
ZZX,146,2,2024-06-13T15:19:58.620Z,english_47.wav,0,0,295,21,5,Chinese,m,3,0.3,95.208653,0.83015506
ZZX,146,2,2024-06-13T15:19:58.620Z,english_47.wav,0,0,295,21,5,Chinese,m,4,0.32341667,-87.83630424,1.40747595
ZZX,147,2,2024-06-13T15:19:58.620Z,english_468.wav,0,0,212,21,5,Chinese,m,0,0,-33.82586043,0.35164089
ZZX,147,2,2024-06-13T15:19:58.620Z,english_468.wav,0,0,212,21,5,Chinese,m,1,0.1,-42.55840131,0.20114733
ZZX,147,2,2024-06-13T15:19:58.620Z,english_468.wav,0,0,212,21,5,Chinese,m,2,0.2,-36.6492295,1.40729654
ZZX,147,2,2024-06-13T15:19:58.620Z,english_468.wav,0,0,212,21,5,Chinese,m,3,0.3,39.91321296,0.04300573
ZZX,147,2,2024-06-13T15:19:58.620Z,english_468.wav,0,0,212,21,5,Chinese,m,4,0.32341667,54.14936319,1.79642733
ZZX,148,2,2024-06-13T15:19:58.620Z,english_366.wav,0,0,116,21,5,Chinese,m,0,0,30.08929792,0.87054072
ZZX,148,2,2024-06-13T15:19:58.620Z,english_366.wav,0,0,116,21,5,Chinese,m,1,0.1,-17.9139155,0.34658018
ZZX,148,2,2024-06-13T15:19:58.620Z,english_366.wav,0,0,116,21,5,Chinese,m,2,0.2,-66.75779592,0.49970414
ZZX,148,2,2024-06-13T15:19:58.620Z,english_366.wav,0,0,116,21,5,Chinese,m,3,0.3,77.64459909,1.94720887
ZZX,148,2,2024-06-13T15:19:58.620Z,english_366.wav,0,0,116,21,5,Chinese,m,4,0.32341667,72.64294537,1.76390144
ZZX,149,2,2024-06-13T15:19:58.620Z,english_649.wav,0,0,201,21,5,Chinese,m,0,0,65.82222467,0.56154429
ZZX,149,2,2024-06-13T15:19:58.620Z,english_649.wav,0,0,201,21,5,Chinese,m,1,0.1,-9.35575527,0.64767017
ZZX,149,2,2024-06-13T15:19:58.620Z,english_649.wav,0,0,201,21,5,Chinese,m,2,0.2,-91.83315911,0.84538271
ZZX,149,2,2024-06-13T15:19:58.620Z,english_649.wav,0,0,201,21,5,Chinese,m,3,0.3,79.30022345,0.4979411
ZZX,149,2,2024-06-13T15:19:58.620Z,english_649.wav,0,0,201,21,5,Chinese,m,4,0.32341667,45.86180924,0.89353148
ZZX,150,3,2024-06-13T15:23:52.558Z,english_226.wav,0,1,534,21,5,Chinese,m,0,0,-56.53605181,0.51185795
ZZX,150,3,2024-06-13T15:23:52.558Z,english_226.wav,0,1,534,21,5,Chinese,m,1,0.1,-5.93547338,0.73377568
ZZX,150,3,2024-06-13T15:23:52.558Z,english_226.wav,0,1,534,21,5,Chinese,m,2,0.2,-81.0596442,1.62034912
ZZX,150,3,2024-06-13T15:23:52.558Z,english_226.wav,0,1,534,21,5,Chinese,m,3,0.3,-12.14261426,0.19474782
ZZX,150,3,2024-06-13T15:23:52.558Z,english_226.wav,0,1,534,21,5,Chinese,m,4,0.32341667,40.67667876,0.1395898
ZZX,151,3,2024-06-13T15:23:52.558Z,english_711.wav,0,1,126,21,5,Chinese,m,0,0,40.88671478,0.99029016
ZZX,151,3,2024-06-13T15:23:52.558Z,english_711.wav,0,1,126,21,5,Chinese,m,1,0.1,9.07407961,0.54320223
ZZX,151,3,2024-06-13T15:23:52.558Z,english_711.wav,0,1,126,21,5,Chinese,m,2,0.2,-23.01321115,1.60107
ZZX,151,3,2024-06-13T15:23:52.558Z,english_711.wav,0,1,126,21,5,Chinese,m,3,0.3,-10.85681813,1.574764
ZZX,151,3,2024-06-13T15:23:52.558Z,english_711.wav,0,1,126,21,5,Chinese,m,4,0.32341667,87.87195083,1.34863725
ZZX,152,3,2024-06-13T15:23:52.558Z,english_562.wav,0,1,397,21,5,Chinese,m,0,0,-40.22672309,0.64031882
ZZX,152,3,2024-06-13T15:23:52.558Z,english_562.wav,0,1,397,21,5,Chinese,m,1,0.1,77.961849,0.7637006
ZZX,152,3,2024-06-13T15:23:52.558Z,english_562.wav,0,1,397,21,5,Chinese,m,2,0.2,25.52463525,0.87632482
ZZX,152,3,2024-06-13T15:23:52.558Z,english_562.wav,0,1,397,21,5,Chinese,m,3,0.3,84.62788358,0.98972612
ZZX,152,3,2024-06-13T15:23:52.558Z,english_562.wav,0,1,397,21,5,Chinese,m,4,0.32341667,-53.67427145,0.74010285
ZZX,153,3,2024-06-13T15:23:52.558Z,english_657.wav,0,0,537,21,5,Chinese,m,0,0,30.03208284,1.42095662
ZZX,153,3,2024-06-13T15:23:52.558Z,english_657.wav,0,0,537,21,5,Chinese,m,1,0.1,-5.57127058,1.29790323
ZZX,153,3,2024-06-13T15:23:52.558Z,english_657.wav,0,0,537,21,5,Chinese,m,2,0.2,9.55793083,0.51612643
ZZX,153,3,2024-06-13T15:23:52.558Z,english_657.wav,0,0,537,21,5,Chinese,m,3,0.3,3.39766504,0.37671101
ZZX,153,3,2024-06-13T15:23:52.558Z,english_657.wav,0,0,537,21,5,Chinese,m,4,0.32341667,84.38659916,1.20124021
ZZX,154,3,2024-06-13T15:23:52.558Z,english_739.wav,0,1,268,21,5,Chinese,m,0,0,-30.44662447,1.4086692
ZZX,154,3,2024-06-13T15:23:52.558Z,english_739.wav,0,1,268,21,5,Chinese,m,1,0.1,-27.69908881,0.95518545
ZZX,154,3,2024-06-13T15:23:52.558Z,english_739.wav,0,1,268,21,5,Chinese,m,2,0.2,25.08576745,1.0815723
ZZX,154,3,2024-06-13T15:23:52.558Z,english_739.wav,0,1,268,21,5,Chinese,m,3,0.3,-20.92476775,0.08724184
ZZX,154,3,2024-06-13T15:23:52.558Z,english_739.wav,0,1,268,21,5,Chinese,m,4,0.32341667,-46.92266257,1.12979104
ZZX,155,3,2024-06-13T15:23:52.558Z,english_472.wav,0,1,177,21,5,Chinese,m,0,0,-33.48324222,1.19367533
ZZX,155,3,2024-06-13T15:23:52.558Z,english_472.wav,0,1,177,21,5,Chinese,m,1,0.1,-52.47175565,0.64788551
ZZX,155,3,2024-06-13T15:23:52.558Z,english_472.wav,0,1,177,21,5,Chinese,m,2,0.2,-13.12063744,0.92970714
ZZX,155,3,2024-06-13T15:23:52.558Z,english_472.wav,0,1,177,21,5,Chinese,m,3,0.3,83.57117959,0.61503547
ZZX,155,3,2024-06-13T15:23:52.558Z,english_472.wav,0,1,177,21,5,Chinese,m,4,0.32341667,95.60610647,0.52013695
ZZX,156,3,2024-06-13T15:23:52.558Z,english_803.wav,0,1,231,21,5,Chinese,m,0,0,8.73756077,1.22190991
ZZX,156,3,2024-06-13T15:23:52.558Z,english_803.wav,0,1,231,21,5,Chinese,m,1,0.1,-41.53503623,1.08276728
ZZX,156,3,2024-06-13T15:23:52.558Z,english_803.wav,0,1,231,21,5,Chinese,m,2,0.2,-84.76471985,1.59545905
ZZX,156,3,2024-06-13T15:23:52.558Z,english_803.wav,0,1,231,21,5,Chinese,m,3,0.3,-27.96408635,1.3875394
ZZX,156,3,2024-06-13T15:23:52.558Z,english_803.wav,0,1,231,21,5,Chinese,m,4,0.32341667,72.02290108,0.92287786
ZZX,157,3,2024-06-13T15:23:52.558Z,english_410.wav,0,0,324,21,5,Chinese,m,0,0,-74.64506245,0.42358098
ZZX,157,3,2024-06-13T15:23:52.558Z,english_410.wav,0,0,324,21,5,Chinese,m,1,0.1,65.24401488,0.42526697
ZZX,157,3,2024-06-13T15:23:52.558Z,english_410.wav,0,0,324,21,5,Chinese,m,2,0.2,-65.86471953,1.12385183
ZZX,157,3,2024-06-13T15:23:52.558Z,english_410.wav,0,0,324,21,5,Chinese,m,3,0.3,98.79489106,0.33588109
ZZX,157,3,2024-06-13T15:23:52.558Z,english_410.wav,0,0,324,21,5,Chinese,m,4,0.32341667,14.95451541,1.7246864
ZZX,158,3,2024-06-13T15:23:52.558Z,english_975.wav,0,1,2493,21,5,Chinese,m,0,0,30.76275893,1.75032315
ZZX,158,3,2024-06-13T15:23:52.558Z,english_975.wav,0,1,2493,21,5,Chinese,m,1,0.1,-18.30184736,1.1766706
ZZX,158,3,2024-06-13T15:23:52.558Z,english_975.wav,0,1,2493,21,5,Chinese,m,2,0.2,88.92209311,0.11148121
ZZX,158,3,2024-06-13T15:23:52.558Z,english_975.wav,0,1,2493,21,5,Chinese,m,3,0.3,-15.78836893,1.00992181
ZZX,158,3,2024-06-13T15:23:52.558Z,english_975.wav,0,1,2493,21,5,Chinese,m,4,0.32341667,81.69873146,1.08252971
ZZX,159,3,2024-06-13T15:23:52.558Z,english_836.wav,0,0,767,21,5,Chinese,m,0,0,34.85846782,1.04017402
ZZX,159,3,2024-06-13T15:23:52.558Z,english_836.wav,0,0,767,21,5,Chinese,m,1,0.1,41.54458908,0.35535359
ZZX,159,3,2024-06-13T15:23:52.558Z,english_836.wav,0,0,767,21,5,Chinese,m,2,0.2,23.27363575,0.10471693
ZZX,159,3,2024-06-13T15:23:52.558Z,english_836.wav,0,0,767,21,5,Chinese,m,3,0.3,86.83996211,0.55523491
ZZX,159,3,2024-06-13T15:23:52.558Z,english_836.wav,0,0,767,21,5,Chinese,m,4,0.32341667,-32.25656931,0.70311776
ZZX,160,3,2024-06-13T15:23:52.558Z,english_664.wav,0,1,134,21,5,Chinese,m,0,0,-76.94516773,1.88823832
ZZX,160,3,2024-06-13T15:23:52.558Z,english_664.wav,0,1,134,21,5,Chinese,m,1,0.1,-6.4858311,1.41396893
ZZX,160,3,2024-06-13T15:23:52.558Z,english_664.wav,0,1,134,21,5,Chinese,m,2,0.2,46.60528691,0.11773869
ZZX,160,3,2024-06-13T15:23:52.558Z,english_664.wav,0,1,134,21,5,Chinese,m,3,0.3,9.48323043,1.80376032
ZZX,160,3,2024-06-13T15:23:52.558Z,english_664.wav,0,1,134,21,5,Chinese,m,4,0.32341667,89.85696022,1.43209877
ZZX,161,3,2024-06-13T15:23:52.558Z,english_89.wav,0,0,230,21,5,Chinese,m,0,0,-42.28936571,1.68633095
ZZX,161,3,2024-06-13T15:23:52.558Z,english_89.wav,0,0,230,21,5,Chinese,m,1,0.1,12.96738115,0.49078122
ZZX,161,3,2024-06-13T15:23:52.558Z,english_89.wav,0,0,230,21,5,Chinese,m,2,0.2,-0.92476461,0.75584791
ZZX,161,3,2024-06-13T15:23:52.558Z,english_89.wav,0,0,230,21,5,Chinese,m,3,0.3,54.46155283,1.37155139
ZZX,161,3,2024-06-13T15:23:52.558Z,english_89.wav,0,0,230,21,5,Chinese,m,4,0.32341667,-5.27724964,0.6613642
ZZX,162,3,2024-06-13T15:23:52.558Z,english_170.wav,0,1,86,21,5,Chinese,m,0,0,6.45066022,1.58910722
ZZX,162,3,2024-06-13T15:23:52.558Z,english_170.wav,0,1,86,21,5,Chinese,m,1,0.1,-4.11198278,0.3365331
ZZX,162,3,2024-06-13T15:23:52.558Z,english_170.wav,0,1,86,21,5,Chinese,m,2,0.2,96.59136675,0.38643451
ZZX,162,3,2024-06-13T15:23:52.558Z,english_170.wav,0,1,86,21,5,Chinese,m,3,0.3,21.57070742,1.58623933
ZZX,162,3,2024-06-13T15:23:52.558Z,english_170.wav,0,1,86,21,5,Chinese,m,4,0.32341667,94.47980818,1.61968164
ZZX,163,3,2024-06-13T15:23:52.558Z,english_87.wav,0,1,53,21,5,Chinese,m,0,0,54.83056612,1.56132998
ZZX,163,3,2024-06-13T15:23:52.558Z,english_87.wav,0,1,53,21,5,Chinese,m,1,0.1,56.31531505,1.28614089
ZZX,163,3,2024-06-13T15:23:52.558Z,english_87.wav,0,1,53,21,5,Chinese,m,2,0.2,-65.55002777,1.44579989
ZZX,163,3,2024-06-13T15:23:52.558Z,english_87.wav,0,1,53,21,5,Chinese,m,3,0.3,-25.15788212,0.3607766
ZZX,163,3,2024-06-13T15:23:52.558Z,english_87.wav,0,1,53,21,5,Chinese,m,4,0.32341667,22.72349562,0.17745198
ZZX,164,3,2024-06-13T15:23:52.558Z,english_487.wav,0,1,106,21,5,Chinese,m,0,0,57.34447058,0.27098038
ZZX,164,3,2024-06-13T15:23:52.558Z,english_487.wav,0,1,106,21,5,Chinese,m,1,0.1,-38.59224607,1.03105808
ZZX,164,3,2024-06-13T15:23:52.558Z,english_487.wav,0,1,106,21,5,Chinese,m,2,0.2,-30.93562102,0.17810411
ZZX,164,3,2024-06-13T15:23:52.558Z,english_487.wav,0,1,106,21,5,Chinese,m,3,0.3,-21.39452484,0.81608244
ZZX,164,3,2024-06-13T15:23:52.558Z,english_487.wav,0,1,106,21,5,Chinese,m,4,0.32341667,-98.93333205,1.1056793
ZZX,165,3,2024-06-13T15:23:52.558Z,english_997.wav,0,1,320,21,5,Chinese,m,0,0,93.4252615,0.4603395
ZZX,165,3,2024-06-13T15:23:52.558Z,english_997.wav,0,1,320,21,5,Chinese,m,1,0.1,62.16088314,0.21654412
ZZX,165,3,2024-06-13T15:23:52.558Z,english_997.wav,0,1,320,21,5,Chinese,m,2,0.2,-26.38638022,1.36234896
ZZX,165,3,2024-06-13T15:23:52.558Z,english_997.wav,0,1,320,21,5,Chinese,m,3,0.3,89.15363163,1.07462804
ZZX,165,3,2024-06-13T15:23:52.558Z,english_997.wav,0,1,320,21,5,Chinese,m,4,0.32341667,-25.83137337,0.84007196
ZZX,166,3,2024-06-13T15:23:52.558Z,english_642.wav,0,1,182,21,5,Chinese,m,0,0,31.40946548,0.21393667
ZZX,166,3,2024-06-13T15:23:52.558Z,english_642.wav,0,1,182,21,5,Chinese,m,1,0.1,4.73018903,1.31302396
ZZX,166,3,2024-06-13T15:23:52.558Z,english_642.wav,0,1,182,21,5,Chinese,m,2,0.2,85.2390777,0.95537026
ZZX,166,3,2024-06-13T15:23:52.558Z,english_642.wav,0,1,182,21,5,Chinese,m,3,0.3,-59.81643451,1.00167733
ZZX,166,3,2024-06-13T15:23:52.558Z,english_642.wav,0,1,182,21,5,Chinese,m,4,0.32341667,-42.92691369,0.89750156
ZZX,167,3,2024-06-13T15:23:52.558Z,english_767.wav,0,0,482,21,5,Chinese,m,0,0,29.63321135,0.17563718
ZZX,167,3,2024-06-13T15:23:52.558Z,english_767.wav,0,0,482,21,5,Chinese,m,1,0.1,-31.63783795,0.61981002
ZZX,167,3,2024-06-13T15:23:52.558Z,english_767.wav,0,0,482,21,5,Chinese,m,2,0.2,56.53254366,1.38773128
ZZX,167,3,2024-06-13T15:23:52.558Z,english_767.wav,0,0,482,21,5,Chinese,m,3,0.3,52.69149806,1.37795514
ZZX,167,3,2024-06-13T15:23:52.558Z,english_767.wav,0,0,482,21,5,Chinese,m,4,0.32341667,-0.8536295,1.97315338
ZZX,168,3,2024-06-13T15:23:52.558Z,english_499.wav,0,1,647,21,5,Chinese,m,0,0,-62.75547094,0.4212983
ZZX,168,3,2024-06-13T15:23:52.558Z,english_499.wav,0,1,647,21,5,Chinese,m,1,0.1,28.73361796,1.54082224
ZZX,168,3,2024-06-13T15:23:52.558Z,english_499.wav,0,1,647,21,5,Chinese,m,2,0.2,-71.86053711,1.07919976
ZZX,168,3,2024-06-13T15:23:52.558Z,english_499.wav,0,1,647,21,5,Chinese,m,3,0.3,-44.40399931,1.20425095
ZZX,168,3,2024-06-13T15:23:52.558Z,english_499.wav,0,1,647,21,5,Chinese,m,4,0.32341667,-2.72335033,0.4618338
ZZX,169,3,2024-06-13T15:23:52.558Z,english_113.wav,0,1,267,21,5,Chinese,m,0,0,8.7952765,0.51001639
ZZX,169,3,2024-06-13T15:23:52.558Z,english_113.wav,0,1,267,21,5,Chinese,m,1,0.1,91.94692023,1.45766025
ZZX,169,3,2024-06-13T15:23:52.558Z,english_113.wav,0,1,267,21,5,Chinese,m,2,0.2,-6.68088057,1.25674442
ZZX,169,3,2024-06-13T15:23:52.558Z,english_113.wav,0,1,267,21,5,Chinese,m,3,0.3,38.28142065,1.93213547
ZZX,169,3,2024-06-13T15:23:52.558Z,english_113.wav,0,1,267,21,5,Chinese,m,4,0.32341667,-37.19939988,0.45590133
ZZX,170,3,2024-06-13T15:23:52.558Z,english_123.wav,0,0,129,21,5,Chinese,m,0,0,67.91608163,1.13046919
ZZX,170,3,2024-06-13T15:23:52.558Z,english_123.wav,0,0,129,21,5,Chinese,m,1,0.1,-92.32097988,1.99597614
ZZX,170,3,2024-06-13T15:23:52.558Z,english_123.wav,0,0,129,21,5,Chinese,m,2,0.2,57.07371841,1.53523853
ZZX,170,3,2024-06-13T15:23:52.558Z,english_123.wav,0,0,129,21,5,Chinese,m,3,0.3,19.28317816,0.24385811
ZZX,170,3,2024-06-13T15:23:52.558Z,english_123.wav,0,0,129,21,5,Chinese,m,4,0.32341667,15.30546887,0.39158976
ZZX,171,3,2024-06-13T15:23:52.558Z,english_821.wav,0,1,349,21,5,Chinese,m,0,0,-4.04234253,1.62928948
ZZX,171,3,2024-06-13T15:23:52.558Z,english_821.wav,0,1,349,21,5,Chinese,m,1,0.1,50.39518932,0.78033958
ZZX,171,3,2024-06-13T15:23:52.558Z,english_821.wav,0,1,349,21,5,Chinese,m,2,0.2,58.18996785,1.56476115
ZZX,171,3,2024-06-13T15:23:52.558Z,english_821.wav,0,1,349,21,5,Chinese,m,3,0.3,-22.07293427,0.56557752
ZZX,171,3,2024-06-13T15:23:52.558Z,english_821.wav,0,1,349,21,5,Chinese,m,4,0.32341667,56.43229939,0.93389964
ZZX,172,3,2024-06-13T15:23:52.558Z,english_328.wav,0,1,426,21,5,Chinese,m,0,0,-24.96515822,0.68772771
ZZX,172,3,2024-06-13T15:23:52.558Z,english_328.wav,0,1,426,21,5,Chinese,m,1,0.1,36.64267249,0.30369637
ZZX,172,3,2024-06-13T15:23:52.558Z,english_328.wav,0,1,426,21,5,Chinese,m,2,0.2,-93.60804347,1.16330199
ZZX,172,3,2024-06-13T15:23:52.558Z,english_328.wav,0,1,426,21,5,Chinese,m,3,0.3,9.86556644,0.69001341
ZZX,172,3,2024-06-13T15:23:52.558Z,english_328.wav,0,1,426,21,5,Chinese,m,4,0.32341667,-17.13685423,0.54642887
ZZX,173,3,2024-06-13T15:23:52.558Z,english_923.wav,0,0,268,21,5,Chinese,m,0,0,-0.59122564,1.19594648
ZZX,173,3,2024-06-13T15:23:52.558Z,english_923.wav,0,0,268,21,5,Chinese,m,1,0.1,-5.70499959,1.05419104
ZZX,173,3,2024-06-13T15:23:52.558Z,english_923.wav,0,0,268,21,5,Chinese,m,2,0.2,-29.88927864,0.73000078
ZZX,173,3,2024-06-13T15:23:52.558Z,english_923.wav,0,0,268,21,5,Chinese,m,3,0.3,-82.02126299,1.36390543
ZZX,173,3,2024-06-13T15:23:52.558Z,english_923.wav,0,0,268,21,5,Chinese,m,4,0.32341667,16.89967319,1.13865732
ZZX,174,3,2024-06-13T15:23:52.558Z,english_396.wav,0,1,224,21,5,Chinese,m,0,0,2.39126912,1.48231007
ZZX,174,3,2024-06-13T15:23:52.558Z,english_396.wav,0,1,224,21,5,Chinese,m,1,0.1,-38.95035948,0.85829723
ZZX,174,3,2024-06-13T15:23:52.558Z,english_396.wav,0,1,224,21,5,Chinese,m,2,0.2,78.31320688,1.16655306
ZZX,174,3,2024-06-13T15:23:52.558Z,english_396.wav,0,1,224,21,5,Chinese,m,3,0.3,16.98024706,0.51680164
ZZX,174,3,2024-06-13T15:23:52.558Z,english_396.wav,0,1,224,21,5,Chinese,m,4,0.32341667,44.66397079,1.5133775
ZZX,175,3,2024-06-13T15:23:52.558Z,english_626.wav,0,1,242,21,5,Chinese,m,0,0,4.25415757,0.7037323
ZZX,175,3,2024-06-13T15:23:52.558Z,english_626.wav,0,1,242,21,5,Chinese,m,1,0.1,-41.27415217,1.26912647
ZZX,175,3,2024-06-13T15:23:52.558Z,english_626.wav,0,1,242,21,5,Chinese,m,2,0.2,-74.74598363,0.17760594
ZZX,175,3,2024-06-13T15:23:52.558Z,english_626.wav,0,1,242,21,5,Chinese,m,3,0.3,-15.94741517,1.12963497
ZZX,175,3,2024-06-13T15:23:52.558Z,english_626.wav,0,1,242,21,5,Chinese,m,4,0.32341667,43.51897949,0.85087029
ZZX,176,3,2024-06-13T15:23:52.558Z,english_891.wav,0,0,491,21,5,Chinese,m,0,0,21.29241244,0.7419472
ZZX,176,3,2024-06-13T15:23:52.558Z,english_891.wav,0,0,491,21,5,Chinese,m,1,0.1,-1.23713702,1.09270952
ZZX,176,3,2024-06-13T15:23:52.558Z,english_891.wav,0,0,491,21,5,Chinese,m,2,0.2,-74.86460599,0.8129571
ZZX,176,3,2024-06-13T15:23:52.558Z,english_891.wav,0,0,491,21,5,Chinese,m,3,0.3,18.81587233,0.16019775
ZZX,176,3,2024-06-13T15:23:52.558Z,english_891.wav,0,0,491,21,5,Chinese,m,4,0.32341667,35.3489582,1.17476401
ZZX,177,3,2024-06-13T15:23:52.558Z,english_55.wav,0,1,349,21,5,Chinese,m,0,0,71.89255128,0.24931264
ZZX,177,3,2024-06-13T15:23:52.558Z,english_55.wav,0,1,349,21,5,Chinese,m,1,0.1,0.20692224,1.79813092
ZZX,177,3,2024-06-13T15:23:52.558Z,english_55.wav,0,1,349,21,5,Chinese,m,2,0.2,-68.61006599,0.71729895
ZZX,177,3,2024-06-13T15:23:52.558Z,english_55.wav,0,1,349,21,5,Chinese,m,3,0.3,-5.20952515,1.28733782
ZZX,177,3,2024-06-13T15:23:52.558Z,english_55.wav,0,1,349,21,5,Chinese,m,4,0.32341667,28.45991968,1.77061752
ZZX,178,3,2024-06-13T15:23:52.558Z,english_136.wav,0,0,493,21,5,Chinese,m,0,0,12.04186247,0.70846626
ZZX,178,3,2024-06-13T15:23:52.558Z,english_136.wav,0,0,493,21,5,Chinese,m,1,0.1,-56.97950323,1.3229906
ZZX,178,3,2024-06-13T15:23:52.558Z,english_136.wav,0,0,493,21,5,Chinese,m,2,0.2,32.29793995,0.25119571
ZZX,178,3,2024-06-13T15:23:52.558Z,english_136.wav,0,0,493,21,5,Chinese,m,3,0.3,40.05814767,1.28510755
ZZX,178,3,2024-06-13T15:23:52.558Z,english_136.wav,0,0,493,21,5,Chinese,m,4,0.32341667,61.40693937,1.20697433
ZZX,179,3,2024-06-13T15:23:52.558Z,english_976.wav,0,1,281,21,5,Chinese,m,0,0,-92.49082032,0.30893725
ZZX,179,3,2024-06-13T15:23:52.558Z,english_976.wav,0,1,281,21,5,Chinese,m,1,0.1,92.01562452,1.54393752
ZZX,179,3,2024-06-13T15:23:52.558Z,english_976.wav,0,1,281,21,5,Chinese,m,2,0.2,-80.55764576,1.31466429
ZZX,179,3,2024-06-13T15:23:52.558Z,english_976.wav,0,1,281,21,5,Chinese,m,3,0.3,-70.09009567,1.88171095
ZZX,179,3,2024-06-13T15:23:52.558Z,english_976.wav,0,1,281,21,5,Chinese,m,4,0.32341667,-7.5394989,1.71314556
ZZX,180,3,2024-06-13T15:23:52.558Z,english_122.wav,0,0,546,21,5,Chinese,m,0,0,64.29837997,0.06121643
ZZX,180,3,2024-06-13T15:23:52.558Z,english_122.wav,0,0,546,21,5,Chinese,m,1,0.1,-6.72103776,1.56183773
ZZX,180,3,2024-06-13T15:23:52.558Z,english_122.wav,0,0,546,21,5,Chinese,m,2,0.2,34.67911304,1.3577209
ZZX,180,3,2024-06-13T15:23:52.558Z,english_122.wav,0,0,546,21,5,Chinese,m,3,0.3,25.29178735,0.94012362
ZZX,180,3,2024-06-13T15:23:52.558Z,english_122.wav,0,0,546,21,5,Chinese,m,4,0.32341667,-20.34954259,1.04570986
ZZX,181,3,2024-06-13T15:23:52.558Z,english_925.wav,0,1,555,21,5,Chinese,m,0,0,-23.38055082,1.07708889
ZZX,181,3,2024-06-13T15:23:52.558Z,english_925.wav,0,1,555,21,5,Chinese,m,1,0.1,12.69502826,1.65606803
ZZX,181,3,2024-06-13T15:23:52.558Z,english_925.wav,0,1,555,21,5,Chinese,m,2,0.2,77.53463838,0.48648737
ZZX,181,3,2024-06-13T15:23:52.558Z,english_925.wav,0,1,555,21,5,Chinese,m,3,0.3,58.05299948,0.8939016
ZZX,181,3,2024-06-13T15:23:52.558Z,english_925.wav,0,1,555,21,5,Chinese,m,4,0.32341667,54.12197927,0.72199492
ZZX,182,3,2024-06-13T15:23:52.558Z,english_54.wav,0,1,203,21,5,Chinese,m,0,0,1.86764875,1.47639799
ZZX,182,3,2024-06-13T15:23:52.558Z,english_54.wav,0,1,203,21,5,Chinese,m,1,0.1,-1.78672474,1.92944336
ZZX,182,3,2024-06-13T15:23:52.558Z,english_54.wav,0,1,203,21,5,Chinese,m,2,0.2,-26.58380414,0.76292987
ZZX,182,3,2024-06-13T15:23:52.558Z,english_54.wav,0,1,203,21,5,Chinese,m,3,0.3,-2.56688864,1.78735236
ZZX,182,3,2024-06-13T15:23:52.558Z,english_54.wav,0,1,203,21,5,Chinese,m,4,0.32341667,-76.29238916,0.80366269
ZZX,183,3,2024-06-13T15:23:52.558Z,english_340.wav,0,1,721,21,5,Chinese,m,0,0,42.62794877,1.44385011
ZZX,183,3,2024-06-13T15:23:52.558Z,english_340.wav,0,1,721,21,5,Chinese,m,1,0.1,67.09042835,1.29329602
ZZX,183,3,2024-06-13T15:23:52.558Z,english_340.wav,0,1,721,21,5,Chinese,m,2,0.2,-80.28719593,1.71068781
ZZX,183,3,2024-06-13T15:23:52.558Z,english_340.wav,0,1,721,21,5,Chinese,m,3,0.3,-47.97556268,0.48872717
ZZX,183,3,2024-06-13T15:23:52.558Z,english_340.wav,0,1,721,21,5,Chinese,m,4,0.32341667,32.7013797,1.09000269
ZZX,184,3,2024-06-13T15:23:52.558Z,english_586.wav,0,0,1043,21,5,Chinese,m,0,0,-62.23642036,1.06144709
ZZX,184,3,2024-06-13T15:23:52.558Z,english_586.wav,0,0,1043,21,5,Chinese,m,1,0.1,79.13201234,0.54207142
ZZX,184,3,2024-06-13T15:23:52.558Z,english_586.wav,0,0,1043,21,5,Chinese,m,2,0.2,-89.54923437,0.72134233
ZZX,184,3,2024-06-13T15:23:52.558Z,english_586.wav,0,0,1043,21,5,Chinese,m,3,0.3,-19.27573078,0.33417878
ZZX,184,3,2024-06-13T15:23:52.558Z,english_586.wav,0,0,1043,21,5,Chinese,m,4,0.32341667,-62.71214645,1.54129631
ZZX,185,3,2024-06-13T15:23:52.558Z,english_733.wav,0,1,242,21,5,Chinese,m,0,0,-77.09135463,1.21028291
ZZX,185,3,2024-06-13T15:23:52.558Z,english_733.wav,0,1,242,21,5,Chinese,m,1,0.1,-30.68901019,1.14931675
ZZX,185,3,2024-06-13T15:23:52.558Z,english_733.wav,0,1,242,21,5,Chinese,m,2,0.2,-27.18135709,1.68866455
ZZX,185,3,2024-06-13T15:23:52.558Z,english_733.wav,0,1,242,21,5,Chinese,m,3,0.3,-10.74804936,0.29390693
ZZX,185,3,2024-06-13T15:23:52.558Z,english_733.wav,0,1,242,21,5,Chinese,m,4,0.32341667,-57.14773718,0.43305962
ZZX,186,3,2024-06-13T15:23:52.558Z,english_662.wav,0,0,503,21,5,Chinese,m,0,0,-34.20942979,0.58122658
ZZX,186,3,2024-06-13T15:23:52.558Z,english_662.wav,0,0,503,21,5,Chinese,m,1,0.1,-64.9220759,0.35407044
ZZX,186,3,2024-06-13T15:23:52.558Z,english_662.wav,0,0,503,21,5,Chinese,m,2,0.2,-46.13526655,1.02300599
ZZX,186,3,2024-06-13T15:23:52.558Z,english_662.wav,0,0,503,21,5,Chinese,m,3,0.3,16.61128262,0.09808433
ZZX,186,3,2024-06-13T15:23:52.558Z,english_662.wav,0,0,503,21,5,Chinese,m,4,0.32341667,-72.42442326,0.71975239
ZZX,187,3,2024-06-13T15:23:52.558Z,english_182.wav,0,1,373,21,5,Chinese,m,0,0,57.43769915,0.89919812
ZZX,187,3,2024-06-13T15:23:52.558Z,english_182.wav,0,1,373,21,5,Chinese,m,1,0.1,-87.06676545,1.25243937
ZZX,187,3,2024-06-13T15:23:52.558Z,english_182.wav,0,1,373,21,5,Chinese,m,2,0.2,-91.52107401,1.35021358
ZZX,187,3,2024-06-13T15:23:52.558Z,english_182.wav,0,1,373,21,5,Chinese,m,3,0.3,52.0843588,0.52787795
ZZX,187,3,2024-06-13T15:23:52.558Z,english_182.wav,0,1,373,21,5,Chinese,m,4,0.32341667,18.07264914,0.72620624
ZZX,188,3,2024-06-13T15:23:52.558Z,english_598.wav,0,0,438,21,5,Chinese,m,0,0,4.26365523,0.04069017
ZZX,188,3,2024-06-13T15:23:52.558Z,english_598.wav,0,0,438,21,5,Chinese,m,1,0.1,-29.634957,1.27980102
ZZX,188,3,2024-06-13T15:23:52.558Z,english_598.wav,0,0,438,21,5,Chinese,m,2,0.2,-17.49120793,0.98781586
ZZX,188,3,2024-06-13T15:23:52.558Z,english_598.wav,0,0,438,21,5,Chinese,m,3,0.3,-34.93876912,1.55939702
ZZX,188,3,2024-06-13T15:23:52.558Z,english_598.wav,0,0,438,21,5,Chinese,m,4,0.32341667,49.49845506,1.74128412
ZZX,189,3,2024-06-13T15:23:52.558Z,english_220.wav,0,1,149,21,5,Chinese,m,0,0,-49.83323752,1.6244524
ZZX,189,3,2024-06-13T15:23:52.558Z,english_220.wav,0,1,149,21,5,Chinese,m,1,0.1,49.13629021,0.7812698
ZZX,189,3,2024-06-13T15:23:52.558Z,english_220.wav,0,1,149,21,5,Chinese,m,2,0.2,10.673463,1.29736816
ZZX,189,3,2024-06-13T15:23:52.558Z,english_220.wav,0,1,149,21,5,Chinese,m,3,0.3,-2.35218347,1.3419496
ZZX,189,3,2024-06-13T15:23:52.558Z,english_220.wav,0,1,149,21,5,Chinese,m,4,0.32341667,-2.61587219,1.06575232
ZZX,190,3,2024-06-13T15:23:52.558Z,english_735.wav,0,1,272,21,5,Chinese,m,0,0,51.40973306,0.29099813
ZZX,190,3,2024-06-13T15:23:52.558Z,english_735.wav,0,1,272,21,5,Chinese,m,1,0.1,-5.42867159,1.62833375
ZZX,190,3,2024-06-13T15:23:52.558Z,english_735.wav,0,1,272,21,5,Chinese,m,2,0.2,13.71146629,0.32849247
ZZX,190,3,2024-06-13T15:23:52.558Z,english_735.wav,0,1,272,21,5,Chinese,m,3,0.3,-14.17202169,0.46991549
ZZX,190,3,2024-06-13T15:23:52.558Z,english_735.wav,0,1,272,21,5,Chinese,m,4,0.32341667,14.98699592,0.51625305
ZZX,191,3,2024-06-13T15:23:52.558Z,english_502.wav,0,1,165,21,5,Chinese,m,0,0,-23.73065935,0.0797034
ZZX,191,3,2024-06-13T15:23:52.558Z,english_502.wav,0,1,165,21,5,Chinese,m,1,0.1,2.70754613,1.83600464
ZZX,191,3,2024-06-13T15:23:52.558Z,english_502.wav,0,1,165,21,5,Chinese,m,2,0.2,25.650451,1.48948742
ZZX,191,3,2024-06-13T15:23:52.558Z,english_502.wav,0,1,165,21,5,Chinese,m,3,0.3,-49.55254658,1.22465236
ZZX,191,3,2024-06-13T15:23:52.558Z,english_502.wav,0,1,165,21,5,Chinese,m,4,0.32341667,16.82642172,1.41984075
ZZX,192,3,2024-06-13T15:23:52.558Z,english_134.wav,0,0,192,21,5,Chinese,m,0,0,70.72156413,1.84700732
ZZX,192,3,2024-06-13T15:23:52.558Z,english_134.wav,0,0,192,21,5,Chinese,m,1,0.1,-64.20531103,1.20878884
