subj,trial,block,date,stim,stim_order,response,rt,age,english,language,sex,param_index,segment,pitch,stretch
FQC,0,0,2024-06-14T02:38:59.534Z,english_325.wav,0,1,5327,,,,,0,0,-36.86035688,0.2784687
FQC,0,0,2024-06-14T02:38:59.534Z,english_325.wav,0,1,5327,,,,,1,0.1,-55.38569655,1.41229923
FQC,0,0,2024-06-14T02:38:59.534Z,english_325.wav,0,1,5327,,,,,2,0.2,-56.86017215,0.83316938
FQC,0,0,2024-06-14T02:38:59.534Z,english_325.wav,0,1,5327,,,,,3,0.3,-98.19449268,0.3465596
FQC,0,0,2024-06-14T02:38:59.534Z,english_325.wav,0,1,5327,,,,,4,0.32341667,-6.42447902,1.41863786
FQC,1,0,2024-06-14T02:38:59.534Z,english_935.wav,0,0,2916,,,,,0,0,64.39543101,0.53440609
FQC,1,0,2024-06-14T02:38:59.534Z,english_935.wav,0,0,2916,,,,,1,0.1,86.95314533,0.5847186
FQC,1,0,2024-06-14T02:38:59.534Z,english_935.wav,0,0,2916,,,,,2,0.2,-18.93400703,0.87093815
FQC,1,0,2024-06-14T02:38:59.534Z,english_935.wav,0,0,2916,,,,,3,0.3,36.25821345,1.35336039
FQC,1,0,2024-06-14T02:38:59.534Z,english_935.wav,0,0,2916,,,,,4,0.32341667,-52.75689815,1.46825192
FQC,2,0,2024-06-14T02:38:59.534Z,english_209.wav,0,0,2483,,,,,0,0,14.15361396,1.44232267
FQC,2,0,2024-06-14T02:38:59.534Z,english_209.wav,0,0,2483,,,,,1,0.1,85.95109622,1.49291498
FQC,2,0,2024-06-14T02:38:59.534Z,english_209.wav,0,0,2483,,,,,2,0.2,18.04804687,1.19611731
FQC,2,0,2024-06-14T02:38:59.534Z,english_209.wav,0,0,2483,,,,,3,0.3,28.2522976,1.49647535
FQC,2,0,2024-06-14T02:38:59.534Z,english_209.wav,0,0,2483,,,,,4,0.32341667,5.36776296,0.30324849
FQC,3,0,2024-06-14T02:38:59.534Z,english_279.wav,0,0,7040,,,,,0,0,-20.90398108,0.60114424
FQC,3,0,2024-06-14T02:38:59.534Z,english_279.wav,0,0,7040,,,,,1,0.1,98.83098338,0.92336304
FQC,3,0,2024-06-14T02:38:59.534Z,english_279.wav,0,0,7040,,,,,2,0.2,-95.37608427,1.39045705
FQC,3,0,2024-06-14T02:38:59.534Z,english_279.wav,0,0,7040,,,,,3,0.3,-52.65380993,0.64938935
FQC,3,0,2024-06-14T02:38:59.534Z,english_279.wav,0,0,7040,,,,,4,0.32341667,47.72500112,1.57478054
FQC,4,0,2024-06-14T02:38:59.534Z,english_638.wav,0,0,2084,,,,,0,0,6.92468799,1.1702122
FQC,4,0,2024-06-14T02:38:59.534Z,english_638.wav,0,0,2084,,,,,1,0.1,52.10042521,0.51269982
FQC,4,0,2024-06-14T02:38:59.534Z,english_638.wav,0,0,2084,,,,,2,0.2,-39.07293948,0.1912204
FQC,4,0,2024-06-14T02:38:59.534Z,english_638.wav,0,0,2084,,,,,3,0.3,38.46029754,0.91406415
FQC,4,0,2024-06-14T02:38:59.534Z,english_638.wav,0,0,2084,,,,,4,0.32341667,-16.6630855,1.67689755
FQC,5,0,2024-06-14T02:38:59.534Z,english_822.wav,0,1,1515,,,,,0,0,22.19463519,1.34957498
FQC,5,0,2024-06-14T02:38:59.534Z,english_822.wav,0,1,1515,,,,,1,0.1,46.02970585,1.18534363
FQC,5,0,2024-06-14T02:38:59.534Z,english_822.wav,0,1,1515,,,,,2,0.2,44.31281831,0.88966115
FQC,5,0,2024-06-14T02:38:59.534Z,english_822.wav,0,1,1515,,,,,3,0.3,27.24156044,1.22476657
FQC,5,0,2024-06-14T02:38:59.534Z,english_822.wav,0,1,1515,,,,,4,0.32341667,41.58842879,0.51847317
FQC,6,0,2024-06-14T02:38:59.534Z,english_261.wav,0,0,2252,,,,,0,0,-19.34212076,1.20182597
FQC,6,0,2024-06-14T02:38:59.534Z,english_261.wav,0,0,2252,,,,,1,0.1,-90.49371254,0.701642
FQC,6,0,2024-06-14T02:38:59.534Z,english_261.wav,0,0,2252,,,,,2,0.2,-2.84874079,0.72931556
FQC,6,0,2024-06-14T02:38:59.534Z,english_261.wav,0,0,2252,,,,,3,0.3,26.59732755,0.86687176
FQC,6,0,2024-06-14T02:38:59.534Z,english_261.wav,0,0,2252,,,,,4,0.32341667,39.97770901,1.42617677
FQC,7,0,2024-06-14T02:38:59.534Z,english_565.wav,0,0,2036,,,,,0,0,-89.95965492,1.93181176
FQC,7,0,2024-06-14T02:38:59.534Z,english_565.wav,0,0,2036,,,,,1,0.1,67.55938023,1.29027557
FQC,7,0,2024-06-14T02:38:59.534Z,english_565.wav,0,0,2036,,,,,2,0.2,26.6208604,0.36054668
FQC,7,0,2024-06-14T02:38:59.534Z,english_565.wav,0,0,2036,,,,,3,0.3,-54.20230035,1.25973455
FQC,7,0,2024-06-14T02:38:59.534Z,english_565.wav,0,0,2036,,,,,4,0.32341667,-98.16020256,0.92743077
FQC,8,0,2024-06-14T02:38:59.534Z,english_917.wav,0,0,2983,,,,,0,0,-2.28432431,0.51220006
FQC,8,0,2024-06-14T02:38:59.534Z,english_917.wav,0,0,2983,,,,,1,0.1,-50.4941454,0.3783057
FQC,8,0,2024-06-14T02:38:59.534Z,english_917.wav,0,0,2983,,,,,2,0.2,86.41176613,0.52629226
FQC,8,0,2024-06-14T02:38:59.534Z,english_917.wav,0,0,2983,,,,,3,0.3,-50.97734163,0.68389314
FQC,8,0,2024-06-14T02:38:59.534Z,english_917.wav,0,0,2983,,,,,4,0.32341667,97.13453513,1.73708117
FQC,9,0,2024-06-14T02:38:59.534Z,english_999.wav,0,1,1987,,,,,0,0,-43.88463807,1.5561212
FQC,9,0,2024-06-14T02:38:59.534Z,english_999.wav,0,1,1987,,,,,1,0.1,-19.69329198,1.76032244
FQC,9,0,2024-06-14T02:38:59.534Z,english_999.wav,0,1,1987,,,,,2,0.2,-16.47401585,0.67323911
FQC,9,0,2024-06-14T02:38:59.534Z,english_999.wav,0,1,1987,,,,,3,0.3,-27.91485083,0.0725875
FQC,9,0,2024-06-14T02:38:59.534Z,english_999.wav,0,1,1987,,,,,4,0.32341667,-38.65265262,0.89314247
FQC,10,0,2024-06-14T02:38:59.534Z,english_529.wav,0,0,4853,,,,,0,0,13.90759343,0.83001961
FQC,10,0,2024-06-14T02:38:59.534Z,english_529.wav,0,0,4853,,,,,1,0.1,-33.526088,0.02518437
FQC,10,0,2024-06-14T02:38:59.534Z,english_529.wav,0,0,4853,,,,,2,0.2,-34.32120589,1.61112877
FQC,10,0,2024-06-14T02:38:59.534Z,english_529.wav,0,0,4853,,,,,3,0.3,-18.30112723,0.91948239
FQC,10,0,2024-06-14T02:38:59.534Z,english_529.wav,0,0,4853,,,,,4,0.32341667,16.4796061,0.33204613
FQC,11,0,2024-06-14T02:38:59.534Z,english_910.wav,0,1,1402,,,,,0,0,-5.78748479,0.61840584
FQC,11,0,2024-06-14T02:38:59.534Z,english_910.wav,0,1,1402,,,,,1,0.1,25.040103,1.20431928
FQC,11,0,2024-06-14T02:38:59.534Z,english_910.wav,0,1,1402,,,,,2,0.2,-40.66398147,1.66594732
FQC,11,0,2024-06-14T02:38:59.534Z,english_910.wav,0,1,1402,,,,,3,0.3,-99.21011725,0.99007018
FQC,11,0,2024-06-14T02:38:59.534Z,english_910.wav,0,1,1402,,,,,4,0.32341667,30.82754841,0.23705338
FQC,12,0,2024-06-14T02:38:59.534Z,english_27.wav,0,0,1592,,,,,0,0,-6.18374659,1.89085405
FQC,12,0,2024-06-14T02:38:59.534Z,english_27.wav,0,0,1592,,,,,1,0.1,32.21095844,0.80138328
FQC,12,0,2024-06-14T02:38:59.534Z,english_27.wav,0,0,1592,,,,,2,0.2,21.02729748,1.01248602
FQC,12,0,2024-06-14T02:38:59.534Z,english_27.wav,0,0,1592,,,,,3,0.3,4.79829383,1.67412938
FQC,12,0,2024-06-14T02:38:59.534Z,english_27.wav,0,0,1592,,,,,4,0.32341667,-70.7577659,0.3387802
FQC,13,0,2024-06-14T02:38:59.534Z,english_836.wav,0,0,3780,,,,,0,0,34.85846782,1.04017402
FQC,13,0,2024-06-14T02:38:59.534Z,english_836.wav,0,0,3780,,,,,1,0.1,41.54458908,0.35535359
FQC,13,0,2024-06-14T02:38:59.534Z,english_836.wav,0,0,3780,,,,,2,0.2,23.27363575,0.10471693
FQC,13,0,2024-06-14T02:38:59.534Z,english_836.wav,0,0,3780,,,,,3,0.3,86.83996211,0.55523491
FQC,13,0,2024-06-14T02:38:59.534Z,english_836.wav,0,0,3780,,,,,4,0.32341667,-32.25656931,0.70311776
FQC,14,0,2024-06-14T02:38:59.534Z,english_341.wav,0,0,2583,,,,,0,0,-3.29192029,0.92007635
FQC,14,0,2024-06-14T02:38:59.534Z,english_341.wav,0,0,2583,,,,,1,0.1,-63.07334109,0.76766635
FQC,14,0,2024-06-14T02:38:59.534Z,english_341.wav,0,0,2583,,,,,2,0.2,-52.81319379,0.00478881
FQC,14,0,2024-06-14T02:38:59.534Z,english_341.wav,0,0,2583,,,,,3,0.3,47.65296252,0.69804387
FQC,14,0,2024-06-14T02:38:59.534Z,english_341.wav,0,0,2583,,,,,4,0.32341667,-2.67842738,0.15231077
FQC,15,0,2024-06-14T02:38:59.534Z,english_677.wav,0,0,1935,,,,,0,0,74.92499355,0.4070184
FQC,15,0,2024-06-14T02:38:59.534Z,english_677.wav,0,0,1935,,,,,1,0.1,35.44886391,0.82737557
FQC,15,0,2024-06-14T02:38:59.534Z,english_677.wav,0,0,1935,,,,,2,0.2,3.82146975,0.46436239
FQC,15,0,2024-06-14T02:38:59.534Z,english_677.wav,0,0,1935,,,,,3,0.3,10.3543008,1.40426898
FQC,15,0,2024-06-14T02:38:59.534Z,english_677.wav,0,0,1935,,,,,4,0.32341667,-53.94170103,1.42138659
FQC,16,0,2024-06-14T02:38:59.534Z,english_30.wav,0,1,1249,,,,,0,0,-18.5398728,0.31748681
FQC,16,0,2024-06-14T02:38:59.534Z,english_30.wav,0,1,1249,,,,,1,0.1,-67.34991207,1.82477139
FQC,16,0,2024-06-14T02:38:59.534Z,english_30.wav,0,1,1249,,,,,2,0.2,65.54879707,1.59992979
FQC,16,0,2024-06-14T02:38:59.534Z,english_30.wav,0,1,1249,,,,,3,0.3,30.88088319,0.89523729
FQC,16,0,2024-06-14T02:38:59.534Z,english_30.wav,0,1,1249,,,,,4,0.32341667,50.60550813,1.02052202
FQC,17,0,2024-06-14T02:38:59.534Z,english_674.wav,0,1,1760,,,,,0,0,-38.60253285,0.25488683
FQC,17,0,2024-06-14T02:38:59.534Z,english_674.wav,0,1,1760,,,,,1,0.1,46.14948962,1.80679583
FQC,17,0,2024-06-14T02:38:59.534Z,english_674.wav,0,1,1760,,,,,2,0.2,-49.76414787,1.59420413
FQC,17,0,2024-06-14T02:38:59.534Z,english_674.wav,0,1,1760,,,,,3,0.3,-66.16492387,1.25714797
FQC,17,0,2024-06-14T02:38:59.534Z,english_674.wav,0,1,1760,,,,,4,0.32341667,28.37583826,1.20557216
FQC,18,0,2024-06-14T02:38:59.534Z,english_79.wav,0,0,1333,,,,,0,0,-69.52518262,0.23164561
FQC,18,0,2024-06-14T02:38:59.534Z,english_79.wav,0,0,1333,,,,,1,0.1,56.533406,1.01948637
FQC,18,0,2024-06-14T02:38:59.534Z,english_79.wav,0,0,1333,,,,,2,0.2,25.92051761,0.17653141
FQC,18,0,2024-06-14T02:38:59.534Z,english_79.wav,0,0,1333,,,,,3,0.3,81.58880491,0.14868702
FQC,18,0,2024-06-14T02:38:59.534Z,english_79.wav,0,0,1333,,,,,4,0.32341667,-19.75719301,0.33345335
FQC,19,0,2024-06-14T02:38:59.534Z,english_322.wav,0,1,2470,,,,,0,0,-27.28438319,0.79345249
FQC,19,0,2024-06-14T02:38:59.534Z,english_322.wav,0,1,2470,,,,,1,0.1,-98.66999083,0.28651419
FQC,19,0,2024-06-14T02:38:59.534Z,english_322.wav,0,1,2470,,,,,2,0.2,-54.08694108,1.26482546
FQC,19,0,2024-06-14T02:38:59.534Z,english_322.wav,0,1,2470,,,,,3,0.3,-7.3933801,0.6947791
FQC,19,0,2024-06-14T02:38:59.534Z,english_322.wav,0,1,2470,,,,,4,0.32341667,72.49489683,0.74875353
FQC,20,0,2024-06-14T02:38:59.534Z,english_767.wav,0,0,2219,,,,,0,0,29.63321135,0.17563718
FQC,20,0,2024-06-14T02:38:59.534Z,english_767.wav,0,0,2219,,,,,1,0.1,-31.63783795,0.61981002
FQC,20,0,2024-06-14T02:38:59.534Z,english_767.wav,0,0,2219,,,,,2,0.2,56.53254366,1.38773128
FQC,20,0,2024-06-14T02:38:59.534Z,english_767.wav,0,0,2219,,,,,3,0.3,52.69149806,1.37795514
FQC,20,0,2024-06-14T02:38:59.534Z,english_767.wav,0,0,2219,,,,,4,0.32341667,-0.8536295,1.97315338
FQC,21,0,2024-06-14T02:38:59.534Z,english_713.wav,0,1,1377,,,,,0,0,18.77281956,1.04868626
FQC,21,0,2024-06-14T02:38:59.534Z,english_713.wav,0,1,1377,,,,,1,0.1,40.78610286,0.48332939
FQC,21,0,2024-06-14T02:38:59.534Z,english_713.wav,0,1,1377,,,,,2,0.2,84.18153491,0.83217717
FQC,21,0,2024-06-14T02:38:59.534Z,english_713.wav,0,1,1377,,,,,3,0.3,47.00827256,1.90318663
FQC,21,0,2024-06-14T02:38:59.534Z,english_713.wav,0,1,1377,,,,,4,0.32341667,66.01008384,0.50055362
FQC,22,0,2024-06-14T02:38:59.534Z,english_721.wav,0,0,2164,,,,,0,0,-1.67193172,0.23966059
FQC,22,0,2024-06-14T02:38:59.534Z,english_721.wav,0,0,2164,,,,,1,0.1,23.81304459,1.61361986
FQC,22,0,2024-06-14T02:38:59.534Z,english_721.wav,0,0,2164,,,,,2,0.2,94.27532923,0.58045828
FQC,22,0,2024-06-14T02:38:59.534Z,english_721.wav,0,0,2164,,,,,3,0.3,10.08520391,1.63757532
FQC,22,0,2024-06-14T02:38:59.534Z,english_721.wav,0,0,2164,,,,,4,0.32341667,-26.68837018,1.4581473
FQC,23,0,2024-06-14T02:38:59.534Z,english_150.wav,0,1,1575,,,,,0,0,-51.77489255,0.6625495
FQC,23,0,2024-06-14T02:38:59.534Z,english_150.wav,0,1,1575,,,,,1,0.1,16.7322824,1.26353984
FQC,23,0,2024-06-14T02:38:59.534Z,english_150.wav,0,1,1575,,,,,2,0.2,-56.19561079,0.38378194
FQC,23,0,2024-06-14T02:38:59.534Z,english_150.wav,0,1,1575,,,,,3,0.3,36.81691324,1.59154348
FQC,23,0,2024-06-14T02:38:59.534Z,english_150.wav,0,1,1575,,,,,4,0.32341667,-97.11243964,0.94821753
FQC,24,0,2024-06-14T02:38:59.534Z,english_961.wav,0,0,1784,,,,,0,0,20.81275789,1.87720953
FQC,24,0,2024-06-14T02:38:59.534Z,english_961.wav,0,0,1784,,,,,1,0.1,46.48072234,1.43497285
FQC,24,0,2024-06-14T02:38:59.534Z,english_961.wav,0,0,1784,,,,,2,0.2,79.36291712,1.9095844
FQC,24,0,2024-06-14T02:38:59.534Z,english_961.wav,0,0,1784,,,,,3,0.3,7.86976501,0.20821065
FQC,24,0,2024-06-14T02:38:59.534Z,english_961.wav,0,0,1784,,,,,4,0.32341667,-45.45751668,0.0640973
FQC,25,0,2024-06-14T02:38:59.534Z,english_542.wav,0,1,3308,,,,,0,0,-75.53633957,0.40538048
FQC,25,0,2024-06-14T02:38:59.534Z,english_542.wav,0,1,3308,,,,,1,0.1,-65.83593262,1.98560632
FQC,25,0,2024-06-14T02:38:59.534Z,english_542.wav,0,1,3308,,,,,2,0.2,-66.8010443,1.18970355
FQC,25,0,2024-06-14T02:38:59.534Z,english_542.wav,0,1,3308,,,,,3,0.3,89.94318033,1.00543009
FQC,25,0,2024-06-14T02:38:59.534Z,english_542.wav,0,1,3308,,,,,4,0.32341667,-28.80984484,1.15995836
FQC,26,0,2024-06-14T02:38:59.534Z,english_386.wav,0,0,2011,,,,,0,0,74.56899624,1.79299743
FQC,26,0,2024-06-14T02:38:59.534Z,english_386.wav,0,0,2011,,,,,1,0.1,25.94107183,0.16071221
FQC,26,0,2024-06-14T02:38:59.534Z,english_386.wav,0,0,2011,,,,,2,0.2,41.2839149,0.21721497
FQC,26,0,2024-06-14T02:38:59.534Z,english_386.wav,0,0,2011,,,,,3,0.3,14.47866495,1.22036918
FQC,26,0,2024-06-14T02:38:59.534Z,english_386.wav,0,0,2011,,,,,4,0.32341667,-14.73959674,1.81871952
FQC,27,0,2024-06-14T02:38:59.534Z,english_483.wav,0,0,3380,,,,,0,0,-5.76716701,0.46419013
FQC,27,0,2024-06-14T02:38:59.534Z,english_483.wav,0,0,3380,,,,,1,0.1,70.49761143,1.51640771
FQC,27,0,2024-06-14T02:38:59.534Z,english_483.wav,0,0,3380,,,,,2,0.2,-45.60331281,0.16811565
FQC,27,0,2024-06-14T02:38:59.534Z,english_483.wav,0,0,3380,,,,,3,0.3,83.6717315,0.53401791
FQC,27,0,2024-06-14T02:38:59.534Z,english_483.wav,0,0,3380,,,,,4,0.32341667,-49.24362833,1.0404632
FQC,28,0,2024-06-14T02:38:59.534Z,english_942.wav,0,1,1297,,,,,0,0,96.26286183,1.14976657
FQC,28,0,2024-06-14T02:38:59.534Z,english_942.wav,0,1,1297,,,,,1,0.1,-96.45992778,0.962364
FQC,28,0,2024-06-14T02:38:59.534Z,english_942.wav,0,1,1297,,,,,2,0.2,50.93322043,0.99280793
FQC,28,0,2024-06-14T02:38:59.534Z,english_942.wav,0,1,1297,,,,,3,0.3,14.6207779,1.92237923
FQC,28,0,2024-06-14T02:38:59.534Z,english_942.wav,0,1,1297,,,,,4,0.32341667,7.19296333,1.02094568
FQC,29,0,2024-06-14T02:38:59.534Z,english_578.wav,0,0,1324,,,,,0,0,-76.90925642,1.21901793
FQC,29,0,2024-06-14T02:38:59.534Z,english_578.wav,0,0,1324,,,,,1,0.1,-68.48676994,1.4118495
FQC,29,0,2024-06-14T02:38:59.534Z,english_578.wav,0,0,1324,,,,,2,0.2,36.30884798,0.05521057
FQC,29,0,2024-06-14T02:38:59.534Z,english_578.wav,0,0,1324,,,,,3,0.3,-36.82491274,1.45629656
FQC,29,0,2024-06-14T02:38:59.534Z,english_578.wav,0,0,1324,,,,,4,0.32341667,-4.04717442,1.80268091
FQC,30,0,2024-06-14T02:38:59.534Z,english_186.wav,0,1,4444,,,,,0,0,-54.7664391,1.87021502
FQC,30,0,2024-06-14T02:38:59.534Z,english_186.wav,0,1,4444,,,,,1,0.1,-8.4263529,1.36390049
FQC,30,0,2024-06-14T02:38:59.534Z,english_186.wav,0,1,4444,,,,,2,0.2,6.22451559,1.69942617
FQC,30,0,2024-06-14T02:38:59.534Z,english_186.wav,0,1,4444,,,,,3,0.3,-12.35671223,1.8066537
FQC,30,0,2024-06-14T02:38:59.534Z,english_186.wav,0,1,4444,,,,,4,0.32341667,86.21839615,1.2511354
FQC,31,0,2024-06-14T02:38:59.534Z,english_746.wav,0,0,1638,,,,,0,0,-1.32395796,1.72273729
FQC,31,0,2024-06-14T02:38:59.534Z,english_746.wav,0,0,1638,,,,,1,0.1,-67.07117971,1.22961235
FQC,31,0,2024-06-14T02:38:59.534Z,english_746.wav,0,0,1638,,,,,2,0.2,75.09604974,1.29107068
FQC,31,0,2024-06-14T02:38:59.534Z,english_746.wav,0,0,1638,,,,,3,0.3,-48.59278454,1.34694816
FQC,31,0,2024-06-14T02:38:59.534Z,english_746.wav,0,0,1638,,,,,4,0.32341667,-6.52080997,0.94274536
FQC,32,0,2024-06-14T02:38:59.534Z,english_112.wav,0,1,4205,,,,,0,0,-98.7507832,1.62855774
FQC,32,0,2024-06-14T02:38:59.534Z,english_112.wav,0,1,4205,,,,,1,0.1,-92.72198769,1.23374737
FQC,32,0,2024-06-14T02:38:59.534Z,english_112.wav,0,1,4205,,,,,2,0.2,15.54821062,0.76022921
FQC,32,0,2024-06-14T02:38:59.534Z,english_112.wav,0,1,4205,,,,,3,0.3,-40.54151432,0.49860071
FQC,32,0,2024-06-14T02:38:59.534Z,english_112.wav,0,1,4205,,,,,4,0.32341667,-42.89167932,0.23801633
FQC,33,0,2024-06-14T02:38:59.534Z,english_337.wav,0,0,3670,,,,,0,0,17.21863108,0.02346696
FQC,33,0,2024-06-14T02:38:59.534Z,english_337.wav,0,0,3670,,,,,1,0.1,-16.30098312,1.2349353
FQC,33,0,2024-06-14T02:38:59.534Z,english_337.wav,0,0,3670,,,,,2,0.2,70.17733319,1.07823504
FQC,33,0,2024-06-14T02:38:59.534Z,english_337.wav,0,0,3670,,,,,3,0.3,-7.16478631,1.83339424
FQC,33,0,2024-06-14T02:38:59.534Z,english_337.wav,0,0,3670,,,,,4,0.32341667,-84.96176299,1.87583376
FQC,34,0,2024-06-14T02:38:59.534Z,english_581.wav,0,0,6068,,,,,0,0,-4.1565262,0.01704603
FQC,34,0,2024-06-14T02:38:59.534Z,english_581.wav,0,0,6068,,,,,1,0.1,84.55344465,1.32903406
FQC,34,0,2024-06-14T02:38:59.534Z,english_581.wav,0,0,6068,,,,,2,0.2,-57.45750027,1.58046526
FQC,34,0,2024-06-14T02:38:59.534Z,english_581.wav,0,0,6068,,,,,3,0.3,-14.35569009,1.16633299
FQC,34,0,2024-06-14T02:38:59.534Z,english_581.wav,0,0,6068,,,,,4,0.32341667,-54.33758456,1.20758605
FQC,35,0,2024-06-14T02:38:59.534Z,english_445.wav,0,0,6221,,,,,0,0,88.00598922,1.42174052
FQC,35,0,2024-06-14T02:38:59.534Z,english_445.wav,0,0,6221,,,,,1,0.1,96.51328737,1.49122509
FQC,35,0,2024-06-14T02:38:59.534Z,english_445.wav,0,0,6221,,,,,2,0.2,29.11093561,0.62095286
FQC,35,0,2024-06-14T02:38:59.534Z,english_445.wav,0,0,6221,,,,,3,0.3,69.6076589,1.14630865
FQC,35,0,2024-06-14T02:38:59.534Z,english_445.wav,0,0,6221,,,,,4,0.32341667,-59.73938179,1.38538671
FQC,36,0,2024-06-14T02:38:59.534Z,english_460.wav,0,1,4311,,,,,0,0,-93.21492338,1.97422145
FQC,36,0,2024-06-14T02:38:59.534Z,english_460.wav,0,1,4311,,,,,1,0.1,-65.59669931,0.48313428
FQC,36,0,2024-06-14T02:38:59.534Z,english_460.wav,0,1,4311,,,,,2,0.2,76.47030005,0.91916034
FQC,36,0,2024-06-14T02:38:59.534Z,english_460.wav,0,1,4311,,,,,3,0.3,-24.62267943,0.34121923
FQC,36,0,2024-06-14T02:38:59.534Z,english_460.wav,0,1,4311,,,,,4,0.32341667,17.6428759,0.75894887
FQC,37,0,2024-06-14T02:38:59.534Z,english_929.wav,0,0,1727,,,,,0,0,29.19700723,1.75028237
FQC,37,0,2024-06-14T02:38:59.534Z,english_929.wav,0,0,1727,,,,,1,0.1,15.63825327,0.16776534
FQC,37,0,2024-06-14T02:38:59.534Z,english_929.wav,0,0,1727,,,,,2,0.2,3.65085895,0.15899819
FQC,37,0,2024-06-14T02:38:59.534Z,english_929.wav,0,0,1727,,,,,3,0.3,-91.18848108,0.41497916
FQC,37,0,2024-06-14T02:38:59.534Z,english_929.wav,0,0,1727,,,,,4,0.32341667,53.29025089,0.946821
FQC,38,0,2024-06-14T02:38:59.534Z,english_636.wav,0,1,1046,,,,,0,0,-20.37295141,1.69276631
FQC,38,0,2024-06-14T02:38:59.534Z,english_636.wav,0,1,1046,,,,,1,0.1,-84.7288786,1.69908726
FQC,38,0,2024-06-14T02:38:59.534Z,english_636.wav,0,1,1046,,,,,2,0.2,24.84265136,1.44836333
FQC,38,0,2024-06-14T02:38:59.534Z,english_636.wav,0,1,1046,,,,,3,0.3,-9.2443485,1.36647816
FQC,38,0,2024-06-14T02:38:59.534Z,english_636.wav,0,1,1046,,,,,4,0.32341667,49.04875774,0.88112598
FQC,39,0,2024-06-14T02:38:59.534Z,english_657.wav,0,0,1084,,,,,0,0,30.03208284,1.42095662
FQC,39,0,2024-06-14T02:38:59.534Z,english_657.wav,0,0,1084,,,,,1,0.1,-5.57127058,1.29790323
FQC,39,0,2024-06-14T02:38:59.534Z,english_657.wav,0,0,1084,,,,,2,0.2,9.55793083,0.51612643
FQC,39,0,2024-06-14T02:38:59.534Z,english_657.wav,0,0,1084,,,,,3,0.3,3.39766504,0.37671101
FQC,39,0,2024-06-14T02:38:59.534Z,english_657.wav,0,0,1084,,,,,4,0.32341667,84.38659916,1.20124021
FQC,40,0,2024-06-14T02:38:59.534Z,english_140.wav,0,0,913,,,,,0,0,-63.97366245,1.49783115
FQC,40,0,2024-06-14T02:38:59.534Z,english_140.wav,0,0,913,,,,,1,0.1,-84.90656008,1.37250299
FQC,40,0,2024-06-14T02:38:59.534Z,english_140.wav,0,0,913,,,,,2,0.2,93.42782744,0.10650492
FQC,40,0,2024-06-14T02:38:59.534Z,english_140.wav,0,0,913,,,,,3,0.3,11.57634117,0.84315206
FQC,40,0,2024-06-14T02:38:59.534Z,english_140.wav,0,0,913,,,,,4,0.32341667,80.35905055,1.26233419
FQC,41,0,2024-06-14T02:38:59.534Z,english_319.wav,0,0,1179,,,,,0,0,-84.37928886,1.17141126
FQC,41,0,2024-06-14T02:38:59.534Z,english_319.wav,0,0,1179,,,,,1,0.1,-52.76931383,1.13741792
FQC,41,0,2024-06-14T02:38:59.534Z,english_319.wav,0,0,1179,,,,,2,0.2,56.06390533,0.91618882
FQC,41,0,2024-06-14T02:38:59.534Z,english_319.wav,0,0,1179,,,,,3,0.3,-69.46438111,0.7080153
FQC,41,0,2024-06-14T02:38:59.534Z,english_319.wav,0,0,1179,,,,,4,0.32341667,91.86152445,0.5910213
FQC,42,0,2024-06-14T02:38:59.534Z,english_985.wav,0,0,2464,,,,,0,0,31.76144354,0.46805505
FQC,42,0,2024-06-14T02:38:59.534Z,english_985.wav,0,0,2464,,,,,1,0.1,49.0534069,1.72857245
FQC,42,0,2024-06-14T02:38:59.534Z,english_985.wav,0,0,2464,,,,,2,0.2,-59.14058353,0.05336254
FQC,42,0,2024-06-14T02:38:59.534Z,english_985.wav,0,0,2464,,,,,3,0.3,-36.25561351,0.45417652
FQC,42,0,2024-06-14T02:38:59.534Z,english_985.wav,0,0,2464,,,,,4,0.32341667,-53.50268286,1.33850641
FQC,43,0,2024-06-14T02:38:59.534Z,english_486.wav,0,0,1478,,,,,0,0,31.41997184,1.22599644
FQC,43,0,2024-06-14T02:38:59.534Z,english_486.wav,0,0,1478,,,,,1,0.1,58.03480486,1.4547445
FQC,43,0,2024-06-14T02:38:59.534Z,english_486.wav,0,0,1478,,,,,2,0.2,-62.84801238,0.27967606
FQC,43,0,2024-06-14T02:38:59.534Z,english_486.wav,0,0,1478,,,,,3,0.3,10.62451678,0.02065399
FQC,43,0,2024-06-14T02:38:59.534Z,english_486.wav,0,0,1478,,,,,4,0.32341667,10.31835057,0.3128479
FQC,44,0,2024-06-14T02:38:59.534Z,english_477.wav,0,0,6465,,,,,0,0,9.7496965,0.26828956
FQC,44,0,2024-06-14T02:38:59.534Z,english_477.wav,0,0,6465,,,,,1,0.1,70.56003184,0.51901368
FQC,44,0,2024-06-14T02:38:59.534Z,english_477.wav,0,0,6465,,,,,2,0.2,34.49551211,0.35677294
FQC,44,0,2024-06-14T02:38:59.534Z,english_477.wav,0,0,6465,,,,,3,0.3,-75.0597055,1.39462812
FQC,44,0,2024-06-14T02:38:59.534Z,english_477.wav,0,0,6465,,,,,4,0.32341667,-82.15638008,0.55199483
FQC,45,0,2024-06-14T02:38:59.534Z,english_734.wav,0,0,2294,,,,,0,0,23.12527103,1.15728247
FQC,45,0,2024-06-14T02:38:59.534Z,english_734.wav,0,0,2294,,,,,1,0.1,70.97885261,1.10975856
FQC,45,0,2024-06-14T02:38:59.534Z,english_734.wav,0,0,2294,,,,,2,0.2,-68.62860591,0.41126476
FQC,45,0,2024-06-14T02:38:59.534Z,english_734.wav,0,0,2294,,,,,3,0.3,-14.81239301,1.45213782
FQC,45,0,2024-06-14T02:38:59.534Z,english_734.wav,0,0,2294,,,,,4,0.32341667,-74.40513958,1.98917216
FQC,46,0,2024-06-14T02:38:59.534Z,english_250.wav,0,0,3049,,,,,0,0,15.9272347,0.97372592
FQC,46,0,2024-06-14T02:38:59.534Z,english_250.wav,0,0,3049,,,,,1,0.1,-20.77070657,1.45189783
FQC,46,0,2024-06-14T02:38:59.534Z,english_250.wav,0,0,3049,,,,,2,0.2,-20.08480075,0.50513237
FQC,46,0,2024-06-14T02:38:59.534Z,english_250.wav,0,0,3049,,,,,3,0.3,-29.82576937,1.38910207
FQC,46,0,2024-06-14T02:38:59.534Z,english_250.wav,0,0,3049,,,,,4,0.32341667,87.83532187,1.51614456
FQC,47,0,2024-06-14T02:38:59.534Z,english_235.wav,0,0,3025,,,,,0,0,-1.09951899,1.56432712
FQC,47,0,2024-06-14T02:38:59.534Z,english_235.wav,0,0,3025,,,,,1,0.1,-96.83918407,0.18127978
FQC,47,0,2024-06-14T02:38:59.534Z,english_235.wav,0,0,3025,,,,,2,0.2,96.22116446,1.26168206
FQC,47,0,2024-06-14T02:38:59.534Z,english_235.wav,0,0,3025,,,,,3,0.3,48.9502898,1.98140435
FQC,47,0,2024-06-14T02:38:59.534Z,english_235.wav,0,0,3025,,,,,4,0.32341667,38.18641725,0.52366779
FQC,48,0,2024-06-14T02:38:59.534Z,english_621.wav,0,0,2967,,,,,0,0,-58.25251841,1.01186344
FQC,48,0,2024-06-14T02:38:59.534Z,english_621.wav,0,0,2967,,,,,1,0.1,21.8974524,1.03560921
FQC,48,0,2024-06-14T02:38:59.534Z,english_621.wav,0,0,2967,,,,,2,0.2,-22.03552483,0.97057504
FQC,48,0,2024-06-14T02:38:59.534Z,english_621.wav,0,0,2967,,,,,3,0.3,-56.80446909,1.33131235
FQC,48,0,2024-06-14T02:38:59.534Z,english_621.wav,0,0,2967,,,,,4,0.32341667,-23.41760562,0.49151525
FQC,49,0,2024-06-14T02:38:59.534Z,english_551.wav,0,0,1491,,,,,0,0,51.69986033,0.0331047
FQC,49,0,2024-06-14T02:38:59.534Z,english_551.wav,0,0,1491,,,,,1,0.1,-91.31948841,0.51079487
FQC,49,0,2024-06-14T02:38:59.534Z,english_551.wav,0,0,1491,,,,,2,0.2,12.24586311,1.83581854
FQC,49,0,2024-06-14T02:38:59.534Z,english_551.wav,0,0,1491,,,,,3,0.3,-52.90680215,0.12201236
FQC,49,0,2024-06-14T02:38:59.534Z,english_551.wav,0,0,1491,,,,,4,0.32341667,-27.23325687,1.55189277
FQC,50,1,2024-06-14T02:38:59.534Z,english_828.wav,0,0,3947,,,,,0,0,51.6479082,0.4417702
FQC,50,1,2024-06-14T02:38:59.534Z,english_828.wav,0,0,3947,,,,,1,0.1,37.62818293,1.22957458
FQC,50,1,2024-06-14T02:38:59.534Z,english_828.wav,0,0,3947,,,,,2,0.2,55.79615955,0.69909727
FQC,50,1,2024-06-14T02:38:59.534Z,english_828.wav,0,0,3947,,,,,3,0.3,31.91979646,1.572544
FQC,50,1,2024-06-14T02:38:59.534Z,english_828.wav,0,0,3947,,,,,4,0.32341667,-22.21091203,0.87669833
FQC,51,1,2024-06-14T02:38:59.534Z,english_658.wav,0,0,3138,,,,,0,0,-80.21976745,0.49170119
FQC,51,1,2024-06-14T02:38:59.534Z,english_658.wav,0,0,3138,,,,,1,0.1,11.23314836,0.6994793
FQC,51,1,2024-06-14T02:38:59.534Z,english_658.wav,0,0,3138,,,,,2,0.2,8.94946791,1.18458539
FQC,51,1,2024-06-14T02:38:59.534Z,english_658.wav,0,0,3138,,,,,3,0.3,17.22411688,0.7091276
FQC,51,1,2024-06-14T02:38:59.534Z,english_658.wav,0,0,3138,,,,,4,0.32341667,10.67081381,1.7453453
FQC,52,1,2024-06-14T02:38:59.534Z,english_499.wav,0,1,1355,,,,,0,0,-62.75547094,0.4212983
FQC,52,1,2024-06-14T02:38:59.534Z,english_499.wav,0,1,1355,,,,,1,0.1,28.73361796,1.54082224
FQC,52,1,2024-06-14T02:38:59.534Z,english_499.wav,0,1,1355,,,,,2,0.2,-71.86053711,1.07919976
FQC,52,1,2024-06-14T02:38:59.534Z,english_499.wav,0,1,1355,,,,,3,0.3,-44.40399931,1.20425095
FQC,52,1,2024-06-14T02:38:59.534Z,english_499.wav,0,1,1355,,,,,4,0.32341667,-2.72335033,0.4618338
FQC,53,1,2024-06-14T02:38:59.534Z,english_587.wav,0,0,1667,,,,,0,0,-33.32102811,0.7972352
FQC,53,1,2024-06-14T02:38:59.534Z,english_587.wav,0,0,1667,,,,,1,0.1,46.1287001,1.97425238
FQC,53,1,2024-06-14T02:38:59.534Z,english_587.wav,0,0,1667,,,,,2,0.2,-62.23894368,0.99609006
FQC,53,1,2024-06-14T02:38:59.534Z,english_587.wav,0,0,1667,,,,,3,0.3,36.67711132,1.18577707
FQC,53,1,2024-06-14T02:38:59.534Z,english_587.wav,0,0,1667,,,,,4,0.32341667,-11.53320103,1.64089558
FQC,54,1,2024-06-14T02:38:59.534Z,english_707.wav,0,0,2396,,,,,0,0,-17.04120346,1.06535483
FQC,54,1,2024-06-14T02:38:59.534Z,english_707.wav,0,0,2396,,,,,1,0.1,-57.44917128,0.89541794
FQC,54,1,2024-06-14T02:38:59.534Z,english_707.wav,0,0,2396,,,,,2,0.2,90.75848643,1.64838001
FQC,54,1,2024-06-14T02:38:59.534Z,english_707.wav,0,0,2396,,,,,3,0.3,96.79852424,0.75431717
FQC,54,1,2024-06-14T02:38:59.534Z,english_707.wav,0,0,2396,,,,,4,0.32341667,27.01716591,0.48082071
FQC,55,1,2024-06-14T02:38:59.534Z,english_254.wav,0,1,1690,,,,,0,0,-9.19838866,1.99657173
FQC,55,1,2024-06-14T02:38:59.534Z,english_254.wav,0,1,1690,,,,,1,0.1,15.86633291,1.39044581
FQC,55,1,2024-06-14T02:38:59.534Z,english_254.wav,0,1,1690,,,,,2,0.2,-42.67167238,1.09933375
FQC,55,1,2024-06-14T02:38:59.534Z,english_254.wav,0,1,1690,,,,,3,0.3,-11.53254556,0.78821302
FQC,55,1,2024-06-14T02:38:59.534Z,english_254.wav,0,1,1690,,,,,4,0.32341667,-12.27536806,0.39297423
FQC,56,1,2024-06-14T02:38:59.534Z,english_413.wav,0,1,2053,,,,,0,0,-9.66675054,1.82887045
FQC,56,1,2024-06-14T02:38:59.534Z,english_413.wav,0,1,2053,,,,,1,0.1,15.27504309,0.80668743
FQC,56,1,2024-06-14T02:38:59.534Z,english_413.wav,0,1,2053,,,,,2,0.2,-94.93171401,0.90586838
FQC,56,1,2024-06-14T02:38:59.534Z,english_413.wav,0,1,2053,,,,,3,0.3,-42.87800999,1.3937681
FQC,56,1,2024-06-14T02:38:59.534Z,english_413.wav,0,1,2053,,,,,4,0.32341667,-63.39385234,0.34165264
FQC,57,1,2024-06-14T02:38:59.534Z,english_103.wav,0,1,2015,,,,,0,0,-79.54710498,0.84178061
FQC,57,1,2024-06-14T02:38:59.534Z,english_103.wav,0,1,2015,,,,,1,0.1,-41.31314025,1.9706485
FQC,57,1,2024-06-14T02:38:59.534Z,english_103.wav,0,1,2015,,,,,2,0.2,-48.58046961,1.55059924
FQC,57,1,2024-06-14T02:38:59.534Z,english_103.wav,0,1,2015,,,,,3,0.3,50.88097047,1.14550684
FQC,57,1,2024-06-14T02:38:59.534Z,english_103.wav,0,1,2015,,,,,4,0.32341667,21.22320476,1.67039139
FQC,58,1,2024-06-14T02:38:59.534Z,english_158.wav,0,0,1731,,,,,0,0,33.09785739,1.71128449
FQC,58,1,2024-06-14T02:38:59.534Z,english_158.wav,0,0,1731,,,,,1,0.1,-85.08083727,1.56145129
FQC,58,1,2024-06-14T02:38:59.534Z,english_158.wav,0,0,1731,,,,,2,0.2,97.70701203,0.69707892
FQC,58,1,2024-06-14T02:38:59.534Z,english_158.wav,0,0,1731,,,,,3,0.3,2.54261044,1.19647348
FQC,58,1,2024-06-14T02:38:59.534Z,english_158.wav,0,0,1731,,,,,4,0.32341667,-59.73934841,1.17782448
FQC,59,1,2024-06-14T02:38:59.534Z,english_737.wav,0,0,3949,,,,,0,0,21.35751723,1.17499048
FQC,59,1,2024-06-14T02:38:59.534Z,english_737.wav,0,0,3949,,,,,1,0.1,61.52152077,1.09581395
FQC,59,1,2024-06-14T02:38:59.534Z,english_737.wav,0,0,3949,,,,,2,0.2,-29.75610596,0.62940412
FQC,59,1,2024-06-14T02:38:59.534Z,english_737.wav,0,0,3949,,,,,3,0.3,-39.80249708,0.11793022
FQC,59,1,2024-06-14T02:38:59.534Z,english_737.wav,0,0,3949,,,,,4,0.32341667,-14.64937497,0.62377861
FQC,60,1,2024-06-14T02:38:59.534Z,english_564.wav,0,0,1433,,,,,0,0,-4.16228192,1.35245187
FQC,60,1,2024-06-14T02:38:59.534Z,english_564.wav,0,0,1433,,,,,1,0.1,-8.38376801,0.24798142
FQC,60,1,2024-06-14T02:38:59.534Z,english_564.wav,0,0,1433,,,,,2,0.2,52.82752554,1.26376743
FQC,60,1,2024-06-14T02:38:59.534Z,english_564.wav,0,0,1433,,,,,3,0.3,-92.64870354,0.73548171
FQC,60,1,2024-06-14T02:38:59.534Z,english_564.wav,0,0,1433,,,,,4,0.32341667,-48.86146536,0.1394123
FQC,61,1,2024-06-14T02:38:59.534Z,english_417.wav,0,1,1618,,,,,0,0,-17.25972862,1.29903721
FQC,61,1,2024-06-14T02:38:59.534Z,english_417.wav,0,1,1618,,,,,1,0.1,72.11413149,0.87773419
FQC,61,1,2024-06-14T02:38:59.534Z,english_417.wav,0,1,1618,,,,,2,0.2,83.70212603,1.45838331
FQC,61,1,2024-06-14T02:38:59.534Z,english_417.wav,0,1,1618,,,,,3,0.3,67.19530478,0.90979472
FQC,61,1,2024-06-14T02:38:59.534Z,english_417.wav,0,1,1618,,,,,4,0.32341667,29.72084594,0.1224986
FQC,62,1,2024-06-14T02:38:59.534Z,english_255.wav,0,1,1211,,,,,0,0,-42.74550593,1.65518669
FQC,62,1,2024-06-14T02:38:59.534Z,english_255.wav,0,1,1211,,,,,1,0.1,35.44578771,1.85823386
FQC,62,1,2024-06-14T02:38:59.534Z,english_255.wav,0,1,1211,,,,,2,0.2,98.7346041,1.2123315
FQC,62,1,2024-06-14T02:38:59.534Z,english_255.wav,0,1,1211,,,,,3,0.3,14.08839822,0.62099519
FQC,62,1,2024-06-14T02:38:59.534Z,english_255.wav,0,1,1211,,,,,4,0.32341667,-55.38739786,1.08486436
FQC,63,1,2024-06-14T02:38:59.534Z,english_808.wav,0,1,1608,,,,,0,0,23.02589628,1.07384277
FQC,63,1,2024-06-14T02:38:59.534Z,english_808.wav,0,1,1608,,,,,1,0.1,10.58817829,1.3919179
FQC,63,1,2024-06-14T02:38:59.534Z,english_808.wav,0,1,1608,,,,,2,0.2,36.77134597,0.54960524
FQC,63,1,2024-06-14T02:38:59.534Z,english_808.wav,0,1,1608,,,,,3,0.3,-30.31603221,1.95871365
FQC,63,1,2024-06-14T02:38:59.534Z,english_808.wav,0,1,1608,,,,,4,0.32341667,9.74764343,0.79150541
FQC,64,1,2024-06-14T02:38:59.534Z,english_702.wav,0,0,2484,,,,,0,0,-19.6614881,1.13820402
FQC,64,1,2024-06-14T02:38:59.534Z,english_702.wav,0,0,2484,,,,,1,0.1,-92.60133235,1.47755069
FQC,64,1,2024-06-14T02:38:59.534Z,english_702.wav,0,0,2484,,,,,2,0.2,-18.01071493,1.33705675
FQC,64,1,2024-06-14T02:38:59.534Z,english_702.wav,0,0,2484,,,,,3,0.3,91.54675011,0.59768286
FQC,64,1,2024-06-14T02:38:59.534Z,english_702.wav,0,0,2484,,,,,4,0.32341667,23.09112348,0.82103567
FQC,65,1,2024-06-14T02:38:59.534Z,english_194.wav,0,0,1247,,,,,0,0,46.99725025,0.38230397
FQC,65,1,2024-06-14T02:38:59.534Z,english_194.wav,0,0,1247,,,,,1,0.1,-37.20381284,1.33246395
FQC,65,1,2024-06-14T02:38:59.534Z,english_194.wav,0,0,1247,,,,,2,0.2,13.86947558,1.31276464
FQC,65,1,2024-06-14T02:38:59.534Z,english_194.wav,0,0,1247,,,,,3,0.3,79.77232086,0.22397005
FQC,65,1,2024-06-14T02:38:59.534Z,english_194.wav,0,0,1247,,,,,4,0.32341667,49.46244041,1.74931967
FQC,66,1,2024-06-14T02:38:59.534Z,english_639.wav,0,0,1327,,,,,0,0,-8.64176861,1.80061108
FQC,66,1,2024-06-14T02:38:59.534Z,english_639.wav,0,0,1327,,,,,1,0.1,-2.28240571,0.32075858
FQC,66,1,2024-06-14T02:38:59.534Z,english_639.wav,0,0,1327,,,,,2,0.2,61.07673865,0.35362442
FQC,66,1,2024-06-14T02:38:59.534Z,english_639.wav,0,0,1327,,,,,3,0.3,-20.33592136,1.48415136
FQC,66,1,2024-06-14T02:38:59.534Z,english_639.wav,0,0,1327,,,,,4,0.32341667,-24.05835486,0.14560931
FQC,67,1,2024-06-14T02:38:59.534Z,english_329.wav,0,0,1184,,,,,0,0,-48.89108629,1.2424848
FQC,67,1,2024-06-14T02:38:59.534Z,english_329.wav,0,0,1184,,,,,1,0.1,55.67852038,1.73811564
FQC,67,1,2024-06-14T02:38:59.534Z,english_329.wav,0,0,1184,,,,,2,0.2,48.16827585,0.4928271
FQC,67,1,2024-06-14T02:38:59.534Z,english_329.wav,0,0,1184,,,,,3,0.3,73.70818564,0.68407289
FQC,67,1,2024-06-14T02:38:59.534Z,english_329.wav,0,0,1184,,,,,4,0.32341667,85.70797026,1.92917435
FQC,68,1,2024-06-14T02:38:59.534Z,english_710.wav,0,1,1181,,,,,0,0,-75.8732007,1.76991952
FQC,68,1,2024-06-14T02:38:59.534Z,english_710.wav,0,1,1181,,,,,1,0.1,-57.22858583,1.84377411
FQC,68,1,2024-06-14T02:38:59.534Z,english_710.wav,0,1,1181,,,,,2,0.2,28.4956072,1.20069914
FQC,68,1,2024-06-14T02:38:59.534Z,english_710.wav,0,1,1181,,,,,3,0.3,-96.06281818,0.06088286
FQC,68,1,2024-06-14T02:38:59.534Z,english_710.wav,0,1,1181,,,,,4,0.32341667,12.57492899,1.86160088
FQC,69,1,2024-06-14T02:38:59.534Z,english_17.wav,0,0,995,,,,,0,0,54.20763778,0.24306789
FQC,69,1,2024-06-14T02:38:59.534Z,english_17.wav,0,0,995,,,,,1,0.1,56.90002318,0.93194053
FQC,69,1,2024-06-14T02:38:59.534Z,english_17.wav,0,0,995,,,,,2,0.2,53.34795505,0.70954885
FQC,69,1,2024-06-14T02:38:59.534Z,english_17.wav,0,0,995,,,,,3,0.3,-49.04179277,1.57385934
FQC,69,1,2024-06-14T02:38:59.534Z,english_17.wav,0,0,995,,,,,4,0.32341667,-46.12718147,1.28258365
FQC,70,1,2024-06-14T02:38:59.534Z,english_347.wav,0,0,1642,,,,,0,0,34.89178431,1.32203506
FQC,70,1,2024-06-14T02:38:59.534Z,english_347.wav,0,0,1642,,,,,1,0.1,53.24978685,0.28714436
FQC,70,1,2024-06-14T02:38:59.534Z,english_347.wav,0,0,1642,,,,,2,0.2,4.11185022,1.66093526
FQC,70,1,2024-06-14T02:38:59.534Z,english_347.wav,0,0,1642,,,,,3,0.3,89.26663646,1.29826057
FQC,70,1,2024-06-14T02:38:59.534Z,english_347.wav,0,0,1642,,,,,4,0.32341667,-53.02646266,0.05504814
FQC,71,1,2024-06-14T02:38:59.534Z,english_885.wav,0,0,940,,,,,0,0,36.3288655,0.78617108
FQC,71,1,2024-06-14T02:38:59.534Z,english_885.wav,0,0,940,,,,,1,0.1,-33.4786966,0.96292114
FQC,71,1,2024-06-14T02:38:59.534Z,english_885.wav,0,0,940,,,,,2,0.2,8.05827153,0.70266535
FQC,71,1,2024-06-14T02:38:59.534Z,english_885.wav,0,0,940,,,,,3,0.3,84.98004341,0.45613544
FQC,71,1,2024-06-14T02:38:59.534Z,english_885.wav,0,0,940,,,,,4,0.32341667,-34.65749493,0.81873504
FQC,72,1,2024-06-14T02:38:59.534Z,english_764.wav,0,1,1507,,,,,0,0,7.00590276,1.84020442
FQC,72,1,2024-06-14T02:38:59.534Z,english_764.wav,0,1,1507,,,,,1,0.1,-69.33047837,0.1607256
FQC,72,1,2024-06-14T02:38:59.534Z,english_764.wav,0,1,1507,,,,,2,0.2,-20.89747671,1.70981587
FQC,72,1,2024-06-14T02:38:59.534Z,english_764.wav,0,1,1507,,,,,3,0.3,-96.63564891,1.13854431
FQC,72,1,2024-06-14T02:38:59.534Z,english_764.wav,0,1,1507,,,,,4,0.32341667,78.55111455,1.5536836
FQC,73,1,2024-06-14T02:38:59.534Z,english_519.wav,0,0,1407,,,,,0,0,-8.06946753,0.14231686
FQC,73,1,2024-06-14T02:38:59.534Z,english_519.wav,0,0,1407,,,,,1,0.1,-66.74939098,1.74411569
FQC,73,1,2024-06-14T02:38:59.534Z,english_519.wav,0,0,1407,,,,,2,0.2,-27.98142454,1.42967772
FQC,73,1,2024-06-14T02:38:59.534Z,english_519.wav,0,0,1407,,,,,3,0.3,-72.75033344,0.44774012
FQC,73,1,2024-06-14T02:38:59.534Z,english_519.wav,0,0,1407,,,,,4,0.32341667,-36.15575878,1.4256209
FQC,74,1,2024-06-14T02:38:59.534Z,english_800.wav,0,0,1009,,,,,0,0,-9.91001254,0.13142639
FQC,74,1,2024-06-14T02:38:59.534Z,english_800.wav,0,0,1009,,,,,1,0.1,-86.79409322,1.71040153
FQC,74,1,2024-06-14T02:38:59.534Z,english_800.wav,0,0,1009,,,,,2,0.2,-27.39997365,0.18637657
FQC,74,1,2024-06-14T02:38:59.534Z,english_800.wav,0,0,1009,,,,,3,0.3,13.46737707,1.09766523
FQC,74,1,2024-06-14T02:38:59.534Z,english_800.wav,0,0,1009,,,,,4,0.32341667,-32.56208711,1.57940615
FQC,75,1,2024-06-14T02:38:59.534Z,english_265.wav,0,0,1104,,,,,0,0,-30.2287418,1.31067296
FQC,75,1,2024-06-14T02:38:59.534Z,english_265.wav,0,0,1104,,,,,1,0.1,86.62283936,0.87427745
FQC,75,1,2024-06-14T02:38:59.534Z,english_265.wav,0,0,1104,,,,,2,0.2,-21.47577863,1.37620008
FQC,75,1,2024-06-14T02:38:59.534Z,english_265.wav,0,0,1104,,,,,3,0.3,84.9300577,0.45825557
FQC,75,1,2024-06-14T02:38:59.534Z,english_265.wav,0,0,1104,,,,,4,0.32341667,59.52250756,1.13518739
FQC,76,1,2024-06-14T02:38:59.534Z,english_665.wav,0,0,1418,,,,,0,0,-25.08423312,1.80265724
FQC,76,1,2024-06-14T02:38:59.534Z,english_665.wav,0,0,1418,,,,,1,0.1,-88.66042782,0.10063576
FQC,76,1,2024-06-14T02:38:59.534Z,english_665.wav,0,0,1418,,,,,2,0.2,-73.67467666,0.92910111
FQC,76,1,2024-06-14T02:38:59.534Z,english_665.wav,0,0,1418,,,,,3,0.3,66.53606028,0.83814709
FQC,76,1,2024-06-14T02:38:59.534Z,english_665.wav,0,0,1418,,,,,4,0.32341667,-75.03630793,0.77033789
FQC,77,1,2024-06-14T02:38:59.534Z,english_806.wav,0,1,984,,,,,0,0,17.38837614,1.03842349
FQC,77,1,2024-06-14T02:38:59.534Z,english_806.wav,0,1,984,,,,,1,0.1,50.31160736,1.08461549
FQC,77,1,2024-06-14T02:38:59.534Z,english_806.wav,0,1,984,,,,,2,0.2,74.21499327,1.8436814
FQC,77,1,2024-06-14T02:38:59.534Z,english_806.wav,0,1,984,,,,,3,0.3,16.647622,1.85846725
FQC,77,1,2024-06-14T02:38:59.534Z,english_806.wav,0,1,984,,,,,4,0.32341667,27.12519974,1.15820289
FQC,78,1,2024-06-14T02:38:59.534Z,english_835.wav,0,0,785,,,,,0,0,-14.38506183,1.1584592
FQC,78,1,2024-06-14T02:38:59.534Z,english_835.wav,0,0,785,,,,,1,0.1,-85.63264453,0.74788643
FQC,78,1,2024-06-14T02:38:59.534Z,english_835.wav,0,0,785,,,,,2,0.2,-9.08737486,0.99645811
FQC,78,1,2024-06-14T02:38:59.534Z,english_835.wav,0,0,785,,,,,3,0.3,-52.4382226,1.13057998
FQC,78,1,2024-06-14T02:38:59.534Z,english_835.wav,0,0,785,,,,,4,0.32341667,30.89255677,0.17868889
FQC,79,1,2024-06-14T02:38:59.534Z,english_728.wav,0,0,2648,,,,,0,0,-6.4565561,1.7247049
FQC,79,1,2024-06-14T02:38:59.534Z,english_728.wav,0,0,2648,,,,,1,0.1,2.02882612,1.95158608
FQC,79,1,2024-06-14T02:38:59.534Z,english_728.wav,0,0,2648,,,,,2,0.2,-40.29513079,0.21085377
FQC,79,1,2024-06-14T02:38:59.534Z,english_728.wav,0,0,2648,,,,,3,0.3,-29.37287389,0.85434083
FQC,79,1,2024-06-14T02:38:59.534Z,english_728.wav,0,0,2648,,,,,4,0.32341667,-32.17490136,1.52436666
FQC,80,1,2024-06-14T02:38:59.534Z,english_856.wav,0,0,1349,,,,,0,0,-44.08940674,1.51880133
FQC,80,1,2024-06-14T02:38:59.534Z,english_856.wav,0,0,1349,,,,,1,0.1,-25.77644107,0.99524475
FQC,80,1,2024-06-14T02:38:59.534Z,english_856.wav,0,0,1349,,,,,2,0.2,6.39263247,1.11391415
FQC,80,1,2024-06-14T02:38:59.534Z,english_856.wav,0,0,1349,,,,,3,0.3,92.67536145,0.95575529
FQC,80,1,2024-06-14T02:38:59.534Z,english_856.wav,0,0,1349,,,,,4,0.32341667,45.15991817,1.02944292
FQC,81,1,2024-06-14T02:38:59.534Z,english_328.wav,0,0,1331,,,,,0,0,-24.96515822,0.68772771
FQC,81,1,2024-06-14T02:38:59.534Z,english_328.wav,0,0,1331,,,,,1,0.1,36.64267249,0.30369637
FQC,81,1,2024-06-14T02:38:59.534Z,english_328.wav,0,0,1331,,,,,2,0.2,-93.60804347,1.16330199
FQC,81,1,2024-06-14T02:38:59.534Z,english_328.wav,0,0,1331,,,,,3,0.3,9.86556644,0.69001341
FQC,81,1,2024-06-14T02:38:59.534Z,english_328.wav,0,0,1331,,,,,4,0.32341667,-17.13685423,0.54642887
FQC,82,1,2024-06-14T02:38:59.534Z,english_8.wav,0,0,1000,,,,,0,0,-11.83025711,1.51300734
FQC,82,1,2024-06-14T02:38:59.534Z,english_8.wav,0,0,1000,,,,,1,0.1,8.7470631,0.24000547
FQC,82,1,2024-06-14T02:38:59.534Z,english_8.wav,0,0,1000,,,,,2,0.2,-15.41843982,1.17952525
FQC,82,1,2024-06-14T02:38:59.534Z,english_8.wav,0,0,1000,,,,,3,0.3,-87.7437633,1.57032258
FQC,82,1,2024-06-14T02:38:59.534Z,english_8.wav,0,0,1000,,,,,4,0.32341667,-40.85253846,0.7584977
FQC,83,1,2024-06-14T02:38:59.534Z,english_632.wav,0,1,1320,,,,,0,0,-56.22391322,1.21249895
FQC,83,1,2024-06-14T02:38:59.534Z,english_632.wav,0,1,1320,,,,,1,0.1,-47.59423942,0.39515719
FQC,83,1,2024-06-14T02:38:59.534Z,english_632.wav,0,1,1320,,,,,2,0.2,91.93727259,1.8528852
FQC,83,1,2024-06-14T02:38:59.534Z,english_632.wav,0,1,1320,,,,,3,0.3,-33.89646621,1.67254104
FQC,83,1,2024-06-14T02:38:59.534Z,english_632.wav,0,1,1320,,,,,4,0.32341667,46.88387871,1.21014685
FQC,84,1,2024-06-14T02:38:59.534Z,english_207.wav,0,1,1027,,,,,0,0,-64.55688296,1.06406661
FQC,84,1,2024-06-14T02:38:59.534Z,english_207.wav,0,1,1027,,,,,1,0.1,98.33987034,1.58122859
FQC,84,1,2024-06-14T02:38:59.534Z,english_207.wav,0,1,1027,,,,,2,0.2,-40.48281934,1.31381917
FQC,84,1,2024-06-14T02:38:59.534Z,english_207.wav,0,1,1027,,,,,3,0.3,-36.48143513,0.83233835
FQC,84,1,2024-06-14T02:38:59.534Z,english_207.wav,0,1,1027,,,,,4,0.32341667,-87.11188062,0.12663517
FQC,85,1,2024-06-14T02:38:59.534Z,english_714.wav,0,0,2087,,,,,0,0,6.62463448,0.98205871
FQC,85,1,2024-06-14T02:38:59.534Z,english_714.wav,0,0,2087,,,,,1,0.1,-7.37775178,1.90018259
FQC,85,1,2024-06-14T02:38:59.534Z,english_714.wav,0,0,2087,,,,,2,0.2,-58.74003357,1.33033281
FQC,85,1,2024-06-14T02:38:59.534Z,english_714.wav,0,0,2087,,,,,3,0.3,-38.84014254,0.20009115
FQC,85,1,2024-06-14T02:38:59.534Z,english_714.wav,0,0,2087,,,,,4,0.32341667,-23.67047323,0.44650169
FQC,86,1,2024-06-14T02:38:59.534Z,english_44.wav,0,0,1270,,,,,0,0,-68.86201344,1.38154723
FQC,86,1,2024-06-14T02:38:59.534Z,english_44.wav,0,0,1270,,,,,1,0.1,36.61833882,0.11193842
FQC,86,1,2024-06-14T02:38:59.534Z,english_44.wav,0,0,1270,,,,,2,0.2,-60.65796264,0.83798569
FQC,86,1,2024-06-14T02:38:59.534Z,english_44.wav,0,0,1270,,,,,3,0.3,-99.582901,0.3073865
FQC,86,1,2024-06-14T02:38:59.534Z,english_44.wav,0,0,1270,,,,,4,0.32341667,68.59920212,1.10922951
FQC,87,1,2024-06-14T02:38:59.534Z,english_588.wav,0,0,1234,,,,,0,0,99.95047602,0.54608042
FQC,87,1,2024-06-14T02:38:59.534Z,english_588.wav,0,0,1234,,,,,1,0.1,6.8401109,0.86340392
FQC,87,1,2024-06-14T02:38:59.534Z,english_588.wav,0,0,1234,,,,,2,0.2,-15.9093749,0.01522231
FQC,87,1,2024-06-14T02:38:59.534Z,english_588.wav,0,0,1234,,,,,3,0.3,-95.80500507,0.86017392
FQC,87,1,2024-06-14T02:38:59.534Z,english_588.wav,0,0,1234,,,,,4,0.32341667,23.59255786,0.36914066
FQC,88,1,2024-06-14T02:38:59.534Z,english_201.wav,0,1,4401,,,,,0,0,-11.66329209,1.59313322
FQC,88,1,2024-06-14T02:38:59.534Z,english_201.wav,0,1,4401,,,,,1,0.1,-73.85436231,1.78385616
FQC,88,1,2024-06-14T02:38:59.534Z,english_201.wav,0,1,4401,,,,,2,0.2,-12.5199597,0.57641365
FQC,88,1,2024-06-14T02:38:59.534Z,english_201.wav,0,1,4401,,,,,3,0.3,-44.18013019,1.54371285
FQC,88,1,2024-06-14T02:38:59.534Z,english_201.wav,0,1,4401,,,,,4,0.32341667,47.68284229,1.11944384
FQC,89,1,2024-06-14T02:38:59.534Z,english_2.wav,0,0,1352,,,,,0,0,-99.15346184,1.13720105
FQC,89,1,2024-06-14T02:38:59.534Z,english_2.wav,0,0,1352,,,,,1,0.1,80.90141422,1.91777804
FQC,89,1,2024-06-14T02:38:59.534Z,english_2.wav,0,0,1352,,,,,2,0.2,25.8663891,0.47706995
FQC,89,1,2024-06-14T02:38:59.534Z,english_2.wav,0,0,1352,,,,,3,0.3,75.24606714,0.3458575
FQC,89,1,2024-06-14T02:38:59.534Z,english_2.wav,0,0,1352,,,,,4,0.32341667,-83.41413367,0.38623968
FQC,90,1,2024-06-14T02:38:59.534Z,english_976.wav,0,1,1545,,,,,0,0,-92.49082032,0.30893725
FQC,90,1,2024-06-14T02:38:59.534Z,english_976.wav,0,1,1545,,,,,1,0.1,92.01562452,1.54393752
FQC,90,1,2024-06-14T02:38:59.534Z,english_976.wav,0,1,1545,,,,,2,0.2,-80.55764576,1.31466429
FQC,90,1,2024-06-14T02:38:59.534Z,english_976.wav,0,1,1545,,,,,3,0.3,-70.09009567,1.88171095
FQC,90,1,2024-06-14T02:38:59.534Z,english_976.wav,0,1,1545,,,,,4,0.32341667,-7.5394989,1.71314556
FQC,91,1,2024-06-14T02:38:59.534Z,english_106.wav,0,0,1101,,,,,0,0,-46.25200282,0.21046793
FQC,91,1,2024-06-14T02:38:59.534Z,english_106.wav,0,0,1101,,,,,1,0.1,-83.38564728,1.42142181
FQC,91,1,2024-06-14T02:38:59.534Z,english_106.wav,0,0,1101,,,,,2,0.2,68.00501759,0.86156936
FQC,91,1,2024-06-14T02:38:59.534Z,english_106.wav,0,0,1101,,,,,3,0.3,49.15199267,0.65348811
FQC,91,1,2024-06-14T02:38:59.534Z,english_106.wav,0,0,1101,,,,,4,0.32341667,-5.93966373,0.76273979
FQC,92,1,2024-06-14T02:38:59.534Z,english_69.wav,0,0,1079,,,,,0,0,-57.18730239,0.11878381
FQC,92,1,2024-06-14T02:38:59.534Z,english_69.wav,0,0,1079,,,,,1,0.1,16.22212469,1.00797921
FQC,92,1,2024-06-14T02:38:59.534Z,english_69.wav,0,0,1079,,,,,2,0.2,-44.28071093,0.42082068
FQC,92,1,2024-06-14T02:38:59.534Z,english_69.wav,0,0,1079,,,,,3,0.3,-70.80378082,0.50205716
FQC,92,1,2024-06-14T02:38:59.534Z,english_69.wav,0,0,1079,,,,,4,0.32341667,-58.3439892,0.68985838
FQC,93,1,2024-06-14T02:38:59.534Z,english_364.wav,0,1,2034,,,,,0,0,19.50953027,1.75500584
FQC,93,1,2024-06-14T02:38:59.534Z,english_364.wav,0,1,2034,,,,,1,0.1,48.44847612,1.3553812
FQC,93,1,2024-06-14T02:38:59.534Z,english_364.wav,0,1,2034,,,,,2,0.2,-85.20645473,0.86672295
FQC,93,1,2024-06-14T02:38:59.534Z,english_364.wav,0,1,2034,,,,,3,0.3,97.47454191,1.42489128
FQC,93,1,2024-06-14T02:38:59.534Z,english_364.wav,0,1,2034,,,,,4,0.32341667,-45.42958463,1.19673805
FQC,94,1,2024-06-14T02:38:59.534Z,english_61.wav,0,0,1758,,,,,0,0,-58.73450167,1.5196582
FQC,94,1,2024-06-14T02:38:59.534Z,english_61.wav,0,0,1758,,,,,1,0.1,-68.77732169,0.79346499
FQC,94,1,2024-06-14T02:38:59.534Z,english_61.wav,0,0,1758,,,,,2,0.2,-61.07430116,0.90548432
FQC,94,1,2024-06-14T02:38:59.534Z,english_61.wav,0,0,1758,,,,,3,0.3,-87.12791991,1.71431728
FQC,94,1,2024-06-14T02:38:59.534Z,english_61.wav,0,0,1758,,,,,4,0.32341667,47.32358741,0.57778581
FQC,95,1,2024-06-14T02:38:59.534Z,english_908.wav,0,0,4495,,,,,0,0,48.62867987,1.27180628
FQC,95,1,2024-06-14T02:38:59.534Z,english_908.wav,0,0,4495,,,,,1,0.1,15.18588807,0.65893562
FQC,95,1,2024-06-14T02:38:59.534Z,english_908.wav,0,0,4495,,,,,2,0.2,-42.37345339,1.07678682
FQC,95,1,2024-06-14T02:38:59.534Z,english_908.wav,0,0,4495,,,,,3,0.3,10.74033392,1.66111239
FQC,95,1,2024-06-14T02:38:59.534Z,english_908.wav,0,0,4495,,,,,4,0.32341667,-40.14378972,0.30218678
FQC,96,1,2024-06-14T02:38:59.534Z,english_492.wav,0,0,1428,,,,,0,0,-66.2832746,0.52930651
FQC,96,1,2024-06-14T02:38:59.534Z,english_492.wav,0,0,1428,,,,,1,0.1,-19.36008054,1.11739795
FQC,96,1,2024-06-14T02:38:59.534Z,english_492.wav,0,0,1428,,,,,2,0.2,95.25769545,1.86018292
FQC,96,1,2024-06-14T02:38:59.534Z,english_492.wav,0,0,1428,,,,,3,0.3,-42.69351484,0.07313262
FQC,96,1,2024-06-14T02:38:59.534Z,english_492.wav,0,0,1428,,,,,4,0.32341667,48.13359561,0.30480454
FQC,97,1,2024-06-14T02:38:59.534Z,english_131.wav,0,0,2148,,,,,0,0,-90.65248477,1.67513221
FQC,97,1,2024-06-14T02:38:59.534Z,english_131.wav,0,0,2148,,,,,1,0.1,7.0988446,1.62916956
FQC,97,1,2024-06-14T02:38:59.534Z,english_131.wav,0,0,2148,,,,,2,0.2,-30.94637352,1.4017665
FQC,97,1,2024-06-14T02:38:59.534Z,english_131.wav,0,0,2148,,,,,3,0.3,-31.86179524,1.07276153
FQC,97,1,2024-06-14T02:38:59.534Z,english_131.wav,0,0,2148,,,,,4,0.32341667,1.85809033,1.80109071
FQC,98,1,2024-06-14T02:38:59.534Z,english_227.wav,0,0,2374,,,,,0,0,-56.39318384,1.7541365
FQC,98,1,2024-06-14T02:38:59.534Z,english_227.wav,0,0,2374,,,,,1,0.1,90.87442764,0.66011804
FQC,98,1,2024-06-14T02:38:59.534Z,english_227.wav,0,0,2374,,,,,2,0.2,-39.94082392,0.16454365
FQC,98,1,2024-06-14T02:38:59.534Z,english_227.wav,0,0,2374,,,,,3,0.3,31.5093861,0.63744506
FQC,98,1,2024-06-14T02:38:59.534Z,english_227.wav,0,0,2374,,,,,4,0.32341667,70.38847456,0.55874538
FQC,99,1,2024-06-14T02:38:59.534Z,english_994.wav,0,0,5378,,,,,0,0,53.6083957,1.72152032
FQC,99,1,2024-06-14T02:38:59.534Z,english_994.wav,0,0,5378,,,,,1,0.1,62.5650281,0.97077126
FQC,99,1,2024-06-14T02:38:59.534Z,english_994.wav,0,0,5378,,,,,2,0.2,91.00734213,1.1154275
FQC,99,1,2024-06-14T02:38:59.534Z,english_994.wav,0,0,5378,,,,,3,0.3,-14.6853323,0.93534142
FQC,99,1,2024-06-14T02:38:59.534Z,english_994.wav,0,0,5378,,,,,4,0.32341667,42.94025292,1.51312842
FQC,100,2,2024-06-14T02:38:59.534Z,english_249.wav,0,0,4440,,,,,0,0,78.40227579,1.91339694
FQC,100,2,2024-06-14T02:38:59.534Z,english_249.wav,0,0,4440,,,,,1,0.1,-55.1129652,1.00834957
FQC,100,2,2024-06-14T02:38:59.534Z,english_249.wav,0,0,4440,,,,,2,0.2,6.74447168,0.29418026
FQC,100,2,2024-06-14T02:38:59.534Z,english_249.wav,0,0,4440,,,,,3,0.3,27.3376716,1.53256547
FQC,100,2,2024-06-14T02:38:59.534Z,english_249.wav,0,0,4440,,,,,4,0.32341667,-97.08031886,0.99264532
FQC,101,2,2024-06-14T02:38:59.534Z,english_778.wav,0,0,1331,,,,,0,0,99.37283207,0.92158405
FQC,101,2,2024-06-14T02:38:59.534Z,english_778.wav,0,0,1331,,,,,1,0.1,61.02900927,1.90392814
FQC,101,2,2024-06-14T02:38:59.534Z,english_778.wav,0,0,1331,,,,,2,0.2,-43.89505842,0.34916702
FQC,101,2,2024-06-14T02:38:59.534Z,english_778.wav,0,0,1331,,,,,3,0.3,-6.51139434,1.21087231
FQC,101,2,2024-06-14T02:38:59.534Z,english_778.wav,0,0,1331,,,,,4,0.32341667,-98.37213751,0.72140227
FQC,102,2,2024-06-14T02:38:59.534Z,english_819.wav,0,1,1600,,,,,0,0,56.56933068,1.61805944
FQC,102,2,2024-06-14T02:38:59.534Z,english_819.wav,0,1,1600,,,,,1,0.1,16.98960986,1.69207785
FQC,102,2,2024-06-14T02:38:59.534Z,english_819.wav,0,1,1600,,,,,2,0.2,-13.59600893,1.33633205
FQC,102,2,2024-06-14T02:38:59.534Z,english_819.wav,0,1,1600,,,,,3,0.3,79.1710335,0.49452457
FQC,102,2,2024-06-14T02:38:59.534Z,english_819.wav,0,1,1600,,,,,4,0.32341667,25.34620926,1.97134574
FQC,103,2,2024-06-14T02:38:59.534Z,english_816.wav,0,0,1900,,,,,0,0,-5.39935373,0.27372013
FQC,103,2,2024-06-14T02:38:59.534Z,english_816.wav,0,0,1900,,,,,1,0.1,-58.12348851,1.23542608
FQC,103,2,2024-06-14T02:38:59.534Z,english_816.wav,0,0,1900,,,,,2,0.2,-97.19740724,1.6956732
FQC,103,2,2024-06-14T02:38:59.534Z,english_816.wav,0,0,1900,,,,,3,0.3,4.60418864,0.17466083
FQC,103,2,2024-06-14T02:38:59.534Z,english_816.wav,0,0,1900,,,,,4,0.32341667,57.92285533,0.69657013
FQC,104,2,2024-06-14T02:38:59.534Z,english_40.wav,0,0,1304,,,,,0,0,20.98315678,0.33544846
FQC,104,2,2024-06-14T02:38:59.534Z,english_40.wav,0,0,1304,,,,,1,0.1,80.64974175,0.81764939
FQC,104,2,2024-06-14T02:38:59.534Z,english_40.wav,0,0,1304,,,,,2,0.2,5.38930518,0.17548883
FQC,104,2,2024-06-14T02:38:59.534Z,english_40.wav,0,0,1304,,,,,3,0.3,18.83593916,0.83674413
FQC,104,2,2024-06-14T02:38:59.534Z,english_40.wav,0,0,1304,,,,,4,0.32341667,-14.62145671,0.80890384
FQC,105,2,2024-06-14T02:38:59.534Z,english_833.wav,0,0,1760,,,,,0,0,18.29317799,0.49951345
FQC,105,2,2024-06-14T02:38:59.534Z,english_833.wav,0,0,1760,,,,,1,0.1,20.01945042,1.12176851
FQC,105,2,2024-06-14T02:38:59.534Z,english_833.wav,0,0,1760,,,,,2,0.2,-77.99741705,0.59960618
FQC,105,2,2024-06-14T02:38:59.534Z,english_833.wav,0,0,1760,,,,,3,0.3,19.36192697,0.50557433
FQC,105,2,2024-06-14T02:38:59.534Z,english_833.wav,0,0,1760,,,,,4,0.32341667,43.06785988,0.3288339
FQC,106,2,2024-06-14T02:38:59.534Z,english_585.wav,0,0,2034,,,,,0,0,-47.47167609,0.91486293
FQC,106,2,2024-06-14T02:38:59.534Z,english_585.wav,0,0,2034,,,,,1,0.1,-85.73018253,0.8051019
FQC,106,2,2024-06-14T02:38:59.534Z,english_585.wav,0,0,2034,,,,,2,0.2,4.69567907,1.25289508
FQC,106,2,2024-06-14T02:38:59.534Z,english_585.wav,0,0,2034,,,,,3,0.3,51.83381109,0.83258124
FQC,106,2,2024-06-14T02:38:59.534Z,english_585.wav,0,0,2034,,,,,4,0.32341667,14.12777642,1.43411439
FQC,107,2,2024-06-14T02:38:59.534Z,english_164.wav,0,1,3453,,,,,0,0,-18.99376005,1.91320144
FQC,107,2,2024-06-14T02:38:59.534Z,english_164.wav,0,1,3453,,,,,1,0.1,-38.65269109,0.23857652
FQC,107,2,2024-06-14T02:38:59.534Z,english_164.wav,0,1,3453,,,,,2,0.2,64.75288033,1.41883879
FQC,107,2,2024-06-14T02:38:59.534Z,english_164.wav,0,1,3453,,,,,3,0.3,-33.8407164,1.34667564
FQC,107,2,2024-06-14T02:38:59.534Z,english_164.wav,0,1,3453,,,,,4,0.32341667,27.96502681,0.04602263
FQC,108,2,2024-06-14T02:38:59.534Z,english_449.wav,0,1,1029,,,,,0,0,-46.54576765,0.60085197
FQC,108,2,2024-06-14T02:38:59.534Z,english_449.wav,0,1,1029,,,,,1,0.1,20.05422573,1.74901032
FQC,108,2,2024-06-14T02:38:59.534Z,english_449.wav,0,1,1029,,,,,2,0.2,54.52400621,1.9506545
FQC,108,2,2024-06-14T02:38:59.534Z,english_449.wav,0,1,1029,,,,,3,0.3,73.66855139,1.81044704
FQC,108,2,2024-06-14T02:38:59.534Z,english_449.wav,0,1,1029,,,,,4,0.32341667,-1.88675615,0.93562966
FQC,109,2,2024-06-14T02:38:59.534Z,english_777.wav,0,0,826,,,,,0,0,-69.33808121,1.41371967
FQC,109,2,2024-06-14T02:38:59.534Z,english_777.wav,0,0,826,,,,,1,0.1,83.00406244,0.89293833
FQC,109,2,2024-06-14T02:38:59.534Z,english_777.wav,0,0,826,,,,,2,0.2,52.8456083,0.52129979
FQC,109,2,2024-06-14T02:38:59.534Z,english_777.wav,0,0,826,,,,,3,0.3,-67.57367145,0.31704889
FQC,109,2,2024-06-14T02:38:59.534Z,english_777.wav,0,0,826,,,,,4,0.32341667,44.30015735,0.90388625
FQC,110,2,2024-06-14T02:38:59.534Z,english_926.wav,0,0,929,,,,,0,0,-21.84910749,1.63725542
FQC,110,2,2024-06-14T02:38:59.534Z,english_926.wav,0,0,929,,,,,1,0.1,92.62617727,0.91190035
FQC,110,2,2024-06-14T02:38:59.534Z,english_926.wav,0,0,929,,,,,2,0.2,-40.07927874,0.45967153
FQC,110,2,2024-06-14T02:38:59.534Z,english_926.wav,0,0,929,,,,,3,0.3,30.58508574,0.64362954
FQC,110,2,2024-06-14T02:38:59.534Z,english_926.wav,0,0,929,,,,,4,0.32341667,-68.98646438,1.44788087
FQC,111,2,2024-06-14T02:38:59.534Z,english_523.wav,0,0,834,,,,,0,0,8.07414344,0.20594791
FQC,111,2,2024-06-14T02:38:59.534Z,english_523.wav,0,0,834,,,,,1,0.1,27.61667564,1.87511385
FQC,111,2,2024-06-14T02:38:59.534Z,english_523.wav,0,0,834,,,,,2,0.2,12.25175146,0.19246655
FQC,111,2,2024-06-14T02:38:59.534Z,english_523.wav,0,0,834,,,,,3,0.3,5.7333769,0.42766967
FQC,111,2,2024-06-14T02:38:59.534Z,english_523.wav,0,0,834,,,,,4,0.32341667,77.72310536,1.43882185
FQC,112,2,2024-06-14T02:38:59.534Z,english_197.wav,0,1,954,,,,,0,0,-60.72223742,1.8449777
FQC,112,2,2024-06-14T02:38:59.534Z,english_197.wav,0,1,954,,,,,1,0.1,-88.93421142,1.74693134
FQC,112,2,2024-06-14T02:38:59.534Z,english_197.wav,0,1,954,,,,,2,0.2,51.43827126,1.11057597
FQC,112,2,2024-06-14T02:38:59.534Z,english_197.wav,0,1,954,,,,,3,0.3,7.80125839,1.67371275
FQC,112,2,2024-06-14T02:38:59.534Z,english_197.wav,0,1,954,,,,,4,0.32341667,-53.06876459,1.16077516
FQC,113,2,2024-06-14T02:38:59.534Z,english_463.wav,0,0,1524,,,,,0,0,-17.89775534,1.84132871
FQC,113,2,2024-06-14T02:38:59.534Z,english_463.wav,0,0,1524,,,,,1,0.1,-21.51631701,1.66361617
FQC,113,2,2024-06-14T02:38:59.534Z,english_463.wav,0,0,1524,,,,,2,0.2,-12.53951077,0.64060514
FQC,113,2,2024-06-14T02:38:59.534Z,english_463.wav,0,0,1524,,,,,3,0.3,33.47501925,1.01091097
FQC,113,2,2024-06-14T02:38:59.534Z,english_463.wav,0,0,1524,,,,,4,0.32341667,-93.09525534,0.69499506
FQC,114,2,2024-06-14T02:38:59.534Z,english_429.wav,0,1,2087,,,,,0,0,-70.82827187,0.34305232
FQC,114,2,2024-06-14T02:38:59.534Z,english_429.wav,0,1,2087,,,,,1,0.1,79.2644825,1.15525787
FQC,114,2,2024-06-14T02:38:59.534Z,english_429.wav,0,1,2087,,,,,2,0.2,14.29027084,1.85610569
FQC,114,2,2024-06-14T02:38:59.534Z,english_429.wav,0,1,2087,,,,,3,0.3,-47.65971945,0.19828098
FQC,114,2,2024-06-14T02:38:59.534Z,english_429.wav,0,1,2087,,,,,4,0.32341667,8.9954872,1.51767034
FQC,115,2,2024-06-14T02:38:59.534Z,english_438.wav,0,0,965,,,,,0,0,31.75305261,1.38451981
FQC,115,2,2024-06-14T02:38:59.534Z,english_438.wav,0,0,965,,,,,1,0.1,20.27112767,1.99020027
FQC,115,2,2024-06-14T02:38:59.534Z,english_438.wav,0,0,965,,,,,2,0.2,66.65258945,0.15645945
FQC,115,2,2024-06-14T02:38:59.534Z,english_438.wav,0,0,965,,,,,3,0.3,70.72003494,1.37678514
FQC,115,2,2024-06-14T02:38:59.534Z,english_438.wav,0,0,965,,,,,4,0.32341667,59.11013505,0.82730153
FQC,116,2,2024-06-14T02:38:59.534Z,english_270.wav,0,0,1137,,,,,0,0,-54.89328754,1.02368747
FQC,116,2,2024-06-14T02:38:59.534Z,english_270.wav,0,0,1137,,,,,1,0.1,-41.12345733,1.74263534
FQC,116,2,2024-06-14T02:38:59.534Z,english_270.wav,0,0,1137,,,,,2,0.2,79.03328036,0.45342006
FQC,116,2,2024-06-14T02:38:59.534Z,english_270.wav,0,0,1137,,,,,3,0.3,-87.71335894,1.29911503
FQC,116,2,2024-06-14T02:38:59.534Z,english_270.wav,0,0,1137,,,,,4,0.32341667,-48.20373708,0.95859349
FQC,117,2,2024-06-14T02:38:59.534Z,english_547.wav,0,1,1314,,,,,0,0,30.48969685,1.04682874
FQC,117,2,2024-06-14T02:38:59.534Z,english_547.wav,0,1,1314,,,,,1,0.1,-38.27442703,0.75017858
FQC,117,2,2024-06-14T02:38:59.534Z,english_547.wav,0,1,1314,,,,,2,0.2,29.58442849,0.7996645
FQC,117,2,2024-06-14T02:38:59.534Z,english_547.wav,0,1,1314,,,,,3,0.3,-4.27268154,1.92102789
FQC,117,2,2024-06-14T02:38:59.534Z,english_547.wav,0,1,1314,,,,,4,0.32341667,58.02076364,1.77056707
FQC,118,2,2024-06-14T02:38:59.534Z,english_118.wav,0,0,1131,,,,,0,0,-46.26080879,0.77156844
FQC,118,2,2024-06-14T02:38:59.534Z,english_118.wav,0,0,1131,,,,,1,0.1,-14.63576669,0.55135676
FQC,118,2,2024-06-14T02:38:59.534Z,english_118.wav,0,0,1131,,,,,2,0.2,85.04541628,0.92804695
FQC,118,2,2024-06-14T02:38:59.534Z,english_118.wav,0,0,1131,,,,,3,0.3,-49.31762638,1.40435072
FQC,118,2,2024-06-14T02:38:59.534Z,english_118.wav,0,0,1131,,,,,4,0.32341667,16.64479416,1.67291824
FQC,119,2,2024-06-14T02:38:59.534Z,english_590.wav,0,0,948,,,,,0,0,-36.198224,1.58650853
FQC,119,2,2024-06-14T02:38:59.534Z,english_590.wav,0,0,948,,,,,1,0.1,-81.6019347,0.24081988
FQC,119,2,2024-06-14T02:38:59.534Z,english_590.wav,0,0,948,,,,,2,0.2,23.00860846,0.40073912
FQC,119,2,2024-06-14T02:38:59.534Z,english_590.wav,0,0,948,,,,,3,0.3,-40.72667736,0.83686248
FQC,119,2,2024-06-14T02:38:59.534Z,english_590.wav,0,0,948,,,,,4,0.32341667,31.06175796,1.43958247
FQC,120,2,2024-06-14T02:38:59.534Z,english_12.wav,0,0,966,,,,,0,0,48.33680056,1.48429429
FQC,120,2,2024-06-14T02:38:59.534Z,english_12.wav,0,0,966,,,,,1,0.1,27.41870997,0.15715938
FQC,120,2,2024-06-14T02:38:59.534Z,english_12.wav,0,0,966,,,,,2,0.2,-39.95667364,0.62940339
FQC,120,2,2024-06-14T02:38:59.534Z,english_12.wav,0,0,966,,,,,3,0.3,73.52964836,0.05281398
FQC,120,2,2024-06-14T02:38:59.534Z,english_12.wav,0,0,966,,,,,4,0.32341667,-36.35494906,1.6412938
FQC,121,2,2024-06-14T02:38:59.534Z,english_123.wav,0,1,780,,,,,0,0,67.91608163,1.13046919
FQC,121,2,2024-06-14T02:38:59.534Z,english_123.wav,0,1,780,,,,,1,0.1,-92.32097988,1.99597614
FQC,121,2,2024-06-14T02:38:59.534Z,english_123.wav,0,1,780,,,,,2,0.2,57.07371841,1.53523853
FQC,121,2,2024-06-14T02:38:59.534Z,english_123.wav,0,1,780,,,,,3,0.3,19.28317816,0.24385811
FQC,121,2,2024-06-14T02:38:59.534Z,english_123.wav,0,1,780,,,,,4,0.32341667,15.30546887,0.39158976
FQC,122,2,2024-06-14T02:38:59.534Z,english_906.wav,0,0,978,,,,,0,0,-40.48589107,1.22436898
FQC,122,2,2024-06-14T02:38:59.534Z,english_906.wav,0,0,978,,,,,1,0.1,47.48995475,1.54823641
FQC,122,2,2024-06-14T02:38:59.534Z,english_906.wav,0,0,978,,,,,2,0.2,-46.73743802,1.02590908
FQC,122,2,2024-06-14T02:38:59.534Z,english_906.wav,0,0,978,,,,,3,0.3,-97.96557374,1.74877791
FQC,122,2,2024-06-14T02:38:59.534Z,english_906.wav,0,0,978,,,,,4,0.32341667,18.48293991,0.76585735
FQC,123,2,2024-06-14T02:38:59.534Z,english_384.wav,0,0,1059,,,,,0,0,-38.96228733,0.34616893
FQC,123,2,2024-06-14T02:38:59.534Z,english_384.wav,0,0,1059,,,,,1,0.1,2.386347,0.04115024
FQC,123,2,2024-06-14T02:38:59.534Z,english_384.wav,0,0,1059,,,,,2,0.2,48.26486793,0.35900131
FQC,123,2,2024-06-14T02:38:59.534Z,english_384.wav,0,0,1059,,,,,3,0.3,-48.11903655,1.58519606
FQC,123,2,2024-06-14T02:38:59.534Z,english_384.wav,0,0,1059,,,,,4,0.32341667,19.29531145,0.95531857
FQC,124,2,2024-06-14T02:38:59.534Z,english_448.wav,0,0,2915,,,,,0,0,0.37188167,1.15390094
FQC,124,2,2024-06-14T02:38:59.534Z,english_448.wav,0,0,2915,,,,,1,0.1,-67.82723624,1.58767458
FQC,124,2,2024-06-14T02:38:59.534Z,english_448.wav,0,0,2915,,,,,2,0.2,65.77705469,1.13313853
FQC,124,2,2024-06-14T02:38:59.534Z,english_448.wav,0,0,2915,,,,,3,0.3,83.31626383,0.27075507
FQC,124,2,2024-06-14T02:38:59.534Z,english_448.wav,0,0,2915,,,,,4,0.32341667,-27.56829045,1.20964916
FQC,125,2,2024-06-14T02:38:59.534Z,english_947.wav,0,1,2740,,,,,0,0,73.13113362,0.1925557
FQC,125,2,2024-06-14T02:38:59.534Z,english_947.wav,0,1,2740,,,,,1,0.1,-55.13077299,1.89478059
FQC,125,2,2024-06-14T02:38:59.534Z,english_947.wav,0,1,2740,,,,,2,0.2,59.32217849,0.99662771
FQC,125,2,2024-06-14T02:38:59.534Z,english_947.wav,0,1,2740,,,,,3,0.3,-71.25946194,0.61263341
FQC,125,2,2024-06-14T02:38:59.534Z,english_947.wav,0,1,2740,,,,,4,0.32341667,39.2274254,0.46373334
FQC,126,2,2024-06-14T02:38:59.534Z,english_184.wav,0,0,923,,,,,0,0,29.65201825,1.69567788
FQC,126,2,2024-06-14T02:38:59.534Z,english_184.wav,0,0,923,,,,,1,0.1,16.48348791,1.26735627
FQC,126,2,2024-06-14T02:38:59.534Z,english_184.wav,0,0,923,,,,,2,0.2,3.77448983,0.95352895
FQC,126,2,2024-06-14T02:38:59.534Z,english_184.wav,0,0,923,,,,,3,0.3,62.87502431,1.7991474
FQC,126,2,2024-06-14T02:38:59.534Z,english_184.wav,0,0,923,,,,,4,0.32341667,-8.82418577,0.98992659
FQC,127,2,2024-06-14T02:38:59.534Z,english_599.wav,0,0,2497,,,,,0,0,-57.09760884,1.03382432
FQC,127,2,2024-06-14T02:38:59.534Z,english_599.wav,0,0,2497,,,,,1,0.1,31.85682387,1.26885403
FQC,127,2,2024-06-14T02:38:59.534Z,english_599.wav,0,0,2497,,,,,2,0.2,-6.73425875,1.24717465
FQC,127,2,2024-06-14T02:38:59.534Z,english_599.wav,0,0,2497,,,,,3,0.3,47.95830633,1.34338376
FQC,127,2,2024-06-14T02:38:59.534Z,english_599.wav,0,0,2497,,,,,4,0.32341667,-83.8084816,0.34550335
FQC,128,2,2024-06-14T02:38:59.534Z,english_408.wav,0,0,3926,,,,,0,0,-0.16211679,1.52185603
FQC,128,2,2024-06-14T02:38:59.534Z,english_408.wav,0,0,3926,,,,,1,0.1,16.68246491,0.27925492
FQC,128,2,2024-06-14T02:38:59.534Z,english_408.wav,0,0,3926,,,,,2,0.2,-84.31504289,0.96179544
FQC,128,2,2024-06-14T02:38:59.534Z,english_408.wav,0,0,3926,,,,,3,0.3,20.95362966,1.64669203
FQC,128,2,2024-06-14T02:38:59.534Z,english_408.wav,0,0,3926,,,,,4,0.32341667,15.25079186,1.54793764
FQC,129,2,2024-06-14T02:38:59.534Z,english_809.wav,0,0,1695,,,,,0,0,-9.08149959,0.73203403
FQC,129,2,2024-06-14T02:38:59.534Z,english_809.wav,0,0,1695,,,,,1,0.1,12.16544582,0.53159531
FQC,129,2,2024-06-14T02:38:59.534Z,english_809.wav,0,0,1695,,,,,2,0.2,40.52205867,1.48114639
FQC,129,2,2024-06-14T02:38:59.534Z,english_809.wav,0,0,1695,,,,,3,0.3,-94.19679153,1.77078339
FQC,129,2,2024-06-14T02:38:59.534Z,english_809.wav,0,0,1695,,,,,4,0.32341667,-5.82752377,1.36117577
FQC,130,2,2024-06-14T02:38:59.534Z,english_71.wav,0,0,1892,,,,,0,0,-89.06637534,0.37218892
FQC,130,2,2024-06-14T02:38:59.534Z,english_71.wav,0,0,1892,,,,,1,0.1,-28.638437,1.29479557
FQC,130,2,2024-06-14T02:38:59.534Z,english_71.wav,0,0,1892,,,,,2,0.2,-8.31899436,1.34818575
FQC,130,2,2024-06-14T02:38:59.534Z,english_71.wav,0,0,1892,,,,,3,0.3,67.7820648,1.24266832
FQC,130,2,2024-06-14T02:38:59.534Z,english_71.wav,0,0,1892,,,,,4,0.32341667,4.09606073,1.38884894
FQC,131,2,2024-06-14T02:38:59.534Z,english_514.wav,0,0,982,,,,,0,0,-61.65105701,1.12509033
FQC,131,2,2024-06-14T02:38:59.534Z,english_514.wav,0,0,982,,,,,1,0.1,49.84264816,0.78701739
FQC,131,2,2024-06-14T02:38:59.534Z,english_514.wav,0,0,982,,,,,2,0.2,14.14440898,0.37052689
FQC,131,2,2024-06-14T02:38:59.534Z,english_514.wav,0,0,982,,,,,3,0.3,-30.10662908,1.42053426
FQC,131,2,2024-06-14T02:38:59.534Z,english_514.wav,0,0,982,,,,,4,0.32341667,90.48337022,1.94621598
FQC,132,2,2024-06-14T02:38:59.534Z,english_797.wav,0,1,1653,,,,,0,0,-10.77604935,1.75152448
FQC,132,2,2024-06-14T02:38:59.534Z,english_797.wav,0,1,1653,,,,,1,0.1,76.52998448,0.25625033
FQC,132,2,2024-06-14T02:38:59.534Z,english_797.wav,0,1,1653,,,,,2,0.2,-52.30950648,1.63910521
FQC,132,2,2024-06-14T02:38:59.534Z,english_797.wav,0,1,1653,,,,,3,0.3,-19.27189704,1.44412191
FQC,132,2,2024-06-14T02:38:59.534Z,english_797.wav,0,1,1653,,,,,4,0.32341667,-68.52312916,1.41513857
FQC,133,2,2024-06-14T02:38:59.534Z,english_473.wav,0,0,1358,,,,,0,0,2.94536382,1.14273616
FQC,133,2,2024-06-14T02:38:59.534Z,english_473.wav,0,0,1358,,,,,1,0.1,67.15962,0.71228689
FQC,133,2,2024-06-14T02:38:59.534Z,english_473.wav,0,0,1358,,,,,2,0.2,-20.48190634,1.20280034
FQC,133,2,2024-06-14T02:38:59.534Z,english_473.wav,0,0,1358,,,,,3,0.3,20.58811131,0.94325649
FQC,133,2,2024-06-14T02:38:59.534Z,english_473.wav,0,0,1358,,,,,4,0.32341667,-71.10919795,1.82149668
FQC,134,2,2024-06-14T02:38:59.534Z,english_813.wav,0,0,2242,,,,,0,0,55.66932548,1.32885027
FQC,134,2,2024-06-14T02:38:59.534Z,english_813.wav,0,0,2242,,,,,1,0.1,81.68960615,1.76450173
FQC,134,2,2024-06-14T02:38:59.534Z,english_813.wav,0,0,2242,,,,,2,0.2,55.75765178,0.71046445
FQC,134,2,2024-06-14T02:38:59.534Z,english_813.wav,0,0,2242,,,,,3,0.3,-1.25572602,1.00431818
FQC,134,2,2024-06-14T02:38:59.534Z,english_813.wav,0,0,2242,,,,,4,0.32341667,95.15429199,0.60962601
FQC,135,2,2024-06-14T02:38:59.534Z,english_533.wav,0,1,3870,,,,,0,0,-10.36570298,0.10013008
FQC,135,2,2024-06-14T02:38:59.534Z,english_533.wav,0,1,3870,,,,,1,0.1,-67.04420928,1.73583104
FQC,135,2,2024-06-14T02:38:59.534Z,english_533.wav,0,1,3870,,,,,2,0.2,-31.24691396,1.00550506
FQC,135,2,2024-06-14T02:38:59.534Z,english_533.wav,0,1,3870,,,,,3,0.3,-22.73912087,1.21009828
FQC,135,2,2024-06-14T02:38:59.534Z,english_533.wav,0,1,3870,,,,,4,0.32341667,-4.63915005,1.69946188
FQC,136,2,2024-06-14T02:38:59.534Z,english_374.wav,0,0,1778,,,,,0,0,-43.98521466,1.11607514
FQC,136,2,2024-06-14T02:38:59.534Z,english_374.wav,0,0,1778,,,,,1,0.1,-24.87181663,0.38249505
FQC,136,2,2024-06-14T02:38:59.534Z,english_374.wav,0,0,1778,,,,,2,0.2,-29.31566683,1.56774755
FQC,136,2,2024-06-14T02:38:59.534Z,english_374.wav,0,0,1778,,,,,3,0.3,-43.36019392,1.33837662
FQC,136,2,2024-06-14T02:38:59.534Z,english_374.wav,0,0,1778,,,,,4,0.32341667,-35.5175379,0.68793086
FQC,137,2,2024-06-14T02:38:59.534Z,english_437.wav,0,0,951,,,,,0,0,61.91803223,0.36516876
FQC,137,2,2024-06-14T02:38:59.534Z,english_437.wav,0,0,951,,,,,1,0.1,0.99543568,0.43500315
FQC,137,2,2024-06-14T02:38:59.534Z,english_437.wav,0,0,951,,,,,2,0.2,-50.96874522,1.25398366
FQC,137,2,2024-06-14T02:38:59.534Z,english_437.wav,0,0,951,,,,,3,0.3,-47.73319396,0.60570222
FQC,137,2,2024-06-14T02:38:59.534Z,english_437.wav,0,0,951,,,,,4,0.32341667,15.35939938,0.97208355
FQC,138,2,2024-06-14T02:38:59.534Z,english_688.wav,0,0,2327,,,,,0,0,-45.64286614,1.06356906
FQC,138,2,2024-06-14T02:38:59.534Z,english_688.wav,0,0,2327,,,,,1,0.1,39.73956276,0.85197809
FQC,138,2,2024-06-14T02:38:59.534Z,english_688.wav,0,0,2327,,,,,2,0.2,40.53719602,0.68718846
FQC,138,2,2024-06-14T02:38:59.534Z,english_688.wav,0,0,2327,,,,,3,0.3,-71.29470492,1.67995478
FQC,138,2,2024-06-14T02:38:59.534Z,english_688.wav,0,0,2327,,,,,4,0.32341667,73.7490074,1.45979079
FQC,139,2,2024-06-14T02:38:59.534Z,english_574.wav,0,0,1327,,,,,0,0,53.128433,0.28349694
FQC,139,2,2024-06-14T02:38:59.534Z,english_574.wav,0,0,1327,,,,,1,0.1,70.24248151,0.66519348
FQC,139,2,2024-06-14T02:38:59.534Z,english_574.wav,0,0,1327,,,,,2,0.2,47.13290739,1.25768036
FQC,139,2,2024-06-14T02:38:59.534Z,english_574.wav,0,0,1327,,,,,3,0.3,52.31480293,1.43482954
FQC,139,2,2024-06-14T02:38:59.534Z,english_574.wav,0,0,1327,,,,,4,0.32341667,-33.06438127,1.23350688
FQC,140,2,2024-06-14T02:38:59.534Z,english_634.wav,0,0,2228,,,,,0,0,-94.29539956,0.6011183
FQC,140,2,2024-06-14T02:38:59.534Z,english_634.wav,0,0,2228,,,,,1,0.1,28.41708136,1.15242669
FQC,140,2,2024-06-14T02:38:59.534Z,english_634.wav,0,0,2228,,,,,2,0.2,-99.13935281,0.68826906
FQC,140,2,2024-06-14T02:38:59.534Z,english_634.wav,0,0,2228,,,,,3,0.3,-78.11216949,1.44169335
FQC,140,2,2024-06-14T02:38:59.534Z,english_634.wav,0,0,2228,,,,,4,0.32341667,-54.5881907,0.90266094
FQC,141,2,2024-06-14T02:38:59.534Z,english_557.wav,0,0,5598,,,,,0,0,43.94308994,0.38165316
FQC,141,2,2024-06-14T02:38:59.534Z,english_557.wav,0,0,5598,,,,,1,0.1,84.77773598,1.19567933
FQC,141,2,2024-06-14T02:38:59.534Z,english_557.wav,0,0,5598,,,,,2,0.2,-14.75143777,1.35103773
FQC,141,2,2024-06-14T02:38:59.534Z,english_557.wav,0,0,5598,,,,,3,0.3,-37.76141322,1.69174007
FQC,141,2,2024-06-14T02:38:59.534Z,english_557.wav,0,0,5598,,,,,4,0.32341667,-5.99076179,0.4334092
FQC,142,2,2024-06-14T02:38:59.534Z,english_108.wav,0,0,1160,,,,,0,0,-20.69942707,0.77052949
FQC,142,2,2024-06-14T02:38:59.534Z,english_108.wav,0,0,1160,,,,,1,0.1,-59.42152954,1.01445352
FQC,142,2,2024-06-14T02:38:59.534Z,english_108.wav,0,0,1160,,,,,2,0.2,-8.09170222,0.42363715
FQC,142,2,2024-06-14T02:38:59.534Z,english_108.wav,0,0,1160,,,,,3,0.3,21.99826779,1.45799831
FQC,142,2,2024-06-14T02:38:59.534Z,english_108.wav,0,0,1160,,,,,4,0.32341667,56.38973361,1.71498507
FQC,143,2,2024-06-14T02:38:59.534Z,english_55.wav,0,0,1738,,,,,0,0,71.89255128,0.24931264
FQC,143,2,2024-06-14T02:38:59.534Z,english_55.wav,0,0,1738,,,,,1,0.1,0.20692224,1.79813092
FQC,143,2,2024-06-14T02:38:59.534Z,english_55.wav,0,0,1738,,,,,2,0.2,-68.61006599,0.71729895
FQC,143,2,2024-06-14T02:38:59.534Z,english_55.wav,0,0,1738,,,,,3,0.3,-5.20952515,1.28733782
FQC,143,2,2024-06-14T02:38:59.534Z,english_55.wav,0,0,1738,,,,,4,0.32341667,28.45991968,1.77061752
FQC,144,2,2024-06-14T02:38:59.534Z,english_394.wav,0,0,1537,,,,,0,0,73.08757955,1.29313131
FQC,144,2,2024-06-14T02:38:59.534Z,english_394.wav,0,0,1537,,,,,1,0.1,5.60908311,0.62691873
FQC,144,2,2024-06-14T02:38:59.534Z,english_394.wav,0,0,1537,,,,,2,0.2,76.56705043,1.4938005
FQC,144,2,2024-06-14T02:38:59.534Z,english_394.wav,0,0,1537,,,,,3,0.3,18.85166324,1.2266925
FQC,144,2,2024-06-14T02:38:59.534Z,english_394.wav,0,0,1537,,,,,4,0.32341667,8.45052692,0.67844158
FQC,145,2,2024-06-14T02:38:59.534Z,english_580.wav,0,0,931,,,,,0,0,92.13406767,1.93694744
FQC,145,2,2024-06-14T02:38:59.534Z,english_580.wav,0,0,931,,,,,1,0.1,-85.58685866,0.28773753
FQC,145,2,2024-06-14T02:38:59.534Z,english_580.wav,0,0,931,,,,,2,0.2,57.10945482,0.86433335
FQC,145,2,2024-06-14T02:38:59.534Z,english_580.wav,0,0,931,,,,,3,0.3,32.92004132,0.96651265
FQC,145,2,2024-06-14T02:38:59.534Z,english_580.wav,0,0,931,,,,,4,0.32341667,52.08708517,1.25003658
FQC,146,2,2024-06-14T02:38:59.534Z,english_295.wav,0,0,2014,,,,,0,0,-76.51454746,1.12273409
FQC,146,2,2024-06-14T02:38:59.534Z,english_295.wav,0,0,2014,,,,,1,0.1,-96.9380047,0.2018376
FQC,146,2,2024-06-14T02:38:59.534Z,english_295.wav,0,0,2014,,,,,2,0.2,-72.79782389,1.81703153
FQC,146,2,2024-06-14T02:38:59.534Z,english_295.wav,0,0,2014,,,,,3,0.3,-31.86888898,0.31799467
FQC,146,2,2024-06-14T02:38:59.534Z,english_295.wav,0,0,2014,,,,,4,0.32341667,-51.47839766,0.71777059
FQC,147,2,2024-06-14T02:38:59.534Z,english_774.wav,0,1,689,,,,,0,0,-13.3479616,1.45409172
FQC,147,2,2024-06-14T02:38:59.534Z,english_774.wav,0,1,689,,,,,1,0.1,-18.75352159,1.07775337
FQC,147,2,2024-06-14T02:38:59.534Z,english_774.wav,0,1,689,,,,,2,0.2,-41.83192829,0.61872946
FQC,147,2,2024-06-14T02:38:59.534Z,english_774.wav,0,1,689,,,,,3,0.3,14.77986843,1.87871381
FQC,147,2,2024-06-14T02:38:59.534Z,english_774.wav,0,1,689,,,,,4,0.32341667,45.85609187,1.0399825
FQC,148,2,2024-06-14T02:38:59.534Z,english_447.wav,0,0,1097,,,,,0,0,38.77193801,0.52212734
FQC,148,2,2024-06-14T02:38:59.534Z,english_447.wav,0,0,1097,,,,,1,0.1,-3.53992528,0.58948567
FQC,148,2,2024-06-14T02:38:59.534Z,english_447.wav,0,0,1097,,,,,2,0.2,54.1888363,0.60662966
FQC,148,2,2024-06-14T02:38:59.534Z,english_447.wav,0,0,1097,,,,,3,0.3,-95.90180003,0.73195254
FQC,148,2,2024-06-14T02:38:59.534Z,english_447.wav,0,0,1097,,,,,4,0.32341667,48.32118178,0.21856551
FQC,149,2,2024-06-14T02:38:59.534Z,english_834.wav,0,0,1056,,,,,0,0,-64.94927172,0.98752234
FQC,149,2,2024-06-14T02:38:59.534Z,english_834.wav,0,0,1056,,,,,1,0.1,49.61052881,1.31122352
FQC,149,2,2024-06-14T02:38:59.534Z,english_834.wav,0,0,1056,,,,,2,0.2,-25.04715585,0.09065599
FQC,149,2,2024-06-14T02:38:59.534Z,english_834.wav,0,0,1056,,,,,3,0.3,95.09819394,1.07854905
FQC,149,2,2024-06-14T02:38:59.534Z,english_834.wav,0,0,1056,,,,,4,0.32341667,84.16953653,1.76453498
FQC,150,3,2024-06-14T02:38:59.534Z,english_572.wav,0,0,2340,,,,,0,0,-16.16189062,1.82210005
FQC,150,3,2024-06-14T02:38:59.534Z,english_572.wav,0,0,2340,,,,,1,0.1,-40.8511413,0.80249033
FQC,150,3,2024-06-14T02:38:59.534Z,english_572.wav,0,0,2340,,,,,2,0.2,-77.3747243,0.69959732
FQC,150,3,2024-06-14T02:38:59.534Z,english_572.wav,0,0,2340,,,,,3,0.3,87.62803369,0.43311894
FQC,150,3,2024-06-14T02:38:59.534Z,english_572.wav,0,0,2340,,,,,4,0.32341667,81.6005998,1.25204325
FQC,151,3,2024-06-14T02:38:59.534Z,english_940.wav,0,0,1836,,,,,0,0,47.11462569,0.32214594
FQC,151,3,2024-06-14T02:38:59.534Z,english_940.wav,0,0,1836,,,,,1,0.1,11.81885745,0.21999868
FQC,151,3,2024-06-14T02:38:59.534Z,english_940.wav,0,0,1836,,,,,2,0.2,-1.49931669,0.34357292
FQC,151,3,2024-06-14T02:38:59.534Z,english_940.wav,0,0,1836,,,,,3,0.3,45.92466934,1.61274527
FQC,151,3,2024-06-14T02:38:59.534Z,english_940.wav,0,0,1836,,,,,4,0.32341667,-72.78738407,0.9185628
FQC,152,3,2024-06-14T02:38:59.534Z,english_107.wav,0,0,1147,,,,,0,0,-19.24931684,0.69122185
FQC,152,3,2024-06-14T02:38:59.534Z,english_107.wav,0,0,1147,,,,,1,0.1,24.04874113,0.13674094
FQC,152,3,2024-06-14T02:38:59.534Z,english_107.wav,0,0,1147,,,,,2,0.2,59.01955179,1.47608642
FQC,152,3,2024-06-14T02:38:59.534Z,english_107.wav,0,0,1147,,,,,3,0.3,49.74315823,1.52525824
FQC,152,3,2024-06-14T02:38:59.534Z,english_107.wav,0,0,1147,,,,,4,0.32341667,-75.23844627,0.11985114
FQC,153,3,2024-06-14T02:38:59.534Z,english_342.wav,0,1,956,,,,,0,0,78.00911228,0.99673345
FQC,153,3,2024-06-14T02:38:59.534Z,english_342.wav,0,1,956,,,,,1,0.1,-28.67768894,1.80563483
FQC,153,3,2024-06-14T02:38:59.534Z,english_342.wav,0,1,956,,,,,2,0.2,73.55618202,1.38552336
FQC,153,3,2024-06-14T02:38:59.534Z,english_342.wav,0,1,956,,,,,3,0.3,93.0509223,0.17145116
FQC,153,3,2024-06-14T02:38:59.534Z,english_342.wav,0,1,956,,,,,4,0.32341667,-2.74816459,0.15059009
FQC,154,3,2024-06-14T02:38:59.534Z,english_831.wav,0,0,930,,,,,0,0,-7.33710711,1.53159971
FQC,154,3,2024-06-14T02:38:59.534Z,english_831.wav,0,0,930,,,,,1,0.1,-87.69782071,1.22669962
FQC,154,3,2024-06-14T02:38:59.534Z,english_831.wav,0,0,930,,,,,2,0.2,34.03975531,0.70180407
FQC,154,3,2024-06-14T02:38:59.534Z,english_831.wav,0,0,930,,,,,3,0.3,-2.18295653,1.02244347
FQC,154,3,2024-06-14T02:38:59.534Z,english_831.wav,0,0,930,,,,,4,0.32341667,20.908766,1.06702443
FQC,155,3,2024-06-14T02:38:59.534Z,english_435.wav,0,1,1246,,,,,0,0,-61.49548479,0.36819492
FQC,155,3,2024-06-14T02:38:59.534Z,english_435.wav,0,1,1246,,,,,1,0.1,18.53940612,1.77990606
FQC,155,3,2024-06-14T02:38:59.534Z,english_435.wav,0,1,1246,,,,,2,0.2,-39.20879804,1.09377229
FQC,155,3,2024-06-14T02:38:59.534Z,english_435.wav,0,1,1246,,,,,3,0.3,-30.66509024,1.98213584
FQC,155,3,2024-06-14T02:38:59.534Z,english_435.wav,0,1,1246,,,,,4,0.32341667,7.07056367,0.5936591
FQC,156,3,2024-06-14T02:38:59.534Z,english_433.wav,0,0,1143,,,,,0,0,-74.58178472,0.69852952
FQC,156,3,2024-06-14T02:38:59.534Z,english_433.wav,0,0,1143,,,,,1,0.1,-50.00917691,1.92405883
FQC,156,3,2024-06-14T02:38:59.534Z,english_433.wav,0,0,1143,,,,,2,0.2,48.18572343,0.3905825
FQC,156,3,2024-06-14T02:38:59.534Z,english_433.wav,0,0,1143,,,,,3,0.3,-63.95387597,0.31453116
FQC,156,3,2024-06-14T02:38:59.534Z,english_433.wav,0,0,1143,,,,,4,0.32341667,-68.91859183,1.4953114
FQC,157,3,2024-06-14T02:38:59.534Z,english_18.wav,0,0,1968,,,,,0,0,-61.9567004,0.45038722
FQC,157,3,2024-06-14T02:38:59.534Z,english_18.wav,0,0,1968,,,,,1,0.1,39.2027204,1.56185221
FQC,157,3,2024-06-14T02:38:59.534Z,english_18.wav,0,0,1968,,,,,2,0.2,-0.0626834214,0.80652275
FQC,157,3,2024-06-14T02:38:59.534Z,english_18.wav,0,0,1968,,,,,3,0.3,-72.2820301,0.39505163
FQC,157,3,2024-06-14T02:38:59.534Z,english_18.wav,0,0,1968,,,,,4,0.323416667,-52.9459242,0.50402069
FQC,158,3,2024-06-14T02:38:59.534Z,english_278.wav,0,0,1164,,,,,0,0,-49.55521664,0.96598769
FQC,158,3,2024-06-14T02:38:59.534Z,english_278.wav,0,0,1164,,,,,1,0.1,60.24292507,1.32709354
FQC,158,3,2024-06-14T02:38:59.534Z,english_278.wav,0,0,1164,,,,,2,0.2,34.32984246,0.84496159
FQC,158,3,2024-06-14T02:38:59.534Z,english_278.wav,0,0,1164,,,,,3,0.3,91.69210883,1.50157491
FQC,158,3,2024-06-14T02:38:59.534Z,english_278.wav,0,0,1164,,,,,4,0.32341667,78.84715657,1.85534648
FQC,159,3,2024-06-14T02:38:59.534Z,english_925.wav,0,0,967,,,,,0,0,-23.38055082,1.07708889
FQC,159,3,2024-06-14T02:38:59.534Z,english_925.wav,0,0,967,,,,,1,0.1,12.69502826,1.65606803
FQC,159,3,2024-06-14T02:38:59.534Z,english_925.wav,0,0,967,,,,,2,0.2,77.53463838,0.48648737
FQC,159,3,2024-06-14T02:38:59.534Z,english_925.wav,0,0,967,,,,,3,0.3,58.05299948,0.8939016
FQC,159,3,2024-06-14T02:38:59.534Z,english_925.wav,0,0,967,,,,,4,0.32341667,54.12197927,0.72199492
FQC,160,3,2024-06-14T02:38:59.534Z,english_189.wav,0,0,1173,,,,,0,0,-22.70456848,0.82906961
FQC,160,3,2024-06-14T02:38:59.534Z,english_189.wav,0,0,1173,,,,,1,0.1,-12.00888723,0.58408113
FQC,160,3,2024-06-14T02:38:59.534Z,english_189.wav,0,0,1173,,,,,2,0.2,15.14046376,0.19058783
FQC,160,3,2024-06-14T02:38:59.534Z,english_189.wav,0,0,1173,,,,,3,0.3,-19.30106293,0.57788611
FQC,160,3,2024-06-14T02:38:59.534Z,english_189.wav,0,0,1173,,,,,4,0.32341667,-20.57313834,0.32577637
FQC,161,3,2024-06-14T02:38:59.534Z,english_811.wav,0,1,1110,,,,,0,0,-51.03425556,1.55055496
FQC,161,3,2024-06-14T02:38:59.534Z,english_811.wav,0,1,1110,,,,,1,0.1,22.81695275,1.74830484
FQC,161,3,2024-06-14T02:38:59.534Z,english_811.wav,0,1,1110,,,,,2,0.2,73.06623682,1.24661488
FQC,161,3,2024-06-14T02:38:59.534Z,english_811.wav,0,1,1110,,,,,3,0.3,-9.17693151,0.09792889
FQC,161,3,2024-06-14T02:38:59.534Z,english_811.wav,0,1,1110,,,,,4,0.32341667,79.97760745,0.03735929
FQC,162,3,2024-06-14T02:38:59.534Z,english_479.wav,0,0,866,,,,,0,0,74.98268857,0.98081986
FQC,162,3,2024-06-14T02:38:59.534Z,english_479.wav,0,0,866,,,,,1,0.1,16.03290679,0.71187618
FQC,162,3,2024-06-14T02:38:59.534Z,english_479.wav,0,0,866,,,,,2,0.2,78.97784812,0.27050369
FQC,162,3,2024-06-14T02:38:59.534Z,english_479.wav,0,0,866,,,,,3,0.3,-15.63843586,1.15797271
FQC,162,3,2024-06-14T02:38:59.534Z,english_479.wav,0,0,866,,,,,4,0.32341667,42.04802753,1.51318639
FQC,163,3,2024-06-14T02:38:59.534Z,english_662.wav,0,0,893,,,,,0,0,-34.20942979,0.58122658
FQC,163,3,2024-06-14T02:38:59.534Z,english_662.wav,0,0,893,,,,,1,0.1,-64.9220759,0.35407044
FQC,163,3,2024-06-14T02:38:59.534Z,english_662.wav,0,0,893,,,,,2,0.2,-46.13526655,1.02300599
FQC,163,3,2024-06-14T02:38:59.534Z,english_662.wav,0,0,893,,,,,3,0.3,16.61128262,0.09808433
FQC,163,3,2024-06-14T02:38:59.534Z,english_662.wav,0,0,893,,,,,4,0.32341667,-72.42442326,0.71975239
FQC,164,3,2024-06-14T02:38:59.534Z,english_931.wav,0,1,902,,,,,0,0,-78.99767873,0.72988395
FQC,164,3,2024-06-14T02:38:59.534Z,english_931.wav,0,1,902,,,,,1,0.1,-34.67093685,1.40858855
FQC,164,3,2024-06-14T02:38:59.534Z,english_931.wav,0,1,902,,,,,2,0.2,2.25144273,1.82787629
FQC,164,3,2024-06-14T02:38:59.534Z,english_931.wav,0,1,902,,,,,3,0.3,-93.87287365,1.51045502
FQC,164,3,2024-06-14T02:38:59.534Z,english_931.wav,0,1,902,,,,,4,0.32341667,57.8562517,1.42241625
FQC,165,3,2024-06-14T02:38:59.534Z,english_750.wav,0,0,855,,,,,0,0,54.68497377,0.76623701
FQC,165,3,2024-06-14T02:38:59.534Z,english_750.wav,0,0,855,,,,,1,0.1,0.91792919,1.58478782
FQC,165,3,2024-06-14T02:38:59.534Z,english_750.wav,0,0,855,,,,,2,0.2,-67.69423006,0.74884996
FQC,165,3,2024-06-14T02:38:59.534Z,english_750.wav,0,0,855,,,,,3,0.3,20.92985273,0.15814923
FQC,165,3,2024-06-14T02:38:59.534Z,english_750.wav,0,0,855,,,,,4,0.32341667,-39.60032316,1.58320499
FQC,166,3,2024-06-14T02:38:59.534Z,english_430.wav,0,0,1058,,,,,0,0,72.23510535,0.8682214
FQC,166,3,2024-06-14T02:38:59.534Z,english_430.wav,0,0,1058,,,,,1,0.1,-9.56156918,0.26781202
FQC,166,3,2024-06-14T02:38:59.534Z,english_430.wav,0,0,1058,,,,,2,0.2,36.71559936,1.38873793
FQC,166,3,2024-06-14T02:38:59.534Z,english_430.wav,0,0,1058,,,,,3,0.3,-33.55254317,0.29076709
FQC,166,3,2024-06-14T02:38:59.534Z,english_430.wav,0,0,1058,,,,,4,0.32341667,-25.71861109,0.30869259
FQC,167,3,2024-06-14T02:38:59.534Z,english_902.wav,0,0,969,,,,,0,0,-4.27617126,0.16330526
FQC,167,3,2024-06-14T02:38:59.534Z,english_902.wav,0,0,969,,,,,1,0.1,-5.01127315,0.62492789
FQC,167,3,2024-06-14T02:38:59.534Z,english_902.wav,0,0,969,,,,,2,0.2,83.22080084,1.08638924
FQC,167,3,2024-06-14T02:38:59.534Z,english_902.wav,0,0,969,,,,,3,0.3,77.56473772,1.61764227
FQC,167,3,2024-06-14T02:38:59.534Z,english_902.wav,0,0,969,,,,,4,0.32341667,-13.02741535,1.72075309
FQC,168,3,2024-06-14T02:38:59.534Z,english_166.wav,0,1,907,,,,,0,0,37.27670025,1.42766663
FQC,168,3,2024-06-14T02:38:59.534Z,english_166.wav,0,1,907,,,,,1,0.1,34.38847046,0.72731767
FQC,168,3,2024-06-14T02:38:59.534Z,english_166.wav,0,1,907,,,,,2,0.2,49.91842175,1.80608275
FQC,168,3,2024-06-14T02:38:59.534Z,english_166.wav,0,1,907,,,,,3,0.3,56.9541748,1.91598421
FQC,168,3,2024-06-14T02:38:59.534Z,english_166.wav,0,1,907,,,,,4,0.32341667,10.97290623,1.21084105
FQC,169,3,2024-06-14T02:38:59.534Z,english_787.wav,0,0,663,,,,,0,0,57.99353047,1.96251481
FQC,169,3,2024-06-14T02:38:59.534Z,english_787.wav,0,0,663,,,,,1,0.1,-40.79525362,0.94444479
FQC,169,3,2024-06-14T02:38:59.534Z,english_787.wav,0,0,663,,,,,2,0.2,23.78072576,0.924778
FQC,169,3,2024-06-14T02:38:59.534Z,english_787.wav,0,0,663,,,,,3,0.3,72.96982422,0.31383508
FQC,169,3,2024-06-14T02:38:59.534Z,english_787.wav,0,0,663,,,,,4,0.32341667,53.76957631,0.68947425
FQC,170,3,2024-06-14T02:38:59.534Z,english_865.wav,0,0,816,,,,,0,0,57.45647421,1.64387024
FQC,170,3,2024-06-14T02:38:59.534Z,english_865.wav,0,0,816,,,,,1,0.1,-62.30549211,0.05749027
FQC,170,3,2024-06-14T02:38:59.534Z,english_865.wav,0,0,816,,,,,2,0.2,-35.85649312,0.09554773
FQC,170,3,2024-06-14T02:38:59.534Z,english_865.wav,0,0,816,,,,,3,0.3,55.00701181,1.62598434
FQC,170,3,2024-06-14T02:38:59.534Z,english_865.wav,0,0,816,,,,,4,0.32341667,-39.97662747,0.71232625
FQC,171,3,2024-06-14T02:38:59.534Z,english_695.wav,0,0,746,,,,,0,0,-74.02191529,1.19534619
FQC,171,3,2024-06-14T02:38:59.534Z,english_695.wav,0,0,746,,,,,1,0.1,54.28596986,0.93917139
FQC,171,3,2024-06-14T02:38:59.534Z,english_695.wav,0,0,746,,,,,2,0.2,-13.22196683,0.1241488
FQC,171,3,2024-06-14T02:38:59.534Z,english_695.wav,0,0,746,,,,,3,0.3,1.82272444,1.20091234
FQC,171,3,2024-06-14T02:38:59.534Z,english_695.wav,0,0,746,,,,,4,0.32341667,-11.74905262,0.46222147
FQC,172,3,2024-06-14T02:38:59.534Z,english_699.wav,0,0,724,,,,,0,0,-21.84844695,0.55007596
FQC,172,3,2024-06-14T02:38:59.534Z,english_699.wav,0,0,724,,,,,1,0.1,-20.61050251,0.98595355
FQC,172,3,2024-06-14T02:38:59.534Z,english_699.wav,0,0,724,,,,,2,0.2,-7.57046677,1.16771202
FQC,172,3,2024-06-14T02:38:59.534Z,english_699.wav,0,0,724,,,,,3,0.3,-90.18255135,0.60930532
FQC,172,3,2024-06-14T02:38:59.534Z,english_699.wav,0,0,724,,,,,4,0.32341667,-39.12532958,1.39260434
FQC,173,3,2024-06-14T02:38:59.534Z,english_616.wav,0,1,805,,,,,0,0,-71.12360497,0.83412473
FQC,173,3,2024-06-14T02:38:59.534Z,english_616.wav,0,1,805,,,,,1,0.1,55.35355355,1.49185731
FQC,173,3,2024-06-14T02:38:59.534Z,english_616.wav,0,1,805,,,,,2,0.2,-15.85026512,1.32170209
FQC,173,3,2024-06-14T02:38:59.534Z,english_616.wav,0,1,805,,,,,3,0.3,-22.60587367,0.90458331
FQC,173,3,2024-06-14T02:38:59.534Z,english_616.wav,0,1,805,,,,,4,0.32341667,-45.64131884,1.17134835
FQC,174,3,2024-06-14T02:38:59.534Z,english_782.wav,0,0,835,,,,,0,0,-98.70381677,1.47488053
FQC,174,3,2024-06-14T02:38:59.534Z,english_782.wav,0,0,835,,,,,1,0.1,-69.82387258,0.7270016
FQC,174,3,2024-06-14T02:38:59.534Z,english_782.wav,0,0,835,,,,,2,0.2,35.26613747,0.08778447
FQC,174,3,2024-06-14T02:38:59.534Z,english_782.wav,0,0,835,,,,,3,0.3,-81.38004879,1.16903228
FQC,174,3,2024-06-14T02:38:59.534Z,english_782.wav,0,0,835,,,,,4,0.32341667,-61.83067014,0.92727902
FQC,175,3,2024-06-14T02:38:59.534Z,english_670.wav,0,0,1043,,,,,0,0,64.75672565,1.5535903
FQC,175,3,2024-06-14T02:38:59.534Z,english_670.wav,0,0,1043,,,,,1,0.1,85.95156369,0.12522594
FQC,175,3,2024-06-14T02:38:59.534Z,english_670.wav,0,0,1043,,,,,2,0.2,-44.32949438,0.22842632
FQC,175,3,2024-06-14T02:38:59.534Z,english_670.wav,0,0,1043,,,,,3,0.3,22.57192219,0.17636502
FQC,175,3,2024-06-14T02:38:59.534Z,english_670.wav,0,0,1043,,,,,4,0.32341667,34.74005277,0.16208776
FQC,176,3,2024-06-14T02:38:59.534Z,english_824.wav,0,1,734,,,,,0,0,80.46503136,1.43025592
FQC,176,3,2024-06-14T02:38:59.534Z,english_824.wav,0,1,734,,,,,1,0.1,-48.668347,0.89138167
FQC,176,3,2024-06-14T02:38:59.534Z,english_824.wav,0,1,734,,,,,2,0.2,37.27765876,1.91281619
FQC,176,3,2024-06-14T02:38:59.534Z,english_824.wav,0,1,734,,,,,3,0.3,-91.29945309,0.71335031
FQC,176,3,2024-06-14T02:38:59.534Z,english_824.wav,0,1,734,,,,,4,0.32341667,14.46507007,0.89780818
FQC,177,3,2024-06-14T02:38:59.534Z,english_762.wav,0,0,771,,,,,0,0,-56.40971946,1.43822993
FQC,177,3,2024-06-14T02:38:59.534Z,english_762.wav,0,0,771,,,,,1,0.1,-9.09046034,1.11776807
FQC,177,3,2024-06-14T02:38:59.534Z,english_762.wav,0,0,771,,,,,2,0.2,20.98892014,0.71531135
FQC,177,3,2024-06-14T02:38:59.534Z,english_762.wav,0,0,771,,,,,3,0.3,-66.43296232,0.54997993
FQC,177,3,2024-06-14T02:38:59.534Z,english_762.wav,0,0,771,,,,,4,0.32341667,-91.78640069,0.26897274
FQC,178,3,2024-06-14T02:38:59.534Z,english_861.wav,0,1,851,,,,,0,0,-30.19921015,0.56503536
FQC,178,3,2024-06-14T02:38:59.534Z,english_861.wav,0,1,851,,,,,1,0.1,75.2433288,1.43622494
FQC,178,3,2024-06-14T02:38:59.534Z,english_861.wav,0,1,851,,,,,2,0.2,-49.47813624,1.73497671
FQC,178,3,2024-06-14T02:38:59.534Z,english_861.wav,0,1,851,,,,,3,0.3,86.59581665,0.70763908
FQC,178,3,2024-06-14T02:38:59.534Z,english_861.wav,0,1,851,,,,,4,0.32341667,58.40562581,1.29518241
FQC,179,3,2024-06-14T02:38:59.534Z,english_297.wav,0,0,767,,,,,0,0,43.84745313,1.28698197
FQC,179,3,2024-06-14T02:38:59.534Z,english_297.wav,0,0,767,,,,,1,0.1,-76.77337823,0.55126404
FQC,179,3,2024-06-14T02:38:59.534Z,english_297.wav,0,0,767,,,,,2,0.2,52.72097055,0.14077967
FQC,179,3,2024-06-14T02:38:59.534Z,english_297.wav,0,0,767,,,,,3,0.3,-53.36684977,1.29889067
FQC,179,3,2024-06-14T02:38:59.534Z,english_297.wav,0,0,767,,,,,4,0.32341667,81.15212258,1.30715655
FQC,180,3,2024-06-14T02:38:59.534Z,english_756.wav,0,1,745,,,,,0,0,-75.60908863,1.29894989
FQC,180,3,2024-06-14T02:38:59.534Z,english_756.wav,0,1,745,,,,,1,0.1,-4.30259752,0.61363685
FQC,180,3,2024-06-14T02:38:59.534Z,english_756.wav,0,1,745,,,,,2,0.2,20.94377522,1.41793961
FQC,180,3,2024-06-14T02:38:59.534Z,english_756.wav,0,1,745,,,,,3,0.3,10.45062111,1.73528762
FQC,180,3,2024-06-14T02:38:59.534Z,english_756.wav,0,1,745,,,,,4,0.32341667,86.50209298,0.4791473
FQC,181,3,2024-06-14T02:38:59.534Z,english_93.wav,0,0,988,,,,,0,0,-63.58558414,0.84265136
FQC,181,3,2024-06-14T02:38:59.534Z,english_93.wav,0,0,988,,,,,1,0.1,47.93190562,0.45441634
FQC,181,3,2024-06-14T02:38:59.534Z,english_93.wav,0,0,988,,,,,2,0.2,74.1463043,1.33476805
FQC,181,3,2024-06-14T02:38:59.534Z,english_93.wav,0,0,988,,,,,3,0.3,46.42515129,0.61821532
FQC,181,3,2024-06-14T02:38:59.534Z,english_93.wav,0,0,988,,,,,4,0.32341667,-19.17332826,1.94889868
FQC,182,3,2024-06-14T02:38:59.534Z,english_176.wav,0,0,796,,,,,0,0,-62.84257592,0.68193044
FQC,182,3,2024-06-14T02:38:59.534Z,english_176.wav,0,0,796,,,,,1,0.1,86.95506575,0.26950978
FQC,182,3,2024-06-14T02:38:59.534Z,english_176.wav,0,0,796,,,,,2,0.2,-28.0397163,0.45294908
FQC,182,3,2024-06-14T02:38:59.534Z,english_176.wav,0,0,796,,,,,3,0.3,-64.80124174,0.91353321
FQC,182,3,2024-06-14T02:38:59.534Z,english_176.wav,0,0,796,,,,,4,0.32341667,-98.66046935,1.10925614
FQC,183,3,2024-06-14T02:38:59.534Z,english_428.wav,0,1,1425,,,,,0,0,-98.34466569,1.83106884
FQC,183,3,2024-06-14T02:38:59.534Z,english_428.wav,0,1,1425,,,,,1,0.1,-10.51162175,1.34345266
FQC,183,3,2024-06-14T02:38:59.534Z,english_428.wav,0,1,1425,,,,,2,0.2,97.93427859,0.65853672
FQC,183,3,2024-06-14T02:38:59.534Z,english_428.wav,0,1,1425,,,,,3,0.3,35.61870537,1.28105878
FQC,183,3,2024-06-14T02:38:59.534Z,english_428.wav,0,1,1425,,,,,4,0.32341667,-12.49352836,0.15324236
FQC,184,3,2024-06-14T02:38:59.534Z,english_76.wav,0,0,1966,,,,,0,0,24.78743387,1.26829138
FQC,184,3,2024-06-14T02:38:59.534Z,english_76.wav,0,0,1966,,,,,1,0.1,-7.95135802,1.4446717
FQC,184,3,2024-06-14T02:38:59.534Z,english_76.wav,0,0,1966,,,,,2,0.2,-9.56689875,0.88177173
FQC,184,3,2024-06-14T02:38:59.534Z,english_76.wav,0,0,1966,,,,,3,0.3,-78.25819759,1.63003096
FQC,184,3,2024-06-14T02:38:59.534Z,english_76.wav,0,0,1966,,,,,4,0.32341667,26.4311908,1.97074408
FQC,185,3,2024-06-14T02:38:59.534Z,english_88.wav,0,0,796,,,,,0,0,26.55889683,1.3027014
FQC,185,3,2024-06-14T02:38:59.534Z,english_88.wav,0,0,796,,,,,1,0.1,31.00356365,0.67122251
FQC,185,3,2024-06-14T02:38:59.534Z,english_88.wav,0,0,796,,,,,2,0.2,-60.56468942,0.59704477
FQC,185,3,2024-06-14T02:38:59.534Z,english_88.wav,0,0,796,,,,,3,0.3,-56.53017227,1.68194373
FQC,185,3,2024-06-14T02:38:59.534Z,english_88.wav,0,0,796,,,,,4,0.32341667,-78.90279024,0.42277005
FQC,186,3,2024-06-14T02:38:59.534Z,english_637.wav,0,1,854,,,,,0,0,-1.71458324,1.21739028
FQC,186,3,2024-06-14T02:38:59.534Z,english_637.wav,0,1,854,,,,,1,0.1,-8.03758275,0.51882016
FQC,186,3,2024-06-14T02:38:59.534Z,english_637.wav,0,1,854,,,,,2,0.2,-8.49550443,1.63519413
FQC,186,3,2024-06-14T02:38:59.534Z,english_637.wav,0,1,854,,,,,3,0.3,-8.27727969,1.34863813
FQC,186,3,2024-06-14T02:38:59.534Z,english_637.wav,0,1,854,,,,,4,0.32341667,64.42471467,1.93003029
FQC,187,3,2024-06-14T02:38:59.534Z,english_845.wav,0,0,1163,,,,,0,0,-39.21264236,0.82761504
FQC,187,3,2024-06-14T02:38:59.534Z,english_845.wav,0,0,1163,,,,,1,0.1,99.78041888,0.53375751
FQC,187,3,2024-06-14T02:38:59.534Z,english_845.wav,0,0,1163,,,,,2,0.2,-59.29104422,1.24236426
FQC,187,3,2024-06-14T02:38:59.534Z,english_845.wav,0,0,1163,,,,,3,0.3,57.0409613,1.27736464
FQC,187,3,2024-06-14T02:38:59.534Z,english_845.wav,0,0,1163,,,,,4,0.32341667,-93.6361214,0.79024728
FQC,188,3,2024-06-14T02:38:59.534Z,english_790.wav,0,0,1294,,,,,0,0,51.18493756,0.66657869
FQC,188,3,2024-06-14T02:38:59.534Z,english_790.wav,0,0,1294,,,,,1,0.1,-64.70105349,0.91857876
FQC,188,3,2024-06-14T02:38:59.534Z,english_790.wav,0,0,1294,,,,,2,0.2,-90.57968214,1.26779222
FQC,188,3,2024-06-14T02:38:59.534Z,english_790.wav,0,0,1294,,,,,3,0.3,-94.64625917,1.54144859
FQC,188,3,2024-06-14T02:38:59.534Z,english_790.wav,0,0,1294,,,,,4,0.32341667,-38.85953331,1.32367104
FQC,189,3,2024-06-14T02:38:59.534Z,english_482.wav,0,0,1287,,,,,0,0,-75.58658814,1.00366747
FQC,189,3,2024-06-14T02:38:59.534Z,english_482.wav,0,0,1287,,,,,1,0.1,-97.88900999,1.47597923
FQC,189,3,2024-06-14T02:38:59.534Z,english_482.wav,0,0,1287,,,,,2,0.2,-4.46161317,1.10854794
FQC,189,3,2024-06-14T02:38:59.534Z,english_482.wav,0,0,1287,,,,,3,0.3,31.34799552,1.07348452
FQC,189,3,2024-06-14T02:38:59.534Z,english_482.wav,0,0,1287,,,,,4,0.32341667,-51.80510351,0.67390339
FQC,190,3,2024-06-14T02:38:59.534Z,english_556.wav,0,0,984,,,,,0,0,35.62658416,1.88481821
FQC,190,3,2024-06-14T02:38:59.534Z,english_556.wav,0,0,984,,,,,1,0.1,28.75181601,0.4023528
FQC,190,3,2024-06-14T02:38:59.534Z,english_556.wav,0,0,984,,,,,2,0.2,-2.62389444,1.49364055
FQC,190,3,2024-06-14T02:38:59.534Z,english_556.wav,0,0,984,,,,,3,0.3,64.03572584,1.54190039
FQC,190,3,2024-06-14T02:38:59.534Z,english_556.wav,0,0,984,,,,,4,0.32341667,72.79696002,0.53435232
FQC,191,3,2024-06-14T02:38:59.534Z,english_287.wav,0,0,825,,,,,0,0,-5.71925808,1.04112926
FQC,191,3,2024-06-14T02:38:59.534Z,english_287.wav,0,0,825,,,,,1,0.1,-94.78041007,0.35149142
FQC,191,3,2024-06-14T02:38:59.534Z,english_287.wav,0,0,825,,,,,2,0.2,8.34641368,0.86781598
FQC,191,3,2024-06-14T02:38:59.534Z,english_287.wav,0,0,825,,,,,3,0.3,36.34893025,1.897904
FQC,191,3,2024-06-14T02:38:59.534Z,english_287.wav,0,0,825,,,,,4,0.32341667,-22.47689594,0.5607403
FQC,192,3,2024-06-14T02:38:59.534Z,english_32.wav,0,1,1876,,,,,0,0,89.50349963,1.73304916
FQC,192,3,2024-06-14T02:38:59.534Z,english_32.wav,0,1,1876,,,,,1,0.1,51.51128255,0.02192789
FQC,192,3,2024-06-14T02:38:59.534Z,english_32.wav,0,1,1876,,,,,2,0.2,-58.32910347,1.71493142
FQC,192,3,2024-06-14T02:38:59.534Z,english_32.wav,0,1,1876,,,,,3,0.3,15.96172744,1.28451373
FQC,192,3,2024-06-14T02:38:59.534Z,english_32.wav,0,1,1876,,,,,4,0.32341667,84.40449403,1.22971166
FQC,193,3,2024-06-14T02:38:59.534Z,english_154.wav,0,1,1154,,,,,0,0,69.79630433,0.95543174
FQC,193,3,2024-06-14T02:38:59.534Z,english_154.wav,0,1,1154,,,,,1,0.1,-67.81892388,1.87835363
FQC,193,3,2024-06-14T02:38:59.534Z,english_154.wav,0,1,1154,,,,,2,0.2,14.97335347,1.19287874
FQC,193,3,2024-06-14T02:38:59.534Z,english_154.wav,0,1,1154,,,,,3,0.3,8.47433965,1.12321966
FQC,193,3,2024-06-14T02:38:59.534Z,english_154.wav,0,1,1154,,,,,4,0.32341667,32.47098569,0.66995817
FQC,194,3,2024-06-14T02:38:59.534Z,english_659.wav,0,0,696,,,,,0,0,-86.13080632,0.77157019
FQC,194,3,2024-06-14T02:38:59.534Z,english_659.wav,0,0,696,,,,,1,0.1,39.51927718,1.34569204
FQC,194,3,2024-06-14T02:38:59.534Z,english_659.wav,0,0,696,,,,,2,0.2,-6.22185106,0.71695874
FQC,194,3,2024-06-14T02:38:59.534Z,english_659.wav,0,0,696,,,,,3,0.3,5.64287294,1.04110125
FQC,194,3,2024-06-14T02:38:59.534Z,english_659.wav,0,0,696,,,,,4,0.32341667,47.08694279,1.84115141
FQC,195,3,2024-06-14T02:38:59.534Z,english_731.wav,0,1,723,,,,,0,0,91.74609406,0.2840719
FQC,195,3,2024-06-14T02:38:59.534Z,english_731.wav,0,1,723,,,,,1,0.1,96.5637085,1.75324284
FQC,195,3,2024-06-14T02:38:59.534Z,english_731.wav,0,1,723,,,,,2,0.2,-58.02596537,1.43086201
FQC,195,3,2024-06-14T02:38:59.534Z,english_731.wav,0,1,723,,,,,3,0.3,21.59328018,1.68336342
FQC,195,3,2024-06-14T02:38:59.534Z,english_731.wav,0,1,723,,,,,4,0.32341667,13.26044458,0.60031718
FQC,196,3,2024-06-14T02:38:59.534Z,english_137.wav,0,1,820,,,,,0,0,-81.54177422,0.16940048
FQC,196,3,2024-06-14T02:38:59.534Z,english_137.wav,0,1,820,,,,,1,0.1,48.50229113,1.33204053
FQC,196,3,2024-06-14T02:38:59.534Z,english_137.wav,0,1,820,,,,,2,0.2,-43.40912925,1.8593258
FQC,196,3,2024-06-14T02:38:59.534Z,english_137.wav,0,1,820,,,,,3,0.3,54.89578869,1.77805515
FQC,196,3,2024-06-14T02:38:59.534Z,english_137.wav,0,1,820,,,,,4,0.32341667,90.09778797,1.80981769
FQC,197,3,2024-06-14T02:38:59.534Z,english_115.wav,0,0,1077,,,,,0,0,-6.4126324,0.37361158
FQC,197,3,2024-06-14T02:38:59.534Z,english_115.wav,0,0,1077,,,,,1,0.1,-78.70213007,1.5865766
FQC,197,3,2024-06-14T02:38:59.534Z,english_115.wav,0,0,1077,,,,,2,0.2,-0.36204046,1.00360432
FQC,197,3,2024-06-14T02:38:59.534Z,english_115.wav,0,0,1077,,,,,3,0.3,-47.97210547,1.3933449
FQC,197,3,2024-06-14T02:38:59.534Z,english_115.wav,0,0,1077,,,,,4,0.32341667,3.06964689,1.1205092
FQC,198,3,2024-06-14T02:38:59.534Z,english_410.wav,0,0,1055,,,,,0,0,-74.64506245,0.42358098
FQC,198,3,2024-06-14T02:38:59.534Z,english_410.wav,0,0,1055,,,,,1,0.1,65.24401488,0.42526697
FQC,198,3,2024-06-14T02:38:59.534Z,english_410.wav,0,0,1055,,,,,2,0.2,-65.86471953,1.12385183
FQC,198,3,2024-06-14T02:38:59.534Z,english_410.wav,0,0,1055,,,,,3,0.3,98.79489106,0.33588109
FQC,198,3,2024-06-14T02:38:59.534Z,english_410.wav,0,0,1055,,,,,4,0.32341667,14.95451541,1.7246864
FQC,199,3,2024-06-14T02:38:59.534Z,english_956.wav,0,0,1209,,,,,0,0,-98.71257913,1.5828524
FQC,199,3,2024-06-14T02:38:59.534Z,english_956.wav,0,0,1209,,,,,1,0.1,-36.05702295,0.66985857
FQC,199,3,2024-06-14T02:38:59.534Z,english_956.wav,0,0,1209,,,,,2,0.2,-31.95582623,0.13798036
FQC,199,3,2024-06-14T02:38:59.534Z,english_956.wav,0,0,1209,,,,,3,0.3,-81.31295359,0.22663358
FQC,199,3,2024-06-14T02:38:59.534Z,english_956.wav,0,0,1209,,,,,4,0.32341667,45.09425789,0.54862974
FQC,200,4,2024-06-14T02:38:59.534Z,english_841.wav,0,1,1261,,,,,0,0,36.57834023,0.37598589
FQC,200,4,2024-06-14T02:38:59.534Z,english_841.wav,0,1,1261,,,,,1,0.1,81.12994836,1.18949815
FQC,200,4,2024-06-14T02:38:59.534Z,english_841.wav,0,1,1261,,,,,2,0.2,55.4316434,1.24219065
FQC,200,4,2024-06-14T02:38:59.534Z,english_841.wav,0,1,1261,,,,,3,0.3,-50.85387517,1.45004046
FQC,200,4,2024-06-14T02:38:59.534Z,english_841.wav,0,1,1261,,,,,4,0.32341667,-52.13814436,0.19253582
FQC,201,4,2024-06-14T02:38:59.534Z,english_943.wav,0,0,896,,,,,0,0,-88.39234314,0.07745413
FQC,201,4,2024-06-14T02:38:59.534Z,english_943.wav,0,0,896,,,,,1,0.1,65.27529367,1.64078214
FQC,201,4,2024-06-14T02:38:59.534Z,english_943.wav,0,0,896,,,,,2,0.2,-24.85222093,0.23468741
FQC,201,4,2024-06-14T02:38:59.534Z,english_943.wav,0,0,896,,,,,3,0.3,20.61002448,1.49561498
FQC,201,4,2024-06-14T02:38:59.534Z,english_943.wav,0,0,896,,,,,4,0.32341667,-74.64601709,1.25217021
FQC,202,4,2024-06-14T02:38:59.534Z,english_334.wav,0,1,701,,,,,0,0,-67.45724149,1.41500124
FQC,202,4,2024-06-14T02:38:59.534Z,english_334.wav,0,1,701,,,,,1,0.1,-9.29085452,1.93519658
FQC,202,4,2024-06-14T02:38:59.534Z,english_334.wav,0,1,701,,,,,2,0.2,-52.27794836,1.67457228
FQC,202,4,2024-06-14T02:38:59.534Z,english_334.wav,0,1,701,,,,,3,0.3,97.74689659,1.80763723
FQC,202,4,2024-06-14T02:38:59.534Z,english_334.wav,0,1,701,,,,,4,0.32341667,69.13668576,0.68141016
FQC,203,4,2024-06-14T02:38:59.534Z,english_708.wav,0,0,795,,,,,0,0,-27.19248895,0.74061838
FQC,203,4,2024-06-14T02:38:59.534Z,english_708.wav,0,0,795,,,,,1,0.1,84.25795725,1.13599963
FQC,203,4,2024-06-14T02:38:59.534Z,english_708.wav,0,0,795,,,,,2,0.2,-19.19551503,1.10086254
FQC,203,4,2024-06-14T02:38:59.534Z,english_708.wav,0,0,795,,,,,3,0.3,29.88012033,0.53054382
FQC,203,4,2024-06-14T02:38:59.534Z,english_708.wav,0,0,795,,,,,4,0.32341667,46.0858662,1.51974387
FQC,204,4,2024-06-14T02:38:59.534Z,english_450.wav,0,1,1185,,,,,0,0,32.75253923,1.28767958
FQC,204,4,2024-06-14T02:38:59.534Z,english_450.wav,0,1,1185,,,,,1,0.1,-95.51335644,1.7262356
FQC,204,4,2024-06-14T02:38:59.534Z,english_450.wav,0,1,1185,,,,,2,0.2,34.87485597,0.97567272
FQC,204,4,2024-06-14T02:38:59.534Z,english_450.wav,0,1,1185,,,,,3,0.3,-23.91285283,1.94639387
FQC,204,4,2024-06-14T02:38:59.534Z,english_450.wav,0,1,1185,,,,,4,0.32341667,-8.67870007,1.78958339
FQC,205,4,2024-06-14T02:38:59.534Z,english_799.wav,0,0,923,,,,,0,0,-48.4958847,1.9233431
FQC,205,4,2024-06-14T02:38:59.534Z,english_799.wav,0,0,923,,,,,1,0.1,-9.52866418,1.11542891
FQC,205,4,2024-06-14T02:38:59.534Z,english_799.wav,0,0,923,,,,,2,0.2,1.94176449,0.95865462
FQC,205,4,2024-06-14T02:38:59.534Z,english_799.wav,0,0,923,,,,,3,0.3,5.71676827,0.6616034
FQC,205,4,2024-06-14T02:38:59.534Z,english_799.wav,0,0,923,,,,,4,0.32341667,30.27282792,1.91183458
FQC,206,4,2024-06-14T02:38:59.534Z,english_54.wav,0,0,941,,,,,0,0,1.86764875,1.47639799
FQC,206,4,2024-06-14T02:38:59.534Z,english_54.wav,0,0,941,,,,,1,0.1,-1.78672474,1.92944336
FQC,206,4,2024-06-14T02:38:59.534Z,english_54.wav,0,0,941,,,,,2,0.2,-26.58380414,0.76292987
FQC,206,4,2024-06-14T02:38:59.534Z,english_54.wav,0,0,941,,,,,3,0.3,-2.56688864,1.78735236
FQC,206,4,2024-06-14T02:38:59.534Z,english_54.wav,0,0,941,,,,,4,0.32341667,-76.29238916,0.80366269
FQC,207,4,2024-06-14T02:38:59.534Z,english_179.wav,0,0,884,,,,,0,0,76.93131114,0.23318107
FQC,207,4,2024-06-14T02:38:59.534Z,english_179.wav,0,0,884,,,,,1,0.1,5.5150778,0.47080089
FQC,207,4,2024-06-14T02:38:59.534Z,english_179.wav,0,0,884,,,,,2,0.2,3.89208722,1.31062884
FQC,207,4,2024-06-14T02:38:59.534Z,english_179.wav,0,0,884,,,,,3,0.3,-8.47825544,0.27743795
FQC,207,4,2024-06-14T02:38:59.534Z,english_179.wav,0,0,884,,,,,4,0.32341667,50.73924617,0.83516241
FQC,208,4,2024-06-14T02:38:59.534Z,english_29.wav,0,0,761,,,,,0,0,-2.71310826,1.50712016
FQC,208,4,2024-06-14T02:38:59.534Z,english_29.wav,0,0,761,,,,,1,0.1,17.7201972,0.83644439
FQC,208,4,2024-06-14T02:38:59.534Z,english_29.wav,0,0,761,,,,,2,0.2,-20.17501418,0.76078741
FQC,208,4,2024-06-14T02:38:59.534Z,english_29.wav,0,0,761,,,,,3,0.3,12.48271646,0.17009155
FQC,208,4,2024-06-14T02:38:59.534Z,english_29.wav,0,0,761,,,,,4,0.32341667,29.42079391,1.26727983
FQC,209,4,2024-06-14T02:38:59.534Z,english_231.wav,0,1,796,,,,,0,0,-57.04299033,1.30850831
FQC,209,4,2024-06-14T02:38:59.534Z,english_231.wav,0,1,796,,,,,1,0.1,-61.30294243,1.06317761
FQC,209,4,2024-06-14T02:38:59.534Z,english_231.wav,0,1,796,,,,,2,0.2,11.10207427,1.86768436
FQC,209,4,2024-06-14T02:38:59.534Z,english_231.wav,0,1,796,,,,,3,0.3,-1.38864911,1.42169342
FQC,209,4,2024-06-14T02:38:59.534Z,english_231.wav,0,1,796,,,,,4,0.32341667,-40.37897369,0.58634772
FQC,210,4,2024-06-14T02:38:59.534Z,english_422.wav,0,0,734,,,,,0,0,-79.81150205,1.34332733
FQC,210,4,2024-06-14T02:38:59.534Z,english_422.wav,0,0,734,,,,,1,0.1,-2.02836706,0.77514932
FQC,210,4,2024-06-14T02:38:59.534Z,english_422.wav,0,0,734,,,,,2,0.2,-11.18998235,0.33214039
FQC,210,4,2024-06-14T02:38:59.534Z,english_422.wav,0,0,734,,,,,3,0.3,52.04958687,0.53493982
FQC,210,4,2024-06-14T02:38:59.534Z,english_422.wav,0,0,734,,,,,4,0.32341667,-63.48776447,0.45685022
FQC,211,4,2024-06-14T02:38:59.534Z,english_977.wav,0,0,787,,,,,0,0,63.46196139,0.87194913
FQC,211,4,2024-06-14T02:38:59.534Z,english_977.wav,0,0,787,,,,,1,0.1,-23.64022125,1.67919547
FQC,211,4,2024-06-14T02:38:59.534Z,english_977.wav,0,0,787,,,,,2,0.2,31.65242203,0.97011806
FQC,211,4,2024-06-14T02:38:59.534Z,english_977.wav,0,0,787,,,,,3,0.3,16.19881364,1.40431802
FQC,211,4,2024-06-14T02:38:59.534Z,english_977.wav,0,0,787,,,,,4,0.32341667,-33.08554183,1.02563167
FQC,212,4,2024-06-14T02:38:59.534Z,english_577.wav,0,0,783,,,,,0,0,0.60742169,1.18439754
FQC,212,4,2024-06-14T02:38:59.534Z,english_577.wav,0,0,783,,,,,1,0.1,-16.75441018,1.17258894
FQC,212,4,2024-06-14T02:38:59.534Z,english_577.wav,0,0,783,,,,,2,0.2,32.29278586,0.00832478
FQC,212,4,2024-06-14T02:38:59.534Z,english_577.wav,0,0,783,,,,,3,0.3,94.63733595,1.24529525
FQC,212,4,2024-06-14T02:38:59.534Z,english_577.wav,0,0,783,,,,,4,0.32341667,-75.78119055,0.24980342
FQC,213,4,2024-06-14T02:38:59.534Z,english_1.wav,0,0,1142,,,,,0,0,53.99031816,1.91732561
FQC,213,4,2024-06-14T02:38:59.534Z,english_1.wav,0,0,1142,,,,,1,0.1,-58.32145174,0.75352701
FQC,213,4,2024-06-14T02:38:59.534Z,english_1.wav,0,0,1142,,,,,2,0.2,-86.75659624,1.40297919
FQC,213,4,2024-06-14T02:38:59.534Z,english_1.wav,0,0,1142,,,,,3,0.3,-31.84945767,0.12157709
FQC,213,4,2024-06-14T02:38:59.534Z,english_1.wav,0,0,1142,,,,,4,0.32341667,-59.21997754,1.57687546
FQC,214,4,2024-06-14T02:38:59.534Z,english_880.wav,0,0,1288,,,,,0,0,3.17154152,0.81183988
