subj,trial,block,date,stim,stim_order,response,rt,age,english,language,sex,param_index,segment,pitch,stretch
LX,0,0,2024-06-14T09:07:41.043Z,english_608.wav,0,0,1891,21,5,Chinese,f,0,0,78.8022196,1.54390555
LX,0,0,2024-06-14T09:07:41.043Z,english_608.wav,0,0,1891,21,5,Chinese,f,1,0.1,59.03316834,1.36513164
LX,0,0,2024-06-14T09:07:41.043Z,english_608.wav,0,0,1891,21,5,Chinese,f,2,0.2,-13.94961152,0.78716897
LX,0,0,2024-06-14T09:07:41.043Z,english_608.wav,0,0,1891,21,5,Chinese,f,3,0.3,55.83681575,1.29889886
LX,0,0,2024-06-14T09:07:41.043Z,english_608.wav,0,0,1891,21,5,Chinese,f,4,0.32341667,-13.77656228,0.44376749
LX,1,0,2024-06-14T09:07:41.043Z,english_441.wav,0,0,1357,21,5,Chinese,f,0,0,-34.50722314,1.86415324
LX,1,0,2024-06-14T09:07:41.043Z,english_441.wav,0,0,1357,21,5,Chinese,f,1,0.1,91.55175756,1.34062972
LX,1,0,2024-06-14T09:07:41.043Z,english_441.wav,0,0,1357,21,5,Chinese,f,2,0.2,-74.07917439,1.20894222
LX,1,0,2024-06-14T09:07:41.043Z,english_441.wav,0,0,1357,21,5,Chinese,f,3,0.3,82.08396891,0.00248362
LX,1,0,2024-06-14T09:07:41.043Z,english_441.wav,0,0,1357,21,5,Chinese,f,4,0.32341667,13.2563292,0.67485278
LX,2,0,2024-06-14T09:07:41.043Z,english_64.wav,0,0,2724,21,5,Chinese,f,0,0,-77.75081389,0.01503168
LX,2,0,2024-06-14T09:07:41.043Z,english_64.wav,0,0,2724,21,5,Chinese,f,1,0.1,47.79712302,0.51971923
LX,2,0,2024-06-14T09:07:41.043Z,english_64.wav,0,0,2724,21,5,Chinese,f,2,0.2,-98.04646937,1.01128345
LX,2,0,2024-06-14T09:07:41.043Z,english_64.wav,0,0,2724,21,5,Chinese,f,3,0.3,-20.17707595,0.69563875
LX,2,0,2024-06-14T09:07:41.043Z,english_64.wav,0,0,2724,21,5,Chinese,f,4,0.32341667,53.05828969,1.51814807
LX,3,0,2024-06-14T09:07:41.043Z,english_289.wav,0,0,1226,21,5,Chinese,f,0,0,-55.97739865,0.95213243
LX,3,0,2024-06-14T09:07:41.043Z,english_289.wav,0,0,1226,21,5,Chinese,f,1,0.1,-97.9801122,0.81858491
LX,3,0,2024-06-14T09:07:41.043Z,english_289.wav,0,0,1226,21,5,Chinese,f,2,0.2,44.28679287,1.16094748
LX,3,0,2024-06-14T09:07:41.043Z,english_289.wav,0,0,1226,21,5,Chinese,f,3,0.3,-74.0895039,0.92969459
LX,3,0,2024-06-14T09:07:41.043Z,english_289.wav,0,0,1226,21,5,Chinese,f,4,0.32341667,-44.25845537,0.41504245
LX,4,0,2024-06-14T09:07:41.043Z,english_519.wav,0,1,2080,21,5,Chinese,f,0,0,-8.06946753,0.14231686
LX,4,0,2024-06-14T09:07:41.043Z,english_519.wav,0,1,2080,21,5,Chinese,f,1,0.1,-66.74939098,1.74411569
LX,4,0,2024-06-14T09:07:41.043Z,english_519.wav,0,1,2080,21,5,Chinese,f,2,0.2,-27.98142454,1.42967772
LX,4,0,2024-06-14T09:07:41.043Z,english_519.wav,0,1,2080,21,5,Chinese,f,3,0.3,-72.75033344,0.44774012
LX,4,0,2024-06-14T09:07:41.043Z,english_519.wav,0,1,2080,21,5,Chinese,f,4,0.32341667,-36.15575878,1.4256209
LX,5,0,2024-06-14T09:07:41.043Z,english_404.wav,0,1,1808,21,5,Chinese,f,0,0,32.93077195,0.80618862
LX,5,0,2024-06-14T09:07:41.043Z,english_404.wav,0,1,1808,21,5,Chinese,f,1,0.1,51.79107477,1.03327995
LX,5,0,2024-06-14T09:07:41.043Z,english_404.wav,0,1,1808,21,5,Chinese,f,2,0.2,-61.91466198,1.39590152
LX,5,0,2024-06-14T09:07:41.043Z,english_404.wav,0,1,1808,21,5,Chinese,f,3,0.3,33.45957754,1.8615638
LX,5,0,2024-06-14T09:07:41.043Z,english_404.wav,0,1,1808,21,5,Chinese,f,4,0.32341667,-82.23793256,0.80137687
LX,6,0,2024-06-14T09:07:41.043Z,english_756.wav,0,0,544,21,5,Chinese,f,0,0,-75.60908863,1.29894989
LX,6,0,2024-06-14T09:07:41.043Z,english_756.wav,0,0,544,21,5,Chinese,f,1,0.1,-4.30259752,0.61363685
LX,6,0,2024-06-14T09:07:41.043Z,english_756.wav,0,0,544,21,5,Chinese,f,2,0.2,20.94377522,1.41793961
LX,6,0,2024-06-14T09:07:41.043Z,english_756.wav,0,0,544,21,5,Chinese,f,3,0.3,10.45062111,1.73528762
LX,6,0,2024-06-14T09:07:41.043Z,english_756.wav,0,0,544,21,5,Chinese,f,4,0.32341667,86.50209298,0.4791473
LX,7,0,2024-06-14T09:07:41.043Z,english_648.wav,0,1,1032,21,5,Chinese,f,0,0,-36.17742204,0.57576188
LX,7,0,2024-06-14T09:07:41.043Z,english_648.wav,0,1,1032,21,5,Chinese,f,1,0.1,30.10697278,1.1310908
LX,7,0,2024-06-14T09:07:41.043Z,english_648.wav,0,1,1032,21,5,Chinese,f,2,0.2,-67.31320052,1.67112441
LX,7,0,2024-06-14T09:07:41.043Z,english_648.wav,0,1,1032,21,5,Chinese,f,3,0.3,-10.94597212,0.39641968
LX,7,0,2024-06-14T09:07:41.043Z,english_648.wav,0,1,1032,21,5,Chinese,f,4,0.32341667,72.59648235,1.93789316
LX,8,0,2024-06-14T09:07:41.043Z,english_796.wav,0,0,514,21,5,Chinese,f,0,0,57.52331511,0.93419081
LX,8,0,2024-06-14T09:07:41.043Z,english_796.wav,0,0,514,21,5,Chinese,f,1,0.1,-53.71774571,0.77950231
LX,8,0,2024-06-14T09:07:41.043Z,english_796.wav,0,0,514,21,5,Chinese,f,2,0.2,-36.09214461,0.54947466
LX,8,0,2024-06-14T09:07:41.043Z,english_796.wav,0,0,514,21,5,Chinese,f,3,0.3,23.21783142,1.69054841
LX,8,0,2024-06-14T09:07:41.043Z,english_796.wav,0,0,514,21,5,Chinese,f,4,0.32341667,-74.52171885,0.76047802
LX,9,0,2024-06-14T09:07:41.043Z,english_322.wav,0,1,1167,21,5,Chinese,f,0,0,-27.28438319,0.79345249
LX,9,0,2024-06-14T09:07:41.043Z,english_322.wav,0,1,1167,21,5,Chinese,f,1,0.1,-98.66999083,0.28651419
LX,9,0,2024-06-14T09:07:41.043Z,english_322.wav,0,1,1167,21,5,Chinese,f,2,0.2,-54.08694108,1.26482546
LX,9,0,2024-06-14T09:07:41.043Z,english_322.wav,0,1,1167,21,5,Chinese,f,3,0.3,-7.3933801,0.6947791
LX,9,0,2024-06-14T09:07:41.043Z,english_322.wav,0,1,1167,21,5,Chinese,f,4,0.32341667,72.49489683,0.74875353
LX,10,0,2024-06-14T09:07:41.043Z,english_88.wav,0,0,595,21,5,Chinese,f,0,0,26.55889683,1.3027014
LX,10,0,2024-06-14T09:07:41.043Z,english_88.wav,0,0,595,21,5,Chinese,f,1,0.1,31.00356365,0.67122251
LX,10,0,2024-06-14T09:07:41.043Z,english_88.wav,0,0,595,21,5,Chinese,f,2,0.2,-60.56468942,0.59704477
LX,10,0,2024-06-14T09:07:41.043Z,english_88.wav,0,0,595,21,5,Chinese,f,3,0.3,-56.53017227,1.68194373
LX,10,0,2024-06-14T09:07:41.043Z,english_88.wav,0,0,595,21,5,Chinese,f,4,0.32341667,-78.90279024,0.42277005
LX,11,0,2024-06-14T09:07:41.043Z,english_802.wav,0,1,374,21,5,Chinese,f,0,0,44.11448731,1.89082481
LX,11,0,2024-06-14T09:07:41.043Z,english_802.wav,0,1,374,21,5,Chinese,f,1,0.1,27.89646601,1.73386287
LX,11,0,2024-06-14T09:07:41.043Z,english_802.wav,0,1,374,21,5,Chinese,f,2,0.2,-19.36127415,0.34468699
LX,11,0,2024-06-14T09:07:41.043Z,english_802.wav,0,1,374,21,5,Chinese,f,3,0.3,15.17899174,0.39328876
LX,11,0,2024-06-14T09:07:41.043Z,english_802.wav,0,1,374,21,5,Chinese,f,4,0.32341667,-18.70870555,1.25778986
LX,12,0,2024-06-14T09:07:41.043Z,english_959.wav,0,0,421,21,5,Chinese,f,0,0,-78.42285057,1.71892855
LX,12,0,2024-06-14T09:07:41.043Z,english_959.wav,0,0,421,21,5,Chinese,f,1,0.1,6.44734251,1.96402951
LX,12,0,2024-06-14T09:07:41.043Z,english_959.wav,0,0,421,21,5,Chinese,f,2,0.2,20.74966326,0.26247596
LX,12,0,2024-06-14T09:07:41.043Z,english_959.wav,0,0,421,21,5,Chinese,f,3,0.3,-29.69680039,1.29464598
LX,12,0,2024-06-14T09:07:41.043Z,english_959.wav,0,0,421,21,5,Chinese,f,4,0.32341667,34.2282551,1.77868038
LX,13,0,2024-06-14T09:07:41.043Z,english_881.wav,0,1,247,21,5,Chinese,f,0,0,7.28069095,1.60234882
LX,13,0,2024-06-14T09:07:41.043Z,english_881.wav,0,1,247,21,5,Chinese,f,1,0.1,-64.28928902,0.93497238
LX,13,0,2024-06-14T09:07:41.043Z,english_881.wav,0,1,247,21,5,Chinese,f,2,0.2,-2.07432692,0.58107235
LX,13,0,2024-06-14T09:07:41.043Z,english_881.wav,0,1,247,21,5,Chinese,f,3,0.3,51.5536886,1.34691236
LX,13,0,2024-06-14T09:07:41.043Z,english_881.wav,0,1,247,21,5,Chinese,f,4,0.32341667,65.74991707,0.85842561
LX,14,0,2024-06-14T09:07:41.043Z,english_381.wav,0,1,945,21,5,Chinese,f,0,0,-64.83599525,0.77808766
LX,14,0,2024-06-14T09:07:41.043Z,english_381.wav,0,1,945,21,5,Chinese,f,1,0.1,97.61236857,1.62635576
LX,14,0,2024-06-14T09:07:41.043Z,english_381.wav,0,1,945,21,5,Chinese,f,2,0.2,-60.27157178,0.65298664
LX,14,0,2024-06-14T09:07:41.043Z,english_381.wav,0,1,945,21,5,Chinese,f,3,0.3,84.45732791,0.46881793
LX,14,0,2024-06-14T09:07:41.043Z,english_381.wav,0,1,945,21,5,Chinese,f,4,0.32341667,-87.53832291,1.22836965
LX,15,0,2024-06-14T09:07:41.043Z,english_49.wav,0,0,429,21,5,Chinese,f,0,0,-6.08822071,0.36436507
LX,15,0,2024-06-14T09:07:41.043Z,english_49.wav,0,0,429,21,5,Chinese,f,1,0.1,-56.0367764,1.66948988
LX,15,0,2024-06-14T09:07:41.043Z,english_49.wav,0,0,429,21,5,Chinese,f,2,0.2,-51.95657584,1.20554654
LX,15,0,2024-06-14T09:07:41.043Z,english_49.wav,0,0,429,21,5,Chinese,f,3,0.3,-59.93208112,0.31084089
LX,15,0,2024-06-14T09:07:41.043Z,english_49.wav,0,0,429,21,5,Chinese,f,4,0.32341667,-7.85847813,0.44223059
LX,16,0,2024-06-14T09:07:41.043Z,english_687.wav,0,1,616,21,5,Chinese,f,0,0,86.90300909,0.475784
LX,16,0,2024-06-14T09:07:41.043Z,english_687.wav,0,1,616,21,5,Chinese,f,1,0.1,79.71843279,0.40603367
LX,16,0,2024-06-14T09:07:41.043Z,english_687.wav,0,1,616,21,5,Chinese,f,2,0.2,34.94433723,0.97706088
LX,16,0,2024-06-14T09:07:41.043Z,english_687.wav,0,1,616,21,5,Chinese,f,3,0.3,-45.53952821,0.65075382
LX,16,0,2024-06-14T09:07:41.043Z,english_687.wav,0,1,616,21,5,Chinese,f,4,0.32341667,63.0204093,0.93918167
LX,17,0,2024-06-14T09:07:41.043Z,english_494.wav,0,1,795,21,5,Chinese,f,0,0,-3.60210196,0.92014098
LX,17,0,2024-06-14T09:07:41.043Z,english_494.wav,0,1,795,21,5,Chinese,f,1,0.1,-0.0120609558,1.08763174
LX,17,0,2024-06-14T09:07:41.043Z,english_494.wav,0,1,795,21,5,Chinese,f,2,0.2,-75.2550513,0.29239621
LX,17,0,2024-06-14T09:07:41.043Z,english_494.wav,0,1,795,21,5,Chinese,f,3,0.3,39.6800445,0.26357805
LX,17,0,2024-06-14T09:07:41.043Z,english_494.wav,0,1,795,21,5,Chinese,f,4,0.323416667,78.1977592,1.67878037
LX,18,0,2024-06-14T09:07:41.043Z,english_577.wav,0,1,395,21,5,Chinese,f,0,0,0.60742169,1.18439754
LX,18,0,2024-06-14T09:07:41.043Z,english_577.wav,0,1,395,21,5,Chinese,f,1,0.1,-16.75441018,1.17258894
LX,18,0,2024-06-14T09:07:41.043Z,english_577.wav,0,1,395,21,5,Chinese,f,2,0.2,32.29278586,0.00832478
LX,18,0,2024-06-14T09:07:41.043Z,english_577.wav,0,1,395,21,5,Chinese,f,3,0.3,94.63733595,1.24529525
LX,18,0,2024-06-14T09:07:41.043Z,english_577.wav,0,1,395,21,5,Chinese,f,4,0.32341667,-75.78119055,0.24980342
LX,19,0,2024-06-14T09:07:41.043Z,english_138.wav,0,1,483,21,5,Chinese,f,0,0,-79.80620147,0.37063564
LX,19,0,2024-06-14T09:07:41.043Z,english_138.wav,0,1,483,21,5,Chinese,f,1,0.1,-15.42889109,0.81801141
LX,19,0,2024-06-14T09:07:41.043Z,english_138.wav,0,1,483,21,5,Chinese,f,2,0.2,-88.31677226,0.0634538
LX,19,0,2024-06-14T09:07:41.043Z,english_138.wav,0,1,483,21,5,Chinese,f,3,0.3,26.6486106,1.85131452
LX,19,0,2024-06-14T09:07:41.043Z,english_138.wav,0,1,483,21,5,Chinese,f,4,0.32341667,-42.18894711,1.66059024
LX,20,0,2024-06-14T09:07:41.043Z,english_945.wav,0,1,2891,21,5,Chinese,f,0,0,63.16075011,1.8314946
LX,20,0,2024-06-14T09:07:41.043Z,english_945.wav,0,1,2891,21,5,Chinese,f,1,0.1,87.55520176,1.3737613
LX,20,0,2024-06-14T09:07:41.043Z,english_945.wav,0,1,2891,21,5,Chinese,f,2,0.2,-69.60467193,0.61639792
LX,20,0,2024-06-14T09:07:41.043Z,english_945.wav,0,1,2891,21,5,Chinese,f,3,0.3,-69.25530384,1.67239747
LX,20,0,2024-06-14T09:07:41.043Z,english_945.wav,0,1,2891,21,5,Chinese,f,4,0.32341667,-47.64160087,1.88344595
LX,21,0,2024-06-14T09:07:41.043Z,english_812.wav,0,0,308,21,5,Chinese,f,0,0,70.24469457,0.85599223
LX,21,0,2024-06-14T09:07:41.043Z,english_812.wav,0,0,308,21,5,Chinese,f,1,0.1,-27.51466786,0.39005905
LX,21,0,2024-06-14T09:07:41.043Z,english_812.wav,0,0,308,21,5,Chinese,f,2,0.2,60.55844263,1.43275618
LX,21,0,2024-06-14T09:07:41.043Z,english_812.wav,0,0,308,21,5,Chinese,f,3,0.3,52.93607499,1.34329238
LX,21,0,2024-06-14T09:07:41.043Z,english_812.wav,0,0,308,21,5,Chinese,f,4,0.32341667,74.74872052,0.96810209
LX,22,0,2024-06-14T09:07:41.043Z,english_570.wav,0,1,1010,21,5,Chinese,f,0,0,79.72420881,1.67561776
LX,22,0,2024-06-14T09:07:41.043Z,english_570.wav,0,1,1010,21,5,Chinese,f,1,0.1,-10.34227762,1.50139893
LX,22,0,2024-06-14T09:07:41.043Z,english_570.wav,0,1,1010,21,5,Chinese,f,2,0.2,18.32754659,1.41834695
LX,22,0,2024-06-14T09:07:41.043Z,english_570.wav,0,1,1010,21,5,Chinese,f,3,0.3,15.23919529,1.12876239
LX,22,0,2024-06-14T09:07:41.043Z,english_570.wav,0,1,1010,21,5,Chinese,f,4,0.32341667,-28.05357781,0.72546523
LX,23,0,2024-06-14T09:07:41.043Z,english_757.wav,0,0,326,21,5,Chinese,f,0,0,-71.37581006,0.57944866
LX,23,0,2024-06-14T09:07:41.043Z,english_757.wav,0,0,326,21,5,Chinese,f,1,0.1,-34.89028362,1.76833087
LX,23,0,2024-06-14T09:07:41.043Z,english_757.wav,0,0,326,21,5,Chinese,f,2,0.2,97.72444176,0.43040584
LX,23,0,2024-06-14T09:07:41.043Z,english_757.wav,0,0,326,21,5,Chinese,f,3,0.3,8.64322444,1.84780211
LX,23,0,2024-06-14T09:07:41.043Z,english_757.wav,0,0,326,21,5,Chinese,f,4,0.32341667,-59.15215987,0.21714226
LX,24,0,2024-06-14T09:07:41.043Z,english_173.wav,0,1,543,21,5,Chinese,f,0,0,11.1251521,0.60172576
LX,24,0,2024-06-14T09:07:41.043Z,english_173.wav,0,1,543,21,5,Chinese,f,1,0.1,94.22411188,0.44802145
LX,24,0,2024-06-14T09:07:41.043Z,english_173.wav,0,1,543,21,5,Chinese,f,2,0.2,89.44753043,1.27552997
LX,24,0,2024-06-14T09:07:41.043Z,english_173.wav,0,1,543,21,5,Chinese,f,3,0.3,74.30769895,1.09756939
LX,24,0,2024-06-14T09:07:41.043Z,english_173.wav,0,1,543,21,5,Chinese,f,4,0.32341667,-37.47679669,0.7907315
LX,25,0,2024-06-14T09:07:41.043Z,english_458.wav,0,0,331,21,5,Chinese,f,0,0,-49.69821038,0.39452057
LX,25,0,2024-06-14T09:07:41.043Z,english_458.wav,0,0,331,21,5,Chinese,f,1,0.1,-49.80647014,1.24604375
LX,25,0,2024-06-14T09:07:41.043Z,english_458.wav,0,0,331,21,5,Chinese,f,2,0.2,11.98261521,0.42272405
LX,25,0,2024-06-14T09:07:41.043Z,english_458.wav,0,0,331,21,5,Chinese,f,3,0.3,59.43319096,0.21259233
LX,25,0,2024-06-14T09:07:41.043Z,english_458.wav,0,0,331,21,5,Chinese,f,4,0.32341667,-34.5671642,1.13235362
LX,26,0,2024-06-14T09:07:41.043Z,english_691.wav,0,1,225,21,5,Chinese,f,0,0,28.79078449,1.07683297
LX,26,0,2024-06-14T09:07:41.043Z,english_691.wav,0,1,225,21,5,Chinese,f,1,0.1,99.1184909,1.07376069
LX,26,0,2024-06-14T09:07:41.043Z,english_691.wav,0,1,225,21,5,Chinese,f,2,0.2,-54.13985733,0.28522735
LX,26,0,2024-06-14T09:07:41.043Z,english_691.wav,0,1,225,21,5,Chinese,f,3,0.3,-85.36319246,0.85701066
LX,26,0,2024-06-14T09:07:41.043Z,english_691.wav,0,1,225,21,5,Chinese,f,4,0.32341667,-73.61621094,1.71165398
LX,27,0,2024-06-14T09:07:41.043Z,english_685.wav,0,0,165,21,5,Chinese,f,0,0,91.61032892,0.4504418
LX,27,0,2024-06-14T09:07:41.043Z,english_685.wav,0,0,165,21,5,Chinese,f,1,0.1,39.6206555,1.04279806
LX,27,0,2024-06-14T09:07:41.043Z,english_685.wav,0,0,165,21,5,Chinese,f,2,0.2,-3.19880539,1.33634651
LX,27,0,2024-06-14T09:07:41.043Z,english_685.wav,0,0,165,21,5,Chinese,f,3,0.3,-72.84721689,1.25094987
LX,27,0,2024-06-14T09:07:41.043Z,english_685.wav,0,0,165,21,5,Chinese,f,4,0.32341667,98.11411302,0.37726169
LX,28,0,2024-06-14T09:07:41.043Z,english_711.wav,0,0,363,21,5,Chinese,f,0,0,40.88671478,0.99029016
LX,28,0,2024-06-14T09:07:41.043Z,english_711.wav,0,0,363,21,5,Chinese,f,1,0.1,9.07407961,0.54320223
LX,28,0,2024-06-14T09:07:41.043Z,english_711.wav,0,0,363,21,5,Chinese,f,2,0.2,-23.01321115,1.60107
LX,28,0,2024-06-14T09:07:41.043Z,english_711.wav,0,0,363,21,5,Chinese,f,3,0.3,-10.85681813,1.574764
LX,28,0,2024-06-14T09:07:41.043Z,english_711.wav,0,0,363,21,5,Chinese,f,4,0.32341667,87.87195083,1.34863725
LX,29,0,2024-06-14T09:07:41.043Z,english_905.wav,0,0,556,21,5,Chinese,f,0,0,73.76258642,1.30259847
LX,29,0,2024-06-14T09:07:41.043Z,english_905.wav,0,0,556,21,5,Chinese,f,1,0.1,49.84186991,0.15786419
LX,29,0,2024-06-14T09:07:41.043Z,english_905.wav,0,0,556,21,5,Chinese,f,2,0.2,-84.55275191,0.47562292
LX,29,0,2024-06-14T09:07:41.043Z,english_905.wav,0,0,556,21,5,Chinese,f,3,0.3,70.45460649,1.69272047
LX,29,0,2024-06-14T09:07:41.043Z,english_905.wav,0,0,556,21,5,Chinese,f,4,0.32341667,-84.87734561,1.28570309
LX,30,0,2024-06-14T09:07:41.043Z,english_554.wav,0,1,248,21,5,Chinese,f,0,0,9.57607907,1.93967122
LX,30,0,2024-06-14T09:07:41.043Z,english_554.wav,0,1,248,21,5,Chinese,f,1,0.1,29.37398753,1.74360796
LX,30,0,2024-06-14T09:07:41.043Z,english_554.wav,0,1,248,21,5,Chinese,f,2,0.2,-58.71210794,0.37945994
LX,30,0,2024-06-14T09:07:41.043Z,english_554.wav,0,1,248,21,5,Chinese,f,3,0.3,-10.7927705,1.56347046
LX,30,0,2024-06-14T09:07:41.043Z,english_554.wav,0,1,248,21,5,Chinese,f,4,0.32341667,21.8128915,1.38248676
LX,31,0,2024-06-14T09:07:41.043Z,english_878.wav,0,0,348,21,5,Chinese,f,0,0,84.19501339,0.22676298
LX,31,0,2024-06-14T09:07:41.043Z,english_878.wav,0,0,348,21,5,Chinese,f,1,0.1,76.71234668,0.28568495
LX,31,0,2024-06-14T09:07:41.043Z,english_878.wav,0,0,348,21,5,Chinese,f,2,0.2,-74.61835319,0.74220819
LX,31,0,2024-06-14T09:07:41.043Z,english_878.wav,0,0,348,21,5,Chinese,f,3,0.3,83.79758366,1.72755148
LX,31,0,2024-06-14T09:07:41.043Z,english_878.wav,0,0,348,21,5,Chinese,f,4,0.32341667,-29.32243698,1.88938616
LX,32,0,2024-06-14T09:07:41.043Z,english_546.wav,0,1,369,21,5,Chinese,f,0,0,81.21590514,1.56657823
LX,32,0,2024-06-14T09:07:41.043Z,english_546.wav,0,1,369,21,5,Chinese,f,1,0.1,75.01018689,0.84038259
LX,32,0,2024-06-14T09:07:41.043Z,english_546.wav,0,1,369,21,5,Chinese,f,2,0.2,15.56226302,0.00684501
LX,32,0,2024-06-14T09:07:41.043Z,english_546.wav,0,1,369,21,5,Chinese,f,3,0.3,48.30886192,1.68157273
LX,32,0,2024-06-14T09:07:41.043Z,english_546.wav,0,1,369,21,5,Chinese,f,4,0.32341667,18.80923499,1.09409739
LX,33,0,2024-06-14T09:07:41.043Z,english_573.wav,0,0,371,21,5,Chinese,f,0,0,-46.41950257,0.98293374
LX,33,0,2024-06-14T09:07:41.043Z,english_573.wav,0,0,371,21,5,Chinese,f,1,0.1,-92.58424164,0.99885906
LX,33,0,2024-06-14T09:07:41.043Z,english_573.wav,0,0,371,21,5,Chinese,f,2,0.2,21.8123883,0.65769494
LX,33,0,2024-06-14T09:07:41.043Z,english_573.wav,0,0,371,21,5,Chinese,f,3,0.3,16.48756951,0.46238493
LX,33,0,2024-06-14T09:07:41.043Z,english_573.wav,0,0,371,21,5,Chinese,f,4,0.32341667,-54.36863361,0.72259175
LX,34,0,2024-06-14T09:07:41.043Z,english_358.wav,0,1,298,21,5,Chinese,f,0,0,-24.40280242,0.64702298
LX,34,0,2024-06-14T09:07:41.043Z,english_358.wav,0,1,298,21,5,Chinese,f,1,0.1,62.18566088,0.86836285
LX,34,0,2024-06-14T09:07:41.043Z,english_358.wav,0,1,298,21,5,Chinese,f,2,0.2,5.26675109,1.05826104
LX,34,0,2024-06-14T09:07:41.043Z,english_358.wav,0,1,298,21,5,Chinese,f,3,0.3,-31.91571391,1.98011631
LX,34,0,2024-06-14T09:07:41.043Z,english_358.wav,0,1,298,21,5,Chinese,f,4,0.32341667,27.35112364,0.35058307
LX,35,0,2024-06-14T09:07:41.043Z,english_468.wav,0,0,488,21,5,Chinese,f,0,0,-33.82586043,0.35164089
LX,35,0,2024-06-14T09:07:41.043Z,english_468.wav,0,0,488,21,5,Chinese,f,1,0.1,-42.55840131,0.20114733
LX,35,0,2024-06-14T09:07:41.043Z,english_468.wav,0,0,488,21,5,Chinese,f,2,0.2,-36.6492295,1.40729654
LX,35,0,2024-06-14T09:07:41.043Z,english_468.wav,0,0,488,21,5,Chinese,f,3,0.3,39.91321296,0.04300573
LX,35,0,2024-06-14T09:07:41.043Z,english_468.wav,0,0,488,21,5,Chinese,f,4,0.32341667,54.14936319,1.79642733
LX,36,0,2024-06-14T09:07:41.043Z,english_824.wav,0,0,836,21,5,Chinese,f,0,0,80.46503136,1.43025592
LX,36,0,2024-06-14T09:07:41.043Z,english_824.wav,0,0,836,21,5,Chinese,f,1,0.1,-48.668347,0.89138167
LX,36,0,2024-06-14T09:07:41.043Z,english_824.wav,0,0,836,21,5,Chinese,f,2,0.2,37.27765876,1.91281619
LX,36,0,2024-06-14T09:07:41.043Z,english_824.wav,0,0,836,21,5,Chinese,f,3,0.3,-91.29945309,0.71335031
LX,36,0,2024-06-14T09:07:41.043Z,english_824.wav,0,0,836,21,5,Chinese,f,4,0.32341667,14.46507007,0.89780818
LX,37,0,2024-06-14T09:07:41.043Z,english_339.wav,0,0,539,21,5,Chinese,f,0,0,-58.67599578,0.13141934
LX,37,0,2024-06-14T09:07:41.043Z,english_339.wav,0,0,539,21,5,Chinese,f,1,0.1,-13.30258388,0.16133177
LX,37,0,2024-06-14T09:07:41.043Z,english_339.wav,0,0,539,21,5,Chinese,f,2,0.2,-52.40820381,1.13500643
LX,37,0,2024-06-14T09:07:41.043Z,english_339.wav,0,0,539,21,5,Chinese,f,3,0.3,11.33062491,0.98717522
LX,37,0,2024-06-14T09:07:41.043Z,english_339.wav,0,0,539,21,5,Chinese,f,4,0.32341667,9.6385593,0.10332776
LX,38,0,2024-06-14T09:07:41.043Z,english_136.wav,0,1,410,21,5,Chinese,f,0,0,12.04186247,0.70846626
LX,38,0,2024-06-14T09:07:41.043Z,english_136.wav,0,1,410,21,5,Chinese,f,1,0.1,-56.97950323,1.3229906
LX,38,0,2024-06-14T09:07:41.043Z,english_136.wav,0,1,410,21,5,Chinese,f,2,0.2,32.29793995,0.25119571
LX,38,0,2024-06-14T09:07:41.043Z,english_136.wav,0,1,410,21,5,Chinese,f,3,0.3,40.05814767,1.28510755
LX,38,0,2024-06-14T09:07:41.043Z,english_136.wav,0,1,410,21,5,Chinese,f,4,0.32341667,61.40693937,1.20697433
LX,39,0,2024-06-14T09:07:41.043Z,english_766.wav,0,1,536,21,5,Chinese,f,0,0,-86.57417509,1.21737292
LX,39,0,2024-06-14T09:07:41.043Z,english_766.wav,0,1,536,21,5,Chinese,f,1,0.1,-67.75686223,1.61484435
LX,39,0,2024-06-14T09:07:41.043Z,english_766.wav,0,1,536,21,5,Chinese,f,2,0.2,74.21258041,1.47872362
LX,39,0,2024-06-14T09:07:41.043Z,english_766.wav,0,1,536,21,5,Chinese,f,3,0.3,65.20164426,1.81064247
LX,39,0,2024-06-14T09:07:41.043Z,english_766.wav,0,1,536,21,5,Chinese,f,4,0.32341667,-26.41371036,1.37776493
LX,40,0,2024-06-14T09:07:41.043Z,english_55.wav,0,1,416,21,5,Chinese,f,0,0,71.89255128,0.24931264
LX,40,0,2024-06-14T09:07:41.043Z,english_55.wav,0,1,416,21,5,Chinese,f,1,0.1,0.20692224,1.79813092
LX,40,0,2024-06-14T09:07:41.043Z,english_55.wav,0,1,416,21,5,Chinese,f,2,0.2,-68.61006599,0.71729895
LX,40,0,2024-06-14T09:07:41.043Z,english_55.wav,0,1,416,21,5,Chinese,f,3,0.3,-5.20952515,1.28733782
LX,40,0,2024-06-14T09:07:41.043Z,english_55.wav,0,1,416,21,5,Chinese,f,4,0.32341667,28.45991968,1.77061752
LX,41,0,2024-06-14T09:07:41.043Z,english_326.wav,0,0,259,21,5,Chinese,f,0,0,-13.70476372,1.64570887
LX,41,0,2024-06-14T09:07:41.043Z,english_326.wav,0,0,259,21,5,Chinese,f,1,0.1,47.7156259,0.91266102
LX,41,0,2024-06-14T09:07:41.043Z,english_326.wav,0,0,259,21,5,Chinese,f,2,0.2,23.24839736,0.36997562
LX,41,0,2024-06-14T09:07:41.043Z,english_326.wav,0,0,259,21,5,Chinese,f,3,0.3,67.08212267,1.96258237
LX,41,0,2024-06-14T09:07:41.043Z,english_326.wav,0,0,259,21,5,Chinese,f,4,0.32341667,78.79356023,1.01334204
LX,42,0,2024-06-14T09:07:41.043Z,english_547.wav,0,0,176,21,5,Chinese,f,0,0,30.48969685,1.04682874
LX,42,0,2024-06-14T09:07:41.043Z,english_547.wav,0,0,176,21,5,Chinese,f,1,0.1,-38.27442703,0.75017858
LX,42,0,2024-06-14T09:07:41.043Z,english_547.wav,0,0,176,21,5,Chinese,f,2,0.2,29.58442849,0.7996645
LX,42,0,2024-06-14T09:07:41.043Z,english_547.wav,0,0,176,21,5,Chinese,f,3,0.3,-4.27268154,1.92102789
LX,42,0,2024-06-14T09:07:41.043Z,english_547.wav,0,0,176,21,5,Chinese,f,4,0.32341667,58.02076364,1.77056707
LX,43,0,2024-06-14T09:07:41.043Z,english_276.wav,0,0,304,21,5,Chinese,f,0,0,-87.25523595,1.1918401
LX,43,0,2024-06-14T09:07:41.043Z,english_276.wav,0,0,304,21,5,Chinese,f,1,0.1,16.91650801,0.89399115
LX,43,0,2024-06-14T09:07:41.043Z,english_276.wav,0,0,304,21,5,Chinese,f,2,0.2,-40.09372932,0.89701806
LX,43,0,2024-06-14T09:07:41.043Z,english_276.wav,0,0,304,21,5,Chinese,f,3,0.3,3.19229046,1.98333504
LX,43,0,2024-06-14T09:07:41.043Z,english_276.wav,0,0,304,21,5,Chinese,f,4,0.32341667,18.84785296,1.85350493
LX,44,0,2024-06-14T09:07:41.043Z,english_539.wav,0,0,52,21,5,Chinese,f,0,0,-67.77604021,0.83598486
LX,44,0,2024-06-14T09:07:41.043Z,english_539.wav,0,0,52,21,5,Chinese,f,1,0.1,61.22104537,1.51877163
LX,44,0,2024-06-14T09:07:41.043Z,english_539.wav,0,0,52,21,5,Chinese,f,2,0.2,38.09257369,1.73578169
LX,44,0,2024-06-14T09:07:41.043Z,english_539.wav,0,0,52,21,5,Chinese,f,3,0.3,-20.76875757,0.52680037
LX,44,0,2024-06-14T09:07:41.043Z,english_539.wav,0,0,52,21,5,Chinese,f,4,0.32341667,-47.71444482,1.99278149
LX,45,0,2024-06-14T09:07:41.043Z,english_529.wav,0,0,794,21,5,Chinese,f,0,0,13.90759343,0.83001961
LX,45,0,2024-06-14T09:07:41.043Z,english_529.wav,0,0,794,21,5,Chinese,f,1,0.1,-33.526088,0.02518437
LX,45,0,2024-06-14T09:07:41.043Z,english_529.wav,0,0,794,21,5,Chinese,f,2,0.2,-34.32120589,1.61112877
LX,45,0,2024-06-14T09:07:41.043Z,english_529.wav,0,0,794,21,5,Chinese,f,3,0.3,-18.30112723,0.91948239
LX,45,0,2024-06-14T09:07:41.043Z,english_529.wav,0,0,794,21,5,Chinese,f,4,0.32341667,16.4796061,0.33204613
LX,46,0,2024-06-14T09:07:41.043Z,english_856.wav,0,1,191,21,5,Chinese,f,0,0,-44.08940674,1.51880133
LX,46,0,2024-06-14T09:07:41.043Z,english_856.wav,0,1,191,21,5,Chinese,f,1,0.1,-25.77644107,0.99524475
LX,46,0,2024-06-14T09:07:41.043Z,english_856.wav,0,1,191,21,5,Chinese,f,2,0.2,6.39263247,1.11391415
LX,46,0,2024-06-14T09:07:41.043Z,english_856.wav,0,1,191,21,5,Chinese,f,3,0.3,92.67536145,0.95575529
LX,46,0,2024-06-14T09:07:41.043Z,english_856.wav,0,1,191,21,5,Chinese,f,4,0.32341667,45.15991817,1.02944292
LX,47,0,2024-06-14T09:07:41.043Z,english_344.wav,0,1,455,21,5,Chinese,f,0,0,-81.18103124,1.80730522
LX,47,0,2024-06-14T09:07:41.043Z,english_344.wav,0,1,455,21,5,Chinese,f,1,0.1,-15.12635331,1.30606229
LX,47,0,2024-06-14T09:07:41.043Z,english_344.wav,0,1,455,21,5,Chinese,f,2,0.2,92.11407185,0.89739403
LX,47,0,2024-06-14T09:07:41.043Z,english_344.wav,0,1,455,21,5,Chinese,f,3,0.3,-26.28325028,0.17834637
LX,47,0,2024-06-14T09:07:41.043Z,english_344.wav,0,1,455,21,5,Chinese,f,4,0.32341667,-10.89648072,0.48618419
LX,48,0,2024-06-14T09:07:41.043Z,english_9.wav,0,0,228,21,5,Chinese,f,0,0,24.77706225,1.13145128
LX,48,0,2024-06-14T09:07:41.043Z,english_9.wav,0,0,228,21,5,Chinese,f,1,0.1,91.05524194,1.19326311
LX,48,0,2024-06-14T09:07:41.043Z,english_9.wav,0,0,228,21,5,Chinese,f,2,0.2,30.20964975,1.50029029
LX,48,0,2024-06-14T09:07:41.043Z,english_9.wav,0,0,228,21,5,Chinese,f,3,0.3,-69.66301283,1.4622179
LX,48,0,2024-06-14T09:07:41.043Z,english_9.wav,0,0,228,21,5,Chinese,f,4,0.32341667,-3.83240646,1.9316504
LX,49,0,2024-06-14T09:07:41.043Z,english_388.wav,0,1,309,21,5,Chinese,f,0,0,17.9760939,0.95494184
LX,49,0,2024-06-14T09:07:41.043Z,english_388.wav,0,1,309,21,5,Chinese,f,1,0.1,-43.00340989,0.10281418
LX,49,0,2024-06-14T09:07:41.043Z,english_388.wav,0,1,309,21,5,Chinese,f,2,0.2,-30.55059063,1.52164503
LX,49,0,2024-06-14T09:07:41.043Z,english_388.wav,0,1,309,21,5,Chinese,f,3,0.3,-92.55876504,1.24827519
LX,49,0,2024-06-14T09:07:41.043Z,english_388.wav,0,1,309,21,5,Chinese,f,4,0.32341667,-64.21175873,0.08180338
LX,50,1,2024-06-14T09:07:41.043Z,english_927.wav,0,1,2343,21,5,Chinese,f,0,0,81.66311017,1.3783001
LX,50,1,2024-06-14T09:07:41.043Z,english_927.wav,0,1,2343,21,5,Chinese,f,1,0.1,0.87570902,0.51323502
LX,50,1,2024-06-14T09:07:41.043Z,english_927.wav,0,1,2343,21,5,Chinese,f,2,0.2,-59.21619647,0.98265958
LX,50,1,2024-06-14T09:07:41.043Z,english_927.wav,0,1,2343,21,5,Chinese,f,3,0.3,-57.6787773,0.30790993
LX,50,1,2024-06-14T09:07:41.043Z,english_927.wav,0,1,2343,21,5,Chinese,f,4,0.32341667,-30.87043146,1.17222751
LX,51,1,2024-06-14T09:07:41.043Z,english_978.wav,0,0,785,21,5,Chinese,f,0,0,-73.1961296,0.69168228
LX,51,1,2024-06-14T09:07:41.043Z,english_978.wav,0,0,785,21,5,Chinese,f,1,0.1,-56.98452675,1.28516196
LX,51,1,2024-06-14T09:07:41.043Z,english_978.wav,0,0,785,21,5,Chinese,f,2,0.2,1.81288897,1.00851945
LX,51,1,2024-06-14T09:07:41.043Z,english_978.wav,0,0,785,21,5,Chinese,f,3,0.3,-17.93803526,0.05981722
LX,51,1,2024-06-14T09:07:41.043Z,english_978.wav,0,0,785,21,5,Chinese,f,4,0.32341667,-33.17886565,1.89275203
LX,52,1,2024-06-14T09:07:41.043Z,english_313.wav,0,1,966,21,5,Chinese,f,0,0,63.86599335,0.35841412
LX,52,1,2024-06-14T09:07:41.043Z,english_313.wav,0,1,966,21,5,Chinese,f,1,0.1,-55.89800258,0.35021793
LX,52,1,2024-06-14T09:07:41.043Z,english_313.wav,0,1,966,21,5,Chinese,f,2,0.2,90.86254046,1.77750413
LX,52,1,2024-06-14T09:07:41.043Z,english_313.wav,0,1,966,21,5,Chinese,f,3,0.3,0.53087649,1.87396687
LX,52,1,2024-06-14T09:07:41.043Z,english_313.wav,0,1,966,21,5,Chinese,f,4,0.32341667,-69.87913817,1.16176786
LX,53,1,2024-06-14T09:07:41.043Z,english_798.wav,0,0,239,21,5,Chinese,f,0,0,-16.40769998,1.85457914
LX,53,1,2024-06-14T09:07:41.043Z,english_798.wav,0,0,239,21,5,Chinese,f,1,0.1,3.00381127,1.50219522
LX,53,1,2024-06-14T09:07:41.043Z,english_798.wav,0,0,239,21,5,Chinese,f,2,0.2,-31.24410556,0.78751403
LX,53,1,2024-06-14T09:07:41.043Z,english_798.wav,0,0,239,21,5,Chinese,f,3,0.3,-53.27973877,1.17339142
LX,53,1,2024-06-14T09:07:41.043Z,english_798.wav,0,0,239,21,5,Chinese,f,4,0.32341667,91.43563813,1.30184409
LX,54,1,2024-06-14T09:07:41.043Z,english_413.wav,0,1,498,21,5,Chinese,f,0,0,-9.66675054,1.82887045
LX,54,1,2024-06-14T09:07:41.043Z,english_413.wav,0,1,498,21,5,Chinese,f,1,0.1,15.27504309,0.80668743
LX,54,1,2024-06-14T09:07:41.043Z,english_413.wav,0,1,498,21,5,Chinese,f,2,0.2,-94.93171401,0.90586838
LX,54,1,2024-06-14T09:07:41.043Z,english_413.wav,0,1,498,21,5,Chinese,f,3,0.3,-42.87800999,1.3937681
LX,54,1,2024-06-14T09:07:41.043Z,english_413.wav,0,1,498,21,5,Chinese,f,4,0.32341667,-63.39385234,0.34165264
LX,55,1,2024-06-14T09:07:41.043Z,english_1000.wav,0,0,273,21,5,Chinese,f,0,0,27.35321797,1.01803417
LX,55,1,2024-06-14T09:07:41.043Z,english_1000.wav,0,0,273,21,5,Chinese,f,1,0.1,42.13438871,0.4558176
LX,55,1,2024-06-14T09:07:41.043Z,english_1000.wav,0,0,273,21,5,Chinese,f,2,0.2,95.34760893,0.52251179
LX,55,1,2024-06-14T09:07:41.043Z,english_1000.wav,0,0,273,21,5,Chinese,f,3,0.3,-34.10168873,0.90165507
LX,55,1,2024-06-14T09:07:41.043Z,english_1000.wav,0,0,273,21,5,Chinese,f,4,0.32341667,64.49689477,0.38395199
LX,56,1,2024-06-14T09:07:41.043Z,english_956.wav,0,0,389,21,5,Chinese,f,0,0,-98.71257913,1.5828524
LX,56,1,2024-06-14T09:07:41.043Z,english_956.wav,0,0,389,21,5,Chinese,f,1,0.1,-36.05702295,0.66985857
LX,56,1,2024-06-14T09:07:41.043Z,english_956.wav,0,0,389,21,5,Chinese,f,2,0.2,-31.95582623,0.13798036
LX,56,1,2024-06-14T09:07:41.043Z,english_956.wav,0,0,389,21,5,Chinese,f,3,0.3,-81.31295359,0.22663358
LX,56,1,2024-06-14T09:07:41.043Z,english_956.wav,0,0,389,21,5,Chinese,f,4,0.32341667,45.09425789,0.54862974
LX,57,1,2024-06-14T09:07:41.043Z,english_991.wav,0,0,355,21,5,Chinese,f,0,0,-73.33762004,0.7279734
LX,57,1,2024-06-14T09:07:41.043Z,english_991.wav,0,0,355,21,5,Chinese,f,1,0.1,-90.08677455,0.374322
LX,57,1,2024-06-14T09:07:41.043Z,english_991.wav,0,0,355,21,5,Chinese,f,2,0.2,-98.84294029,0.98894361
LX,57,1,2024-06-14T09:07:41.043Z,english_991.wav,0,0,355,21,5,Chinese,f,3,0.3,59.84972986,1.07774369
LX,57,1,2024-06-14T09:07:41.043Z,english_991.wav,0,0,355,21,5,Chinese,f,4,0.32341667,21.03568625,0.51480923
LX,58,1,2024-06-14T09:07:41.043Z,english_106.wav,0,0,317,21,5,Chinese,f,0,0,-46.25200282,0.21046793
LX,58,1,2024-06-14T09:07:41.043Z,english_106.wav,0,0,317,21,5,Chinese,f,1,0.1,-83.38564728,1.42142181
LX,58,1,2024-06-14T09:07:41.043Z,english_106.wav,0,0,317,21,5,Chinese,f,2,0.2,68.00501759,0.86156936
LX,58,1,2024-06-14T09:07:41.043Z,english_106.wav,0,0,317,21,5,Chinese,f,3,0.3,49.15199267,0.65348811
LX,58,1,2024-06-14T09:07:41.043Z,english_106.wav,0,0,317,21,5,Chinese,f,4,0.32341667,-5.93966373,0.76273979
LX,59,1,2024-06-14T09:07:41.043Z,english_989.wav,0,0,680,21,5,Chinese,f,0,0,-51.1051603,1.00035195
LX,59,1,2024-06-14T09:07:41.043Z,english_989.wav,0,0,680,21,5,Chinese,f,1,0.1,-91.26717948,0.46124463
LX,59,1,2024-06-14T09:07:41.043Z,english_989.wav,0,0,680,21,5,Chinese,f,2,0.2,73.5145218,0.77735517
LX,59,1,2024-06-14T09:07:41.043Z,english_989.wav,0,0,680,21,5,Chinese,f,3,0.3,54.43703181,1.21549894
LX,59,1,2024-06-14T09:07:41.043Z,english_989.wav,0,0,680,21,5,Chinese,f,4,0.32341667,-36.95823638,0.33045291
LX,60,1,2024-06-14T09:07:41.043Z,english_115.wav,0,0,239,21,5,Chinese,f,0,0,-6.4126324,0.37361158
LX,60,1,2024-06-14T09:07:41.043Z,english_115.wav,0,0,239,21,5,Chinese,f,1,0.1,-78.70213007,1.5865766
LX,60,1,2024-06-14T09:07:41.043Z,english_115.wav,0,0,239,21,5,Chinese,f,2,0.2,-0.36204046,1.00360432
LX,60,1,2024-06-14T09:07:41.043Z,english_115.wav,0,0,239,21,5,Chinese,f,3,0.3,-47.97210547,1.3933449
LX,60,1,2024-06-14T09:07:41.043Z,english_115.wav,0,0,239,21,5,Chinese,f,4,0.32341667,3.06964689,1.1205092
LX,61,1,2024-06-14T09:07:41.043Z,english_482.wav,0,0,247,21,5,Chinese,f,0,0,-75.58658814,1.00366747
LX,61,1,2024-06-14T09:07:41.043Z,english_482.wav,0,0,247,21,5,Chinese,f,1,0.1,-97.88900999,1.47597923
LX,61,1,2024-06-14T09:07:41.043Z,english_482.wav,0,0,247,21,5,Chinese,f,2,0.2,-4.46161317,1.10854794
LX,61,1,2024-06-14T09:07:41.043Z,english_482.wav,0,0,247,21,5,Chinese,f,3,0.3,31.34799552,1.07348452
LX,61,1,2024-06-14T09:07:41.043Z,english_482.wav,0,0,247,21,5,Chinese,f,4,0.32341667,-51.80510351,0.67390339
LX,62,1,2024-06-14T09:07:41.043Z,english_251.wav,0,0,218,21,5,Chinese,f,0,0,-35.26640223,1.59441442
LX,62,1,2024-06-14T09:07:41.043Z,english_251.wav,0,0,218,21,5,Chinese,f,1,0.1,-82.14936791,1.21410308
LX,62,1,2024-06-14T09:07:41.043Z,english_251.wav,0,0,218,21,5,Chinese,f,2,0.2,39.53587687,0.89125894
LX,62,1,2024-06-14T09:07:41.043Z,english_251.wav,0,0,218,21,5,Chinese,f,3,0.3,-75.44024907,0.14763688
LX,62,1,2024-06-14T09:07:41.043Z,english_251.wav,0,0,218,21,5,Chinese,f,4,0.32341667,26.94148116,1.71797298
LX,63,1,2024-06-14T09:07:41.043Z,english_759.wav,0,0,267,21,5,Chinese,f,0,0,22.56482953,0.32974928
LX,63,1,2024-06-14T09:07:41.043Z,english_759.wav,0,0,267,21,5,Chinese,f,1,0.1,-26.57515882,0.74944663
LX,63,1,2024-06-14T09:07:41.043Z,english_759.wav,0,0,267,21,5,Chinese,f,2,0.2,58.52096087,0.73148935
LX,63,1,2024-06-14T09:07:41.043Z,english_759.wav,0,0,267,21,5,Chinese,f,3,0.3,67.88336338,0.69769471
LX,63,1,2024-06-14T09:07:41.043Z,english_759.wav,0,0,267,21,5,Chinese,f,4,0.32341667,-98.7178367,1.46371733
LX,64,1,2024-06-14T09:07:41.043Z,english_772.wav,0,1,690,21,5,Chinese,f,0,0,-76.23750274,0.54712598
LX,64,1,2024-06-14T09:07:41.043Z,english_772.wav,0,1,690,21,5,Chinese,f,1,0.1,54.42820472,1.66698734
LX,64,1,2024-06-14T09:07:41.043Z,english_772.wav,0,1,690,21,5,Chinese,f,2,0.2,26.41325181,1.761061
LX,64,1,2024-06-14T09:07:41.043Z,english_772.wav,0,1,690,21,5,Chinese,f,3,0.3,14.10037165,1.80899506
LX,64,1,2024-06-14T09:07:41.043Z,english_772.wav,0,1,690,21,5,Chinese,f,4,0.32341667,-75.83605273,1.29882268
LX,65,1,2024-06-14T09:07:41.043Z,english_562.wav,0,0,223,21,5,Chinese,f,0,0,-40.22672309,0.64031882
LX,65,1,2024-06-14T09:07:41.043Z,english_562.wav,0,0,223,21,5,Chinese,f,1,0.1,77.961849,0.7637006
LX,65,1,2024-06-14T09:07:41.043Z,english_562.wav,0,0,223,21,5,Chinese,f,2,0.2,25.52463525,0.87632482
LX,65,1,2024-06-14T09:07:41.043Z,english_562.wav,0,0,223,21,5,Chinese,f,3,0.3,84.62788358,0.98972612
LX,65,1,2024-06-14T09:07:41.043Z,english_562.wav,0,0,223,21,5,Chinese,f,4,0.32341667,-53.67427145,0.74010285
LX,66,1,2024-06-14T09:07:41.043Z,english_178.wav,0,1,233,21,5,Chinese,f,0,0,-14.41838744,0.71193749
LX,66,1,2024-06-14T09:07:41.043Z,english_178.wav,0,1,233,21,5,Chinese,f,1,0.1,64.59665955,0.54024543
LX,66,1,2024-06-14T09:07:41.043Z,english_178.wav,0,1,233,21,5,Chinese,f,2,0.2,-96.76492712,1.78065704
LX,66,1,2024-06-14T09:07:41.043Z,english_178.wav,0,1,233,21,5,Chinese,f,3,0.3,-50.00654232,1.40559917
LX,66,1,2024-06-14T09:07:41.043Z,english_178.wav,0,1,233,21,5,Chinese,f,4,0.32341667,42.56426636,0.99785593
LX,67,1,2024-06-14T09:07:41.043Z,english_793.wav,0,1,415,21,5,Chinese,f,0,0,-3.59370976,0.95327953
LX,67,1,2024-06-14T09:07:41.043Z,english_793.wav,0,1,415,21,5,Chinese,f,1,0.1,-92.44382947,0.8890172
LX,67,1,2024-06-14T09:07:41.043Z,english_793.wav,0,1,415,21,5,Chinese,f,2,0.2,-89.84008222,0.47547445
LX,67,1,2024-06-14T09:07:41.043Z,english_793.wav,0,1,415,21,5,Chinese,f,3,0.3,96.09352514,1.09208031
LX,67,1,2024-06-14T09:07:41.043Z,english_793.wav,0,1,415,21,5,Chinese,f,4,0.32341667,42.94050617,0.63383093
LX,68,1,2024-06-14T09:07:41.043Z,english_213.wav,0,1,278,21,5,Chinese,f,0,0,-29.91874444,1.42031243
LX,68,1,2024-06-14T09:07:41.043Z,english_213.wav,0,1,278,21,5,Chinese,f,1,0.1,41.64704809,0.59218852
LX,68,1,2024-06-14T09:07:41.043Z,english_213.wav,0,1,278,21,5,Chinese,f,2,0.2,-87.11075848,1.10576613
LX,68,1,2024-06-14T09:07:41.043Z,english_213.wav,0,1,278,21,5,Chinese,f,3,0.3,-61.54877495,0.09529021
LX,68,1,2024-06-14T09:07:41.043Z,english_213.wav,0,1,278,21,5,Chinese,f,4,0.32341667,-34.29429643,1.15583312
LX,69,1,2024-06-14T09:07:41.043Z,english_642.wav,0,0,381,21,5,Chinese,f,0,0,31.40946548,0.21393667
LX,69,1,2024-06-14T09:07:41.043Z,english_642.wav,0,0,381,21,5,Chinese,f,1,0.1,4.73018903,1.31302396
LX,69,1,2024-06-14T09:07:41.043Z,english_642.wav,0,0,381,21,5,Chinese,f,2,0.2,85.2390777,0.95537026
LX,69,1,2024-06-14T09:07:41.043Z,english_642.wav,0,0,381,21,5,Chinese,f,3,0.3,-59.81643451,1.00167733
LX,69,1,2024-06-14T09:07:41.043Z,english_642.wav,0,0,381,21,5,Chinese,f,4,0.32341667,-42.92691369,0.89750156
LX,70,1,2024-06-14T09:07:41.043Z,english_120.wav,0,1,426,21,5,Chinese,f,0,0,55.2306484,0.43658612
LX,70,1,2024-06-14T09:07:41.043Z,english_120.wav,0,1,426,21,5,Chinese,f,1,0.1,82.00530973,0.03999251
LX,70,1,2024-06-14T09:07:41.043Z,english_120.wav,0,1,426,21,5,Chinese,f,2,0.2,-5.84837635,0.80827096
LX,70,1,2024-06-14T09:07:41.043Z,english_120.wav,0,1,426,21,5,Chinese,f,3,0.3,66.20489525,1.78669421
LX,70,1,2024-06-14T09:07:41.043Z,english_120.wav,0,1,426,21,5,Chinese,f,4,0.32341667,-73.22302923,1.04341795
LX,71,1,2024-06-14T09:07:41.043Z,english_427.wav,0,0,225,21,5,Chinese,f,0,0,38.10585738,0.62221409
LX,71,1,2024-06-14T09:07:41.043Z,english_427.wav,0,0,225,21,5,Chinese,f,1,0.1,75.26959407,1.20145201
LX,71,1,2024-06-14T09:07:41.043Z,english_427.wav,0,0,225,21,5,Chinese,f,2,0.2,-92.48152235,0.18894815
LX,71,1,2024-06-14T09:07:41.043Z,english_427.wav,0,0,225,21,5,Chinese,f,3,0.3,-38.24940669,0.36527681
LX,71,1,2024-06-14T09:07:41.043Z,english_427.wav,0,0,225,21,5,Chinese,f,4,0.32341667,-41.67637111,0.02898627
LX,72,1,2024-06-14T09:07:41.043Z,english_379.wav,0,0,105,21,5,Chinese,f,0,0,30.14616912,1.43961489
LX,72,1,2024-06-14T09:07:41.043Z,english_379.wav,0,0,105,21,5,Chinese,f,1,0.1,-79.51193423,1.4219763
LX,72,1,2024-06-14T09:07:41.043Z,english_379.wav,0,0,105,21,5,Chinese,f,2,0.2,7.34860539,0.62633101
LX,72,1,2024-06-14T09:07:41.043Z,english_379.wav,0,0,105,21,5,Chinese,f,3,0.3,-43.99342265,1.13621958
LX,72,1,2024-06-14T09:07:41.043Z,english_379.wav,0,0,105,21,5,Chinese,f,4,0.32341667,37.72881761,1.35387794
LX,73,1,2024-06-14T09:07:41.043Z,english_990.wav,0,0,346,21,5,Chinese,f,0,0,-17.98511021,0.6190444
LX,73,1,2024-06-14T09:07:41.043Z,english_990.wav,0,0,346,21,5,Chinese,f,1,0.1,-90.3005676,0.77548775
LX,73,1,2024-06-14T09:07:41.043Z,english_990.wav,0,0,346,21,5,Chinese,f,2,0.2,4.37005684,0.55013224
LX,73,1,2024-06-14T09:07:41.043Z,english_990.wav,0,0,346,21,5,Chinese,f,3,0.3,83.93705034,0.66784051
LX,73,1,2024-06-14T09:07:41.043Z,english_990.wav,0,0,346,21,5,Chinese,f,4,0.32341667,-36.57803625,0.32384409
LX,74,1,2024-06-14T09:07:41.043Z,english_26.wav,0,0,154,21,5,Chinese,f,0,0,54.38966875,1.86679487
LX,74,1,2024-06-14T09:07:41.043Z,english_26.wav,0,0,154,21,5,Chinese,f,1,0.1,0.3460174,0.79762949
LX,74,1,2024-06-14T09:07:41.043Z,english_26.wav,0,0,154,21,5,Chinese,f,2,0.2,-72.33258957,0.93682052
LX,74,1,2024-06-14T09:07:41.043Z,english_26.wav,0,0,154,21,5,Chinese,f,3,0.3,67.09142092,1.42469209
LX,74,1,2024-06-14T09:07:41.043Z,english_26.wav,0,0,154,21,5,Chinese,f,4,0.32341667,16.00565239,1.17807545
LX,75,1,2024-06-14T09:07:41.043Z,english_923.wav,0,1,544,21,5,Chinese,f,0,0,-0.59122564,1.19594648
LX,75,1,2024-06-14T09:07:41.043Z,english_923.wav,0,1,544,21,5,Chinese,f,1,0.1,-5.70499959,1.05419104
LX,75,1,2024-06-14T09:07:41.043Z,english_923.wav,0,1,544,21,5,Chinese,f,2,0.2,-29.88927864,0.73000078
LX,75,1,2024-06-14T09:07:41.043Z,english_923.wav,0,1,544,21,5,Chinese,f,3,0.3,-82.02126299,1.36390543
LX,75,1,2024-06-14T09:07:41.043Z,english_923.wav,0,1,544,21,5,Chinese,f,4,0.32341667,16.89967319,1.13865732
LX,76,1,2024-06-14T09:07:41.043Z,english_980.wav,0,0,1861,21,5,Chinese,f,0,0,-32.33629208,1.21290567
LX,76,1,2024-06-14T09:07:41.043Z,english_980.wav,0,0,1861,21,5,Chinese,f,1,0.1,-4.4140807,0.22350007
LX,76,1,2024-06-14T09:07:41.043Z,english_980.wav,0,0,1861,21,5,Chinese,f,2,0.2,76.81412515,1.68078519
LX,76,1,2024-06-14T09:07:41.043Z,english_980.wav,0,0,1861,21,5,Chinese,f,3,0.3,-16.24877133,0.16816052
LX,76,1,2024-06-14T09:07:41.043Z,english_980.wav,0,0,1861,21,5,Chinese,f,4,0.32341667,-26.44128118,1.48722631
LX,77,1,2024-06-14T09:07:41.043Z,english_765.wav,0,1,579,21,5,Chinese,f,0,0,-52.71695997,0.24697616
LX,77,1,2024-06-14T09:07:41.043Z,english_765.wav,0,1,579,21,5,Chinese,f,1,0.1,-0.72548599,1.34458244
LX,77,1,2024-06-14T09:07:41.043Z,english_765.wav,0,1,579,21,5,Chinese,f,2,0.2,-25.46106624,0.2833524
LX,77,1,2024-06-14T09:07:41.043Z,english_765.wav,0,1,579,21,5,Chinese,f,3,0.3,-15.36834083,0.99517128
LX,77,1,2024-06-14T09:07:41.043Z,english_765.wav,0,1,579,21,5,Chinese,f,4,0.32341667,-34.08212533,0.81265208
LX,78,1,2024-06-14T09:07:41.043Z,english_635.wav,0,1,499,21,5,Chinese,f,0,0,27.7169436,1.98702335
LX,78,1,2024-06-14T09:07:41.043Z,english_635.wav,0,1,499,21,5,Chinese,f,1,0.1,-44.8292656,1.27737447
LX,78,1,2024-06-14T09:07:41.043Z,english_635.wav,0,1,499,21,5,Chinese,f,2,0.2,67.97685769,0.57401651
LX,78,1,2024-06-14T09:07:41.043Z,english_635.wav,0,1,499,21,5,Chinese,f,3,0.3,82.0264667,0.46134276
LX,78,1,2024-06-14T09:07:41.043Z,english_635.wav,0,1,499,21,5,Chinese,f,4,0.32341667,84.34985253,0.71235155
LX,79,1,2024-06-14T09:07:41.043Z,english_247.wav,0,0,151,21,5,Chinese,f,0,0,48.65693284,0.25539499
LX,79,1,2024-06-14T09:07:41.043Z,english_247.wav,0,0,151,21,5,Chinese,f,1,0.1,-27.64572099,1.09429421
LX,79,1,2024-06-14T09:07:41.043Z,english_247.wav,0,0,151,21,5,Chinese,f,2,0.2,-20.19701808,0.88115619
LX,79,1,2024-06-14T09:07:41.043Z,english_247.wav,0,0,151,21,5,Chinese,f,3,0.3,-10.74442668,1.97859338
LX,79,1,2024-06-14T09:07:41.043Z,english_247.wav,0,0,151,21,5,Chinese,f,4,0.32341667,91.42432082,0.10638235
LX,80,1,2024-06-14T09:07:41.043Z,english_755.wav,0,0,519,21,5,Chinese,f,0,0,-15.85533995,0.06987403
LX,80,1,2024-06-14T09:07:41.043Z,english_755.wav,0,0,519,21,5,Chinese,f,1,0.1,-97.95934782,0.83204773
LX,80,1,2024-06-14T09:07:41.043Z,english_755.wav,0,0,519,21,5,Chinese,f,2,0.2,-5.14559719,1.06816443
LX,80,1,2024-06-14T09:07:41.043Z,english_755.wav,0,0,519,21,5,Chinese,f,3,0.3,32.74087849,1.42856986
LX,80,1,2024-06-14T09:07:41.043Z,english_755.wav,0,0,519,21,5,Chinese,f,4,0.32341667,-56.93437429,0.58130438
LX,81,1,2024-06-14T09:07:41.043Z,english_231.wav,0,0,37,21,5,Chinese,f,0,0,-57.04299033,1.30850831
LX,81,1,2024-06-14T09:07:41.043Z,english_231.wav,0,0,37,21,5,Chinese,f,1,0.1,-61.30294243,1.06317761
LX,81,1,2024-06-14T09:07:41.043Z,english_231.wav,0,0,37,21,5,Chinese,f,2,0.2,11.10207427,1.86768436
LX,81,1,2024-06-14T09:07:41.043Z,english_231.wav,0,0,37,21,5,Chinese,f,3,0.3,-1.38864911,1.42169342
LX,81,1,2024-06-14T09:07:41.043Z,english_231.wav,0,0,37,21,5,Chinese,f,4,0.32341667,-40.37897369,0.58634772
LX,82,1,2024-06-14T09:07:41.043Z,english_328.wav,0,0,256,21,5,Chinese,f,0,0,-24.96515822,0.68772771
LX,82,1,2024-06-14T09:07:41.043Z,english_328.wav,0,0,256,21,5,Chinese,f,1,0.1,36.64267249,0.30369637
LX,82,1,2024-06-14T09:07:41.043Z,english_328.wav,0,0,256,21,5,Chinese,f,2,0.2,-93.60804347,1.16330199
LX,82,1,2024-06-14T09:07:41.043Z,english_328.wav,0,0,256,21,5,Chinese,f,3,0.3,9.86556644,0.69001341
LX,82,1,2024-06-14T09:07:41.043Z,english_328.wav,0,0,256,21,5,Chinese,f,4,0.32341667,-17.13685423,0.54642887
LX,83,1,2024-06-14T09:07:41.043Z,english_75.wav,0,1,84,21,5,Chinese,f,0,0,-9.18091647,0.92930856
LX,83,1,2024-06-14T09:07:41.043Z,english_75.wav,0,1,84,21,5,Chinese,f,1,0.1,-62.02164907,1.94000482
LX,83,1,2024-06-14T09:07:41.043Z,english_75.wav,0,1,84,21,5,Chinese,f,2,0.2,-12.90623207,1.2183621
LX,83,1,2024-06-14T09:07:41.043Z,english_75.wav,0,1,84,21,5,Chinese,f,3,0.3,15.17089036,0.47349695
LX,83,1,2024-06-14T09:07:41.043Z,english_75.wav,0,1,84,21,5,Chinese,f,4,0.32341667,10.89352922,1.02561006
LX,84,1,2024-06-14T09:07:41.043Z,english_310.wav,0,0,1050,21,5,Chinese,f,0,0,82.1385274,0.14341218
LX,84,1,2024-06-14T09:07:41.043Z,english_310.wav,0,0,1050,21,5,Chinese,f,1,0.1,-33.74608058,1.80934389
LX,84,1,2024-06-14T09:07:41.043Z,english_310.wav,0,0,1050,21,5,Chinese,f,2,0.2,62.12487376,1.28785402
LX,84,1,2024-06-14T09:07:41.043Z,english_310.wav,0,0,1050,21,5,Chinese,f,3,0.3,96.31437548,1.13060378
LX,84,1,2024-06-14T09:07:41.043Z,english_310.wav,0,0,1050,21,5,Chinese,f,4,0.32341667,-23.64802517,1.05137249
LX,85,1,2024-06-14T09:07:41.043Z,english_387.wav,0,1,870,21,5,Chinese,f,0,0,14.25538659,0.59610882
LX,85,1,2024-06-14T09:07:41.043Z,english_387.wav,0,1,870,21,5,Chinese,f,1,0.1,-5.8057983,0.93453474
LX,85,1,2024-06-14T09:07:41.043Z,english_387.wav,0,1,870,21,5,Chinese,f,2,0.2,-2.59288607,1.87880123
LX,85,1,2024-06-14T09:07:41.043Z,english_387.wav,0,1,870,21,5,Chinese,f,3,0.3,19.33055559,0.79709693
LX,85,1,2024-06-14T09:07:41.043Z,english_387.wav,0,1,870,21,5,Chinese,f,4,0.32341667,-85.57173801,0.90161027
LX,86,1,2024-06-14T09:07:41.043Z,english_478.wav,0,0,858,21,5,Chinese,f,0,0,-70.9954821,0.91489342
LX,86,1,2024-06-14T09:07:41.043Z,english_478.wav,0,0,858,21,5,Chinese,f,1,0.1,18.763036,1.0325944
LX,86,1,2024-06-14T09:07:41.043Z,english_478.wav,0,0,858,21,5,Chinese,f,2,0.2,84.30682023,1.47139294
LX,86,1,2024-06-14T09:07:41.043Z,english_478.wav,0,0,858,21,5,Chinese,f,3,0.3,96.70790152,0.31719256
LX,86,1,2024-06-14T09:07:41.043Z,english_478.wav,0,0,858,21,5,Chinese,f,4,0.32341667,-65.75430749,1.1469235
LX,87,1,2024-06-14T09:07:41.043Z,english_363.wav,0,1,455,21,5,Chinese,f,0,0,-8.62246293,0.22304778
LX,87,1,2024-06-14T09:07:41.043Z,english_363.wav,0,1,455,21,5,Chinese,f,1,0.1,-37.95317313,0.51009023
LX,87,1,2024-06-14T09:07:41.043Z,english_363.wav,0,1,455,21,5,Chinese,f,2,0.2,-98.56362786,1.67320701
LX,87,1,2024-06-14T09:07:41.043Z,english_363.wav,0,1,455,21,5,Chinese,f,3,0.3,79.4101663,0.32318158
LX,87,1,2024-06-14T09:07:41.043Z,english_363.wav,0,1,455,21,5,Chinese,f,4,0.32341667,-19.01593507,1.23606141
LX,88,1,2024-06-14T09:07:41.043Z,english_761.wav,0,0,307,21,5,Chinese,f,0,0,-7.84319468,0.39728316
LX,88,1,2024-06-14T09:07:41.043Z,english_761.wav,0,0,307,21,5,Chinese,f,1,0.1,77.10262164,0.76675063
LX,88,1,2024-06-14T09:07:41.043Z,english_761.wav,0,0,307,21,5,Chinese,f,2,0.2,23.07677451,1.40075404
LX,88,1,2024-06-14T09:07:41.043Z,english_761.wav,0,0,307,21,5,Chinese,f,3,0.3,-22.28856666,0.53792203
LX,88,1,2024-06-14T09:07:41.043Z,english_761.wav,0,0,307,21,5,Chinese,f,4,0.32341667,18.71779046,1.06229189
LX,89,1,2024-06-14T09:07:41.043Z,english_349.wav,0,1,628,21,5,Chinese,f,0,0,-10.00495534,0.36915768
LX,89,1,2024-06-14T09:07:41.043Z,english_349.wav,0,1,628,21,5,Chinese,f,1,0.1,54.31199814,0.83111041
LX,89,1,2024-06-14T09:07:41.043Z,english_349.wav,0,1,628,21,5,Chinese,f,2,0.2,48.17968705,1.70147194
LX,89,1,2024-06-14T09:07:41.043Z,english_349.wav,0,1,628,21,5,Chinese,f,3,0.3,8.48926652,1.08588898
LX,89,1,2024-06-14T09:07:41.043Z,english_349.wav,0,1,628,21,5,Chinese,f,4,0.32341667,42.05620052,0.02584958
LX,90,1,2024-06-14T09:07:41.043Z,english_406.wav,0,0,285,21,5,Chinese,f,0,0,28.09923375,1.43312072
LX,90,1,2024-06-14T09:07:41.043Z,english_406.wav,0,0,285,21,5,Chinese,f,1,0.1,-15.10813675,0.8890381
LX,90,1,2024-06-14T09:07:41.043Z,english_406.wav,0,0,285,21,5,Chinese,f,2,0.2,-12.43931725,0.60560557
LX,90,1,2024-06-14T09:07:41.043Z,english_406.wav,0,0,285,21,5,Chinese,f,3,0.3,-27.33468297,1.13565345
LX,90,1,2024-06-14T09:07:41.043Z,english_406.wav,0,0,285,21,5,Chinese,f,4,0.32341667,-62.66931892,1.8467177
LX,91,1,2024-06-14T09:07:41.043Z,english_290.wav,0,1,295,21,5,Chinese,f,0,0,73.71968657,0.30552726
LX,91,1,2024-06-14T09:07:41.043Z,english_290.wav,0,1,295,21,5,Chinese,f,1,0.1,-59.85317413,1.31636279
LX,91,1,2024-06-14T09:07:41.043Z,english_290.wav,0,1,295,21,5,Chinese,f,2,0.2,71.1426587,0.54925413
LX,91,1,2024-06-14T09:07:41.043Z,english_290.wav,0,1,295,21,5,Chinese,f,3,0.3,-18.50007061,1.26204455
LX,91,1,2024-06-14T09:07:41.043Z,english_290.wav,0,1,295,21,5,Chinese,f,4,0.32341667,-65.91143137,0.60528556
LX,92,1,2024-06-14T09:07:41.043Z,english_472.wav,0,1,338,21,5,Chinese,f,0,0,-33.48324222,1.19367533
LX,92,1,2024-06-14T09:07:41.043Z,english_472.wav,0,1,338,21,5,Chinese,f,1,0.1,-52.47175565,0.64788551
LX,92,1,2024-06-14T09:07:41.043Z,english_472.wav,0,1,338,21,5,Chinese,f,2,0.2,-13.12063744,0.92970714
LX,92,1,2024-06-14T09:07:41.043Z,english_472.wav,0,1,338,21,5,Chinese,f,3,0.3,83.57117959,0.61503547
LX,92,1,2024-06-14T09:07:41.043Z,english_472.wav,0,1,338,21,5,Chinese,f,4,0.32341667,95.60610647,0.52013695
LX,93,1,2024-06-14T09:07:41.043Z,english_750.wav,0,1,785,21,5,Chinese,f,0,0,54.68497377,0.76623701
LX,93,1,2024-06-14T09:07:41.043Z,english_750.wav,0,1,785,21,5,Chinese,f,1,0.1,0.91792919,1.58478782
LX,93,1,2024-06-14T09:07:41.043Z,english_750.wav,0,1,785,21,5,Chinese,f,2,0.2,-67.69423006,0.74884996
LX,93,1,2024-06-14T09:07:41.043Z,english_750.wav,0,1,785,21,5,Chinese,f,3,0.3,20.92985273,0.15814923
LX,93,1,2024-06-14T09:07:41.043Z,english_750.wav,0,1,785,21,5,Chinese,f,4,0.32341667,-39.60032316,1.58320499
LX,94,1,2024-06-14T09:07:41.043Z,english_895.wav,0,1,313,21,5,Chinese,f,0,0,-36.05432491,1.57991636
LX,94,1,2024-06-14T09:07:41.043Z,english_895.wav,0,1,313,21,5,Chinese,f,1,0.1,0.27991529,1.29141926
LX,94,1,2024-06-14T09:07:41.043Z,english_895.wav,0,1,313,21,5,Chinese,f,2,0.2,-68.50060493,0.78617821
LX,94,1,2024-06-14T09:07:41.043Z,english_895.wav,0,1,313,21,5,Chinese,f,3,0.3,-65.34452755,0.53071912
LX,94,1,2024-06-14T09:07:41.043Z,english_895.wav,0,1,313,21,5,Chinese,f,4,0.32341667,44.30205494,1.44568828
LX,95,1,2024-06-14T09:07:41.043Z,english_331.wav,0,0,748,21,5,Chinese,f,0,0,12.66323204,1.93220763
LX,95,1,2024-06-14T09:07:41.043Z,english_331.wav,0,0,748,21,5,Chinese,f,1,0.1,-81.78605138,1.48237299
LX,95,1,2024-06-14T09:07:41.043Z,english_331.wav,0,0,748,21,5,Chinese,f,2,0.2,59.07546792,1.15413743
LX,95,1,2024-06-14T09:07:41.043Z,english_331.wav,0,0,748,21,5,Chinese,f,3,0.3,-83.73170191,1.02182823
LX,95,1,2024-06-14T09:07:41.043Z,english_331.wav,0,0,748,21,5,Chinese,f,4,0.32341667,3.10587362,0.81670354
LX,96,1,2024-06-14T09:07:41.043Z,english_275.wav,0,1,828,21,5,Chinese,f,0,0,-1.14725012,0.71691039
LX,96,1,2024-06-14T09:07:41.043Z,english_275.wav,0,1,828,21,5,Chinese,f,1,0.1,-90.43848863,0.74614953
LX,96,1,2024-06-14T09:07:41.043Z,english_275.wav,0,1,828,21,5,Chinese,f,2,0.2,-40.03711279,1.94843862
LX,96,1,2024-06-14T09:07:41.043Z,english_275.wav,0,1,828,21,5,Chinese,f,3,0.3,-29.12549604,0.32495742
LX,96,1,2024-06-14T09:07:41.043Z,english_275.wav,0,1,828,21,5,Chinese,f,4,0.32341667,77.33253221,0.61649877
LX,97,1,2024-06-14T09:07:41.043Z,english_121.wav,0,0,809,21,5,Chinese,f,0,0,-30.24687583,0.23154591
LX,97,1,2024-06-14T09:07:41.043Z,english_121.wav,0,0,809,21,5,Chinese,f,1,0.1,-28.09260766,0.6680997
LX,97,1,2024-06-14T09:07:41.043Z,english_121.wav,0,0,809,21,5,Chinese,f,2,0.2,-29.54951374,1.79539672
LX,97,1,2024-06-14T09:07:41.043Z,english_121.wav,0,0,809,21,5,Chinese,f,3,0.3,-37.35286973,0.57554739
LX,97,1,2024-06-14T09:07:41.043Z,english_121.wav,0,0,809,21,5,Chinese,f,4,0.32341667,58.68529554,1.8709958
LX,98,1,2024-06-14T09:07:41.043Z,english_475.wav,0,1,628,21,5,Chinese,f,0,0,-68.25626322,0.40988158
LX,98,1,2024-06-14T09:07:41.043Z,english_475.wav,0,1,628,21,5,Chinese,f,1,0.1,-56.46648788,1.90107213
LX,98,1,2024-06-14T09:07:41.043Z,english_475.wav,0,1,628,21,5,Chinese,f,2,0.2,49.77560279,0.54721615
LX,98,1,2024-06-14T09:07:41.043Z,english_475.wav,0,1,628,21,5,Chinese,f,3,0.3,-41.74178488,1.80730726
LX,98,1,2024-06-14T09:07:41.043Z,english_475.wav,0,1,628,21,5,Chinese,f,4,0.32341667,-60.3255454,0.11427958
LX,99,1,2024-06-14T09:07:41.043Z,english_165.wav,0,0,493,21,5,Chinese,f,0,0,-65.85966689,0.99094124
LX,99,1,2024-06-14T09:07:41.043Z,english_165.wav,0,0,493,21,5,Chinese,f,1,0.1,57.4210377,1.25140592
LX,99,1,2024-06-14T09:07:41.043Z,english_165.wav,0,0,493,21,5,Chinese,f,2,0.2,-53.4891742,1.66606931
LX,99,1,2024-06-14T09:07:41.043Z,english_165.wav,0,0,493,21,5,Chinese,f,3,0.3,-32.80877015,0.56557264
LX,99,1,2024-06-14T09:07:41.043Z,english_165.wav,0,0,493,21,5,Chinese,f,4,0.32341667,-23.63509804,1.31427626
LX,100,2,2024-06-14T09:07:41.043Z,english_15.wav,0,0,1383,21,5,Chinese,f,0,0,-84.2209614,0.31323186
LX,100,2,2024-06-14T09:07:41.043Z,english_15.wav,0,0,1383,21,5,Chinese,f,1,0.1,62.09656714,0.60538609
LX,100,2,2024-06-14T09:07:41.043Z,english_15.wav,0,0,1383,21,5,Chinese,f,2,0.2,55.13992629,0.21165259
LX,100,2,2024-06-14T09:07:41.043Z,english_15.wav,0,0,1383,21,5,Chinese,f,3,0.3,-55.71077558,0.62501131
LX,100,2,2024-06-14T09:07:41.043Z,english_15.wav,0,0,1383,21,5,Chinese,f,4,0.32341667,77.6678018,0.97290752
LX,101,2,2024-06-14T09:07:41.043Z,english_222.wav,0,1,1631,21,5,Chinese,f,0,0,-5.8882644,0.97478352
LX,101,2,2024-06-14T09:07:41.043Z,english_222.wav,0,1,1631,21,5,Chinese,f,1,0.1,-15.4334302,1.79573252
LX,101,2,2024-06-14T09:07:41.043Z,english_222.wav,0,1,1631,21,5,Chinese,f,2,0.2,-39.50203868,1.71948726
LX,101,2,2024-06-14T09:07:41.043Z,english_222.wav,0,1,1631,21,5,Chinese,f,3,0.3,67.79027175,0.41699719
LX,101,2,2024-06-14T09:07:41.043Z,english_222.wav,0,1,1631,21,5,Chinese,f,4,0.32341667,-43.17344259,0.26315099
LX,102,2,2024-06-14T09:07:41.043Z,english_262.wav,0,1,444,21,5,Chinese,f,0,0,-55.0240476,0.91992097
LX,102,2,2024-06-14T09:07:41.043Z,english_262.wav,0,1,444,21,5,Chinese,f,1,0.1,46.31562141,0.94194362
LX,102,2,2024-06-14T09:07:41.043Z,english_262.wav,0,1,444,21,5,Chinese,f,2,0.2,62.5855756,1.80305422
LX,102,2,2024-06-14T09:07:41.043Z,english_262.wav,0,1,444,21,5,Chinese,f,3,0.3,-4.25909078,0.51544707
LX,102,2,2024-06-14T09:07:41.043Z,english_262.wav,0,1,444,21,5,Chinese,f,4,0.32341667,16.27030636,1.47198659
LX,103,2,2024-06-14T09:07:41.043Z,english_214.wav,0,1,531,21,5,Chinese,f,0,0,58.82847816,1.81864401
LX,103,2,2024-06-14T09:07:41.043Z,english_214.wav,0,1,531,21,5,Chinese,f,1,0.1,87.26801489,0.97241975
LX,103,2,2024-06-14T09:07:41.043Z,english_214.wav,0,1,531,21,5,Chinese,f,2,0.2,-28.10234025,1.91423566
LX,103,2,2024-06-14T09:07:41.043Z,english_214.wav,0,1,531,21,5,Chinese,f,3,0.3,-36.12188516,1.71940232
LX,103,2,2024-06-14T09:07:41.043Z,english_214.wav,0,1,531,21,5,Chinese,f,4,0.32341667,-45.93983978,0.68694042
LX,104,2,2024-06-14T09:07:41.043Z,english_453.wav,0,1,401,21,5,Chinese,f,0,0,-60.23429987,1.87756573
LX,104,2,2024-06-14T09:07:41.043Z,english_453.wav,0,1,401,21,5,Chinese,f,1,0.1,80.38725697,0.94070469
LX,104,2,2024-06-14T09:07:41.043Z,english_453.wav,0,1,401,21,5,Chinese,f,2,0.2,66.16689695,1.71191258
LX,104,2,2024-06-14T09:07:41.043Z,english_453.wav,0,1,401,21,5,Chinese,f,3,0.3,-59.46214637,0.56012011
LX,104,2,2024-06-14T09:07:41.043Z,english_453.wav,0,1,401,21,5,Chinese,f,4,0.32341667,-39.76201882,0.35119419
LX,105,2,2024-06-14T09:07:41.043Z,english_713.wav,0,0,272,21,5,Chinese,f,0,0,18.77281956,1.04868626
LX,105,2,2024-06-14T09:07:41.043Z,english_713.wav,0,0,272,21,5,Chinese,f,1,0.1,40.78610286,0.48332939
LX,105,2,2024-06-14T09:07:41.043Z,english_713.wav,0,0,272,21,5,Chinese,f,2,0.2,84.18153491,0.83217717
LX,105,2,2024-06-14T09:07:41.043Z,english_713.wav,0,0,272,21,5,Chinese,f,3,0.3,47.00827256,1.90318663
LX,105,2,2024-06-14T09:07:41.043Z,english_713.wav,0,0,272,21,5,Chinese,f,4,0.32341667,66.01008384,0.50055362
LX,106,2,2024-06-14T09:07:41.043Z,english_439.wav,0,1,331,21,5,Chinese,f,0,0,-34.98153375,0.51703437
LX,106,2,2024-06-14T09:07:41.043Z,english_439.wav,0,1,331,21,5,Chinese,f,1,0.1,58.81829455,0.92552513
LX,106,2,2024-06-14T09:07:41.043Z,english_439.wav,0,1,331,21,5,Chinese,f,2,0.2,-39.64168408,1.94754337
LX,106,2,2024-06-14T09:07:41.043Z,english_439.wav,0,1,331,21,5,Chinese,f,3,0.3,-65.89684329,0.19153473
LX,106,2,2024-06-14T09:07:41.043Z,english_439.wav,0,1,331,21,5,Chinese,f,4,0.32341667,-18.09409032,1.29438445
LX,107,2,2024-06-14T09:07:41.043Z,english_113.wav,0,1,187,21,5,Chinese,f,0,0,8.7952765,0.51001639
LX,107,2,2024-06-14T09:07:41.043Z,english_113.wav,0,1,187,21,5,Chinese,f,1,0.1,91.94692023,1.45766025
LX,107,2,2024-06-14T09:07:41.043Z,english_113.wav,0,1,187,21,5,Chinese,f,2,0.2,-6.68088057,1.25674442
LX,107,2,2024-06-14T09:07:41.043Z,english_113.wav,0,1,187,21,5,Chinese,f,3,0.3,38.28142065,1.93213547
LX,107,2,2024-06-14T09:07:41.043Z,english_113.wav,0,1,187,21,5,Chinese,f,4,0.32341667,-37.19939988,0.45590133
LX,108,2,2024-06-14T09:07:41.043Z,english_415.wav,0,0,819,21,5,Chinese,f,0,0,36.00223879,1.49199547
LX,108,2,2024-06-14T09:07:41.043Z,english_415.wav,0,0,819,21,5,Chinese,f,1,0.1,-82.63332374,1.79959711
LX,108,2,2024-06-14T09:07:41.043Z,english_415.wav,0,0,819,21,5,Chinese,f,2,0.2,57.55038703,0.64689267
LX,108,2,2024-06-14T09:07:41.043Z,english_415.wav,0,0,819,21,5,Chinese,f,3,0.3,-9.83064734,0.31881377
LX,108,2,2024-06-14T09:07:41.043Z,english_415.wav,0,0,819,21,5,Chinese,f,4,0.32341667,-29.78573939,0.18568486
LX,109,2,2024-06-14T09:07:41.043Z,english_160.wav,0,1,243,21,5,Chinese,f,0,0,2.54964477,0.54357393
LX,109,2,2024-06-14T09:07:41.043Z,english_160.wav,0,1,243,21,5,Chinese,f,1,0.1,26.84692557,1.29343216
LX,109,2,2024-06-14T09:07:41.043Z,english_160.wav,0,1,243,21,5,Chinese,f,2,0.2,72.58457191,0.42070854
LX,109,2,2024-06-14T09:07:41.043Z,english_160.wav,0,1,243,21,5,Chinese,f,3,0.3,-6.94481249,1.04489529
LX,109,2,2024-06-14T09:07:41.043Z,english_160.wav,0,1,243,21,5,Chinese,f,4,0.32341667,35.80656171,0.26802137
LX,110,2,2024-06-14T09:07:41.043Z,english_254.wav,0,0,936,21,5,Chinese,f,0,0,-9.19838866,1.99657173
LX,110,2,2024-06-14T09:07:41.043Z,english_254.wav,0,0,936,21,5,Chinese,f,1,0.1,15.86633291,1.39044581
LX,110,2,2024-06-14T09:07:41.043Z,english_254.wav,0,0,936,21,5,Chinese,f,2,0.2,-42.67167238,1.09933375
LX,110,2,2024-06-14T09:07:41.043Z,english_254.wav,0,0,936,21,5,Chinese,f,3,0.3,-11.53254556,0.78821302
LX,110,2,2024-06-14T09:07:41.043Z,english_254.wav,0,0,936,21,5,Chinese,f,4,0.32341667,-12.27536806,0.39297423
LX,111,2,2024-06-14T09:07:41.043Z,english_677.wav,0,0,491,21,5,Chinese,f,0,0,74.92499355,0.4070184
LX,111,2,2024-06-14T09:07:41.043Z,english_677.wav,0,0,491,21,5,Chinese,f,1,0.1,35.44886391,0.82737557
LX,111,2,2024-06-14T09:07:41.043Z,english_677.wav,0,0,491,21,5,Chinese,f,2,0.2,3.82146975,0.46436239
LX,111,2,2024-06-14T09:07:41.043Z,english_677.wav,0,0,491,21,5,Chinese,f,3,0.3,10.3543008,1.40426898
LX,111,2,2024-06-14T09:07:41.043Z,english_677.wav,0,0,491,21,5,Chinese,f,4,0.32341667,-53.94170103,1.42138659
LX,112,2,2024-06-14T09:07:41.043Z,english_237.wav,0,0,361,21,5,Chinese,f,0,0,-40.35335157,0.42178982
LX,112,2,2024-06-14T09:07:41.043Z,english_237.wav,0,0,361,21,5,Chinese,f,1,0.1,42.86374565,0.6060796
LX,112,2,2024-06-14T09:07:41.043Z,english_237.wav,0,0,361,21,5,Chinese,f,2,0.2,7.79480372,0.58312984
LX,112,2,2024-06-14T09:07:41.043Z,english_237.wav,0,0,361,21,5,Chinese,f,3,0.3,-48.50613844,1.50499267
LX,112,2,2024-06-14T09:07:41.043Z,english_237.wav,0,0,361,21,5,Chinese,f,4,0.32341667,17.78174719,1.72211243
LX,113,2,2024-06-14T09:07:41.043Z,english_754.wav,0,1,237,21,5,Chinese,f,0,0,-19.76675532,0.85408869
LX,113,2,2024-06-14T09:07:41.043Z,english_754.wav,0,1,237,21,5,Chinese,f,1,0.1,34.48414938,1.68072852
LX,113,2,2024-06-14T09:07:41.043Z,english_754.wav,0,1,237,21,5,Chinese,f,2,0.2,62.52568934,1.92334892
LX,113,2,2024-06-14T09:07:41.043Z,english_754.wav,0,1,237,21,5,Chinese,f,3,0.3,25.41574935,0.35114342
LX,113,2,2024-06-14T09:07:41.043Z,english_754.wav,0,1,237,21,5,Chinese,f,4,0.32341667,-36.16911462,0.9845535
LX,114,2,2024-06-14T09:07:41.043Z,english_908.wav,0,0,323,21,5,Chinese,f,0,0,48.62867987,1.27180628
LX,114,2,2024-06-14T09:07:41.043Z,english_908.wav,0,0,323,21,5,Chinese,f,1,0.1,15.18588807,0.65893562
LX,114,2,2024-06-14T09:07:41.043Z,english_908.wav,0,0,323,21,5,Chinese,f,2,0.2,-42.37345339,1.07678682
LX,114,2,2024-06-14T09:07:41.043Z,english_908.wav,0,0,323,21,5,Chinese,f,3,0.3,10.74033392,1.66111239
LX,114,2,2024-06-14T09:07:41.043Z,english_908.wav,0,0,323,21,5,Chinese,f,4,0.32341667,-40.14378972,0.30218678
LX,115,2,2024-06-14T09:07:41.043Z,english_706.wav,0,1,429,21,5,Chinese,f,0,0,-14.02426606,0.18721001
LX,115,2,2024-06-14T09:07:41.043Z,english_706.wav,0,1,429,21,5,Chinese,f,1,0.1,23.81630209,0.48464851
LX,115,2,2024-06-14T09:07:41.043Z,english_706.wav,0,1,429,21,5,Chinese,f,2,0.2,94.24266466,1.46456973
LX,115,2,2024-06-14T09:07:41.043Z,english_706.wav,0,1,429,21,5,Chinese,f,3,0.3,20.03642156,0.11403632
LX,115,2,2024-06-14T09:07:41.043Z,english_706.wav,0,1,429,21,5,Chinese,f,4,0.32341667,57.92570785,0.61389372
LX,116,2,2024-06-14T09:07:41.043Z,english_760.wav,0,1,469,21,5,Chinese,f,0,0,24.3902693,0.67210823
LX,116,2,2024-06-14T09:07:41.043Z,english_760.wav,0,1,469,21,5,Chinese,f,1,0.1,-0.0247174936,1.89588113
LX,116,2,2024-06-14T09:07:41.043Z,english_760.wav,0,1,469,21,5,Chinese,f,2,0.2,82.8662613,0.23432987
LX,116,2,2024-06-14T09:07:41.043Z,english_760.wav,0,1,469,21,5,Chinese,f,3,0.3,-7.97314524,1.20797246
LX,116,2,2024-06-14T09:07:41.043Z,english_760.wav,0,1,469,21,5,Chinese,f,4,0.323416667,-6.32438983,1.72866971
LX,117,2,2024-06-14T09:07:41.043Z,english_402.wav,0,1,749,21,5,Chinese,f,0,0,-69.75327375,0.88104294
LX,117,2,2024-06-14T09:07:41.043Z,english_402.wav,0,1,749,21,5,Chinese,f,1,0.1,-37.13247603,1.50830761
LX,117,2,2024-06-14T09:07:41.043Z,english_402.wav,0,1,749,21,5,Chinese,f,2,0.2,95.06865819,0.86613458
LX,117,2,2024-06-14T09:07:41.043Z,english_402.wav,0,1,749,21,5,Chinese,f,3,0.3,-83.65219271,1.46195184
LX,117,2,2024-06-14T09:07:41.043Z,english_402.wav,0,1,749,21,5,Chinese,f,4,0.32341667,-39.65623645,1.78030697
LX,118,2,2024-06-14T09:07:41.043Z,english_500.wav,0,1,530,21,5,Chinese,f,0,0,34.07818593,1.14050746
LX,118,2,2024-06-14T09:07:41.043Z,english_500.wav,0,1,530,21,5,Chinese,f,1,0.1,31.06479142,1.87458021
LX,118,2,2024-06-14T09:07:41.043Z,english_500.wav,0,1,530,21,5,Chinese,f,2,0.2,-63.34751057,0.77467433
LX,118,2,2024-06-14T09:07:41.043Z,english_500.wav,0,1,530,21,5,Chinese,f,3,0.3,36.97827554,1.278432
LX,118,2,2024-06-14T09:07:41.043Z,english_500.wav,0,1,530,21,5,Chinese,f,4,0.32341667,96.68235718,0.68469821
LX,119,2,2024-06-14T09:07:41.043Z,english_229.wav,0,1,602,21,5,Chinese,f,0,0,51.56916705,1.25898044
LX,119,2,2024-06-14T09:07:41.043Z,english_229.wav,0,1,602,21,5,Chinese,f,1,0.1,-51.28327497,0.34588319
LX,119,2,2024-06-14T09:07:41.043Z,english_229.wav,0,1,602,21,5,Chinese,f,2,0.2,97.78221202,1.91985924
LX,119,2,2024-06-14T09:07:41.043Z,english_229.wav,0,1,602,21,5,Chinese,f,3,0.3,-75.98126047,0.82059623
LX,119,2,2024-06-14T09:07:41.043Z,english_229.wav,0,1,602,21,5,Chinese,f,4,0.32341667,-44.05308002,1.38191391
LX,120,2,2024-06-14T09:07:41.043Z,english_270.wav,0,1,264,21,5,Chinese,f,0,0,-54.89328754,1.02368747
LX,120,2,2024-06-14T09:07:41.043Z,english_270.wav,0,1,264,21,5,Chinese,f,1,0.1,-41.12345733,1.74263534
LX,120,2,2024-06-14T09:07:41.043Z,english_270.wav,0,1,264,21,5,Chinese,f,2,0.2,79.03328036,0.45342006
LX,120,2,2024-06-14T09:07:41.043Z,english_270.wav,0,1,264,21,5,Chinese,f,3,0.3,-87.71335894,1.29911503
LX,120,2,2024-06-14T09:07:41.043Z,english_270.wav,0,1,264,21,5,Chinese,f,4,0.32341667,-48.20373708,0.95859349
LX,121,2,2024-06-14T09:07:41.043Z,english_258.wav,0,0,433,21,5,Chinese,f,0,0,-7.1133109,1.89026761
LX,121,2,2024-06-14T09:07:41.043Z,english_258.wav,0,0,433,21,5,Chinese,f,1,0.1,44.58564752,1.79361992
LX,121,2,2024-06-14T09:07:41.043Z,english_258.wav,0,0,433,21,5,Chinese,f,2,0.2,45.36800295,0.43687845
LX,121,2,2024-06-14T09:07:41.043Z,english_258.wav,0,0,433,21,5,Chinese,f,3,0.3,25.81301737,0.04688612
LX,121,2,2024-06-14T09:07:41.043Z,english_258.wav,0,0,433,21,5,Chinese,f,4,0.32341667,-77.97513924,0.52567924
LX,122,2,2024-06-14T09:07:41.043Z,english_634.wav,0,1,622,21,5,Chinese,f,0,0,-94.29539956,0.6011183
LX,122,2,2024-06-14T09:07:41.043Z,english_634.wav,0,1,622,21,5,Chinese,f,1,0.1,28.41708136,1.15242669
LX,122,2,2024-06-14T09:07:41.043Z,english_634.wav,0,1,622,21,5,Chinese,f,2,0.2,-99.13935281,0.68826906
LX,122,2,2024-06-14T09:07:41.043Z,english_634.wav,0,1,622,21,5,Chinese,f,3,0.3,-78.11216949,1.44169335
LX,122,2,2024-06-14T09:07:41.043Z,english_634.wav,0,1,622,21,5,Chinese,f,4,0.32341667,-54.5881907,0.90266094
LX,123,2,2024-06-14T09:07:41.043Z,english_505.wav,0,0,440,21,5,Chinese,f,0,0,-14.1569725,0.45361713
LX,123,2,2024-06-14T09:07:41.043Z,english_505.wav,0,0,440,21,5,Chinese,f,1,0.1,55.52926248,0.94516805
LX,123,2,2024-06-14T09:07:41.043Z,english_505.wav,0,0,440,21,5,Chinese,f,2,0.2,53.00334781,0.85342654
LX,123,2,2024-06-14T09:07:41.043Z,english_505.wav,0,0,440,21,5,Chinese,f,3,0.3,75.03788466,1.32942474
LX,123,2,2024-06-14T09:07:41.043Z,english_505.wav,0,0,440,21,5,Chinese,f,4,0.32341667,-7.91266729,0.93790665
LX,124,2,2024-06-14T09:07:41.043Z,english_442.wav,0,1,165,21,5,Chinese,f,0,0,-5.21319176,1.35819452
LX,124,2,2024-06-14T09:07:41.043Z,english_442.wav,0,1,165,21,5,Chinese,f,1,0.1,-16.23989513,1.66019663
LX,124,2,2024-06-14T09:07:41.043Z,english_442.wav,0,1,165,21,5,Chinese,f,2,0.2,-36.77315909,0.51170704
LX,124,2,2024-06-14T09:07:41.043Z,english_442.wav,0,1,165,21,5,Chinese,f,3,0.3,-33.51446291,1.6590932
LX,124,2,2024-06-14T09:07:41.043Z,english_442.wav,0,1,165,21,5,Chinese,f,4,0.32341667,-25.07447919,0.97998973
LX,125,2,2024-06-14T09:07:41.043Z,english_578.wav,0,0,110,21,5,Chinese,f,0,0,-76.90925642,1.21901793
LX,125,2,2024-06-14T09:07:41.043Z,english_578.wav,0,0,110,21,5,Chinese,f,1,0.1,-68.48676994,1.4118495
LX,125,2,2024-06-14T09:07:41.043Z,english_578.wav,0,0,110,21,5,Chinese,f,2,0.2,36.30884798,0.05521057
LX,125,2,2024-06-14T09:07:41.043Z,english_578.wav,0,0,110,21,5,Chinese,f,3,0.3,-36.82491274,1.45629656
LX,125,2,2024-06-14T09:07:41.043Z,english_578.wav,0,0,110,21,5,Chinese,f,4,0.32341667,-4.04717442,1.80268091
LX,126,2,2024-06-14T09:07:41.043Z,english_332.wav,0,0,220,21,5,Chinese,f,0,0,-51.41680869,1.58782391
LX,126,2,2024-06-14T09:07:41.043Z,english_332.wav,0,0,220,21,5,Chinese,f,1,0.1,4.985172,0.72138411
LX,126,2,2024-06-14T09:07:41.043Z,english_332.wav,0,0,220,21,5,Chinese,f,2,0.2,88.20327684,1.12265768
LX,126,2,2024-06-14T09:07:41.043Z,english_332.wav,0,0,220,21,5,Chinese,f,3,0.3,-58.40734817,0.23569111
LX,126,2,2024-06-14T09:07:41.043Z,english_332.wav,0,0,220,21,5,Chinese,f,4,0.32341667,68.30800912,1.23583309
LX,127,2,2024-06-14T09:07:41.043Z,english_324.wav,0,1,347,21,5,Chinese,f,0,0,49.07155908,0.10864525
LX,127,2,2024-06-14T09:07:41.043Z,english_324.wav,0,1,347,21,5,Chinese,f,1,0.1,-58.77252084,1.61132735
LX,127,2,2024-06-14T09:07:41.043Z,english_324.wav,0,1,347,21,5,Chinese,f,2,0.2,-55.40155542,0.60180616
LX,127,2,2024-06-14T09:07:41.043Z,english_324.wav,0,1,347,21,5,Chinese,f,3,0.3,19.02224292,0.93555132
LX,127,2,2024-06-14T09:07:41.043Z,english_324.wav,0,1,347,21,5,Chinese,f,4,0.32341667,21.20382854,0.34417591
LX,128,2,2024-06-14T09:07:41.043Z,english_637.wav,0,0,218,21,5,Chinese,f,0,0,-1.71458324,1.21739028
LX,128,2,2024-06-14T09:07:41.043Z,english_637.wav,0,0,218,21,5,Chinese,f,1,0.1,-8.03758275,0.51882016
LX,128,2,2024-06-14T09:07:41.043Z,english_637.wav,0,0,218,21,5,Chinese,f,2,0.2,-8.49550443,1.63519413
LX,128,2,2024-06-14T09:07:41.043Z,english_637.wav,0,0,218,21,5,Chinese,f,3,0.3,-8.27727969,1.34863813
LX,128,2,2024-06-14T09:07:41.043Z,english_637.wav,0,0,218,21,5,Chinese,f,4,0.32341667,64.42471467,1.93003029
LX,129,2,2024-06-14T09:07:41.043Z,english_372.wav,0,0,227,21,5,Chinese,f,0,0,-10.50721777,1.53321121
LX,129,2,2024-06-14T09:07:41.043Z,english_372.wav,0,0,227,21,5,Chinese,f,1,0.1,60.4890014,1.14830486
LX,129,2,2024-06-14T09:07:41.043Z,english_372.wav,0,0,227,21,5,Chinese,f,2,0.2,35.20626745,1.01416029
LX,129,2,2024-06-14T09:07:41.043Z,english_372.wav,0,0,227,21,5,Chinese,f,3,0.3,-86.52802988,1.14285759
LX,129,2,2024-06-14T09:07:41.043Z,english_372.wav,0,0,227,21,5,Chinese,f,4,0.32341667,85.69336351,1.69996326
LX,130,2,2024-06-14T09:07:41.043Z,english_513.wav,0,0,663,21,5,Chinese,f,0,0,76.78578212,0.02403043
LX,130,2,2024-06-14T09:07:41.043Z,english_513.wav,0,0,663,21,5,Chinese,f,1,0.1,20.42124481,0.85164369
LX,130,2,2024-06-14T09:07:41.043Z,english_513.wav,0,0,663,21,5,Chinese,f,2,0.2,83.32251122,1.08658436
LX,130,2,2024-06-14T09:07:41.043Z,english_513.wav,0,0,663,21,5,Chinese,f,3,0.3,47.28432413,0.40639055
LX,130,2,2024-06-14T09:07:41.043Z,english_513.wav,0,0,663,21,5,Chinese,f,4,0.32341667,-50.64117466,1.29336046
LX,131,2,2024-06-14T09:07:41.043Z,english_393.wav,0,0,845,21,5,Chinese,f,0,0,3.63201436,1.68653621
LX,131,2,2024-06-14T09:07:41.043Z,english_393.wav,0,0,845,21,5,Chinese,f,1,0.1,64.52667935,0.22518435
LX,131,2,2024-06-14T09:07:41.043Z,english_393.wav,0,0,845,21,5,Chinese,f,2,0.2,-51.23523019,0.07728703
LX,131,2,2024-06-14T09:07:41.043Z,english_393.wav,0,0,845,21,5,Chinese,f,3,0.3,-89.75219839,0.70962284
LX,131,2,2024-06-14T09:07:41.043Z,english_393.wav,0,0,845,21,5,Chinese,f,4,0.32341667,-66.06218428,0.7432397
LX,132,2,2024-06-14T09:07:41.043Z,english_263.wav,0,1,541,21,5,Chinese,f,0,0,4.78285782,1.6410762
LX,132,2,2024-06-14T09:07:41.043Z,english_263.wav,0,1,541,21,5,Chinese,f,1,0.1,13.60270601,0.7602565
LX,132,2,2024-06-14T09:07:41.043Z,english_263.wav,0,1,541,21,5,Chinese,f,2,0.2,39.50896912,0.2694778
LX,132,2,2024-06-14T09:07:41.043Z,english_263.wav,0,1,541,21,5,Chinese,f,3,0.3,22.44107494,1.51649535
LX,132,2,2024-06-14T09:07:41.043Z,english_263.wav,0,1,541,21,5,Chinese,f,4,0.32341667,-36.00172497,0.60574629
LX,133,2,2024-06-14T09:07:41.043Z,english_94.wav,0,0,1070,21,5,Chinese,f,0,0,-78.50776969,1.58967719
LX,133,2,2024-06-14T09:07:41.043Z,english_94.wav,0,0,1070,21,5,Chinese,f,1,0.1,21.81048112,0.88841047
LX,133,2,2024-06-14T09:07:41.043Z,english_94.wav,0,0,1070,21,5,Chinese,f,2,0.2,76.78230264,1.12549424
LX,133,2,2024-06-14T09:07:41.043Z,english_94.wav,0,0,1070,21,5,Chinese,f,3,0.3,-35.62145712,1.80621507
LX,133,2,2024-06-14T09:07:41.043Z,english_94.wav,0,0,1070,21,5,Chinese,f,4,0.32341667,-71.39427505,1.00879957
LX,134,2,2024-06-14T09:07:41.043Z,english_528.wav,0,1,368,21,5,Chinese,f,0,0,34.31610554,1.55529168
LX,134,2,2024-06-14T09:07:41.043Z,english_528.wav,0,1,368,21,5,Chinese,f,1,0.1,28.08911917,0.29936297
LX,134,2,2024-06-14T09:07:41.043Z,english_528.wav,0,1,368,21,5,Chinese,f,2,0.2,-86.77613696,0.95155831
LX,134,2,2024-06-14T09:07:41.043Z,english_528.wav,0,1,368,21,5,Chinese,f,3,0.3,-45.45420678,1.46511459
LX,134,2,2024-06-14T09:07:41.043Z,english_528.wav,0,1,368,21,5,Chinese,f,4,0.32341667,-58.86275596,0.63923396
LX,135,2,2024-06-14T09:07:41.043Z,english_498.wav,0,0,468,21,5,Chinese,f,0,0,2.49020902,0.78964515
LX,135,2,2024-06-14T09:07:41.043Z,english_498.wav,0,0,468,21,5,Chinese,f,1,0.1,-20.55300452,0.24391593
LX,135,2,2024-06-14T09:07:41.043Z,english_498.wav,0,0,468,21,5,Chinese,f,2,0.2,-34.14985779,0.11401041
LX,135,2,2024-06-14T09:07:41.043Z,english_498.wav,0,0,468,21,5,Chinese,f,3,0.3,79.54997135,1.52582154
LX,135,2,2024-06-14T09:07:41.043Z,english_498.wav,0,0,468,21,5,Chinese,f,4,0.32341667,20.54695207,0.62547878
LX,136,2,2024-06-14T09:07:41.043Z,english_774.wav,0,1,233,21,5,Chinese,f,0,0,-13.3479616,1.45409172
LX,136,2,2024-06-14T09:07:41.043Z,english_774.wav,0,1,233,21,5,Chinese,f,1,0.1,-18.75352159,1.07775337
LX,136,2,2024-06-14T09:07:41.043Z,english_774.wav,0,1,233,21,5,Chinese,f,2,0.2,-41.83192829,0.61872946
LX,136,2,2024-06-14T09:07:41.043Z,english_774.wav,0,1,233,21,5,Chinese,f,3,0.3,14.77986843,1.87871381
LX,136,2,2024-06-14T09:07:41.043Z,english_774.wav,0,1,233,21,5,Chinese,f,4,0.32341667,45.85609187,1.0399825
LX,137,2,2024-06-14T09:07:41.043Z,english_902.wav,0,0,653,21,5,Chinese,f,0,0,-4.27617126,0.16330526
LX,137,2,2024-06-14T09:07:41.043Z,english_902.wav,0,0,653,21,5,Chinese,f,1,0.1,-5.01127315,0.62492789
LX,137,2,2024-06-14T09:07:41.043Z,english_902.wav,0,0,653,21,5,Chinese,f,2,0.2,83.22080084,1.08638924
LX,137,2,2024-06-14T09:07:41.043Z,english_902.wav,0,0,653,21,5,Chinese,f,3,0.3,77.56473772,1.61764227
LX,137,2,2024-06-14T09:07:41.043Z,english_902.wav,0,0,653,21,5,Chinese,f,4,0.32341667,-13.02741535,1.72075309
LX,138,2,2024-06-14T09:07:41.043Z,english_582.wav,0,0,3800,21,5,Chinese,f,0,0,-29.81423477,0.27230029
LX,138,2,2024-06-14T09:07:41.043Z,english_582.wav,0,0,3800,21,5,Chinese,f,1,0.1,37.42565533,0.84765039
LX,138,2,2024-06-14T09:07:41.043Z,english_582.wav,0,0,3800,21,5,Chinese,f,2,0.2,79.58894888,1.99526631
LX,138,2,2024-06-14T09:07:41.043Z,english_582.wav,0,0,3800,21,5,Chinese,f,3,0.3,49.55779855,1.55519667
LX,138,2,2024-06-14T09:07:41.043Z,english_582.wav,0,0,3800,21,5,Chinese,f,4,0.32341667,54.00509918,1.66653349
LX,139,2,2024-06-14T09:07:41.043Z,english_631.wav,0,0,264,21,5,Chinese,f,0,0,-74.37700429,0.77307226
LX,139,2,2024-06-14T09:07:41.043Z,english_631.wav,0,0,264,21,5,Chinese,f,1,0.1,-18.72790858,0.75923189
LX,139,2,2024-06-14T09:07:41.043Z,english_631.wav,0,0,264,21,5,Chinese,f,2,0.2,-40.03216697,1.00825659
LX,139,2,2024-06-14T09:07:41.043Z,english_631.wav,0,0,264,21,5,Chinese,f,3,0.3,-98.5967418,1.46579839
LX,139,2,2024-06-14T09:07:41.043Z,english_631.wav,0,0,264,21,5,Chinese,f,4,0.32341667,-41.89017921,0.34107994
LX,140,2,2024-06-14T09:07:41.043Z,english_961.wav,0,1,78,21,5,Chinese,f,0,0,20.81275789,1.87720953
LX,140,2,2024-06-14T09:07:41.043Z,english_961.wav,0,1,78,21,5,Chinese,f,1,0.1,46.48072234,1.43497285
LX,140,2,2024-06-14T09:07:41.043Z,english_961.wav,0,1,78,21,5,Chinese,f,2,0.2,79.36291712,1.9095844
LX,140,2,2024-06-14T09:07:41.043Z,english_961.wav,0,1,78,21,5,Chinese,f,3,0.3,7.86976501,0.20821065
LX,140,2,2024-06-14T09:07:41.043Z,english_961.wav,0,1,78,21,5,Chinese,f,4,0.32341667,-45.45751668,0.0640973
LX,141,2,2024-06-14T09:07:41.043Z,english_148.wav,0,1,248,21,5,Chinese,f,0,0,-15.87588743,0.13468567
LX,141,2,2024-06-14T09:07:41.043Z,english_148.wav,0,1,248,21,5,Chinese,f,1,0.1,66.05332506,1.11017862
LX,141,2,2024-06-14T09:07:41.043Z,english_148.wav,0,1,248,21,5,Chinese,f,2,0.2,50.59551539,0.42983488
LX,141,2,2024-06-14T09:07:41.043Z,english_148.wav,0,1,248,21,5,Chinese,f,3,0.3,-59.45276716,0.2729575
LX,141,2,2024-06-14T09:07:41.043Z,english_148.wav,0,1,248,21,5,Chinese,f,4,0.32341667,58.4155276,0.65396017
LX,142,2,2024-06-14T09:07:41.043Z,english_85.wav,0,0,638,21,5,Chinese,f,0,0,69.91092253,1.07696769
LX,142,2,2024-06-14T09:07:41.043Z,english_85.wav,0,0,638,21,5,Chinese,f,1,0.1,90.04885235,1.65675227
LX,142,2,2024-06-14T09:07:41.043Z,english_85.wav,0,0,638,21,5,Chinese,f,2,0.2,-54.471964,1.18566865
LX,142,2,2024-06-14T09:07:41.043Z,english_85.wav,0,0,638,21,5,Chinese,f,3,0.3,-32.42862041,0.43131811
LX,142,2,2024-06-14T09:07:41.043Z,english_85.wav,0,0,638,21,5,Chinese,f,4,0.32341667,-26.25094384,1.88641509
LX,143,2,2024-06-14T09:07:41.043Z,english_965.wav,0,1,126,21,5,Chinese,f,0,0,-19.49526798,1.71910172
LX,143,2,2024-06-14T09:07:41.043Z,english_965.wav,0,1,126,21,5,Chinese,f,1,0.1,-33.46093545,1.16323176
LX,143,2,2024-06-14T09:07:41.043Z,english_965.wav,0,1,126,21,5,Chinese,f,2,0.2,95.24809114,0.56514201
LX,143,2,2024-06-14T09:07:41.043Z,english_965.wav,0,1,126,21,5,Chinese,f,3,0.3,26.23968625,1.82539978
LX,143,2,2024-06-14T09:07:41.043Z,english_965.wav,0,1,126,21,5,Chinese,f,4,0.32341667,15.70217089,1.7659451
LX,144,2,2024-06-14T09:07:41.043Z,english_735.wav,0,1,271,21,5,Chinese,f,0,0,51.40973306,0.29099813
LX,144,2,2024-06-14T09:07:41.043Z,english_735.wav,0,1,271,21,5,Chinese,f,1,0.1,-5.42867159,1.62833375
LX,144,2,2024-06-14T09:07:41.043Z,english_735.wav,0,1,271,21,5,Chinese,f,2,0.2,13.71146629,0.32849247
LX,144,2,2024-06-14T09:07:41.043Z,english_735.wav,0,1,271,21,5,Chinese,f,3,0.3,-14.17202169,0.46991549
LX,144,2,2024-06-14T09:07:41.043Z,english_735.wav,0,1,271,21,5,Chinese,f,4,0.32341667,14.98699592,0.51625305
LX,145,2,2024-06-14T09:07:41.043Z,english_840.wav,0,0,522,21,5,Chinese,f,0,0,-27.11425843,1.31301797
LX,145,2,2024-06-14T09:07:41.043Z,english_840.wav,0,0,522,21,5,Chinese,f,1,0.1,-47.31494811,0.54280133
LX,145,2,2024-06-14T09:07:41.043Z,english_840.wav,0,0,522,21,5,Chinese,f,2,0.2,-88.66887426,0.14090987
LX,145,2,2024-06-14T09:07:41.043Z,english_840.wav,0,0,522,21,5,Chinese,f,3,0.3,7.86940595,0.11950116
LX,145,2,2024-06-14T09:07:41.043Z,english_840.wav,0,0,522,21,5,Chinese,f,4,0.32341667,87.61758205,1.48166624
LX,146,2,2024-06-14T09:07:41.043Z,english_236.wav,0,1,326,21,5,Chinese,f,0,0,14.26564849,0.89253674
LX,146,2,2024-06-14T09:07:41.043Z,english_236.wav,0,1,326,21,5,Chinese,f,1,0.1,60.97219358,0.38957934
LX,146,2,2024-06-14T09:07:41.043Z,english_236.wav,0,1,326,21,5,Chinese,f,2,0.2,-12.39626346,1.55558051
LX,146,2,2024-06-14T09:07:41.043Z,english_236.wav,0,1,326,21,5,Chinese,f,3,0.3,-62.87774076,0.2682718
LX,146,2,2024-06-14T09:07:41.043Z,english_236.wav,0,1,326,21,5,Chinese,f,4,0.32341667,-75.97684705,1.92182597
LX,147,2,2024-06-14T09:07:41.043Z,english_84.wav,0,0,255,21,5,Chinese,f,0,0,-42.35488886,0.45116064
LX,147,2,2024-06-14T09:07:41.043Z,english_84.wav,0,0,255,21,5,Chinese,f,1,0.1,17.86576323,1.91320005
LX,147,2,2024-06-14T09:07:41.043Z,english_84.wav,0,0,255,21,5,Chinese,f,2,0.2,-56.36172821,1.53140363
LX,147,2,2024-06-14T09:07:41.043Z,english_84.wav,0,0,255,21,5,Chinese,f,3,0.3,69.8537656,0.53091011
LX,147,2,2024-06-14T09:07:41.043Z,english_84.wav,0,0,255,21,5,Chinese,f,4,0.32341667,-47.30652012,1.59279301
LX,148,2,2024-06-14T09:07:41.043Z,english_201.wav,0,1,1005,21,5,Chinese,f,0,0,-11.66329209,1.59313322
LX,148,2,2024-06-14T09:07:41.043Z,english_201.wav,0,1,1005,21,5,Chinese,f,1,0.1,-73.85436231,1.78385616
LX,148,2,2024-06-14T09:07:41.043Z,english_201.wav,0,1,1005,21,5,Chinese,f,2,0.2,-12.5199597,0.57641365
LX,148,2,2024-06-14T09:07:41.043Z,english_201.wav,0,1,1005,21,5,Chinese,f,3,0.3,-44.18013019,1.54371285
LX,148,2,2024-06-14T09:07:41.043Z,english_201.wav,0,1,1005,21,5,Chinese,f,4,0.32341667,47.68284229,1.11944384
LX,149,2,2024-06-14T09:07:41.043Z,english_848.wav,0,0,302,21,5,Chinese,f,0,0,43.30233352,0.12582596
LX,149,2,2024-06-14T09:07:41.043Z,english_848.wav,0,0,302,21,5,Chinese,f,1,0.1,-77.77691247,1.72621372
LX,149,2,2024-06-14T09:07:41.043Z,english_848.wav,0,0,302,21,5,Chinese,f,2,0.2,-68.99020863,1.753656
LX,149,2,2024-06-14T09:07:41.043Z,english_848.wav,0,0,302,21,5,Chinese,f,3,0.3,-43.68641023,1.37442753
LX,149,2,2024-06-14T09:07:41.043Z,english_848.wav,0,0,302,21,5,Chinese,f,4,0.32341667,-14.19502025,1.04930351
LX,150,3,2024-06-14T09:07:41.043Z,english_805.wav,0,0,443,21,5,Chinese,f,0,0,-11.97504695,0.06029378
LX,150,3,2024-06-14T09:07:41.043Z,english_805.wav,0,0,443,21,5,Chinese,f,1,0.1,96.82911573,0.81391401
LX,150,3,2024-06-14T09:07:41.043Z,english_805.wav,0,0,443,21,5,Chinese,f,2,0.2,7.51835152,1.33531055
LX,150,3,2024-06-14T09:07:41.043Z,english_805.wav,0,0,443,21,5,Chinese,f,3,0.3,2.47378187,1.7608484
LX,150,3,2024-06-14T09:07:41.043Z,english_805.wav,0,0,443,21,5,Chinese,f,4,0.32341667,-43.26336213,1.4289718
LX,151,3,2024-06-14T09:07:41.043Z,english_790.wav,0,0,624,21,5,Chinese,f,0,0,51.18493756,0.66657869
LX,151,3,2024-06-14T09:07:41.043Z,english_790.wav,0,0,624,21,5,Chinese,f,1,0.1,-64.70105349,0.91857876
LX,151,3,2024-06-14T09:07:41.043Z,english_790.wav,0,0,624,21,5,Chinese,f,2,0.2,-90.57968214,1.26779222
LX,151,3,2024-06-14T09:07:41.043Z,english_790.wav,0,0,624,21,5,Chinese,f,3,0.3,-94.64625917,1.54144859
LX,151,3,2024-06-14T09:07:41.043Z,english_790.wav,0,0,624,21,5,Chinese,f,4,0.32341667,-38.85953331,1.32367104
LX,152,3,2024-06-14T09:07:41.043Z,english_710.wav,0,0,884,21,5,Chinese,f,0,0,-75.8732007,1.76991952
LX,152,3,2024-06-14T09:07:41.043Z,english_710.wav,0,0,884,21,5,Chinese,f,1,0.1,-57.22858583,1.84377411
LX,152,3,2024-06-14T09:07:41.043Z,english_710.wav,0,0,884,21,5,Chinese,f,2,0.2,28.4956072,1.20069914
LX,152,3,2024-06-14T09:07:41.043Z,english_710.wav,0,0,884,21,5,Chinese,f,3,0.3,-96.06281818,0.06088286
LX,152,3,2024-06-14T09:07:41.043Z,english_710.wav,0,0,884,21,5,Chinese,f,4,0.32341667,12.57492899,1.86160088
LX,153,3,2024-06-14T09:07:41.043Z,english_264.wav,0,1,242,21,5,Chinese,f,0,0,16.10521774,1.02407609
LX,153,3,2024-06-14T09:07:41.043Z,english_264.wav,0,1,242,21,5,Chinese,f,1,0.1,-43.55481907,1.4393598
LX,153,3,2024-06-14T09:07:41.043Z,english_264.wav,0,1,242,21,5,Chinese,f,2,0.2,-16.87093852,1.31552174
LX,153,3,2024-06-14T09:07:41.043Z,english_264.wav,0,1,242,21,5,Chinese,f,3,0.3,-81.41755984,1.17516842
LX,153,3,2024-06-14T09:07:41.043Z,english_264.wav,0,1,242,21,5,Chinese,f,4,0.32341667,-76.00277997,0.613195
LX,154,3,2024-06-14T09:07:41.043Z,english_338.wav,0,1,253,21,5,Chinese,f,0,0,-22.40965878,1.93572195
LX,154,3,2024-06-14T09:07:41.043Z,english_338.wav,0,1,253,21,5,Chinese,f,1,0.1,-10.16153496,1.78994992
LX,154,3,2024-06-14T09:07:41.043Z,english_338.wav,0,1,253,21,5,Chinese,f,2,0.2,-50.2449588,1.38134059
LX,154,3,2024-06-14T09:07:41.043Z,english_338.wav,0,1,253,21,5,Chinese,f,3,0.3,14.05674122,1.78462007
LX,154,3,2024-06-14T09:07:41.043Z,english_338.wav,0,1,253,21,5,Chinese,f,4,0.32341667,-78.35339858,1.2607094
LX,155,3,2024-06-14T09:07:41.043Z,english_720.wav,0,1,372,21,5,Chinese,f,0,0,85.23240719,1.23446246
LX,155,3,2024-06-14T09:07:41.043Z,english_720.wav,0,1,372,21,5,Chinese,f,1,0.1,78.65958559,0.77382892
LX,155,3,2024-06-14T09:07:41.043Z,english_720.wav,0,1,372,21,5,Chinese,f,2,0.2,-56.45174874,0.48705718
LX,155,3,2024-06-14T09:07:41.043Z,english_720.wav,0,1,372,21,5,Chinese,f,3,0.3,71.88898266,1.42335328
LX,155,3,2024-06-14T09:07:41.043Z,english_720.wav,0,1,372,21,5,Chinese,f,4,0.32341667,-9.13482,1.32495619
LX,156,3,2024-06-14T09:07:41.043Z,english_960.wav,0,0,176,21,5,Chinese,f,0,0,35.80457434,0.79357899
LX,156,3,2024-06-14T09:07:41.043Z,english_960.wav,0,0,176,21,5,Chinese,f,1,0.1,-19.98469691,0.63900775
LX,156,3,2024-06-14T09:07:41.043Z,english_960.wav,0,0,176,21,5,Chinese,f,2,0.2,-8.88025322,1.83966222
LX,156,3,2024-06-14T09:07:41.043Z,english_960.wav,0,0,176,21,5,Chinese,f,3,0.3,6.59365348,1.05168668
LX,156,3,2024-06-14T09:07:41.043Z,english_960.wav,0,0,176,21,5,Chinese,f,4,0.32341667,64.0885905,1.66020449
LX,157,3,2024-06-14T09:07:41.043Z,english_813.wav,0,1,193,21,5,Chinese,f,0,0,55.66932548,1.32885027
LX,157,3,2024-06-14T09:07:41.043Z,english_813.wav,0,1,193,21,5,Chinese,f,1,0.1,81.68960615,1.76450173
LX,157,3,2024-06-14T09:07:41.043Z,english_813.wav,0,1,193,21,5,Chinese,f,2,0.2,55.75765178,0.71046445
LX,157,3,2024-06-14T09:07:41.043Z,english_813.wav,0,1,193,21,5,Chinese,f,3,0.3,-1.25572602,1.00431818
LX,157,3,2024-06-14T09:07:41.043Z,english_813.wav,0,1,193,21,5,Chinese,f,4,0.32341667,95.15429199,0.60962601
LX,158,3,2024-06-14T09:07:41.043Z,english_104.wav,0,0,301,21,5,Chinese,f,0,0,42.44693926,0.1741435
LX,158,3,2024-06-14T09:07:41.043Z,english_104.wav,0,0,301,21,5,Chinese,f,1,0.1,82.22484934,0.11379641
LX,158,3,2024-06-14T09:07:41.043Z,english_104.wav,0,0,301,21,5,Chinese,f,2,0.2,7.21737924,1.60376175
LX,158,3,2024-06-14T09:07:41.043Z,english_104.wav,0,0,301,21,5,Chinese,f,3,0.3,26.54640215,1.08059257
LX,158,3,2024-06-14T09:07:41.043Z,english_104.wav,0,0,301,21,5,Chinese,f,4,0.32341667,-33.4974026,1.8061622
LX,159,3,2024-06-14T09:07:41.043Z,english_804.wav,0,1,259,21,5,Chinese,f,0,0,11.23319328,0.16159815
LX,159,3,2024-06-14T09:07:41.043Z,english_804.wav,0,1,259,21,5,Chinese,f,1,0.1,-75.15189859,1.76023076
LX,159,3,2024-06-14T09:07:41.043Z,english_804.wav,0,1,259,21,5,Chinese,f,2,0.2,5.39397939,0.7355024
LX,159,3,2024-06-14T09:07:41.043Z,english_804.wav,0,1,259,21,5,Chinese,f,3,0.3,42.92141331,1.74636497
LX,159,3,2024-06-14T09:07:41.043Z,english_804.wav,0,1,259,21,5,Chinese,f,4,0.32341667,-79.84726866,1.05562007
LX,160,3,2024-06-14T09:07:41.043Z,english_843.wav,0,0,193,21,5,Chinese,f,0,0,-34.38568909,1.38988397
LX,160,3,2024-06-14T09:07:41.043Z,english_843.wav,0,0,193,21,5,Chinese,f,1,0.1,91.48235516,0.61638546
LX,160,3,2024-06-14T09:07:41.043Z,english_843.wav,0,0,193,21,5,Chinese,f,2,0.2,45.43581208,1.5800421
LX,160,3,2024-06-14T09:07:41.043Z,english_843.wav,0,0,193,21,5,Chinese,f,3,0.3,47.04005582,1.07327256
LX,160,3,2024-06-14T09:07:41.043Z,english_843.wav,0,0,193,21,5,Chinese,f,4,0.32341667,30.80916685,0.46994626
LX,161,3,2024-06-14T09:07:41.043Z,english_492.wav,0,1,151,21,5,Chinese,f,0,0,-66.2832746,0.52930651
LX,161,3,2024-06-14T09:07:41.043Z,english_492.wav,0,1,151,21,5,Chinese,f,1,0.1,-19.36008054,1.11739795
LX,161,3,2024-06-14T09:07:41.043Z,english_492.wav,0,1,151,21,5,Chinese,f,2,0.2,95.25769545,1.86018292
LX,161,3,2024-06-14T09:07:41.043Z,english_492.wav,0,1,151,21,5,Chinese,f,3,0.3,-42.69351484,0.07313262
LX,161,3,2024-06-14T09:07:41.043Z,english_492.wav,0,1,151,21,5,Chinese,f,4,0.32341667,48.13359561,0.30480454
LX,162,3,2024-06-14T09:07:41.043Z,english_835.wav,0,1,294,21,5,Chinese,f,0,0,-14.38506183,1.1584592
LX,162,3,2024-06-14T09:07:41.043Z,english_835.wav,0,1,294,21,5,Chinese,f,1,0.1,-85.63264453,0.74788643
LX,162,3,2024-06-14T09:07:41.043Z,english_835.wav,0,1,294,21,5,Chinese,f,2,0.2,-9.08737486,0.99645811
LX,162,3,2024-06-14T09:07:41.043Z,english_835.wav,0,1,294,21,5,Chinese,f,3,0.3,-52.4382226,1.13057998
LX,162,3,2024-06-14T09:07:41.043Z,english_835.wav,0,1,294,21,5,Chinese,f,4,0.32341667,30.89255677,0.17868889
LX,163,3,2024-06-14T09:07:41.043Z,english_360.wav,0,1,237,21,5,Chinese,f,0,0,-50.57937638,0.73788637
LX,163,3,2024-06-14T09:07:41.043Z,english_360.wav,0,1,237,21,5,Chinese,f,1,0.1,-29.22164644,0.6487653
LX,163,3,2024-06-14T09:07:41.043Z,english_360.wav,0,1,237,21,5,Chinese,f,2,0.2,-88.45421248,0.73193848
LX,163,3,2024-06-14T09:07:41.043Z,english_360.wav,0,1,237,21,5,Chinese,f,3,0.3,93.68039656,1.75347372
LX,163,3,2024-06-14T09:07:41.043Z,english_360.wav,0,1,237,21,5,Chinese,f,4,0.32341667,-2.59092547,1.19277037
LX,164,3,2024-06-14T09:07:41.043Z,english_987.wav,0,1,207,21,5,Chinese,f,0,0,91.33137772,1.82656395
LX,164,3,2024-06-14T09:07:41.043Z,english_987.wav,0,1,207,21,5,Chinese,f,1,0.1,-39.20299527,1.12122948
LX,164,3,2024-06-14T09:07:41.043Z,english_987.wav,0,1,207,21,5,Chinese,f,2,0.2,78.9852337,1.12025045
LX,164,3,2024-06-14T09:07:41.043Z,english_987.wav,0,1,207,21,5,Chinese,f,3,0.3,-94.66209845,1.02557261
LX,164,3,2024-06-14T09:07:41.043Z,english_987.wav,0,1,207,21,5,Chinese,f,4,0.32341667,-71.76730894,1.06580695
LX,165,3,2024-06-14T09:07:41.043Z,english_368.wav,0,1,332,21,5,Chinese,f,0,0,-25.00542805,1.03431482
LX,165,3,2024-06-14T09:07:41.043Z,english_368.wav,0,1,332,21,5,Chinese,f,1,0.1,-48.20991773,0.92366821
LX,165,3,2024-06-14T09:07:41.043Z,english_368.wav,0,1,332,21,5,Chinese,f,2,0.2,-51.83604218,0.34019883
LX,165,3,2024-06-14T09:07:41.043Z,english_368.wav,0,1,332,21,5,Chinese,f,3,0.3,14.57062672,1.21184807
LX,165,3,2024-06-14T09:07:41.043Z,english_368.wav,0,1,332,21,5,Chinese,f,4,0.32341667,-26.77020505,0.81530657
LX,166,3,2024-06-14T09:07:41.043Z,english_426.wav,0,1,557,21,5,Chinese,f,0,0,84.66887763,0.58495982
LX,166,3,2024-06-14T09:07:41.043Z,english_426.wav,0,1,557,21,5,Chinese,f,1,0.1,6.08176803,0.31710055
LX,166,3,2024-06-14T09:07:41.043Z,english_426.wav,0,1,557,21,5,Chinese,f,2,0.2,90.82211143,1.7123379
LX,166,3,2024-06-14T09:07:41.043Z,english_426.wav,0,1,557,21,5,Chinese,f,3,0.3,42.04787562,1.38911617
LX,166,3,2024-06-14T09:07:41.043Z,english_426.wav,0,1,557,21,5,Chinese,f,4,0.32341667,-40.19306584,1.84862951
LX,167,3,2024-06-14T09:07:41.043Z,english_312.wav,0,0,884,21,5,Chinese,f,0,0,44.01610098,1.36033213
LX,167,3,2024-06-14T09:07:41.043Z,english_312.wav,0,0,884,21,5,Chinese,f,1,0.1,-34.76139374,0.08557756
LX,167,3,2024-06-14T09:07:41.043Z,english_312.wav,0,0,884,21,5,Chinese,f,2,0.2,-43.47986862,1.06509633
LX,167,3,2024-06-14T09:07:41.043Z,english_312.wav,0,0,884,21,5,Chinese,f,3,0.3,-9.79517271,0.67257935
LX,167,3,2024-06-14T09:07:41.043Z,english_312.wav,0,0,884,21,5,Chinese,f,4,0.32341667,85.48914895,0.12614926
LX,168,3,2024-06-14T09:07:41.043Z,english_183.wav,0,1,515,21,5,Chinese,f,0,0,-43.98322413,0.65201846
LX,168,3,2024-06-14T09:07:41.043Z,english_183.wav,0,1,515,21,5,Chinese,f,1,0.1,-25.77671075,1.22292345
LX,168,3,2024-06-14T09:07:41.043Z,english_183.wav,0,1,515,21,5,Chinese,f,2,0.2,39.5110442,1.45876179
LX,168,3,2024-06-14T09:07:41.043Z,english_183.wav,0,1,515,21,5,Chinese,f,3,0.3,-32.19697736,0.98656907
LX,168,3,2024-06-14T09:07:41.043Z,english_183.wav,0,1,515,21,5,Chinese,f,4,0.32341667,10.88673449,1.0349791
LX,169,3,2024-06-14T09:07:41.043Z,english_722.wav,0,0,672,21,5,Chinese,f,0,0,56.33358757,0.09194264
LX,169,3,2024-06-14T09:07:41.043Z,english_722.wav,0,0,672,21,5,Chinese,f,1,0.1,-63.11389498,1.89550133
LX,169,3,2024-06-14T09:07:41.043Z,english_722.wav,0,0,672,21,5,Chinese,f,2,0.2,65.64746862,0.18403216
LX,169,3,2024-06-14T09:07:41.043Z,english_722.wav,0,0,672,21,5,Chinese,f,3,0.3,-93.10605514,1.23223326
LX,169,3,2024-06-14T09:07:41.043Z,english_722.wav,0,0,672,21,5,Chinese,f,4,0.32341667,-45.92743551,0.28331892
LX,170,3,2024-06-14T09:07:41.043Z,english_876.wav,0,0,492,21,5,Chinese,f,0,0,-20.36884991,0.97958319
LX,170,3,2024-06-14T09:07:41.043Z,english_876.wav,0,0,492,21,5,Chinese,f,1,0.1,-12.16725052,0.93484439
LX,170,3,2024-06-14T09:07:41.043Z,english_876.wav,0,0,492,21,5,Chinese,f,2,0.2,-26.42868614,0.43422731
LX,170,3,2024-06-14T09:07:41.043Z,english_876.wav,0,0,492,21,5,Chinese,f,3,0.3,-15.16942384,0.12359811
LX,170,3,2024-06-14T09:07:41.043Z,english_876.wav,0,0,492,21,5,Chinese,f,4,0.32341667,-52.65446315,1.31629037
LX,171,3,2024-06-14T09:07:41.043Z,english_353.wav,0,1,367,21,5,Chinese,f,0,0,51.44050484,0.16518243
LX,171,3,2024-06-14T09:07:41.043Z,english_353.wav,0,1,367,21,5,Chinese,f,1,0.1,-8.32491594,1.32533476
LX,171,3,2024-06-14T09:07:41.043Z,english_353.wav,0,1,367,21,5,Chinese,f,2,0.2,-53.32966552,0.41923861
LX,171,3,2024-06-14T09:07:41.043Z,english_353.wav,0,1,367,21,5,Chinese,f,3,0.3,68.29246543,1.87374553
LX,171,3,2024-06-14T09:07:41.043Z,english_353.wav,0,1,367,21,5,Chinese,f,4,0.32341667,-32.22441747,1.13071195
LX,172,3,2024-06-14T09:07:41.043Z,english_882.wav,0,0,246,21,5,Chinese,f,0,0,-42.93700265,1.06489748
LX,172,3,2024-06-14T09:07:41.043Z,english_882.wav,0,0,246,21,5,Chinese,f,1,0.1,-62.35786663,1.38883859
LX,172,3,2024-06-14T09:07:41.043Z,english_882.wav,0,0,246,21,5,Chinese,f,2,0.2,-16.20482572,0.28843799
LX,172,3,2024-06-14T09:07:41.043Z,english_882.wav,0,0,246,21,5,Chinese,f,3,0.3,-46.49020195,1.05408179
LX,172,3,2024-06-14T09:07:41.043Z,english_882.wav,0,0,246,21,5,Chinese,f,4,0.32341667,-64.89408339,1.78517837
LX,173,3,2024-06-14T09:07:41.043Z,english_844.wav,0,1,362,21,5,Chinese,f,0,0,-84.59865618,1.95225136
LX,173,3,2024-06-14T09:07:41.043Z,english_844.wav,0,1,362,21,5,Chinese,f,1,0.1,2.74576488,1.66072701
LX,173,3,2024-06-14T09:07:41.043Z,english_844.wav,0,1,362,21,5,Chinese,f,2,0.2,-31.14414819,0.05165652
LX,173,3,2024-06-14T09:07:41.043Z,english_844.wav,0,1,362,21,5,Chinese,f,3,0.3,59.06244098,0.5878804
LX,173,3,2024-06-14T09:07:41.043Z,english_844.wav,0,1,362,21,5,Chinese,f,4,0.32341667,67.61674881,0.72232709
LX,174,3,2024-06-14T09:07:41.043Z,english_67.wav,0,1,1264,21,5,Chinese,f,0,0,70.16279698,0.73199358
LX,174,3,2024-06-14T09:07:41.043Z,english_67.wav,0,1,1264,21,5,Chinese,f,1,0.1,33.8182948,0.88382403
LX,174,3,2024-06-14T09:07:41.043Z,english_67.wav,0,1,1264,21,5,Chinese,f,2,0.2,-49.10498957,1.67993254
LX,174,3,2024-06-14T09:07:41.043Z,english_67.wav,0,1,1264,21,5,Chinese,f,3,0.3,-4.93823124,0.24455532
LX,174,3,2024-06-14T09:07:41.043Z,english_67.wav,0,1,1264,21,5,Chinese,f,4,0.32341667,24.09614703,1.99747442
LX,175,3,2024-06-14T09:07:41.043Z,english_983.wav,0,0,620,21,5,Chinese,f,0,0,32.38711768,0.79408654
LX,175,3,2024-06-14T09:07:41.043Z,english_983.wav,0,0,620,21,5,Chinese,f,1,0.1,-65.51600844,1.57845546
LX,175,3,2024-06-14T09:07:41.043Z,english_983.wav,0,0,620,21,5,Chinese,f,2,0.2,12.03576385,1.23356187
LX,175,3,2024-06-14T09:07:41.043Z,english_983.wav,0,0,620,21,5,Chinese,f,3,0.3,-64.14785636,0.65581831
LX,175,3,2024-06-14T09:07:41.043Z,english_983.wav,0,0,620,21,5,Chinese,f,4,0.32341667,-72.48499617,0.27936162
LX,176,3,2024-06-14T09:07:41.043Z,english_569.wav,0,0,1422,21,5,Chinese,f,0,0,-44.4695194,1.56768834
LX,176,3,2024-06-14T09:07:41.043Z,english_569.wav,0,0,1422,21,5,Chinese,f,1,0.1,50.36705327,0.42032873
LX,176,3,2024-06-14T09:07:41.043Z,english_569.wav,0,0,1422,21,5,Chinese,f,2,0.2,-76.17438636,0.31133764
LX,176,3,2024-06-14T09:07:41.043Z,english_569.wav,0,0,1422,21,5,Chinese,f,3,0.3,55.47083669,0.91900801
LX,176,3,2024-06-14T09:07:41.043Z,english_569.wav,0,0,1422,21,5,Chinese,f,4,0.32341667,-10.68913609,1.26529561
LX,177,3,2024-06-14T09:07:41.043Z,english_783.wav,0,0,1527,21,5,Chinese,f,0,0,23.05268069,1.49549247
LX,177,3,2024-06-14T09:07:41.043Z,english_783.wav,0,0,1527,21,5,Chinese,f,1,0.1,9.36005369,0.13797177
LX,177,3,2024-06-14T09:07:41.043Z,english_783.wav,0,0,1527,21,5,Chinese,f,2,0.2,62.81522218,1.80236654
LX,177,3,2024-06-14T09:07:41.043Z,english_783.wav,0,0,1527,21,5,Chinese,f,3,0.3,67.71456376,0.33800471
LX,177,3,2024-06-14T09:07:41.043Z,english_783.wav,0,0,1527,21,5,Chinese,f,4,0.32341667,77.96788237,1.97708045
LX,178,3,2024-06-14T09:07:41.043Z,english_272.wav,0,0,337,21,5,Chinese,f,0,0,61.82030971,1.51341556
LX,178,3,2024-06-14T09:07:41.043Z,english_272.wav,0,0,337,21,5,Chinese,f,1,0.1,4.16580657,0.43290826
LX,178,3,2024-06-14T09:07:41.043Z,english_272.wav,0,0,337,21,5,Chinese,f,2,0.2,-53.2567432,1.82734584
LX,178,3,2024-06-14T09:07:41.043Z,english_272.wav,0,0,337,21,5,Chinese,f,3,0.3,-52.99830768,0.22094446
LX,178,3,2024-06-14T09:07:41.043Z,english_272.wav,0,0,337,21,5,Chinese,f,4,0.32341667,-92.9943793,1.88040337
LX,179,3,2024-06-14T09:07:41.043Z,english_560.wav,0,0,198,21,5,Chinese,f,0,0,6.26341837,1.61909233
LX,179,3,2024-06-14T09:07:41.043Z,english_560.wav,0,0,198,21,5,Chinese,f,1,0.1,-94.10474965,0.93851614
LX,179,3,2024-06-14T09:07:41.043Z,english_560.wav,0,0,198,21,5,Chinese,f,2,0.2,-43.88069215,1.37910144
LX,179,3,2024-06-14T09:07:41.043Z,english_560.wav,0,0,198,21,5,Chinese,f,3,0.3,-26.3559156,1.10578935
LX,179,3,2024-06-14T09:07:41.043Z,english_560.wav,0,0,198,21,5,Chinese,f,4,0.32341667,-91.38105747,0.02070647
LX,180,3,2024-06-14T09:07:41.043Z,english_221.wav,0,0,2679,21,5,Chinese,f,0,0,85.84184869,1.38100565
LX,180,3,2024-06-14T09:07:41.043Z,english_221.wav,0,0,2679,21,5,Chinese,f,1,0.1,-20.37513589,0.79531516
LX,180,3,2024-06-14T09:07:41.043Z,english_221.wav,0,0,2679,21,5,Chinese,f,2,0.2,-89.75984637,0.9538446
LX,180,3,2024-06-14T09:07:41.043Z,english_221.wav,0,0,2679,21,5,Chinese,f,3,0.3,50.66879934,1.56492426
LX,180,3,2024-06-14T09:07:41.043Z,english_221.wav,0,0,2679,21,5,Chinese,f,4,0.32341667,20.92538743,1.60855456
LX,181,3,2024-06-14T09:07:41.043Z,english_100.wav,0,0,445,21,5,Chinese,f,0,0,-66.86198445,0.79522553
LX,181,3,2024-06-14T09:07:41.043Z,english_100.wav,0,0,445,21,5,Chinese,f,1,0.1,32.23990363,0.27784591
LX,181,3,2024-06-14T09:07:41.043Z,english_100.wav,0,0,445,21,5,Chinese,f,2,0.2,-63.31896149,1.76330212
LX,181,3,2024-06-14T09:07:41.043Z,english_100.wav,0,0,445,21,5,Chinese,f,3,0.3,-73.00038049,0.60946618
LX,181,3,2024-06-14T09:07:41.043Z,english_100.wav,0,0,445,21,5,Chinese,f,4,0.32341667,32.15710315,0.42695433
LX,182,3,2024-06-14T09:07:41.043Z,english_352.wav,0,0,332,21,5,Chinese,f,0,0,71.64354449,0.18312459
LX,182,3,2024-06-14T09:07:41.043Z,english_352.wav,0,0,332,21,5,Chinese,f,1,0.1,53.2516906,1.19991438
LX,182,3,2024-06-14T09:07:41.043Z,english_352.wav,0,0,332,21,5,Chinese,f,2,0.2,28.90726554,1.21095973
LX,182,3,2024-06-14T09:07:41.043Z,english_352.wav,0,0,332,21,5,Chinese,f,3,0.3,-49.8940387,1.61067418
LX,182,3,2024-06-14T09:07:41.043Z,english_352.wav,0,0,332,21,5,Chinese,f,4,0.32341667,21.76832357,1.26376439
LX,183,3,2024-06-14T09:07:41.043Z,english_726.wav,0,0,107,21,5,Chinese,f,0,0,76.65318619,0.71374833
LX,183,3,2024-06-14T09:07:41.043Z,english_726.wav,0,0,107,21,5,Chinese,f,1,0.1,62.97746083,1.94407191
LX,183,3,2024-06-14T09:07:41.043Z,english_726.wav,0,0,107,21,5,Chinese,f,2,0.2,-20.72245964,0.55951675
LX,183,3,2024-06-14T09:07:41.043Z,english_726.wav,0,0,107,21,5,Chinese,f,3,0.3,42.64953343,0.7826891
LX,183,3,2024-06-14T09:07:41.043Z,english_726.wav,0,0,107,21,5,Chinese,f,4,0.32341667,23.5514061,0.11592549
LX,184,3,2024-06-14T09:07:41.043Z,english_12.wav,0,0,1232,21,5,Chinese,f,0,0,48.33680056,1.48429429
LX,184,3,2024-06-14T09:07:41.043Z,english_12.wav,0,0,1232,21,5,Chinese,f,1,0.1,27.41870997,0.15715938
LX,184,3,2024-06-14T09:07:41.043Z,english_12.wav,0,0,1232,21,5,Chinese,f,2,0.2,-39.95667364,0.62940339
LX,184,3,2024-06-14T09:07:41.043Z,english_12.wav,0,0,1232,21,5,Chinese,f,3,0.3,73.52964836,0.05281398
LX,184,3,2024-06-14T09:07:41.043Z,english_12.wav,0,0,1232,21,5,Chinese,f,4,0.32341667,-36.35494906,1.6412938
LX,185,3,2024-06-14T09:07:41.043Z,english_828.wav,0,1,548,21,5,Chinese,f,0,0,51.6479082,0.4417702
LX,185,3,2024-06-14T09:07:41.043Z,english_828.wav,0,1,548,21,5,Chinese,f,1,0.1,37.62818293,1.22957458
LX,185,3,2024-06-14T09:07:41.043Z,english_828.wav,0,1,548,21,5,Chinese,f,2,0.2,55.79615955,0.69909727
LX,185,3,2024-06-14T09:07:41.043Z,english_828.wav,0,1,548,21,5,Chinese,f,3,0.3,31.91979646,1.572544
LX,185,3,2024-06-14T09:07:41.043Z,english_828.wav,0,1,548,21,5,Chinese,f,4,0.32341667,-22.21091203,0.87669833
LX,186,3,2024-06-14T09:07:41.043Z,english_849.wav,0,0,299,21,5,Chinese,f,0,0,-24.45439181,1.62147024
LX,186,3,2024-06-14T09:07:41.043Z,english_849.wav,0,0,299,21,5,Chinese,f,1,0.1,-64.97605389,1.28655358
LX,186,3,2024-06-14T09:07:41.043Z,english_849.wav,0,0,299,21,5,Chinese,f,2,0.2,-67.78874915,0.154454
LX,186,3,2024-06-14T09:07:41.043Z,english_849.wav,0,0,299,21,5,Chinese,f,3,0.3,-6.53184928,1.49227138
LX,186,3,2024-06-14T09:07:41.043Z,english_849.wav,0,0,299,21,5,Chinese,f,4,0.32341667,59.1884023,1.08662162
LX,187,3,2024-06-14T09:07:41.043Z,english_484.wav,0,0,239,21,5,Chinese,f,0,0,79.97188672,0.20745104
LX,187,3,2024-06-14T09:07:41.043Z,english_484.wav,0,0,239,21,5,Chinese,f,1,0.1,-84.58904822,1.46214797
LX,187,3,2024-06-14T09:07:41.043Z,english_484.wav,0,0,239,21,5,Chinese,f,2,0.2,70.2960477,0.40821612
LX,187,3,2024-06-14T09:07:41.043Z,english_484.wav,0,0,239,21,5,Chinese,f,3,0.3,-66.44520929,1.23203415
LX,187,3,2024-06-14T09:07:41.043Z,english_484.wav,0,0,239,21,5,Chinese,f,4,0.32341667,-78.91715359,1.26593617
LX,188,3,2024-06-14T09:07:41.043Z,english_614.wav,0,1,723,21,5,Chinese,f,0,0,78.57791509,1.76663636
LX,188,3,2024-06-14T09:07:41.043Z,english_614.wav,0,1,723,21,5,Chinese,f,1,0.1,-6.15631212,0.7337869
LX,188,3,2024-06-14T09:07:41.043Z,english_614.wav,0,1,723,21,5,Chinese,f,2,0.2,-15.34092719,1.62880485
LX,188,3,2024-06-14T09:07:41.043Z,english_614.wav,0,1,723,21,5,Chinese,f,3,0.3,21.91351344,0.61213133
LX,188,3,2024-06-14T09:07:41.043Z,english_614.wav,0,1,723,21,5,Chinese,f,4,0.32341667,-10.50820757,0.41097232
LX,189,3,2024-06-14T09:07:41.043Z,english_329.wav,0,0,1695,21,5,Chinese,f,0,0,-48.89108629,1.2424848
LX,189,3,2024-06-14T09:07:41.043Z,english_329.wav,0,0,1695,21,5,Chinese,f,1,0.1,55.67852038,1.73811564
LX,189,3,2024-06-14T09:07:41.043Z,english_329.wav,0,0,1695,21,5,Chinese,f,2,0.2,48.16827585,0.4928271
LX,189,3,2024-06-14T09:07:41.043Z,english_329.wav,0,0,1695,21,5,Chinese,f,3,0.3,73.70818564,0.68407289
LX,189,3,2024-06-14T09:07:41.043Z,english_329.wav,0,0,1695,21,5,Chinese,f,4,0.32341667,85.70797026,1.92917435
LX,190,3,2024-06-14T09:07:41.043Z,english_725.wav,0,1,13923,21,5,Chinese,f,0,0,26.80600371,0.25466557
LX,190,3,2024-06-14T09:07:41.043Z,english_725.wav,0,1,13923,21,5,Chinese,f,1,0.1,82.24352357,0.77088778
LX,190,3,2024-06-14T09:07:41.043Z,english_725.wav,0,1,13923,21,5,Chinese,f,2,0.2,-3.79901328,0.70697722
LX,190,3,2024-06-14T09:07:41.043Z,english_725.wav,0,1,13923,21,5,Chinese,f,3,0.3,68.54562933,1.24247197
LX,190,3,2024-06-14T09:07:41.043Z,english_725.wav,0,1,13923,21,5,Chinese,f,4,0.32341667,-39.79698803,1.34526742
LX,191,3,2024-06-14T09:07:41.043Z,english_98.wav,0,1,1051,21,5,Chinese,f,0,0,-23.07451683,0.55932234
LX,191,3,2024-06-14T09:07:41.043Z,english_98.wav,0,1,1051,21,5,Chinese,f,1,0.1,58.83766866,1.03192869
LX,191,3,2024-06-14T09:07:41.043Z,english_98.wav,0,1,1051,21,5,Chinese,f,2,0.2,75.90401246,1.16154403
LX,191,3,2024-06-14T09:07:41.043Z,english_98.wav,0,1,1051,21,5,Chinese,f,3,0.3,-86.31256295,0.50819795
LX,191,3,2024-06-14T09:07:41.043Z,english_98.wav,0,1,1051,21,5,Chinese,f,4,0.32341667,26.17624316,1.94690859
LX,192,3,2024-06-14T09:07:41.043Z,english_185.wav,0,0,652,21,5,Chinese,f,0,0,-67.20213277,0.62417316
LX,192,3,2024-06-14T09:07:41.043Z,english_185.wav,0,0,652,21,5,Chinese,f,1,0.1,-70.91279736,1.12829576
LX,192,3,2024-06-14T09:07:41.043Z,english_185.wav,0,0,652,21,5,Chinese,f,2,0.2,11.55913655,0.70978518
LX,192,3,2024-06-14T09:07:41.043Z,english_185.wav,0,0,652,21,5,Chinese,f,3,0.3,-88.76292025,0.02882377
LX,192,3,2024-06-14T09:07:41.043Z,english_185.wav,0,0,652,21,5,Chinese,f,4,0.32341667,-25.67800099,0.52970381
LX,193,3,2024-06-14T09:07:41.043Z,english_291.wav,0,1,369,21,5,Chinese,f,0,0,-23.91479102,1.25533579
LX,193,3,2024-06-14T09:07:41.043Z,english_291.wav,0,1,369,21,5,Chinese,f,1,0.1,-31.34063508,0.8599513
LX,193,3,2024-06-14T09:07:41.043Z,english_291.wav,0,1,369,21,5,Chinese,f,2,0.2,-16.29866726,1.40556138
LX,193,3,2024-06-14T09:07:41.043Z,english_291.wav,0,1,369,21,5,Chinese,f,3,0.3,10.36632866,0.42924112
LX,193,3,2024-06-14T09:07:41.043Z,english_291.wav,0,1,369,21,5,Chinese,f,4,0.32341667,7.35722843,0.61564446
LX,194,3,2024-06-14T09:07:41.043Z,english_61.wav,0,0,1032,21,5,Chinese,f,0,0,-58.73450167,1.5196582
LX,194,3,2024-06-14T09:07:41.043Z,english_61.wav,0,0,1032,21,5,Chinese,f,1,0.1,-68.77732169,0.79346499
