subj,trial,block,date,stim,stim_order,response,rt,age,english,language,sex,param_index,segment,pitch,stretch
YRY,0,0,2024-06-14T12:14:29.686Z,english_753.wav,0,0,2481,23,4,Mandarin,f,0,0,38.61944715,0.75641923
YRY,0,0,2024-06-14T12:14:29.686Z,english_753.wav,0,0,2481,23,4,Mandarin,f,1,0.1,-76.3398938,1.17320485
YRY,0,0,2024-06-14T12:14:29.686Z,english_753.wav,0,0,2481,23,4,Mandarin,f,2,0.2,-80.92813522,0.63072958
YRY,0,0,2024-06-14T12:14:29.686Z,english_753.wav,0,0,2481,23,4,Mandarin,f,3,0.3,-16.48508052,1.96252246
YRY,0,0,2024-06-14T12:14:29.686Z,english_753.wav,0,0,2481,23,4,Mandarin,f,4,0.32341667,16.23487259,1.97125296
YRY,1,0,2024-06-14T12:14:29.686Z,english_111.wav,0,0,8405,23,4,Mandarin,f,0,0,43.12539807,1.84745579
YRY,1,0,2024-06-14T12:14:29.686Z,english_111.wav,0,0,8405,23,4,Mandarin,f,1,0.1,63.99665526,0.92577031
YRY,1,0,2024-06-14T12:14:29.686Z,english_111.wav,0,0,8405,23,4,Mandarin,f,2,0.2,86.04570556,0.31264784
YRY,1,0,2024-06-14T12:14:29.686Z,english_111.wav,0,0,8405,23,4,Mandarin,f,3,0.3,-25.76798659,0.89352032
YRY,1,0,2024-06-14T12:14:29.686Z,english_111.wav,0,0,8405,23,4,Mandarin,f,4,0.32341667,-36.14422463,0.32138535
YRY,2,0,2024-06-14T12:14:29.686Z,english_199.wav,0,0,7896,23,4,Mandarin,f,0,0,-24.89956817,0.07306367
YRY,2,0,2024-06-14T12:14:29.686Z,english_199.wav,0,0,7896,23,4,Mandarin,f,1,0.1,-48.49200931,0.10334581
YRY,2,0,2024-06-14T12:14:29.686Z,english_199.wav,0,0,7896,23,4,Mandarin,f,2,0.2,-89.66548778,1.49062114
YRY,2,0,2024-06-14T12:14:29.686Z,english_199.wav,0,0,7896,23,4,Mandarin,f,3,0.3,29.20785813,0.36717513
YRY,2,0,2024-06-14T12:14:29.686Z,english_199.wav,0,0,7896,23,4,Mandarin,f,4,0.32341667,-88.68286362,1.33179809
YRY,3,0,2024-06-14T12:14:29.686Z,english_297.wav,0,0,2669,23,4,Mandarin,f,0,0,43.84745313,1.28698197
YRY,3,0,2024-06-14T12:14:29.686Z,english_297.wav,0,0,2669,23,4,Mandarin,f,1,0.1,-76.77337823,0.55126404
YRY,3,0,2024-06-14T12:14:29.686Z,english_297.wav,0,0,2669,23,4,Mandarin,f,2,0.2,52.72097055,0.14077967
YRY,3,0,2024-06-14T12:14:29.686Z,english_297.wav,0,0,2669,23,4,Mandarin,f,3,0.3,-53.36684977,1.29889067
YRY,3,0,2024-06-14T12:14:29.686Z,english_297.wav,0,0,2669,23,4,Mandarin,f,4,0.32341667,81.15212258,1.30715655
YRY,4,0,2024-06-14T12:14:29.686Z,english_232.wav,0,0,3605,23,4,Mandarin,f,0,0,15.13134779,0.53160298
YRY,4,0,2024-06-14T12:14:29.686Z,english_232.wav,0,0,3605,23,4,Mandarin,f,1,0.1,-49.29605083,0.4519978
YRY,4,0,2024-06-14T12:14:29.686Z,english_232.wav,0,0,3605,23,4,Mandarin,f,2,0.2,59.10606455,0.39260156
YRY,4,0,2024-06-14T12:14:29.686Z,english_232.wav,0,0,3605,23,4,Mandarin,f,3,0.3,48.81708847,0.4692084
YRY,4,0,2024-06-14T12:14:29.686Z,english_232.wav,0,0,3605,23,4,Mandarin,f,4,0.32341667,14.83590121,0.46233459
YRY,5,0,2024-06-14T12:14:29.686Z,english_116.wav,0,1,959,23,4,Mandarin,f,0,0,47.3382154,1.30986561
YRY,5,0,2024-06-14T12:14:29.686Z,english_116.wav,0,1,959,23,4,Mandarin,f,1,0.1,-82.57412589,0.36649927
YRY,5,0,2024-06-14T12:14:29.686Z,english_116.wav,0,1,959,23,4,Mandarin,f,2,0.2,24.81754674,1.53598436
YRY,5,0,2024-06-14T12:14:29.686Z,english_116.wav,0,1,959,23,4,Mandarin,f,3,0.3,61.93416492,1.65694634
YRY,5,0,2024-06-14T12:14:29.686Z,english_116.wav,0,1,959,23,4,Mandarin,f,4,0.32341667,-97.8286579,0.40343631
YRY,6,0,2024-06-14T12:14:29.686Z,english_130.wav,0,0,7613,23,4,Mandarin,f,0,0,-27.4951122,0.83907871
YRY,6,0,2024-06-14T12:14:29.686Z,english_130.wav,0,0,7613,23,4,Mandarin,f,1,0.1,-38.07775804,1.38560413
YRY,6,0,2024-06-14T12:14:29.686Z,english_130.wav,0,0,7613,23,4,Mandarin,f,2,0.2,-9.69340922,0.50531735
YRY,6,0,2024-06-14T12:14:29.686Z,english_130.wav,0,0,7613,23,4,Mandarin,f,3,0.3,-88.09187015,0.53414674
YRY,6,0,2024-06-14T12:14:29.686Z,english_130.wav,0,0,7613,23,4,Mandarin,f,4,0.32341667,-47.45461314,1.10107345
YRY,7,0,2024-06-14T12:14:29.686Z,english_514.wav,0,1,3758,23,4,Mandarin,f,0,0,-61.65105701,1.12509033
YRY,7,0,2024-06-14T12:14:29.686Z,english_514.wav,0,1,3758,23,4,Mandarin,f,1,0.1,49.84264816,0.78701739
YRY,7,0,2024-06-14T12:14:29.686Z,english_514.wav,0,1,3758,23,4,Mandarin,f,2,0.2,14.14440898,0.37052689
YRY,7,0,2024-06-14T12:14:29.686Z,english_514.wav,0,1,3758,23,4,Mandarin,f,3,0.3,-30.10662908,1.42053426
YRY,7,0,2024-06-14T12:14:29.686Z,english_514.wav,0,1,3758,23,4,Mandarin,f,4,0.32341667,90.48337022,1.94621598
YRY,8,0,2024-06-14T12:14:29.686Z,english_40.wav,0,0,609,23,4,Mandarin,f,0,0,20.98315678,0.33544846
YRY,8,0,2024-06-14T12:14:29.686Z,english_40.wav,0,0,609,23,4,Mandarin,f,1,0.1,80.64974175,0.81764939
YRY,8,0,2024-06-14T12:14:29.686Z,english_40.wav,0,0,609,23,4,Mandarin,f,2,0.2,5.38930518,0.17548883
YRY,8,0,2024-06-14T12:14:29.686Z,english_40.wav,0,0,609,23,4,Mandarin,f,3,0.3,18.83593916,0.83674413
YRY,8,0,2024-06-14T12:14:29.686Z,english_40.wav,0,0,609,23,4,Mandarin,f,4,0.32341667,-14.62145671,0.80890384
YRY,9,0,2024-06-14T12:14:29.686Z,english_557.wav,0,1,634,23,4,Mandarin,f,0,0,43.94308994,0.38165316
YRY,9,0,2024-06-14T12:14:29.686Z,english_557.wav,0,1,634,23,4,Mandarin,f,1,0.1,84.77773598,1.19567933
YRY,9,0,2024-06-14T12:14:29.686Z,english_557.wav,0,1,634,23,4,Mandarin,f,2,0.2,-14.75143777,1.35103773
YRY,9,0,2024-06-14T12:14:29.686Z,english_557.wav,0,1,634,23,4,Mandarin,f,3,0.3,-37.76141322,1.69174007
YRY,9,0,2024-06-14T12:14:29.686Z,english_557.wav,0,1,634,23,4,Mandarin,f,4,0.32341667,-5.99076179,0.4334092
YRY,10,0,2024-06-14T12:14:29.686Z,english_100.wav,0,0,1307,23,4,Mandarin,f,0,0,-66.86198445,0.79522553
YRY,10,0,2024-06-14T12:14:29.686Z,english_100.wav,0,0,1307,23,4,Mandarin,f,1,0.1,32.23990363,0.27784591
YRY,10,0,2024-06-14T12:14:29.686Z,english_100.wav,0,0,1307,23,4,Mandarin,f,2,0.2,-63.31896149,1.76330212
YRY,10,0,2024-06-14T12:14:29.686Z,english_100.wav,0,0,1307,23,4,Mandarin,f,3,0.3,-73.00038049,0.60946618
YRY,10,0,2024-06-14T12:14:29.686Z,english_100.wav,0,0,1307,23,4,Mandarin,f,4,0.32341667,32.15710315,0.42695433
YRY,11,0,2024-06-14T12:14:29.686Z,english_620.wav,0,0,3715,23,4,Mandarin,f,0,0,-92.9203055,0.43561856
YRY,11,0,2024-06-14T12:14:29.686Z,english_620.wav,0,0,3715,23,4,Mandarin,f,1,0.1,26.7086056,0.24535421
YRY,11,0,2024-06-14T12:14:29.686Z,english_620.wav,0,0,3715,23,4,Mandarin,f,2,0.2,89.1883135,1.34102831
YRY,11,0,2024-06-14T12:14:29.686Z,english_620.wav,0,0,3715,23,4,Mandarin,f,3,0.3,-0.0557738795,1.80103954
YRY,11,0,2024-06-14T12:14:29.686Z,english_620.wav,0,0,3715,23,4,Mandarin,f,4,0.323416667,2.9787243,0.21248525
YRY,12,0,2024-06-14T12:14:29.686Z,english_203.wav,0,1,1715,23,4,Mandarin,f,0,0,-22.28277813,1.31475846
YRY,12,0,2024-06-14T12:14:29.686Z,english_203.wav,0,1,1715,23,4,Mandarin,f,1,0.1,13.21695477,1.08922412
YRY,12,0,2024-06-14T12:14:29.686Z,english_203.wav,0,1,1715,23,4,Mandarin,f,2,0.2,63.23651974,0.55450355
YRY,12,0,2024-06-14T12:14:29.686Z,english_203.wav,0,1,1715,23,4,Mandarin,f,3,0.3,-20.14830746,1.72034007
YRY,12,0,2024-06-14T12:14:29.686Z,english_203.wav,0,1,1715,23,4,Mandarin,f,4,0.32341667,-78.55276631,0.92481053
YRY,13,0,2024-06-14T12:14:29.686Z,english_469.wav,0,1,449,23,4,Mandarin,f,0,0,-12.92877168,0.59007764
YRY,13,0,2024-06-14T12:14:29.686Z,english_469.wav,0,1,449,23,4,Mandarin,f,1,0.1,-67.35237443,1.36577084
YRY,13,0,2024-06-14T12:14:29.686Z,english_469.wav,0,1,449,23,4,Mandarin,f,2,0.2,-70.76493751,1.86337992
YRY,13,0,2024-06-14T12:14:29.686Z,english_469.wav,0,1,449,23,4,Mandarin,f,3,0.3,86.785725,1.85233296
YRY,13,0,2024-06-14T12:14:29.686Z,english_469.wav,0,1,449,23,4,Mandarin,f,4,0.32341667,-36.33255728,1.108986
YRY,14,0,2024-06-14T12:14:29.686Z,english_595.wav,0,1,755,23,4,Mandarin,f,0,0,-39.84727911,1.6526444
YRY,14,0,2024-06-14T12:14:29.686Z,english_595.wav,0,1,755,23,4,Mandarin,f,1,0.1,-68.85607622,1.11711065
YRY,14,0,2024-06-14T12:14:29.686Z,english_595.wav,0,1,755,23,4,Mandarin,f,2,0.2,23.68364187,1.96516016
YRY,14,0,2024-06-14T12:14:29.686Z,english_595.wav,0,1,755,23,4,Mandarin,f,3,0.3,-80.51887658,0.34053421
YRY,14,0,2024-06-14T12:14:29.686Z,english_595.wav,0,1,755,23,4,Mandarin,f,4,0.32341667,-94.66311932,1.22603371
YRY,15,0,2024-06-14T12:14:29.686Z,english_161.wav,0,1,419,23,4,Mandarin,f,0,0,16.17182642,0.80971259
YRY,15,0,2024-06-14T12:14:29.686Z,english_161.wav,0,1,419,23,4,Mandarin,f,1,0.1,51.23408036,1.56168911
YRY,15,0,2024-06-14T12:14:29.686Z,english_161.wav,0,1,419,23,4,Mandarin,f,2,0.2,56.55598601,0.91666403
YRY,15,0,2024-06-14T12:14:29.686Z,english_161.wav,0,1,419,23,4,Mandarin,f,3,0.3,-25.08054758,1.93998208
YRY,15,0,2024-06-14T12:14:29.686Z,english_161.wav,0,1,419,23,4,Mandarin,f,4,0.32341667,-70.36900789,0.76147365
YRY,16,0,2024-06-14T12:14:29.686Z,english_606.wav,0,0,916,23,4,Mandarin,f,0,0,-54.19201916,1.71730642
YRY,16,0,2024-06-14T12:14:29.686Z,english_606.wav,0,0,916,23,4,Mandarin,f,1,0.1,-9.49104439,0.42216081
YRY,16,0,2024-06-14T12:14:29.686Z,english_606.wav,0,0,916,23,4,Mandarin,f,2,0.2,1.17868262,1.31506394
YRY,16,0,2024-06-14T12:14:29.686Z,english_606.wav,0,0,916,23,4,Mandarin,f,3,0.3,-95.39718692,0.06922913
YRY,16,0,2024-06-14T12:14:29.686Z,english_606.wav,0,0,916,23,4,Mandarin,f,4,0.32341667,-48.659775,0.08316227
YRY,17,0,2024-06-14T12:14:29.686Z,english_450.wav,0,1,391,23,4,Mandarin,f,0,0,32.75253923,1.28767958
YRY,17,0,2024-06-14T12:14:29.686Z,english_450.wav,0,1,391,23,4,Mandarin,f,1,0.1,-95.51335644,1.7262356
YRY,17,0,2024-06-14T12:14:29.686Z,english_450.wav,0,1,391,23,4,Mandarin,f,2,0.2,34.87485597,0.97567272
YRY,17,0,2024-06-14T12:14:29.686Z,english_450.wav,0,1,391,23,4,Mandarin,f,3,0.3,-23.91285283,1.94639387
YRY,17,0,2024-06-14T12:14:29.686Z,english_450.wav,0,1,391,23,4,Mandarin,f,4,0.32341667,-8.67870007,1.78958339
YRY,18,0,2024-06-14T12:14:29.686Z,english_751.wav,0,1,1578,23,4,Mandarin,f,0,0,45.03630887,0.43450625
YRY,18,0,2024-06-14T12:14:29.686Z,english_751.wav,0,1,1578,23,4,Mandarin,f,1,0.1,46.59103402,1.30072592
YRY,18,0,2024-06-14T12:14:29.686Z,english_751.wav,0,1,1578,23,4,Mandarin,f,2,0.2,-30.90440374,1.20093797
YRY,18,0,2024-06-14T12:14:29.686Z,english_751.wav,0,1,1578,23,4,Mandarin,f,3,0.3,-61.26470289,0.81911259
YRY,18,0,2024-06-14T12:14:29.686Z,english_751.wav,0,1,1578,23,4,Mandarin,f,4,0.32341667,34.91384756,0.19140491
YRY,19,0,2024-06-14T12:14:29.686Z,english_532.wav,0,0,612,23,4,Mandarin,f,0,0,-19.59321792,1.69826346
YRY,19,0,2024-06-14T12:14:29.686Z,english_532.wav,0,0,612,23,4,Mandarin,f,1,0.1,84.44945775,1.19849103
YRY,19,0,2024-06-14T12:14:29.686Z,english_532.wav,0,0,612,23,4,Mandarin,f,2,0.2,-5.6477907,0.05164805
YRY,19,0,2024-06-14T12:14:29.686Z,english_532.wav,0,0,612,23,4,Mandarin,f,3,0.3,-66.11375502,0.74129516
YRY,19,0,2024-06-14T12:14:29.686Z,english_532.wav,0,0,612,23,4,Mandarin,f,4,0.32341667,-46.16722618,0.11393119
YRY,20,0,2024-06-14T12:14:29.686Z,english_114.wav,0,1,338,23,4,Mandarin,f,0,0,32.66189176,0.56529239
YRY,20,0,2024-06-14T12:14:29.686Z,english_114.wav,0,1,338,23,4,Mandarin,f,1,0.1,11.50533392,1.79520186
YRY,20,0,2024-06-14T12:14:29.686Z,english_114.wav,0,1,338,23,4,Mandarin,f,2,0.2,-73.58201401,1.4619954
YRY,20,0,2024-06-14T12:14:29.686Z,english_114.wav,0,1,338,23,4,Mandarin,f,3,0.3,-8.93644113,0.78288211
YRY,20,0,2024-06-14T12:14:29.686Z,english_114.wav,0,1,338,23,4,Mandarin,f,4,0.32341667,-2.4794064,0.66376764
YRY,21,0,2024-06-14T12:14:29.686Z,english_687.wav,0,0,634,23,4,Mandarin,f,0,0,86.90300909,0.475784
YRY,21,0,2024-06-14T12:14:29.686Z,english_687.wav,0,0,634,23,4,Mandarin,f,1,0.1,79.71843279,0.40603367
YRY,21,0,2024-06-14T12:14:29.686Z,english_687.wav,0,0,634,23,4,Mandarin,f,2,0.2,34.94433723,0.97706088
YRY,21,0,2024-06-14T12:14:29.686Z,english_687.wav,0,0,634,23,4,Mandarin,f,3,0.3,-45.53952821,0.65075382
YRY,21,0,2024-06-14T12:14:29.686Z,english_687.wav,0,0,634,23,4,Mandarin,f,4,0.32341667,63.0204093,0.93918167
YRY,22,0,2024-06-14T12:14:29.686Z,english_816.wav,0,1,808,23,4,Mandarin,f,0,0,-5.39935373,0.27372013
YRY,22,0,2024-06-14T12:14:29.686Z,english_816.wav,0,1,808,23,4,Mandarin,f,1,0.1,-58.12348851,1.23542608
YRY,22,0,2024-06-14T12:14:29.686Z,english_816.wav,0,1,808,23,4,Mandarin,f,2,0.2,-97.19740724,1.6956732
YRY,22,0,2024-06-14T12:14:29.686Z,english_816.wav,0,1,808,23,4,Mandarin,f,3,0.3,4.60418864,0.17466083
YRY,22,0,2024-06-14T12:14:29.686Z,english_816.wav,0,1,808,23,4,Mandarin,f,4,0.32341667,57.92285533,0.69657013
YRY,23,0,2024-06-14T12:14:29.686Z,english_197.wav,0,1,422,23,4,Mandarin,f,0,0,-60.72223742,1.8449777
YRY,23,0,2024-06-14T12:14:29.686Z,english_197.wav,0,1,422,23,4,Mandarin,f,1,0.1,-88.93421142,1.74693134
YRY,23,0,2024-06-14T12:14:29.686Z,english_197.wav,0,1,422,23,4,Mandarin,f,2,0.2,51.43827126,1.11057597
YRY,23,0,2024-06-14T12:14:29.686Z,english_197.wav,0,1,422,23,4,Mandarin,f,3,0.3,7.80125839,1.67371275
YRY,23,0,2024-06-14T12:14:29.686Z,english_197.wav,0,1,422,23,4,Mandarin,f,4,0.32341667,-53.06876459,1.16077516
YRY,24,0,2024-06-14T12:14:29.686Z,english_57.wav,0,0,616,23,4,Mandarin,f,0,0,-27.39668164,1.97835384
YRY,24,0,2024-06-14T12:14:29.686Z,english_57.wav,0,0,616,23,4,Mandarin,f,1,0.1,63.52389761,0.69906452
YRY,24,0,2024-06-14T12:14:29.686Z,english_57.wav,0,0,616,23,4,Mandarin,f,2,0.2,-55.42033209,0.75389415
YRY,24,0,2024-06-14T12:14:29.686Z,english_57.wav,0,0,616,23,4,Mandarin,f,3,0.3,40.81906742,0.20375649
YRY,24,0,2024-06-14T12:14:29.686Z,english_57.wav,0,0,616,23,4,Mandarin,f,4,0.32341667,-12.75543821,1.65585112
YRY,25,0,2024-06-14T12:14:29.686Z,english_61.wav,0,1,614,23,4,Mandarin,f,0,0,-58.73450167,1.5196582
YRY,25,0,2024-06-14T12:14:29.686Z,english_61.wav,0,1,614,23,4,Mandarin,f,1,0.1,-68.77732169,0.79346499
YRY,25,0,2024-06-14T12:14:29.686Z,english_61.wav,0,1,614,23,4,Mandarin,f,2,0.2,-61.07430116,0.90548432
YRY,25,0,2024-06-14T12:14:29.686Z,english_61.wav,0,1,614,23,4,Mandarin,f,3,0.3,-87.12791991,1.71431728
YRY,25,0,2024-06-14T12:14:29.686Z,english_61.wav,0,1,614,23,4,Mandarin,f,4,0.32341667,47.32358741,0.57778581
YRY,26,0,2024-06-14T12:14:29.686Z,english_318.wav,0,0,579,23,4,Mandarin,f,0,0,40.16064427,0.11467793
YRY,26,0,2024-06-14T12:14:29.686Z,english_318.wav,0,0,579,23,4,Mandarin,f,1,0.1,-52.58874178,0.6224104
YRY,26,0,2024-06-14T12:14:29.686Z,english_318.wav,0,0,579,23,4,Mandarin,f,2,0.2,46.7653316,0.05328619
YRY,26,0,2024-06-14T12:14:29.686Z,english_318.wav,0,0,579,23,4,Mandarin,f,3,0.3,-41.44559589,0.01138238
YRY,26,0,2024-06-14T12:14:29.686Z,english_318.wav,0,0,579,23,4,Mandarin,f,4,0.32341667,-2.50443948,1.16020285
YRY,27,0,2024-06-14T12:14:29.686Z,english_11.wav,0,1,371,23,4,Mandarin,f,0,0,-20.45826732,1.19869378
YRY,27,0,2024-06-14T12:14:29.686Z,english_11.wav,0,1,371,23,4,Mandarin,f,1,0.1,-31.26113472,0.2059713
YRY,27,0,2024-06-14T12:14:29.686Z,english_11.wav,0,1,371,23,4,Mandarin,f,2,0.2,84.03210455,0.62296143
YRY,27,0,2024-06-14T12:14:29.686Z,english_11.wav,0,1,371,23,4,Mandarin,f,3,0.3,30.35463164,1.49781179
YRY,27,0,2024-06-14T12:14:29.686Z,english_11.wav,0,1,371,23,4,Mandarin,f,4,0.32341667,-63.36217442,0.18750748
YRY,28,0,2024-06-14T12:14:29.686Z,english_156.wav,0,1,537,23,4,Mandarin,f,0,0,93.86570948,0.27803573
YRY,28,0,2024-06-14T12:14:29.686Z,english_156.wav,0,1,537,23,4,Mandarin,f,1,0.1,63.74639013,0.76121308
YRY,28,0,2024-06-14T12:14:29.686Z,english_156.wav,0,1,537,23,4,Mandarin,f,2,0.2,-97.10775444,0.98438609
YRY,28,0,2024-06-14T12:14:29.686Z,english_156.wav,0,1,537,23,4,Mandarin,f,3,0.3,99.76737427,0.34877861
YRY,28,0,2024-06-14T12:14:29.686Z,english_156.wav,0,1,537,23,4,Mandarin,f,4,0.32341667,11.29868277,0.58154428
YRY,29,0,2024-06-14T12:14:29.686Z,english_50.wav,0,1,465,23,4,Mandarin,f,0,0,-72.72872807,1.68140442
YRY,29,0,2024-06-14T12:14:29.686Z,english_50.wav,0,1,465,23,4,Mandarin,f,1,0.1,-88.33626222,1.82728433
YRY,29,0,2024-06-14T12:14:29.686Z,english_50.wav,0,1,465,23,4,Mandarin,f,2,0.2,-2.18882928,0.80476824
YRY,29,0,2024-06-14T12:14:29.686Z,english_50.wav,0,1,465,23,4,Mandarin,f,3,0.3,60.61456424,0.21215651
YRY,29,0,2024-06-14T12:14:29.686Z,english_50.wav,0,1,465,23,4,Mandarin,f,4,0.32341667,95.28335061,1.87644163
YRY,30,0,2024-06-14T12:14:29.686Z,english_769.wav,0,0,477,23,4,Mandarin,f,0,0,-12.68288087,1.59358978
YRY,30,0,2024-06-14T12:14:29.686Z,english_769.wav,0,0,477,23,4,Mandarin,f,1,0.1,13.58895245,0.16681031
YRY,30,0,2024-06-14T12:14:29.686Z,english_769.wav,0,0,477,23,4,Mandarin,f,2,0.2,-5.57429841,0.74292099
YRY,30,0,2024-06-14T12:14:29.686Z,english_769.wav,0,0,477,23,4,Mandarin,f,3,0.3,-26.44516544,0.17250104
YRY,30,0,2024-06-14T12:14:29.686Z,english_769.wav,0,0,477,23,4,Mandarin,f,4,0.32341667,85.93285426,0.16730253
YRY,31,0,2024-06-14T12:14:29.686Z,english_774.wav,0,1,523,23,4,Mandarin,f,0,0,-13.3479616,1.45409172
YRY,31,0,2024-06-14T12:14:29.686Z,english_774.wav,0,1,523,23,4,Mandarin,f,1,0.1,-18.75352159,1.07775337
YRY,31,0,2024-06-14T12:14:29.686Z,english_774.wav,0,1,523,23,4,Mandarin,f,2,0.2,-41.83192829,0.61872946
YRY,31,0,2024-06-14T12:14:29.686Z,english_774.wav,0,1,523,23,4,Mandarin,f,3,0.3,14.77986843,1.87871381
YRY,31,0,2024-06-14T12:14:29.686Z,english_774.wav,0,1,523,23,4,Mandarin,f,4,0.32341667,45.85609187,1.0399825
YRY,32,0,2024-06-14T12:14:29.686Z,english_350.wav,0,0,987,23,4,Mandarin,f,0,0,97.64268741,0.61487918
YRY,32,0,2024-06-14T12:14:29.686Z,english_350.wav,0,0,987,23,4,Mandarin,f,1,0.1,23.96704837,0.40988424
YRY,32,0,2024-06-14T12:14:29.686Z,english_350.wav,0,0,987,23,4,Mandarin,f,2,0.2,50.30792237,0.86872158
YRY,32,0,2024-06-14T12:14:29.686Z,english_350.wav,0,0,987,23,4,Mandarin,f,3,0.3,71.77937185,1.01783109
YRY,32,0,2024-06-14T12:14:29.686Z,english_350.wav,0,0,987,23,4,Mandarin,f,4,0.32341667,-64.81416361,0.68761283
YRY,33,0,2024-06-14T12:14:29.686Z,english_730.wav,0,1,379,23,4,Mandarin,f,0,0,12.15035978,0.91227818
YRY,33,0,2024-06-14T12:14:29.686Z,english_730.wav,0,1,379,23,4,Mandarin,f,1,0.1,-56.22765555,1.17022701
YRY,33,0,2024-06-14T12:14:29.686Z,english_730.wav,0,1,379,23,4,Mandarin,f,2,0.2,-53.26534685,0.58034143
YRY,33,0,2024-06-14T12:14:29.686Z,english_730.wav,0,1,379,23,4,Mandarin,f,3,0.3,-25.75230742,1.9562998
YRY,33,0,2024-06-14T12:14:29.686Z,english_730.wav,0,1,379,23,4,Mandarin,f,4,0.32341667,-73.04726616,1.99538846
YRY,34,0,2024-06-14T12:14:29.686Z,english_31.wav,0,1,627,23,4,Mandarin,f,0,0,21.28810337,1.2057056
YRY,34,0,2024-06-14T12:14:29.686Z,english_31.wav,0,1,627,23,4,Mandarin,f,1,0.1,68.821868,0.99381392
YRY,34,0,2024-06-14T12:14:29.686Z,english_31.wav,0,1,627,23,4,Mandarin,f,2,0.2,-73.02143346,0.87600828
YRY,34,0,2024-06-14T12:14:29.686Z,english_31.wav,0,1,627,23,4,Mandarin,f,3,0.3,68.60173581,1.15844697
YRY,34,0,2024-06-14T12:14:29.686Z,english_31.wav,0,1,627,23,4,Mandarin,f,4,0.32341667,51.47999234,1.3722803
YRY,35,0,2024-06-14T12:14:29.686Z,english_166.wav,0,1,492,23,4,Mandarin,f,0,0,37.27670025,1.42766663
YRY,35,0,2024-06-14T12:14:29.686Z,english_166.wav,0,1,492,23,4,Mandarin,f,1,0.1,34.38847046,0.72731767
YRY,35,0,2024-06-14T12:14:29.686Z,english_166.wav,0,1,492,23,4,Mandarin,f,2,0.2,49.91842175,1.80608275
YRY,35,0,2024-06-14T12:14:29.686Z,english_166.wav,0,1,492,23,4,Mandarin,f,3,0.3,56.9541748,1.91598421
YRY,35,0,2024-06-14T12:14:29.686Z,english_166.wav,0,1,492,23,4,Mandarin,f,4,0.32341667,10.97290623,1.21084105
YRY,36,0,2024-06-14T12:14:29.686Z,english_20.wav,0,1,458,23,4,Mandarin,f,0,0,-56.6830557,0.06363068
YRY,36,0,2024-06-14T12:14:29.686Z,english_20.wav,0,1,458,23,4,Mandarin,f,1,0.1,50.66790367,1.80739158
YRY,36,0,2024-06-14T12:14:29.686Z,english_20.wav,0,1,458,23,4,Mandarin,f,2,0.2,-18.96445326,1.41045117
YRY,36,0,2024-06-14T12:14:29.686Z,english_20.wav,0,1,458,23,4,Mandarin,f,3,0.3,-25.44345058,0.2049667
YRY,36,0,2024-06-14T12:14:29.686Z,english_20.wav,0,1,458,23,4,Mandarin,f,4,0.32341667,12.75548414,0.27136646
YRY,37,0,2024-06-14T12:14:29.686Z,english_168.wav,0,0,1485,23,4,Mandarin,f,0,0,-69.10300998,1.14537751
YRY,37,0,2024-06-14T12:14:29.686Z,english_168.wav,0,0,1485,23,4,Mandarin,f,1,0.1,-24.44784794,1.06854972
YRY,37,0,2024-06-14T12:14:29.686Z,english_168.wav,0,0,1485,23,4,Mandarin,f,2,0.2,35.31321785,0.45192262
YRY,37,0,2024-06-14T12:14:29.686Z,english_168.wav,0,0,1485,23,4,Mandarin,f,3,0.3,-41.77498511,0.2846318
YRY,37,0,2024-06-14T12:14:29.686Z,english_168.wav,0,0,1485,23,4,Mandarin,f,4,0.32341667,19.92389913,0.9853942
YRY,38,0,2024-06-14T12:14:29.686Z,english_339.wav,0,0,1741,23,4,Mandarin,f,0,0,-58.67599578,0.13141934
YRY,38,0,2024-06-14T12:14:29.686Z,english_339.wav,0,0,1741,23,4,Mandarin,f,1,0.1,-13.30258388,0.16133177
YRY,38,0,2024-06-14T12:14:29.686Z,english_339.wav,0,0,1741,23,4,Mandarin,f,2,0.2,-52.40820381,1.13500643
YRY,38,0,2024-06-14T12:14:29.686Z,english_339.wav,0,0,1741,23,4,Mandarin,f,3,0.3,11.33062491,0.98717522
YRY,38,0,2024-06-14T12:14:29.686Z,english_339.wav,0,0,1741,23,4,Mandarin,f,4,0.32341667,9.6385593,0.10332776
YRY,39,0,2024-06-14T12:14:29.686Z,english_868.wav,0,0,528,23,4,Mandarin,f,0,0,-32.61379415,0.76599538
YRY,39,0,2024-06-14T12:14:29.686Z,english_868.wav,0,0,528,23,4,Mandarin,f,1,0.1,-13.61007492,0.34348987
YRY,39,0,2024-06-14T12:14:29.686Z,english_868.wav,0,0,528,23,4,Mandarin,f,2,0.2,-35.23756027,0.26787397
YRY,39,0,2024-06-14T12:14:29.686Z,english_868.wav,0,0,528,23,4,Mandarin,f,3,0.3,83.12333319,0.46343078
YRY,39,0,2024-06-14T12:14:29.686Z,english_868.wav,0,0,528,23,4,Mandarin,f,4,0.32341667,62.80865362,1.59158725
YRY,40,0,2024-06-14T12:14:29.686Z,english_346.wav,0,1,419,23,4,Mandarin,f,0,0,29.51078372,1.24489428
YRY,40,0,2024-06-14T12:14:29.686Z,english_346.wav,0,1,419,23,4,Mandarin,f,1,0.1,86.25753287,1.77356048
YRY,40,0,2024-06-14T12:14:29.686Z,english_346.wav,0,1,419,23,4,Mandarin,f,2,0.2,95.6553577,1.30862901
YRY,40,0,2024-06-14T12:14:29.686Z,english_346.wav,0,1,419,23,4,Mandarin,f,3,0.3,-65.97707071,0.68318311
YRY,40,0,2024-06-14T12:14:29.686Z,english_346.wav,0,1,419,23,4,Mandarin,f,4,0.32341667,49.79896228,1.63073528
YRY,41,0,2024-06-14T12:14:29.686Z,english_290.wav,0,1,554,23,4,Mandarin,f,0,0,73.71968657,0.30552726
YRY,41,0,2024-06-14T12:14:29.686Z,english_290.wav,0,1,554,23,4,Mandarin,f,1,0.1,-59.85317413,1.31636279
YRY,41,0,2024-06-14T12:14:29.686Z,english_290.wav,0,1,554,23,4,Mandarin,f,2,0.2,71.1426587,0.54925413
YRY,41,0,2024-06-14T12:14:29.686Z,english_290.wav,0,1,554,23,4,Mandarin,f,3,0.3,-18.50007061,1.26204455
YRY,41,0,2024-06-14T12:14:29.686Z,english_290.wav,0,1,554,23,4,Mandarin,f,4,0.32341667,-65.91143137,0.60528556
YRY,42,0,2024-06-14T12:14:29.686Z,english_817.wav,0,1,335,23,4,Mandarin,f,0,0,58.06319333,0.77394069
YRY,42,0,2024-06-14T12:14:29.686Z,english_817.wav,0,1,335,23,4,Mandarin,f,1,0.1,0.91206114,0.81778066
YRY,42,0,2024-06-14T12:14:29.686Z,english_817.wav,0,1,335,23,4,Mandarin,f,2,0.2,-27.80824757,1.48752315
YRY,42,0,2024-06-14T12:14:29.686Z,english_817.wav,0,1,335,23,4,Mandarin,f,3,0.3,-73.7491051,0.41888886
YRY,42,0,2024-06-14T12:14:29.686Z,english_817.wav,0,1,335,23,4,Mandarin,f,4,0.32341667,69.75698508,0.93012443
YRY,43,0,2024-06-14T12:14:29.686Z,english_123.wav,0,1,432,23,4,Mandarin,f,0,0,67.91608163,1.13046919
YRY,43,0,2024-06-14T12:14:29.686Z,english_123.wav,0,1,432,23,4,Mandarin,f,1,0.1,-92.32097988,1.99597614
YRY,43,0,2024-06-14T12:14:29.686Z,english_123.wav,0,1,432,23,4,Mandarin,f,2,0.2,57.07371841,1.53523853
YRY,43,0,2024-06-14T12:14:29.686Z,english_123.wav,0,1,432,23,4,Mandarin,f,3,0.3,19.28317816,0.24385811
YRY,43,0,2024-06-14T12:14:29.686Z,english_123.wav,0,1,432,23,4,Mandarin,f,4,0.32341667,15.30546887,0.39158976
YRY,44,0,2024-06-14T12:14:29.686Z,english_811.wav,0,1,980,23,4,Mandarin,f,0,0,-51.03425556,1.55055496
YRY,44,0,2024-06-14T12:14:29.686Z,english_811.wav,0,1,980,23,4,Mandarin,f,1,0.1,22.81695275,1.74830484
YRY,44,0,2024-06-14T12:14:29.686Z,english_811.wav,0,1,980,23,4,Mandarin,f,2,0.2,73.06623682,1.24661488
YRY,44,0,2024-06-14T12:14:29.686Z,english_811.wav,0,1,980,23,4,Mandarin,f,3,0.3,-9.17693151,0.09792889
YRY,44,0,2024-06-14T12:14:29.686Z,english_811.wav,0,1,980,23,4,Mandarin,f,4,0.32341667,79.97760745,0.03735929
YRY,45,0,2024-06-14T12:14:29.686Z,english_76.wav,0,1,738,23,4,Mandarin,f,0,0,24.78743387,1.26829138
YRY,45,0,2024-06-14T12:14:29.686Z,english_76.wav,0,1,738,23,4,Mandarin,f,1,0.1,-7.95135802,1.4446717
YRY,45,0,2024-06-14T12:14:29.686Z,english_76.wav,0,1,738,23,4,Mandarin,f,2,0.2,-9.56689875,0.88177173
YRY,45,0,2024-06-14T12:14:29.686Z,english_76.wav,0,1,738,23,4,Mandarin,f,3,0.3,-78.25819759,1.63003096
YRY,45,0,2024-06-14T12:14:29.686Z,english_76.wav,0,1,738,23,4,Mandarin,f,4,0.32341667,26.4311908,1.97074408
YRY,46,0,2024-06-14T12:14:29.686Z,english_528.wav,0,0,755,23,4,Mandarin,f,0,0,34.31610554,1.55529168
YRY,46,0,2024-06-14T12:14:29.686Z,english_528.wav,0,0,755,23,4,Mandarin,f,1,0.1,28.08911917,0.29936297
YRY,46,0,2024-06-14T12:14:29.686Z,english_528.wav,0,0,755,23,4,Mandarin,f,2,0.2,-86.77613696,0.95155831
YRY,46,0,2024-06-14T12:14:29.686Z,english_528.wav,0,0,755,23,4,Mandarin,f,3,0.3,-45.45420678,1.46511459
YRY,46,0,2024-06-14T12:14:29.686Z,english_528.wav,0,0,755,23,4,Mandarin,f,4,0.32341667,-58.86275596,0.63923396
YRY,47,0,2024-06-14T12:14:29.686Z,english_600.wav,0,1,814,23,4,Mandarin,f,0,0,37.30285492,1.23507691
YRY,47,0,2024-06-14T12:14:29.686Z,english_600.wav,0,1,814,23,4,Mandarin,f,1,0.1,57.58729363,0.65453179
YRY,47,0,2024-06-14T12:14:29.686Z,english_600.wav,0,1,814,23,4,Mandarin,f,2,0.2,-74.33256695,1.70226061
YRY,47,0,2024-06-14T12:14:29.686Z,english_600.wav,0,1,814,23,4,Mandarin,f,3,0.3,-35.711252,0.4723836
YRY,47,0,2024-06-14T12:14:29.686Z,english_600.wav,0,1,814,23,4,Mandarin,f,4,0.32341667,3.54782198,0.49080622
YRY,48,0,2024-06-14T12:14:29.686Z,english_885.wav,0,0,531,23,4,Mandarin,f,0,0,36.3288655,0.78617108
YRY,48,0,2024-06-14T12:14:29.686Z,english_885.wav,0,0,531,23,4,Mandarin,f,1,0.1,-33.4786966,0.96292114
YRY,48,0,2024-06-14T12:14:29.686Z,english_885.wav,0,0,531,23,4,Mandarin,f,2,0.2,8.05827153,0.70266535
YRY,48,0,2024-06-14T12:14:29.686Z,english_885.wav,0,0,531,23,4,Mandarin,f,3,0.3,84.98004341,0.45613544
YRY,48,0,2024-06-14T12:14:29.686Z,english_885.wav,0,0,531,23,4,Mandarin,f,4,0.32341667,-34.65749493,0.81873504
YRY,49,0,2024-06-14T12:14:29.686Z,english_144.wav,0,0,450,23,4,Mandarin,f,0,0,-68.95587174,0.23806678
YRY,49,0,2024-06-14T12:14:29.686Z,english_144.wav,0,0,450,23,4,Mandarin,f,1,0.1,-74.16141139,0.77020267
YRY,49,0,2024-06-14T12:14:29.686Z,english_144.wav,0,0,450,23,4,Mandarin,f,2,0.2,-19.31034794,0.33858197
YRY,49,0,2024-06-14T12:14:29.686Z,english_144.wav,0,0,450,23,4,Mandarin,f,3,0.3,-77.96768175,1.42512122
YRY,49,0,2024-06-14T12:14:29.686Z,english_144.wav,0,0,450,23,4,Mandarin,f,4,0.32341667,3.46911061,0.57629619
YRY,50,1,2024-06-14T12:18:19.194Z,english_387.wav,0,1,683,23,4,Mandarin,f,0,0,14.25538659,0.59610882
YRY,50,1,2024-06-14T12:18:19.194Z,english_387.wav,0,1,683,23,4,Mandarin,f,1,0.1,-5.8057983,0.93453474
YRY,50,1,2024-06-14T12:18:19.194Z,english_387.wav,0,1,683,23,4,Mandarin,f,2,0.2,-2.59288607,1.87880123
YRY,50,1,2024-06-14T12:18:19.194Z,english_387.wav,0,1,683,23,4,Mandarin,f,3,0.3,19.33055559,0.79709693
YRY,50,1,2024-06-14T12:18:19.194Z,english_387.wav,0,1,683,23,4,Mandarin,f,4,0.32341667,-85.57173801,0.90161027
YRY,51,1,2024-06-14T12:18:19.194Z,english_405.wav,0,0,591,23,4,Mandarin,f,0,0,-94.88566807,1.97726842
YRY,51,1,2024-06-14T12:18:19.194Z,english_405.wav,0,0,591,23,4,Mandarin,f,1,0.1,45.39575719,1.2658567
YRY,51,1,2024-06-14T12:18:19.194Z,english_405.wav,0,0,591,23,4,Mandarin,f,2,0.2,-94.78509898,0.10443365
YRY,51,1,2024-06-14T12:18:19.194Z,english_405.wav,0,0,591,23,4,Mandarin,f,3,0.3,54.14618135,0.24635614
YRY,51,1,2024-06-14T12:18:19.194Z,english_405.wav,0,0,591,23,4,Mandarin,f,4,0.32341667,-20.18916124,0.76836832
YRY,52,1,2024-06-14T12:18:19.194Z,english_956.wav,0,0,592,23,4,Mandarin,f,0,0,-98.71257913,1.5828524
YRY,52,1,2024-06-14T12:18:19.194Z,english_956.wav,0,0,592,23,4,Mandarin,f,1,0.1,-36.05702295,0.66985857
YRY,52,1,2024-06-14T12:18:19.194Z,english_956.wav,0,0,592,23,4,Mandarin,f,2,0.2,-31.95582623,0.13798036
YRY,52,1,2024-06-14T12:18:19.194Z,english_956.wav,0,0,592,23,4,Mandarin,f,3,0.3,-81.31295359,0.22663358
YRY,52,1,2024-06-14T12:18:19.194Z,english_956.wav,0,0,592,23,4,Mandarin,f,4,0.32341667,45.09425789,0.54862974
YRY,53,1,2024-06-14T12:18:19.194Z,english_265.wav,0,1,381,23,4,Mandarin,f,0,0,-30.2287418,1.31067296
YRY,53,1,2024-06-14T12:18:19.194Z,english_265.wav,0,1,381,23,4,Mandarin,f,1,0.1,86.62283936,0.87427745
YRY,53,1,2024-06-14T12:18:19.194Z,english_265.wav,0,1,381,23,4,Mandarin,f,2,0.2,-21.47577863,1.37620008
YRY,53,1,2024-06-14T12:18:19.194Z,english_265.wav,0,1,381,23,4,Mandarin,f,3,0.3,84.9300577,0.45825557
YRY,53,1,2024-06-14T12:18:19.194Z,english_265.wav,0,1,381,23,4,Mandarin,f,4,0.32341667,59.52250756,1.13518739
YRY,54,1,2024-06-14T12:18:19.194Z,english_139.wav,0,1,185,23,4,Mandarin,f,0,0,55.35526281,1.40478417
YRY,54,1,2024-06-14T12:18:19.194Z,english_139.wav,0,1,185,23,4,Mandarin,f,1,0.1,-66.48550036,1.12007301
YRY,54,1,2024-06-14T12:18:19.194Z,english_139.wav,0,1,185,23,4,Mandarin,f,2,0.2,21.45340352,1.58559909
YRY,54,1,2024-06-14T12:18:19.194Z,english_139.wav,0,1,185,23,4,Mandarin,f,3,0.3,-32.80413748,1.13081383
YRY,54,1,2024-06-14T12:18:19.194Z,english_139.wav,0,1,185,23,4,Mandarin,f,4,0.32341667,-77.32206638,0.38560717
YRY,55,1,2024-06-14T12:18:19.194Z,english_451.wav,0,1,583,23,4,Mandarin,f,0,0,-87.31297583,0.44823779
YRY,55,1,2024-06-14T12:18:19.194Z,english_451.wav,0,1,583,23,4,Mandarin,f,1,0.1,-44.51362963,0.44678563
YRY,55,1,2024-06-14T12:18:19.194Z,english_451.wav,0,1,583,23,4,Mandarin,f,2,0.2,-15.52945473,1.69444841
YRY,55,1,2024-06-14T12:18:19.194Z,english_451.wav,0,1,583,23,4,Mandarin,f,3,0.3,11.70886435,0.18586344
YRY,55,1,2024-06-14T12:18:19.194Z,english_451.wav,0,1,583,23,4,Mandarin,f,4,0.32341667,82.84342256,0.9677256
YRY,56,1,2024-06-14T12:18:19.194Z,english_617.wav,0,1,304,23,4,Mandarin,f,0,0,-99.94195333,1.17597353
YRY,56,1,2024-06-14T12:18:19.194Z,english_617.wav,0,1,304,23,4,Mandarin,f,1,0.1,-27.54289523,0.72595777
YRY,56,1,2024-06-14T12:18:19.194Z,english_617.wav,0,1,304,23,4,Mandarin,f,2,0.2,-31.48016085,0.94648609
YRY,56,1,2024-06-14T12:18:19.194Z,english_617.wav,0,1,304,23,4,Mandarin,f,3,0.3,-72.28967102,1.67485207
YRY,56,1,2024-06-14T12:18:19.194Z,english_617.wav,0,1,304,23,4,Mandarin,f,4,0.32341667,-18.83127656,0.94146903
YRY,57,1,2024-06-14T12:18:19.194Z,english_242.wav,0,0,911,23,4,Mandarin,f,0,0,26.44185099,0.44763058
YRY,57,1,2024-06-14T12:18:19.194Z,english_242.wav,0,0,911,23,4,Mandarin,f,1,0.1,44.29547205,1.06541359
YRY,57,1,2024-06-14T12:18:19.194Z,english_242.wav,0,0,911,23,4,Mandarin,f,2,0.2,-3.86423299,0.64111919
YRY,57,1,2024-06-14T12:18:19.194Z,english_242.wav,0,0,911,23,4,Mandarin,f,3,0.3,60.29108386,0.35225786
YRY,57,1,2024-06-14T12:18:19.194Z,english_242.wav,0,0,911,23,4,Mandarin,f,4,0.32341667,18.66576556,1.0072971
YRY,58,1,2024-06-14T12:18:19.194Z,english_803.wav,0,1,279,23,4,Mandarin,f,0,0,8.73756077,1.22190991
YRY,58,1,2024-06-14T12:18:19.194Z,english_803.wav,0,1,279,23,4,Mandarin,f,1,0.1,-41.53503623,1.08276728
YRY,58,1,2024-06-14T12:18:19.194Z,english_803.wav,0,1,279,23,4,Mandarin,f,2,0.2,-84.76471985,1.59545905
YRY,58,1,2024-06-14T12:18:19.194Z,english_803.wav,0,1,279,23,4,Mandarin,f,3,0.3,-27.96408635,1.3875394
YRY,58,1,2024-06-14T12:18:19.194Z,english_803.wav,0,1,279,23,4,Mandarin,f,4,0.32341667,72.02290108,0.92287786
YRY,59,1,2024-06-14T12:18:19.194Z,english_654.wav,0,1,143,23,4,Mandarin,f,0,0,-97.13147194,0.91673578
YRY,59,1,2024-06-14T12:18:19.194Z,english_654.wav,0,1,143,23,4,Mandarin,f,1,0.1,-81.37819023,1.23280851
YRY,59,1,2024-06-14T12:18:19.194Z,english_654.wav,0,1,143,23,4,Mandarin,f,2,0.2,51.48571278,1.64688363
YRY,59,1,2024-06-14T12:18:19.194Z,english_654.wav,0,1,143,23,4,Mandarin,f,3,0.3,54.00949099,1.75994168
YRY,59,1,2024-06-14T12:18:19.194Z,english_654.wav,0,1,143,23,4,Mandarin,f,4,0.32341667,-95.1633683,0.20104411
YRY,60,1,2024-06-14T12:18:19.194Z,english_368.wav,0,0,694,23,4,Mandarin,f,0,0,-25.00542805,1.03431482
YRY,60,1,2024-06-14T12:18:19.194Z,english_368.wav,0,0,694,23,4,Mandarin,f,1,0.1,-48.20991773,0.92366821
YRY,60,1,2024-06-14T12:18:19.194Z,english_368.wav,0,0,694,23,4,Mandarin,f,2,0.2,-51.83604218,0.34019883
YRY,60,1,2024-06-14T12:18:19.194Z,english_368.wav,0,0,694,23,4,Mandarin,f,3,0.3,14.57062672,1.21184807
YRY,60,1,2024-06-14T12:18:19.194Z,english_368.wav,0,0,694,23,4,Mandarin,f,4,0.32341667,-26.77020505,0.81530657
YRY,61,1,2024-06-14T12:18:19.194Z,english_252.wav,0,1,1220,23,4,Mandarin,f,0,0,79.75601627,0.77799761
YRY,61,1,2024-06-14T12:18:19.194Z,english_252.wav,0,1,1220,23,4,Mandarin,f,1,0.1,17.00183399,1.07711339
YRY,61,1,2024-06-14T12:18:19.194Z,english_252.wav,0,1,1220,23,4,Mandarin,f,2,0.2,-25.42800597,0.7917181
YRY,61,1,2024-06-14T12:18:19.194Z,english_252.wav,0,1,1220,23,4,Mandarin,f,3,0.3,-47.65138194,1.47632881
YRY,61,1,2024-06-14T12:18:19.194Z,english_252.wav,0,1,1220,23,4,Mandarin,f,4,0.32341667,35.10652067,1.65919103
YRY,62,1,2024-06-14T12:18:19.194Z,english_880.wav,0,1,446,23,4,Mandarin,f,0,0,3.17154152,0.81183988
YRY,62,1,2024-06-14T12:18:19.194Z,english_880.wav,0,1,446,23,4,Mandarin,f,1,0.1,-74.02271749,1.44061269
YRY,62,1,2024-06-14T12:18:19.194Z,english_880.wav,0,1,446,23,4,Mandarin,f,2,0.2,46.15952764,0.42884863
YRY,62,1,2024-06-14T12:18:19.194Z,english_880.wav,0,1,446,23,4,Mandarin,f,3,0.3,4.14106927,1.93838261
YRY,62,1,2024-06-14T12:18:19.194Z,english_880.wav,0,1,446,23,4,Mandarin,f,4,0.32341667,26.36707366,1.4503687
YRY,63,1,2024-06-14T12:18:19.194Z,english_227.wav,0,0,414,23,4,Mandarin,f,0,0,-56.39318384,1.7541365
YRY,63,1,2024-06-14T12:18:19.194Z,english_227.wav,0,0,414,23,4,Mandarin,f,1,0.1,90.87442764,0.66011804
YRY,63,1,2024-06-14T12:18:19.194Z,english_227.wav,0,0,414,23,4,Mandarin,f,2,0.2,-39.94082392,0.16454365
YRY,63,1,2024-06-14T12:18:19.194Z,english_227.wav,0,0,414,23,4,Mandarin,f,3,0.3,31.5093861,0.63744506
YRY,63,1,2024-06-14T12:18:19.194Z,english_227.wav,0,0,414,23,4,Mandarin,f,4,0.32341667,70.38847456,0.55874538
YRY,64,1,2024-06-14T12:18:19.194Z,english_657.wav,0,0,2737,23,4,Mandarin,f,0,0,30.03208284,1.42095662
YRY,64,1,2024-06-14T12:18:19.194Z,english_657.wav,0,0,2737,23,4,Mandarin,f,1,0.1,-5.57127058,1.29790323
YRY,64,1,2024-06-14T12:18:19.194Z,english_657.wav,0,0,2737,23,4,Mandarin,f,2,0.2,9.55793083,0.51612643
YRY,64,1,2024-06-14T12:18:19.194Z,english_657.wav,0,0,2737,23,4,Mandarin,f,3,0.3,3.39766504,0.37671101
YRY,64,1,2024-06-14T12:18:19.194Z,english_657.wav,0,0,2737,23,4,Mandarin,f,4,0.32341667,84.38659916,1.20124021
YRY,65,1,2024-06-14T12:18:19.194Z,english_555.wav,0,1,184,23,4,Mandarin,f,0,0,69.49762262,1.08530069
YRY,65,1,2024-06-14T12:18:19.194Z,english_555.wav,0,1,184,23,4,Mandarin,f,1,0.1,42.72159746,0.99979939
YRY,65,1,2024-06-14T12:18:19.194Z,english_555.wav,0,1,184,23,4,Mandarin,f,2,0.2,96.74773092,1.75882447
YRY,65,1,2024-06-14T12:18:19.194Z,english_555.wav,0,1,184,23,4,Mandarin,f,3,0.3,-27.92411753,1.36775981
YRY,65,1,2024-06-14T12:18:19.194Z,english_555.wav,0,1,184,23,4,Mandarin,f,4,0.32341667,33.93273626,0.90104071
YRY,66,1,2024-06-14T12:18:19.194Z,english_165.wav,0,1,313,23,4,Mandarin,f,0,0,-65.85966689,0.99094124
YRY,66,1,2024-06-14T12:18:19.194Z,english_165.wav,0,1,313,23,4,Mandarin,f,1,0.1,57.4210377,1.25140592
YRY,66,1,2024-06-14T12:18:19.194Z,english_165.wav,0,1,313,23,4,Mandarin,f,2,0.2,-53.4891742,1.66606931
YRY,66,1,2024-06-14T12:18:19.194Z,english_165.wav,0,1,313,23,4,Mandarin,f,3,0.3,-32.80877015,0.56557264
YRY,66,1,2024-06-14T12:18:19.194Z,english_165.wav,0,1,313,23,4,Mandarin,f,4,0.32341667,-23.63509804,1.31427626
YRY,67,1,2024-06-14T12:18:19.194Z,english_825.wav,0,0,359,23,4,Mandarin,f,0,0,9.96211161,0.17252736
YRY,67,1,2024-06-14T12:18:19.194Z,english_825.wav,0,0,359,23,4,Mandarin,f,1,0.1,-28.44120521,0.52830291
YRY,67,1,2024-06-14T12:18:19.194Z,english_825.wav,0,0,359,23,4,Mandarin,f,2,0.2,58.95311712,0.51646024
YRY,67,1,2024-06-14T12:18:19.194Z,english_825.wav,0,0,359,23,4,Mandarin,f,3,0.3,-14.85414305,0.70859388
YRY,67,1,2024-06-14T12:18:19.194Z,english_825.wav,0,0,359,23,4,Mandarin,f,4,0.32341667,85.14956963,0.64434305
YRY,68,1,2024-06-14T12:18:19.194Z,english_337.wav,0,0,358,23,4,Mandarin,f,0,0,17.21863108,0.02346696
YRY,68,1,2024-06-14T12:18:19.194Z,english_337.wav,0,0,358,23,4,Mandarin,f,1,0.1,-16.30098312,1.2349353
YRY,68,1,2024-06-14T12:18:19.194Z,english_337.wav,0,0,358,23,4,Mandarin,f,2,0.2,70.17733319,1.07823504
YRY,68,1,2024-06-14T12:18:19.194Z,english_337.wav,0,0,358,23,4,Mandarin,f,3,0.3,-7.16478631,1.83339424
YRY,68,1,2024-06-14T12:18:19.194Z,english_337.wav,0,0,358,23,4,Mandarin,f,4,0.32341667,-84.96176299,1.87583376
YRY,69,1,2024-06-14T12:18:19.194Z,english_583.wav,0,0,556,23,4,Mandarin,f,0,0,-35.26485382,0.11557093
YRY,69,1,2024-06-14T12:18:19.194Z,english_583.wav,0,0,556,23,4,Mandarin,f,1,0.1,-69.50197994,0.9917357
YRY,69,1,2024-06-14T12:18:19.194Z,english_583.wav,0,0,556,23,4,Mandarin,f,2,0.2,73.6796048,1.33727714
YRY,69,1,2024-06-14T12:18:19.194Z,english_583.wav,0,0,556,23,4,Mandarin,f,3,0.3,-1.04664171,0.97646566
YRY,69,1,2024-06-14T12:18:19.194Z,english_583.wav,0,0,556,23,4,Mandarin,f,4,0.32341667,-55.46924107,1.06585671
YRY,70,1,2024-06-14T12:18:19.194Z,english_623.wav,0,0,755,23,4,Mandarin,f,0,0,-23.54178515,1.91881792
YRY,70,1,2024-06-14T12:18:19.194Z,english_623.wav,0,0,755,23,4,Mandarin,f,1,0.1,-47.52772515,0.99675119
YRY,70,1,2024-06-14T12:18:19.194Z,english_623.wav,0,0,755,23,4,Mandarin,f,2,0.2,47.20668934,0.26332691
YRY,70,1,2024-06-14T12:18:19.194Z,english_623.wav,0,0,755,23,4,Mandarin,f,3,0.3,-98.32001938,1.33317057
YRY,70,1,2024-06-14T12:18:19.194Z,english_623.wav,0,0,755,23,4,Mandarin,f,4,0.32341667,-63.09014275,1.04211108
YRY,71,1,2024-06-14T12:18:19.194Z,english_795.wav,0,1,504,23,4,Mandarin,f,0,0,39.36518311,1.47453336
YRY,71,1,2024-06-14T12:18:19.194Z,english_795.wav,0,1,504,23,4,Mandarin,f,1,0.1,16.50141431,0.29075574
YRY,71,1,2024-06-14T12:18:19.194Z,english_795.wav,0,1,504,23,4,Mandarin,f,2,0.2,54.87860026,1.88174141
YRY,71,1,2024-06-14T12:18:19.194Z,english_795.wav,0,1,504,23,4,Mandarin,f,3,0.3,61.09971909,0.27471403
YRY,71,1,2024-06-14T12:18:19.194Z,english_795.wav,0,1,504,23,4,Mandarin,f,4,0.32341667,4.28490532,0.11399574
YRY,72,1,2024-06-14T12:18:19.194Z,english_1000.wav,0,0,761,23,4,Mandarin,f,0,0,27.35321797,1.01803417
YRY,72,1,2024-06-14T12:18:19.194Z,english_1000.wav,0,0,761,23,4,Mandarin,f,1,0.1,42.13438871,0.4558176
YRY,72,1,2024-06-14T12:18:19.194Z,english_1000.wav,0,0,761,23,4,Mandarin,f,2,0.2,95.34760893,0.52251179
YRY,72,1,2024-06-14T12:18:19.194Z,english_1000.wav,0,0,761,23,4,Mandarin,f,3,0.3,-34.10168873,0.90165507
YRY,72,1,2024-06-14T12:18:19.194Z,english_1000.wav,0,0,761,23,4,Mandarin,f,4,0.32341667,64.49689477,0.38395199
YRY,73,1,2024-06-14T12:18:19.194Z,english_210.wav,0,1,303,23,4,Mandarin,f,0,0,43.03172008,0.27268056
YRY,73,1,2024-06-14T12:18:19.194Z,english_210.wav,0,1,303,23,4,Mandarin,f,1,0.1,58.48529179,0.59270989
YRY,73,1,2024-06-14T12:18:19.194Z,english_210.wav,0,1,303,23,4,Mandarin,f,2,0.2,57.29337371,1.57355776
YRY,73,1,2024-06-14T12:18:19.194Z,english_210.wav,0,1,303,23,4,Mandarin,f,3,0.3,-45.34642936,1.97663548
YRY,73,1,2024-06-14T12:18:19.194Z,english_210.wav,0,1,303,23,4,Mandarin,f,4,0.32341667,-3.49486879,1.39997912
YRY,74,1,2024-06-14T12:18:19.194Z,english_756.wav,0,1,478,23,4,Mandarin,f,0,0,-75.60908863,1.29894989
YRY,74,1,2024-06-14T12:18:19.194Z,english_756.wav,0,1,478,23,4,Mandarin,f,1,0.1,-4.30259752,0.61363685
YRY,74,1,2024-06-14T12:18:19.194Z,english_756.wav,0,1,478,23,4,Mandarin,f,2,0.2,20.94377522,1.41793961
YRY,74,1,2024-06-14T12:18:19.194Z,english_756.wav,0,1,478,23,4,Mandarin,f,3,0.3,10.45062111,1.73528762
YRY,74,1,2024-06-14T12:18:19.194Z,english_756.wav,0,1,478,23,4,Mandarin,f,4,0.32341667,86.50209298,0.4791473
YRY,75,1,2024-06-14T12:18:19.194Z,english_428.wav,0,1,436,23,4,Mandarin,f,0,0,-98.34466569,1.83106884
YRY,75,1,2024-06-14T12:18:19.194Z,english_428.wav,0,1,436,23,4,Mandarin,f,1,0.1,-10.51162175,1.34345266
YRY,75,1,2024-06-14T12:18:19.194Z,english_428.wav,0,1,436,23,4,Mandarin,f,2,0.2,97.93427859,0.65853672
YRY,75,1,2024-06-14T12:18:19.194Z,english_428.wav,0,1,436,23,4,Mandarin,f,3,0.3,35.61870537,1.28105878
YRY,75,1,2024-06-14T12:18:19.194Z,english_428.wav,0,1,436,23,4,Mandarin,f,4,0.32341667,-12.49352836,0.15324236
YRY,76,1,2024-06-14T12:18:19.194Z,english_422.wav,0,0,624,23,4,Mandarin,f,0,0,-79.81150205,1.34332733
YRY,76,1,2024-06-14T12:18:19.194Z,english_422.wav,0,0,624,23,4,Mandarin,f,1,0.1,-2.02836706,0.77514932
YRY,76,1,2024-06-14T12:18:19.194Z,english_422.wav,0,0,624,23,4,Mandarin,f,2,0.2,-11.18998235,0.33214039
YRY,76,1,2024-06-14T12:18:19.194Z,english_422.wav,0,0,624,23,4,Mandarin,f,3,0.3,52.04958687,0.53493982
YRY,76,1,2024-06-14T12:18:19.194Z,english_422.wav,0,0,624,23,4,Mandarin,f,4,0.32341667,-63.48776447,0.45685022
YRY,77,1,2024-06-14T12:18:19.194Z,english_25.wav,0,1,244,23,4,Mandarin,f,0,0,-93.68210842,1.14210865
YRY,77,1,2024-06-14T12:18:19.194Z,english_25.wav,0,1,244,23,4,Mandarin,f,1,0.1,-14.41268038,1.90089654
YRY,77,1,2024-06-14T12:18:19.194Z,english_25.wav,0,1,244,23,4,Mandarin,f,2,0.2,72.93230065,0.61137859
YRY,77,1,2024-06-14T12:18:19.194Z,english_25.wav,0,1,244,23,4,Mandarin,f,3,0.3,23.28545759,1.93042398
YRY,77,1,2024-06-14T12:18:19.194Z,english_25.wav,0,1,244,23,4,Mandarin,f,4,0.32341667,18.09953767,1.11869114
YRY,78,1,2024-06-14T12:18:19.194Z,english_534.wav,0,0,469,23,4,Mandarin,f,0,0,-42.4271338,1.1267565
YRY,78,1,2024-06-14T12:18:19.194Z,english_534.wav,0,0,469,23,4,Mandarin,f,1,0.1,-80.6424644,0.6842577
YRY,78,1,2024-06-14T12:18:19.194Z,english_534.wav,0,0,469,23,4,Mandarin,f,2,0.2,59.29592388,0.01459656
YRY,78,1,2024-06-14T12:18:19.194Z,english_534.wav,0,0,469,23,4,Mandarin,f,3,0.3,75.02007223,1.03701198
YRY,78,1,2024-06-14T12:18:19.194Z,english_534.wav,0,0,469,23,4,Mandarin,f,4,0.32341667,-57.55026449,1.25840342
YRY,79,1,2024-06-14T12:18:19.194Z,english_914.wav,0,1,544,23,4,Mandarin,f,0,0,37.51857345,0.04486829
YRY,79,1,2024-06-14T12:18:19.194Z,english_914.wav,0,1,544,23,4,Mandarin,f,1,0.1,-30.53068311,1.18486584
YRY,79,1,2024-06-14T12:18:19.194Z,english_914.wav,0,1,544,23,4,Mandarin,f,2,0.2,-12.980452,1.58356311
YRY,79,1,2024-06-14T12:18:19.194Z,english_914.wav,0,1,544,23,4,Mandarin,f,3,0.3,-99.09260462,1.35478251
YRY,79,1,2024-06-14T12:18:19.194Z,english_914.wav,0,1,544,23,4,Mandarin,f,4,0.32341667,-34.91402533,1.16671671
YRY,80,1,2024-06-14T12:18:19.194Z,english_984.wav,0,0,591,23,4,Mandarin,f,0,0,-4.00148485,1.68596177
YRY,80,1,2024-06-14T12:18:19.194Z,english_984.wav,0,0,591,23,4,Mandarin,f,1,0.1,26.28173365,0.06678014
YRY,80,1,2024-06-14T12:18:19.194Z,english_984.wav,0,0,591,23,4,Mandarin,f,2,0.2,80.79042683,0.65490985
YRY,80,1,2024-06-14T12:18:19.194Z,english_984.wav,0,0,591,23,4,Mandarin,f,3,0.3,94.69131331,0.57269921
YRY,80,1,2024-06-14T12:18:19.194Z,english_984.wav,0,0,591,23,4,Mandarin,f,4,0.32341667,75.17511154,0.71264295
YRY,81,1,2024-06-14T12:18:19.194Z,english_680.wav,0,1,310,23,4,Mandarin,f,0,0,93.24972168,1.89994278
YRY,81,1,2024-06-14T12:18:19.194Z,english_680.wav,0,1,310,23,4,Mandarin,f,1,0.1,21.55707386,1.06559033
YRY,81,1,2024-06-14T12:18:19.194Z,english_680.wav,0,1,310,23,4,Mandarin,f,2,0.2,-58.84044748,0.79606997
YRY,81,1,2024-06-14T12:18:19.194Z,english_680.wav,0,1,310,23,4,Mandarin,f,3,0.3,-13.55367876,0.35899559
YRY,81,1,2024-06-14T12:18:19.194Z,english_680.wav,0,1,310,23,4,Mandarin,f,4,0.32341667,17.98073729,1.50925573
YRY,82,1,2024-06-14T12:18:19.194Z,english_403.wav,0,1,354,23,4,Mandarin,f,0,0,-92.65414009,1.93574734
YRY,82,1,2024-06-14T12:18:19.194Z,english_403.wav,0,1,354,23,4,Mandarin,f,1,0.1,75.99659731,0.36447309
YRY,82,1,2024-06-14T12:18:19.194Z,english_403.wav,0,1,354,23,4,Mandarin,f,2,0.2,-27.37801557,1.02888701
YRY,82,1,2024-06-14T12:18:19.194Z,english_403.wav,0,1,354,23,4,Mandarin,f,3,0.3,-80.04540334,0.02385722
YRY,82,1,2024-06-14T12:18:19.194Z,english_403.wav,0,1,354,23,4,Mandarin,f,4,0.32341667,30.50648557,1.40553938
YRY,83,1,2024-06-14T12:18:19.194Z,english_360.wav,0,1,534,23,4,Mandarin,f,0,0,-50.57937638,0.73788637
YRY,83,1,2024-06-14T12:18:19.194Z,english_360.wav,0,1,534,23,4,Mandarin,f,1,0.1,-29.22164644,0.6487653
YRY,83,1,2024-06-14T12:18:19.194Z,english_360.wav,0,1,534,23,4,Mandarin,f,2,0.2,-88.45421248,0.73193848
YRY,83,1,2024-06-14T12:18:19.194Z,english_360.wav,0,1,534,23,4,Mandarin,f,3,0.3,93.68039656,1.75347372
YRY,83,1,2024-06-14T12:18:19.194Z,english_360.wav,0,1,534,23,4,Mandarin,f,4,0.32341667,-2.59092547,1.19277037
YRY,84,1,2024-06-14T12:18:19.194Z,english_324.wav,0,1,532,23,4,Mandarin,f,0,0,49.07155908,0.10864525
YRY,84,1,2024-06-14T12:18:19.194Z,english_324.wav,0,1,532,23,4,Mandarin,f,1,0.1,-58.77252084,1.61132735
YRY,84,1,2024-06-14T12:18:19.194Z,english_324.wav,0,1,532,23,4,Mandarin,f,2,0.2,-55.40155542,0.60180616
YRY,84,1,2024-06-14T12:18:19.194Z,english_324.wav,0,1,532,23,4,Mandarin,f,3,0.3,19.02224292,0.93555132
YRY,84,1,2024-06-14T12:18:19.194Z,english_324.wav,0,1,532,23,4,Mandarin,f,4,0.32341667,21.20382854,0.34417591
YRY,85,1,2024-06-14T12:18:19.194Z,english_720.wav,0,1,457,23,4,Mandarin,f,0,0,85.23240719,1.23446246
YRY,85,1,2024-06-14T12:18:19.194Z,english_720.wav,0,1,457,23,4,Mandarin,f,1,0.1,78.65958559,0.77382892
YRY,85,1,2024-06-14T12:18:19.194Z,english_720.wav,0,1,457,23,4,Mandarin,f,2,0.2,-56.45174874,0.48705718
YRY,85,1,2024-06-14T12:18:19.194Z,english_720.wav,0,1,457,23,4,Mandarin,f,3,0.3,71.88898266,1.42335328
YRY,85,1,2024-06-14T12:18:19.194Z,english_720.wav,0,1,457,23,4,Mandarin,f,4,0.32341667,-9.13482,1.32495619
YRY,86,1,2024-06-14T12:18:19.194Z,english_477.wav,0,0,409,23,4,Mandarin,f,0,0,9.7496965,0.26828956
YRY,86,1,2024-06-14T12:18:19.194Z,english_477.wav,0,0,409,23,4,Mandarin,f,1,0.1,70.56003184,0.51901368
YRY,86,1,2024-06-14T12:18:19.194Z,english_477.wav,0,0,409,23,4,Mandarin,f,2,0.2,34.49551211,0.35677294
YRY,86,1,2024-06-14T12:18:19.194Z,english_477.wav,0,0,409,23,4,Mandarin,f,3,0.3,-75.0597055,1.39462812
YRY,86,1,2024-06-14T12:18:19.194Z,english_477.wav,0,0,409,23,4,Mandarin,f,4,0.32341667,-82.15638008,0.55199483
YRY,87,1,2024-06-14T12:18:19.194Z,english_714.wav,0,1,306,23,4,Mandarin,f,0,0,6.62463448,0.98205871
YRY,87,1,2024-06-14T12:18:19.194Z,english_714.wav,0,1,306,23,4,Mandarin,f,1,0.1,-7.37775178,1.90018259
YRY,87,1,2024-06-14T12:18:19.194Z,english_714.wav,0,1,306,23,4,Mandarin,f,2,0.2,-58.74003357,1.33033281
YRY,87,1,2024-06-14T12:18:19.194Z,english_714.wav,0,1,306,23,4,Mandarin,f,3,0.3,-38.84014254,0.20009115
YRY,87,1,2024-06-14T12:18:19.194Z,english_714.wav,0,1,306,23,4,Mandarin,f,4,0.32341667,-23.67047323,0.44650169
YRY,88,1,2024-06-14T12:18:19.194Z,english_379.wav,0,1,834,23,4,Mandarin,f,0,0,30.14616912,1.43961489
YRY,88,1,2024-06-14T12:18:19.194Z,english_379.wav,0,1,834,23,4,Mandarin,f,1,0.1,-79.51193423,1.4219763
YRY,88,1,2024-06-14T12:18:19.194Z,english_379.wav,0,1,834,23,4,Mandarin,f,2,0.2,7.34860539,0.62633101
YRY,88,1,2024-06-14T12:18:19.194Z,english_379.wav,0,1,834,23,4,Mandarin,f,3,0.3,-43.99342265,1.13621958
YRY,88,1,2024-06-14T12:18:19.194Z,english_379.wav,0,1,834,23,4,Mandarin,f,4,0.32341667,37.72881761,1.35387794
YRY,89,1,2024-06-14T12:18:19.194Z,english_903.wav,0,1,450,23,4,Mandarin,f,0,0,73.58848698,0.30588109
YRY,89,1,2024-06-14T12:18:19.194Z,english_903.wav,0,1,450,23,4,Mandarin,f,1,0.1,-95.58060262,0.88963747
YRY,89,1,2024-06-14T12:18:19.194Z,english_903.wav,0,1,450,23,4,Mandarin,f,2,0.2,17.41642173,1.73634476
YRY,89,1,2024-06-14T12:18:19.194Z,english_903.wav,0,1,450,23,4,Mandarin,f,3,0.3,94.35223882,0.71257749
YRY,89,1,2024-06-14T12:18:19.194Z,english_903.wav,0,1,450,23,4,Mandarin,f,4,0.32341667,-49.48803877,1.4824474
YRY,90,1,2024-06-14T12:18:19.194Z,english_982.wav,0,1,339,23,4,Mandarin,f,0,0,12.44046596,0.81508625
YRY,90,1,2024-06-14T12:18:19.194Z,english_982.wav,0,1,339,23,4,Mandarin,f,1,0.1,-60.41666302,0.92712357
YRY,90,1,2024-06-14T12:18:19.194Z,english_982.wav,0,1,339,23,4,Mandarin,f,2,0.2,-35.31499742,0.77678916
YRY,90,1,2024-06-14T12:18:19.194Z,english_982.wav,0,1,339,23,4,Mandarin,f,3,0.3,-10.96739076,1.0294352
YRY,90,1,2024-06-14T12:18:19.194Z,english_982.wav,0,1,339,23,4,Mandarin,f,4,0.32341667,44.50624474,1.1322674
YRY,91,1,2024-06-14T12:18:19.194Z,english_206.wav,0,1,254,23,4,Mandarin,f,0,0,29.86029141,0.9413203
YRY,91,1,2024-06-14T12:18:19.194Z,english_206.wav,0,1,254,23,4,Mandarin,f,1,0.1,-65.49550847,1.58501733
YRY,91,1,2024-06-14T12:18:19.194Z,english_206.wav,0,1,254,23,4,Mandarin,f,2,0.2,-8.37849199,1.84833856
YRY,91,1,2024-06-14T12:18:19.194Z,english_206.wav,0,1,254,23,4,Mandarin,f,3,0.3,16.32170521,1.12864021
YRY,91,1,2024-06-14T12:18:19.194Z,english_206.wav,0,1,254,23,4,Mandarin,f,4,0.32341667,-96.55544023,0.85017735
YRY,92,1,2024-06-14T12:18:19.194Z,english_21.wav,0,1,480,23,4,Mandarin,f,0,0,-21.85116114,1.17417274
YRY,92,1,2024-06-14T12:18:19.194Z,english_21.wav,0,1,480,23,4,Mandarin,f,1,0.1,-94.69976897,0.84289237
YRY,92,1,2024-06-14T12:18:19.194Z,english_21.wav,0,1,480,23,4,Mandarin,f,2,0.2,59.00053046,1.58737119
YRY,92,1,2024-06-14T12:18:19.194Z,english_21.wav,0,1,480,23,4,Mandarin,f,3,0.3,-81.44868512,0.70500889
YRY,92,1,2024-06-14T12:18:19.194Z,english_21.wav,0,1,480,23,4,Mandarin,f,4,0.32341667,-68.72650823,1.41810016
YRY,93,1,2024-06-14T12:18:19.194Z,english_798.wav,0,1,206,23,4,Mandarin,f,0,0,-16.40769998,1.85457914
YRY,93,1,2024-06-14T12:18:19.194Z,english_798.wav,0,1,206,23,4,Mandarin,f,1,0.1,3.00381127,1.50219522
YRY,93,1,2024-06-14T12:18:19.194Z,english_798.wav,0,1,206,23,4,Mandarin,f,2,0.2,-31.24410556,0.78751403
YRY,93,1,2024-06-14T12:18:19.194Z,english_798.wav,0,1,206,23,4,Mandarin,f,3,0.3,-53.27973877,1.17339142
YRY,93,1,2024-06-14T12:18:19.194Z,english_798.wav,0,1,206,23,4,Mandarin,f,4,0.32341667,91.43563813,1.30184409
YRY,94,1,2024-06-14T12:18:19.194Z,english_945.wav,0,1,321,23,4,Mandarin,f,0,0,63.16075011,1.8314946
YRY,94,1,2024-06-14T12:18:19.194Z,english_945.wav,0,1,321,23,4,Mandarin,f,1,0.1,87.55520176,1.3737613
YRY,94,1,2024-06-14T12:18:19.194Z,english_945.wav,0,1,321,23,4,Mandarin,f,2,0.2,-69.60467193,0.61639792
YRY,94,1,2024-06-14T12:18:19.194Z,english_945.wav,0,1,321,23,4,Mandarin,f,3,0.3,-69.25530384,1.67239747
YRY,94,1,2024-06-14T12:18:19.194Z,english_945.wav,0,1,321,23,4,Mandarin,f,4,0.32341667,-47.64160087,1.88344595
YRY,95,1,2024-06-14T12:18:19.194Z,english_248.wav,0,0,969,23,4,Mandarin,f,0,0,62.49888219,0.01612638
YRY,95,1,2024-06-14T12:18:19.194Z,english_248.wav,0,0,969,23,4,Mandarin,f,1,0.1,-37.43052778,0.65001727
YRY,95,1,2024-06-14T12:18:19.194Z,english_248.wav,0,0,969,23,4,Mandarin,f,2,0.2,50.26474258,1.10053755
YRY,95,1,2024-06-14T12:18:19.194Z,english_248.wav,0,0,969,23,4,Mandarin,f,3,0.3,-90.47385391,0.93833438
YRY,95,1,2024-06-14T12:18:19.194Z,english_248.wav,0,0,969,23,4,Mandarin,f,4,0.32341667,-16.4169983,1.90627888
YRY,96,1,2024-06-14T12:18:19.194Z,english_440.wav,0,1,351,23,4,Mandarin,f,0,0,44.70308901,1.51497438
YRY,96,1,2024-06-14T12:18:19.194Z,english_440.wav,0,1,351,23,4,Mandarin,f,1,0.1,-88.0257567,1.05972447
YRY,96,1,2024-06-14T12:18:19.194Z,english_440.wav,0,1,351,23,4,Mandarin,f,2,0.2,1.19893433,0.590820378
YRY,96,1,2024-06-14T12:18:19.194Z,english_440.wav,0,1,351,23,4,Mandarin,f,3,0.3,19.45485395,0.680586803
YRY,96,1,2024-06-14T12:18:19.194Z,english_440.wav,0,1,351,23,4,Mandarin,f,4,0.32341667,13.00088222,0.000618341324
YRY,97,1,2024-06-14T12:18:19.194Z,english_658.wav,0,0,759,23,4,Mandarin,f,0,0,-80.21976745,0.49170119
YRY,97,1,2024-06-14T12:18:19.194Z,english_658.wav,0,0,759,23,4,Mandarin,f,1,0.1,11.23314836,0.6994793
YRY,97,1,2024-06-14T12:18:19.194Z,english_658.wav,0,0,759,23,4,Mandarin,f,2,0.2,8.94946791,1.18458539
YRY,97,1,2024-06-14T12:18:19.194Z,english_658.wav,0,0,759,23,4,Mandarin,f,3,0.3,17.22411688,0.7091276
YRY,97,1,2024-06-14T12:18:19.194Z,english_658.wav,0,0,759,23,4,Mandarin,f,4,0.32341667,10.67081381,1.7453453
YRY,98,1,2024-06-14T12:18:19.194Z,english_836.wav,0,0,437,23,4,Mandarin,f,0,0,34.85846782,1.04017402
YRY,98,1,2024-06-14T12:18:19.194Z,english_836.wav,0,0,437,23,4,Mandarin,f,1,0.1,41.54458908,0.35535359
YRY,98,1,2024-06-14T12:18:19.194Z,english_836.wav,0,0,437,23,4,Mandarin,f,2,0.2,23.27363575,0.10471693
YRY,98,1,2024-06-14T12:18:19.194Z,english_836.wav,0,0,437,23,4,Mandarin,f,3,0.3,86.83996211,0.55523491
YRY,98,1,2024-06-14T12:18:19.194Z,english_836.wav,0,0,437,23,4,Mandarin,f,4,0.32341667,-32.25656931,0.70311776
YRY,99,1,2024-06-14T12:18:19.194Z,english_131.wav,0,1,295,23,4,Mandarin,f,0,0,-90.65248477,1.67513221
YRY,99,1,2024-06-14T12:18:19.194Z,english_131.wav,0,1,295,23,4,Mandarin,f,1,0.1,7.0988446,1.62916956
YRY,99,1,2024-06-14T12:18:19.194Z,english_131.wav,0,1,295,23,4,Mandarin,f,2,0.2,-30.94637352,1.4017665
YRY,99,1,2024-06-14T12:18:19.194Z,english_131.wav,0,1,295,23,4,Mandarin,f,3,0.3,-31.86179524,1.07276153
YRY,99,1,2024-06-14T12:18:19.194Z,english_131.wav,0,1,295,23,4,Mandarin,f,4,0.32341667,1.85809033,1.80109071
YRY,100,2,2024-06-14T12:21:24.218Z,english_748.wav,0,1,817,23,4,Mandarin,f,0,0,0.23647087,0.91094575
YRY,100,2,2024-06-14T12:21:24.218Z,english_748.wav,0,1,817,23,4,Mandarin,f,1,0.1,45.60572596,1.68800655
YRY,100,2,2024-06-14T12:21:24.218Z,english_748.wav,0,1,817,23,4,Mandarin,f,2,0.2,6.14588966,1.37684191
YRY,100,2,2024-06-14T12:21:24.218Z,english_748.wav,0,1,817,23,4,Mandarin,f,3,0.3,-10.39850874,0.70556294
YRY,100,2,2024-06-14T12:21:24.218Z,english_748.wav,0,1,817,23,4,Mandarin,f,4,0.32341667,-7.86503132,1.52987196
YRY,101,2,2024-06-14T12:21:24.218Z,english_929.wav,0,0,1330,23,4,Mandarin,f,0,0,29.19700723,1.75028237
YRY,101,2,2024-06-14T12:21:24.218Z,english_929.wav,0,0,1330,23,4,Mandarin,f,1,0.1,15.63825327,0.16776534
YRY,101,2,2024-06-14T12:21:24.218Z,english_929.wav,0,0,1330,23,4,Mandarin,f,2,0.2,3.65085895,0.15899819
YRY,101,2,2024-06-14T12:21:24.218Z,english_929.wav,0,0,1330,23,4,Mandarin,f,3,0.3,-91.18848108,0.41497916
YRY,101,2,2024-06-14T12:21:24.218Z,english_929.wav,0,0,1330,23,4,Mandarin,f,4,0.32341667,53.29025089,0.946821
YRY,102,2,2024-06-14T12:21:24.218Z,english_857.wav,0,0,636,23,4,Mandarin,f,0,0,-33.07031843,1.04325491
YRY,102,2,2024-06-14T12:21:24.218Z,english_857.wav,0,0,636,23,4,Mandarin,f,1,0.1,12.9349985,0.44078978
YRY,102,2,2024-06-14T12:21:24.218Z,english_857.wav,0,0,636,23,4,Mandarin,f,2,0.2,4.33682254,1.36028147
YRY,102,2,2024-06-14T12:21:24.218Z,english_857.wav,0,0,636,23,4,Mandarin,f,3,0.3,90.68056828,1.16905302
YRY,102,2,2024-06-14T12:21:24.218Z,english_857.wav,0,0,636,23,4,Mandarin,f,4,0.32341667,37.69781409,1.24618942
YRY,103,2,2024-06-14T12:21:24.218Z,english_866.wav,0,0,795,23,4,Mandarin,f,0,0,-75.90204766,0.10539101
YRY,103,2,2024-06-14T12:21:24.218Z,english_866.wav,0,0,795,23,4,Mandarin,f,1,0.1,-89.66881049,1.63294926
YRY,103,2,2024-06-14T12:21:24.218Z,english_866.wav,0,0,795,23,4,Mandarin,f,2,0.2,-86.78535298,0.21421971
YRY,103,2,2024-06-14T12:21:24.218Z,english_866.wav,0,0,795,23,4,Mandarin,f,3,0.3,50.96369643,1.47001367
YRY,103,2,2024-06-14T12:21:24.218Z,english_866.wav,0,0,795,23,4,Mandarin,f,4,0.32341667,36.94157773,1.56453662
YRY,104,2,2024-06-14T12:21:24.218Z,english_895.wav,0,1,349,23,4,Mandarin,f,0,0,-36.05432491,1.57991636
YRY,104,2,2024-06-14T12:21:24.218Z,english_895.wav,0,1,349,23,4,Mandarin,f,1,0.1,0.27991529,1.29141926
YRY,104,2,2024-06-14T12:21:24.218Z,english_895.wav,0,1,349,23,4,Mandarin,f,2,0.2,-68.50060493,0.78617821
YRY,104,2,2024-06-14T12:21:24.218Z,english_895.wav,0,1,349,23,4,Mandarin,f,3,0.3,-65.34452755,0.53071912
YRY,104,2,2024-06-14T12:21:24.218Z,english_895.wav,0,1,349,23,4,Mandarin,f,4,0.32341667,44.30205494,1.44568828
YRY,105,2,2024-06-14T12:21:24.218Z,english_806.wav,0,1,340,23,4,Mandarin,f,0,0,17.38837614,1.03842349
YRY,105,2,2024-06-14T12:21:24.218Z,english_806.wav,0,1,340,23,4,Mandarin,f,1,0.1,50.31160736,1.08461549
YRY,105,2,2024-06-14T12:21:24.218Z,english_806.wav,0,1,340,23,4,Mandarin,f,2,0.2,74.21499327,1.8436814
YRY,105,2,2024-06-14T12:21:24.218Z,english_806.wav,0,1,340,23,4,Mandarin,f,3,0.3,16.647622,1.85846725
YRY,105,2,2024-06-14T12:21:24.218Z,english_806.wav,0,1,340,23,4,Mandarin,f,4,0.32341667,27.12519974,1.15820289
YRY,106,2,2024-06-14T12:21:24.218Z,english_589.wav,0,1,1585,23,4,Mandarin,f,0,0,58.55453646,1.98928345
YRY,106,2,2024-06-14T12:21:24.218Z,english_589.wav,0,1,1585,23,4,Mandarin,f,1,0.1,30.45164265,1.49107718
YRY,106,2,2024-06-14T12:21:24.218Z,english_589.wav,0,1,1585,23,4,Mandarin,f,2,0.2,-45.43400091,0.52639062
YRY,106,2,2024-06-14T12:21:24.218Z,english_589.wav,0,1,1585,23,4,Mandarin,f,3,0.3,84.99084473,0.34590986
YRY,106,2,2024-06-14T12:21:24.218Z,english_589.wav,0,1,1585,23,4,Mandarin,f,4,0.32341667,65.45411119,0.67022481
YRY,107,2,2024-06-14T12:21:24.218Z,english_554.wav,0,1,347,23,4,Mandarin,f,0,0,9.57607907,1.93967122
YRY,107,2,2024-06-14T12:21:24.218Z,english_554.wav,0,1,347,23,4,Mandarin,f,1,0.1,29.37398753,1.74360796
YRY,107,2,2024-06-14T12:21:24.218Z,english_554.wav,0,1,347,23,4,Mandarin,f,2,0.2,-58.71210794,0.37945994
YRY,107,2,2024-06-14T12:21:24.218Z,english_554.wav,0,1,347,23,4,Mandarin,f,3,0.3,-10.7927705,1.56347046
YRY,107,2,2024-06-14T12:21:24.218Z,english_554.wav,0,1,347,23,4,Mandarin,f,4,0.32341667,21.8128915,1.38248676
YRY,108,2,2024-06-14T12:21:24.218Z,english_757.wav,0,1,349,23,4,Mandarin,f,0,0,-71.37581006,0.57944866
YRY,108,2,2024-06-14T12:21:24.218Z,english_757.wav,0,1,349,23,4,Mandarin,f,1,0.1,-34.89028362,1.76833087
YRY,108,2,2024-06-14T12:21:24.218Z,english_757.wav,0,1,349,23,4,Mandarin,f,2,0.2,97.72444176,0.43040584
YRY,108,2,2024-06-14T12:21:24.218Z,english_757.wav,0,1,349,23,4,Mandarin,f,3,0.3,8.64322444,1.84780211
YRY,108,2,2024-06-14T12:21:24.218Z,english_757.wav,0,1,349,23,4,Mandarin,f,4,0.32341667,-59.15215987,0.21714226
YRY,109,2,2024-06-14T12:21:24.218Z,english_727.wav,0,1,246,23,4,Mandarin,f,0,0,86.20347479,1.33530257
YRY,109,2,2024-06-14T12:21:24.218Z,english_727.wav,0,1,246,23,4,Mandarin,f,1,0.1,12.26210304,1.85547333
YRY,109,2,2024-06-14T12:21:24.218Z,english_727.wav,0,1,246,23,4,Mandarin,f,2,0.2,5.59218777,1.19683436
YRY,109,2,2024-06-14T12:21:24.218Z,english_727.wav,0,1,246,23,4,Mandarin,f,3,0.3,-46.39280156,1.89207751
YRY,109,2,2024-06-14T12:21:24.218Z,english_727.wav,0,1,246,23,4,Mandarin,f,4,0.32341667,21.79775503,1.05019022
YRY,110,2,2024-06-14T12:21:24.218Z,english_418.wav,0,0,439,23,4,Mandarin,f,0,0,-7.92859899,0.20369216
YRY,110,2,2024-06-14T12:21:24.218Z,english_418.wav,0,0,439,23,4,Mandarin,f,1,0.1,10.19863107,0.15242613
YRY,110,2,2024-06-14T12:21:24.218Z,english_418.wav,0,0,439,23,4,Mandarin,f,2,0.2,-44.82770696,0.77695319
YRY,110,2,2024-06-14T12:21:24.218Z,english_418.wav,0,0,439,23,4,Mandarin,f,3,0.3,-80.4141896,0.71786342
YRY,110,2,2024-06-14T12:21:24.218Z,english_418.wav,0,0,439,23,4,Mandarin,f,4,0.32341667,32.43674468,1.20494416
YRY,111,2,2024-06-14T12:21:24.218Z,english_780.wav,0,0,583,23,4,Mandarin,f,0,0,-15.29393571,0.99089132
YRY,111,2,2024-06-14T12:21:24.218Z,english_780.wav,0,0,583,23,4,Mandarin,f,1,0.1,-51.86215325,0.3216491
YRY,111,2,2024-06-14T12:21:24.218Z,english_780.wav,0,0,583,23,4,Mandarin,f,2,0.2,-27.43889325,1.38797184
YRY,111,2,2024-06-14T12:21:24.218Z,english_780.wav,0,0,583,23,4,Mandarin,f,3,0.3,37.56841363,0.96060741
YRY,111,2,2024-06-14T12:21:24.218Z,english_780.wav,0,0,583,23,4,Mandarin,f,4,0.32341667,-40.51855496,0.89048449
YRY,112,2,2024-06-14T12:21:24.218Z,english_996.wav,0,0,771,23,4,Mandarin,f,0,0,-71.70531914,1.36459419
YRY,112,2,2024-06-14T12:21:24.218Z,english_996.wav,0,0,771,23,4,Mandarin,f,1,0.1,-47.61419544,0.5051745
YRY,112,2,2024-06-14T12:21:24.218Z,english_996.wav,0,0,771,23,4,Mandarin,f,2,0.2,48.0330823,1.09957376
YRY,112,2,2024-06-14T12:21:24.218Z,english_996.wav,0,0,771,23,4,Mandarin,f,3,0.3,34.27821317,0.27950682
YRY,112,2,2024-06-14T12:21:24.218Z,english_996.wav,0,0,771,23,4,Mandarin,f,4,0.32341667,-72.4662587,0.22836241
YRY,113,2,2024-06-14T12:21:24.218Z,english_694.wav,0,0,549,23,4,Mandarin,f,0,0,-79.88370205,0.99496101
YRY,113,2,2024-06-14T12:21:24.218Z,english_694.wav,0,0,549,23,4,Mandarin,f,1,0.1,-58.02841319,0.06406007
YRY,113,2,2024-06-14T12:21:24.218Z,english_694.wav,0,0,549,23,4,Mandarin,f,2,0.2,-50.54988317,0.5055253
YRY,113,2,2024-06-14T12:21:24.218Z,english_694.wav,0,0,549,23,4,Mandarin,f,3,0.3,-20.79864769,0.19498426
YRY,113,2,2024-06-14T12:21:24.218Z,english_694.wav,0,0,549,23,4,Mandarin,f,4,0.32341667,-73.64916114,0.36410653
YRY,114,2,2024-06-14T12:21:24.218Z,english_311.wav,0,0,436,23,4,Mandarin,f,0,0,-35.59355899,0.16094856
YRY,114,2,2024-06-14T12:21:24.218Z,english_311.wav,0,0,436,23,4,Mandarin,f,1,0.1,-50.39310557,1.33895436
YRY,114,2,2024-06-14T12:21:24.218Z,english_311.wav,0,0,436,23,4,Mandarin,f,2,0.2,-53.37222601,0.01028283
YRY,114,2,2024-06-14T12:21:24.218Z,english_311.wav,0,0,436,23,4,Mandarin,f,3,0.3,72.25802658,0.48497386
YRY,114,2,2024-06-14T12:21:24.218Z,english_311.wav,0,0,436,23,4,Mandarin,f,4,0.32341667,48.72421008,0.48591183
YRY,115,2,2024-06-14T12:21:24.218Z,english_859.wav,0,0,422,23,4,Mandarin,f,0,0,71.31858369,0.11764496
YRY,115,2,2024-06-14T12:21:24.218Z,english_859.wav,0,0,422,23,4,Mandarin,f,1,0.1,-33.60875554,0.29827778
YRY,115,2,2024-06-14T12:21:24.218Z,english_859.wav,0,0,422,23,4,Mandarin,f,2,0.2,-64.15502461,0.43254339
YRY,115,2,2024-06-14T12:21:24.218Z,english_859.wav,0,0,422,23,4,Mandarin,f,3,0.3,-36.22537369,0.12368506
YRY,115,2,2024-06-14T12:21:24.218Z,english_859.wav,0,0,422,23,4,Mandarin,f,4,0.32341667,-23.59955866,0.97858169
YRY,116,2,2024-06-14T12:21:24.218Z,english_136.wav,0,0,599,23,4,Mandarin,f,0,0,12.04186247,0.70846626
YRY,116,2,2024-06-14T12:21:24.218Z,english_136.wav,0,0,599,23,4,Mandarin,f,1,0.1,-56.97950323,1.3229906
YRY,116,2,2024-06-14T12:21:24.218Z,english_136.wav,0,0,599,23,4,Mandarin,f,2,0.2,32.29793995,0.25119571
YRY,116,2,2024-06-14T12:21:24.218Z,english_136.wav,0,0,599,23,4,Mandarin,f,3,0.3,40.05814767,1.28510755
YRY,116,2,2024-06-14T12:21:24.218Z,english_136.wav,0,0,599,23,4,Mandarin,f,4,0.32341667,61.40693937,1.20697433
YRY,117,2,2024-06-14T12:21:24.218Z,english_359.wav,0,1,662,23,4,Mandarin,f,0,0,95.13315851,1.5844105
YRY,117,2,2024-06-14T12:21:24.218Z,english_359.wav,0,1,662,23,4,Mandarin,f,1,0.1,95.71495863,0.46491803
YRY,117,2,2024-06-14T12:21:24.218Z,english_359.wav,0,1,662,23,4,Mandarin,f,2,0.2,4.56295435,1.17107987
YRY,117,2,2024-06-14T12:21:24.218Z,english_359.wav,0,1,662,23,4,Mandarin,f,3,0.3,-11.93773809,0.63485582
YRY,117,2,2024-06-14T12:21:24.218Z,english_359.wav,0,1,662,23,4,Mandarin,f,4,0.32341667,-75.72789111,0.10666132
YRY,118,2,2024-06-14T12:21:24.218Z,english_222.wav,0,1,257,23,4,Mandarin,f,0,0,-5.8882644,0.97478352
YRY,118,2,2024-06-14T12:21:24.218Z,english_222.wav,0,1,257,23,4,Mandarin,f,1,0.1,-15.4334302,1.79573252
YRY,118,2,2024-06-14T12:21:24.218Z,english_222.wav,0,1,257,23,4,Mandarin,f,2,0.2,-39.50203868,1.71948726
YRY,118,2,2024-06-14T12:21:24.218Z,english_222.wav,0,1,257,23,4,Mandarin,f,3,0.3,67.79027175,0.41699719
YRY,118,2,2024-06-14T12:21:24.218Z,english_222.wav,0,1,257,23,4,Mandarin,f,4,0.32341667,-43.17344259,0.26315099
YRY,119,2,2024-06-14T12:21:24.218Z,english_385.wav,0,1,541,23,4,Mandarin,f,0,0,-55.07910634,1.75648555
YRY,119,2,2024-06-14T12:21:24.218Z,english_385.wav,0,1,541,23,4,Mandarin,f,1,0.1,-94.47680079,1.20856462
YRY,119,2,2024-06-14T12:21:24.218Z,english_385.wav,0,1,541,23,4,Mandarin,f,2,0.2,38.70414457,0.98103352
YRY,119,2,2024-06-14T12:21:24.218Z,english_385.wav,0,1,541,23,4,Mandarin,f,3,0.3,-46.17691,1.45745263
YRY,119,2,2024-06-14T12:21:24.218Z,english_385.wav,0,1,541,23,4,Mandarin,f,4,0.32341667,2.5941508,0.88353815
YRY,120,2,2024-06-14T12:21:24.218Z,english_15.wav,0,0,520,23,4,Mandarin,f,0,0,-84.2209614,0.31323186
YRY,120,2,2024-06-14T12:21:24.218Z,english_15.wav,0,0,520,23,4,Mandarin,f,1,0.1,62.09656714,0.60538609
YRY,120,2,2024-06-14T12:21:24.218Z,english_15.wav,0,0,520,23,4,Mandarin,f,2,0.2,55.13992629,0.21165259
YRY,120,2,2024-06-14T12:21:24.218Z,english_15.wav,0,0,520,23,4,Mandarin,f,3,0.3,-55.71077558,0.62501131
YRY,120,2,2024-06-14T12:21:24.218Z,english_15.wav,0,0,520,23,4,Mandarin,f,4,0.32341667,77.6678018,0.97290752
YRY,121,2,2024-06-14T12:21:24.218Z,english_47.wav,0,0,1101,23,4,Mandarin,f,0,0,70.62381491,1.36620222
YRY,121,2,2024-06-14T12:21:24.218Z,english_47.wav,0,0,1101,23,4,Mandarin,f,1,0.1,-43.60565268,0.47559644
YRY,121,2,2024-06-14T12:21:24.218Z,english_47.wav,0,0,1101,23,4,Mandarin,f,2,0.2,29.54670776,0.92078875
YRY,121,2,2024-06-14T12:21:24.218Z,english_47.wav,0,0,1101,23,4,Mandarin,f,3,0.3,95.208653,0.83015506
YRY,121,2,2024-06-14T12:21:24.218Z,english_47.wav,0,0,1101,23,4,Mandarin,f,4,0.32341667,-87.83630424,1.40747595
YRY,122,2,2024-06-14T12:21:24.218Z,english_702.wav,0,1,352,23,4,Mandarin,f,0,0,-19.6614881,1.13820402
YRY,122,2,2024-06-14T12:21:24.218Z,english_702.wav,0,1,352,23,4,Mandarin,f,1,0.1,-92.60133235,1.47755069
YRY,122,2,2024-06-14T12:21:24.218Z,english_702.wav,0,1,352,23,4,Mandarin,f,2,0.2,-18.01071493,1.33705675
YRY,122,2,2024-06-14T12:21:24.218Z,english_702.wav,0,1,352,23,4,Mandarin,f,3,0.3,91.54675011,0.59768286
YRY,122,2,2024-06-14T12:21:24.218Z,english_702.wav,0,1,352,23,4,Mandarin,f,4,0.32341667,23.09112348,0.82103567
YRY,123,2,2024-06-14T12:21:24.218Z,english_630.wav,0,1,583,23,4,Mandarin,f,0,0,97.25925287,0.34607754
YRY,123,2,2024-06-14T12:21:24.218Z,english_630.wav,0,1,583,23,4,Mandarin,f,1,0.1,76.95662127,0.15996234
YRY,123,2,2024-06-14T12:21:24.218Z,english_630.wav,0,1,583,23,4,Mandarin,f,2,0.2,5.01423186,1.73874617
YRY,123,2,2024-06-14T12:21:24.218Z,english_630.wav,0,1,583,23,4,Mandarin,f,3,0.3,-27.88706711,0.41181915
YRY,123,2,2024-06-14T12:21:24.218Z,english_630.wav,0,1,583,23,4,Mandarin,f,4,0.32341667,90.69966072,0.77788697
YRY,124,2,2024-06-14T12:21:24.218Z,english_770.wav,0,1,98,23,4,Mandarin,f,0,0,-33.21947329,1.48551245
YRY,124,2,2024-06-14T12:21:24.218Z,english_770.wav,0,1,98,23,4,Mandarin,f,1,0.1,63.53746239,1.21485607
YRY,124,2,2024-06-14T12:21:24.218Z,english_770.wav,0,1,98,23,4,Mandarin,f,2,0.2,-62.38231874,1.11129762
YRY,124,2,2024-06-14T12:21:24.218Z,english_770.wav,0,1,98,23,4,Mandarin,f,3,0.3,57.5515188,1.59702794
YRY,124,2,2024-06-14T12:21:24.218Z,english_770.wav,0,1,98,23,4,Mandarin,f,4,0.32341667,-11.94001254,1.16110171
YRY,125,2,2024-06-14T12:21:24.218Z,english_918.wav,0,1,262,23,4,Mandarin,f,0,0,-64.11083249,1.38668504
YRY,125,2,2024-06-14T12:21:24.218Z,english_918.wav,0,1,262,23,4,Mandarin,f,1,0.1,75.84330997,1.4522357
YRY,125,2,2024-06-14T12:21:24.218Z,english_918.wav,0,1,262,23,4,Mandarin,f,2,0.2,-30.10314186,1.37046734
YRY,125,2,2024-06-14T12:21:24.218Z,english_918.wav,0,1,262,23,4,Mandarin,f,3,0.3,91.40385877,0.70209545
YRY,125,2,2024-06-14T12:21:24.218Z,english_918.wav,0,1,262,23,4,Mandarin,f,4,0.32341667,-14.12068895,0.09881605
YRY,126,2,2024-06-14T12:21:24.218Z,english_490.wav,0,1,338,23,4,Mandarin,f,0,0,39.23640548,0.12600295
YRY,126,2,2024-06-14T12:21:24.218Z,english_490.wav,0,1,338,23,4,Mandarin,f,1,0.1,-42.18123516,0.88631808
YRY,126,2,2024-06-14T12:21:24.218Z,english_490.wav,0,1,338,23,4,Mandarin,f,2,0.2,53.94030347,1.76218548
YRY,126,2,2024-06-14T12:21:24.218Z,english_490.wav,0,1,338,23,4,Mandarin,f,3,0.3,-65.41993581,1.86160188
YRY,126,2,2024-06-14T12:21:24.218Z,english_490.wav,0,1,338,23,4,Mandarin,f,4,0.32341667,90.15742696,1.03493088
YRY,127,2,2024-06-14T12:21:24.218Z,english_856.wav,0,1,210,23,4,Mandarin,f,0,0,-44.08940674,1.51880133
YRY,127,2,2024-06-14T12:21:24.218Z,english_856.wav,0,1,210,23,4,Mandarin,f,1,0.1,-25.77644107,0.99524475
YRY,127,2,2024-06-14T12:21:24.218Z,english_856.wav,0,1,210,23,4,Mandarin,f,2,0.2,6.39263247,1.11391415
YRY,127,2,2024-06-14T12:21:24.218Z,english_856.wav,0,1,210,23,4,Mandarin,f,3,0.3,92.67536145,0.95575529
YRY,127,2,2024-06-14T12:21:24.218Z,english_856.wav,0,1,210,23,4,Mandarin,f,4,0.32341667,45.15991817,1.02944292
YRY,128,2,2024-06-14T12:21:24.218Z,english_198.wav,0,1,362,23,4,Mandarin,f,0,0,-3.53881338,0.6033193
YRY,128,2,2024-06-14T12:21:24.218Z,english_198.wav,0,1,362,23,4,Mandarin,f,1,0.1,58.04445454,0.57837506
YRY,128,2,2024-06-14T12:21:24.218Z,english_198.wav,0,1,362,23,4,Mandarin,f,2,0.2,67.39523563,1.37850613
YRY,128,2,2024-06-14T12:21:24.218Z,english_198.wav,0,1,362,23,4,Mandarin,f,3,0.3,56.58835275,0.73107668
YRY,128,2,2024-06-14T12:21:24.218Z,english_198.wav,0,1,362,23,4,Mandarin,f,4,0.32341667,7.34595052,0.42006089
YRY,129,2,2024-06-14T12:21:24.218Z,english_455.wav,0,1,373,23,4,Mandarin,f,0,0,16.09493262,0.21208686
YRY,129,2,2024-06-14T12:21:24.218Z,english_455.wav,0,1,373,23,4,Mandarin,f,1,0.1,24.58982,1.0305564
YRY,129,2,2024-06-14T12:21:24.218Z,english_455.wav,0,1,373,23,4,Mandarin,f,2,0.2,-59.31201859,1.53057992
YRY,129,2,2024-06-14T12:21:24.218Z,english_455.wav,0,1,373,23,4,Mandarin,f,3,0.3,40.79603426,0.62599766
YRY,129,2,2024-06-14T12:21:24.218Z,english_455.wav,0,1,373,23,4,Mandarin,f,4,0.32341667,-39.30035714,1.43054244
YRY,130,2,2024-06-14T12:21:24.218Z,english_705.wav,0,1,148,23,4,Mandarin,f,0,0,3.76426423,0.9500377
YRY,130,2,2024-06-14T12:21:24.218Z,english_705.wav,0,1,148,23,4,Mandarin,f,1,0.1,90.96696755,0.74173997
YRY,130,2,2024-06-14T12:21:24.218Z,english_705.wav,0,1,148,23,4,Mandarin,f,2,0.2,-32.86898574,1.78776637
YRY,130,2,2024-06-14T12:21:24.218Z,english_705.wav,0,1,148,23,4,Mandarin,f,3,0.3,-21.12550784,0.8178788
YRY,130,2,2024-06-14T12:21:24.218Z,english_705.wav,0,1,148,23,4,Mandarin,f,4,0.32341667,39.74077299,1.54913024
YRY,131,2,2024-06-14T12:21:24.218Z,english_367.wav,0,1,319,23,4,Mandarin,f,0,0,69.68935346,1.12532443
YRY,131,2,2024-06-14T12:21:24.218Z,english_367.wav,0,1,319,23,4,Mandarin,f,1,0.1,-21.84293244,1.15903886
YRY,131,2,2024-06-14T12:21:24.218Z,english_367.wav,0,1,319,23,4,Mandarin,f,2,0.2,-22.40126322,1.68834661
YRY,131,2,2024-06-14T12:21:24.218Z,english_367.wav,0,1,319,23,4,Mandarin,f,3,0.3,-77.83415675,1.78966274
YRY,131,2,2024-06-14T12:21:24.218Z,english_367.wav,0,1,319,23,4,Mandarin,f,4,0.32341667,18.42522507,1.57311162
YRY,132,2,2024-06-14T12:21:24.218Z,english_419.wav,0,0,328,23,4,Mandarin,f,0,0,74.10926047,0.423980314
YRY,132,2,2024-06-14T12:21:24.218Z,english_419.wav,0,0,328,23,4,Mandarin,f,1,0.1,-50.44969368,1.12483838
YRY,132,2,2024-06-14T12:21:24.218Z,english_419.wav,0,0,328,23,4,Mandarin,f,2,0.2,-38.37630765,0.473465541
YRY,132,2,2024-06-14T12:21:24.218Z,english_419.wav,0,0,328,23,4,Mandarin,f,3,0.3,-57.54140712,0.000838613621
YRY,132,2,2024-06-14T12:21:24.218Z,english_419.wav,0,0,328,23,4,Mandarin,f,4,0.32341667,48.12555486,0.389285402
YRY,133,2,2024-06-14T12:21:24.218Z,english_181.wav,0,0,209,23,4,Mandarin,f,0,0,-20.89133039,0.39550568
YRY,133,2,2024-06-14T12:21:24.218Z,english_181.wav,0,0,209,23,4,Mandarin,f,1,0.1,-68.36112581,0.87114476
YRY,133,2,2024-06-14T12:21:24.218Z,english_181.wav,0,0,209,23,4,Mandarin,f,2,0.2,-21.7912093,0.0214418
YRY,133,2,2024-06-14T12:21:24.218Z,english_181.wav,0,0,209,23,4,Mandarin,f,3,0.3,7.62752627,1.98777716
YRY,133,2,2024-06-14T12:21:24.218Z,english_181.wav,0,0,209,23,4,Mandarin,f,4,0.32341667,53.94324841,0.40706026
YRY,134,2,2024-06-14T12:21:24.218Z,english_303.wav,0,0,93,23,4,Mandarin,f,0,0,67.00540241,1.22520816
YRY,134,2,2024-06-14T12:21:24.218Z,english_303.wav,0,0,93,23,4,Mandarin,f,1,0.1,32.95821842,1.22732479
YRY,134,2,2024-06-14T12:21:24.218Z,english_303.wav,0,0,93,23,4,Mandarin,f,2,0.2,-23.67517146,0.54923068
YRY,134,2,2024-06-14T12:21:24.218Z,english_303.wav,0,0,93,23,4,Mandarin,f,3,0.3,-66.94926695,0.8977578
YRY,134,2,2024-06-14T12:21:24.218Z,english_303.wav,0,0,93,23,4,Mandarin,f,4,0.32341667,65.71723135,1.41807679
YRY,135,2,2024-06-14T12:21:24.218Z,english_103.wav,0,0,2,23,4,Mandarin,f,0,0,-79.54710498,0.84178061
YRY,135,2,2024-06-14T12:21:24.218Z,english_103.wav,0,0,2,23,4,Mandarin,f,1,0.1,-41.31314025,1.9706485
YRY,135,2,2024-06-14T12:21:24.218Z,english_103.wav,0,0,2,23,4,Mandarin,f,2,0.2,-48.58046961,1.55059924
YRY,135,2,2024-06-14T12:21:24.218Z,english_103.wav,0,0,2,23,4,Mandarin,f,3,0.3,50.88097047,1.14550684
YRY,135,2,2024-06-14T12:21:24.218Z,english_103.wav,0,0,2,23,4,Mandarin,f,4,0.32341667,21.22320476,1.67039139
YRY,136,2,2024-06-14T12:21:24.218Z,english_540.wav,0,0,731,23,4,Mandarin,f,0,0,-46.6752609,1.16352469
YRY,136,2,2024-06-14T12:21:24.218Z,english_540.wav,0,0,731,23,4,Mandarin,f,1,0.1,-93.20209644,0.0234781
YRY,136,2,2024-06-14T12:21:24.218Z,english_540.wav,0,0,731,23,4,Mandarin,f,2,0.2,64.96419662,0.05926191
YRY,136,2,2024-06-14T12:21:24.218Z,english_540.wav,0,0,731,23,4,Mandarin,f,3,0.3,-12.16484387,1.47406284
YRY,136,2,2024-06-14T12:21:24.218Z,english_540.wav,0,0,731,23,4,Mandarin,f,4,0.32341667,-44.34688232,0.60104864
YRY,137,2,2024-06-14T12:21:24.218Z,english_706.wav,0,0,336,23,4,Mandarin,f,0,0,-14.02426606,0.18721001
YRY,137,2,2024-06-14T12:21:24.218Z,english_706.wav,0,0,336,23,4,Mandarin,f,1,0.1,23.81630209,0.48464851
YRY,137,2,2024-06-14T12:21:24.218Z,english_706.wav,0,0,336,23,4,Mandarin,f,2,0.2,94.24266466,1.46456973
YRY,137,2,2024-06-14T12:21:24.218Z,english_706.wav,0,0,336,23,4,Mandarin,f,3,0.3,20.03642156,0.11403632
YRY,137,2,2024-06-14T12:21:24.218Z,english_706.wav,0,0,336,23,4,Mandarin,f,4,0.32341667,57.92570785,0.61389372
YRY,138,2,2024-06-14T12:21:24.218Z,english_190.wav,0,0,510,23,4,Mandarin,f,0,0,81.66607819,0.126715216
YRY,138,2,2024-06-14T12:21:24.218Z,english_190.wav,0,0,510,23,4,Mandarin,f,1,0.1,-14.16938067,0.000178349903
YRY,138,2,2024-06-14T12:21:24.218Z,english_190.wav,0,0,510,23,4,Mandarin,f,2,0.2,15.7443745,1.35192229
YRY,138,2,2024-06-14T12:21:24.218Z,english_190.wav,0,0,510,23,4,Mandarin,f,3,0.3,85.77694093,1.08905811
YRY,138,2,2024-06-14T12:21:24.218Z,english_190.wav,0,0,510,23,4,Mandarin,f,4,0.32341667,33.21115004,1.75580408
YRY,139,2,2024-06-14T12:21:24.218Z,english_41.wav,0,0,222,23,4,Mandarin,f,0,0,42.21237724,0.98996482
YRY,139,2,2024-06-14T12:21:24.218Z,english_41.wav,0,0,222,23,4,Mandarin,f,1,0.1,33.8271633,0.77076848
YRY,139,2,2024-06-14T12:21:24.218Z,english_41.wav,0,0,222,23,4,Mandarin,f,2,0.2,20.96644351,0.37402384
YRY,139,2,2024-06-14T12:21:24.218Z,english_41.wav,0,0,222,23,4,Mandarin,f,3,0.3,-53.61985723,1.98545705
YRY,139,2,2024-06-14T12:21:24.218Z,english_41.wav,0,0,222,23,4,Mandarin,f,4,0.32341667,-55.68725705,1.53352273
YRY,140,2,2024-06-14T12:21:24.218Z,english_17.wav,0,1,3781,23,4,Mandarin,f,0,0,54.20763778,0.24306789
YRY,140,2,2024-06-14T12:21:24.218Z,english_17.wav,0,1,3781,23,4,Mandarin,f,1,0.1,56.90002318,0.93194053
YRY,140,2,2024-06-14T12:21:24.218Z,english_17.wav,0,1,3781,23,4,Mandarin,f,2,0.2,53.34795505,0.70954885
YRY,140,2,2024-06-14T12:21:24.218Z,english_17.wav,0,1,3781,23,4,Mandarin,f,3,0.3,-49.04179277,1.57385934
YRY,140,2,2024-06-14T12:21:24.218Z,english_17.wav,0,1,3781,23,4,Mandarin,f,4,0.32341667,-46.12718147,1.28258365
YRY,141,2,2024-06-14T12:21:24.218Z,english_410.wav,0,0,465,23,4,Mandarin,f,0,0,-74.64506245,0.42358098
YRY,141,2,2024-06-14T12:21:24.218Z,english_410.wav,0,0,465,23,4,Mandarin,f,1,0.1,65.24401488,0.42526697
YRY,141,2,2024-06-14T12:21:24.218Z,english_410.wav,0,0,465,23,4,Mandarin,f,2,0.2,-65.86471953,1.12385183
YRY,141,2,2024-06-14T12:21:24.218Z,english_410.wav,0,0,465,23,4,Mandarin,f,3,0.3,98.79489106,0.33588109
YRY,141,2,2024-06-14T12:21:24.218Z,english_410.wav,0,0,465,23,4,Mandarin,f,4,0.32341667,14.95451541,1.7246864
YRY,142,2,2024-06-14T12:21:24.218Z,english_189.wav,0,0,515,23,4,Mandarin,f,0,0,-22.70456848,0.82906961
YRY,142,2,2024-06-14T12:21:24.218Z,english_189.wav,0,0,515,23,4,Mandarin,f,1,0.1,-12.00888723,0.58408113
YRY,142,2,2024-06-14T12:21:24.218Z,english_189.wav,0,0,515,23,4,Mandarin,f,2,0.2,15.14046376,0.19058783
YRY,142,2,2024-06-14T12:21:24.218Z,english_189.wav,0,0,515,23,4,Mandarin,f,3,0.3,-19.30106293,0.57788611
YRY,142,2,2024-06-14T12:21:24.218Z,english_189.wav,0,0,515,23,4,Mandarin,f,4,0.32341667,-20.57313834,0.32577637
YRY,143,2,2024-06-14T12:21:24.218Z,english_972.wav,0,0,544,23,4,Mandarin,f,0,0,-87.82800068,1.28286493
YRY,143,2,2024-06-14T12:21:24.218Z,english_972.wav,0,0,544,23,4,Mandarin,f,1,0.1,-25.45661385,0.89058027
YRY,143,2,2024-06-14T12:21:24.218Z,english_972.wav,0,0,544,23,4,Mandarin,f,2,0.2,2.95853851,1.4716374
YRY,143,2,2024-06-14T12:21:24.218Z,english_972.wav,0,0,544,23,4,Mandarin,f,3,0.3,84.61583696,0.6386035
YRY,143,2,2024-06-14T12:21:24.218Z,english_972.wav,0,0,544,23,4,Mandarin,f,4,0.32341667,42.95706616,1.51056083
YRY,144,2,2024-06-14T12:21:24.218Z,english_255.wav,0,1,270,23,4,Mandarin,f,0,0,-42.74550593,1.65518669
YRY,144,2,2024-06-14T12:21:24.218Z,english_255.wav,0,1,270,23,4,Mandarin,f,1,0.1,35.44578771,1.85823386
YRY,144,2,2024-06-14T12:21:24.218Z,english_255.wav,0,1,270,23,4,Mandarin,f,2,0.2,98.7346041,1.2123315
YRY,144,2,2024-06-14T12:21:24.218Z,english_255.wav,0,1,270,23,4,Mandarin,f,3,0.3,14.08839822,0.62099519
YRY,144,2,2024-06-14T12:21:24.218Z,english_255.wav,0,1,270,23,4,Mandarin,f,4,0.32341667,-55.38739786,1.08486436
YRY,145,2,2024-06-14T12:21:24.218Z,english_313.wav,0,1,766,23,4,Mandarin,f,0,0,63.86599335,0.35841412
YRY,145,2,2024-06-14T12:21:24.218Z,english_313.wav,0,1,766,23,4,Mandarin,f,1,0.1,-55.89800258,0.35021793
YRY,145,2,2024-06-14T12:21:24.218Z,english_313.wav,0,1,766,23,4,Mandarin,f,2,0.2,90.86254046,1.77750413
YRY,145,2,2024-06-14T12:21:24.218Z,english_313.wav,0,1,766,23,4,Mandarin,f,3,0.3,0.53087649,1.87396687
YRY,145,2,2024-06-14T12:21:24.218Z,english_313.wav,0,1,766,23,4,Mandarin,f,4,0.32341667,-69.87913817,1.16176786
YRY,146,2,2024-06-14T12:21:24.218Z,english_194.wav,0,1,257,23,4,Mandarin,f,0,0,46.99725025,0.38230397
YRY,146,2,2024-06-14T12:21:24.218Z,english_194.wav,0,1,257,23,4,Mandarin,f,1,0.1,-37.20381284,1.33246395
YRY,146,2,2024-06-14T12:21:24.218Z,english_194.wav,0,1,257,23,4,Mandarin,f,2,0.2,13.86947558,1.31276464
YRY,146,2,2024-06-14T12:21:24.218Z,english_194.wav,0,1,257,23,4,Mandarin,f,3,0.3,79.77232086,0.22397005
YRY,146,2,2024-06-14T12:21:24.218Z,english_194.wav,0,1,257,23,4,Mandarin,f,4,0.32341667,49.46244041,1.74931967
YRY,147,2,2024-06-14T12:21:24.218Z,english_247.wav,0,1,323,23,4,Mandarin,f,0,0,48.65693284,0.25539499
YRY,147,2,2024-06-14T12:21:24.218Z,english_247.wav,0,1,323,23,4,Mandarin,f,1,0.1,-27.64572099,1.09429421
YRY,147,2,2024-06-14T12:21:24.218Z,english_247.wav,0,1,323,23,4,Mandarin,f,2,0.2,-20.19701808,0.88115619
YRY,147,2,2024-06-14T12:21:24.218Z,english_247.wav,0,1,323,23,4,Mandarin,f,3,0.3,-10.74442668,1.97859338
YRY,147,2,2024-06-14T12:21:24.218Z,english_247.wav,0,1,323,23,4,Mandarin,f,4,0.32341667,91.42432082,0.10638235
YRY,148,2,2024-06-14T12:21:24.218Z,english_958.wav,0,1,629,23,4,Mandarin,f,0,0,17.32592779,0.33109802
YRY,148,2,2024-06-14T12:21:24.218Z,english_958.wav,0,1,629,23,4,Mandarin,f,1,0.1,89.03376041,1.83345348
YRY,148,2,2024-06-14T12:21:24.218Z,english_958.wav,0,1,629,23,4,Mandarin,f,2,0.2,-24.89219777,1.95859429
YRY,148,2,2024-06-14T12:21:24.218Z,english_958.wav,0,1,629,23,4,Mandarin,f,3,0.3,-92.10798137,1.50296341
YRY,148,2,2024-06-14T12:21:24.218Z,english_958.wav,0,1,629,23,4,Mandarin,f,4,0.32341667,3.27828718,0.1474067
YRY,149,2,2024-06-14T12:21:24.218Z,english_193.wav,0,1,222,23,4,Mandarin,f,0,0,98.63199606,1.10219899
YRY,149,2,2024-06-14T12:21:24.218Z,english_193.wav,0,1,222,23,4,Mandarin,f,1,0.1,38.06859183,1.75752318
YRY,149,2,2024-06-14T12:21:24.218Z,english_193.wav,0,1,222,23,4,Mandarin,f,2,0.2,58.19309996,1.8701857
YRY,149,2,2024-06-14T12:21:24.218Z,english_193.wav,0,1,222,23,4,Mandarin,f,3,0.3,70.68425501,1.90449871
YRY,149,2,2024-06-14T12:21:24.218Z,english_193.wav,0,1,222,23,4,Mandarin,f,4,0.32341667,89.06926868,1.70479661
YRY,150,3,2024-06-14T12:24:16.418Z,english_221.wav,0,1,741,23,4,Mandarin,f,0,0,85.84184869,1.38100565
YRY,150,3,2024-06-14T12:24:16.418Z,english_221.wav,0,1,741,23,4,Mandarin,f,1,0.1,-20.37513589,0.79531516
YRY,150,3,2024-06-14T12:24:16.418Z,english_221.wav,0,1,741,23,4,Mandarin,f,2,0.2,-89.75984637,0.9538446
YRY,150,3,2024-06-14T12:24:16.418Z,english_221.wav,0,1,741,23,4,Mandarin,f,3,0.3,50.66879934,1.56492426
YRY,150,3,2024-06-14T12:24:16.418Z,english_221.wav,0,1,741,23,4,Mandarin,f,4,0.32341667,20.92538743,1.60855456
YRY,151,3,2024-06-14T12:24:16.418Z,english_277.wav,0,0,910,23,4,Mandarin,f,0,0,57.10742469,0.00973607
YRY,151,3,2024-06-14T12:24:16.418Z,english_277.wav,0,0,910,23,4,Mandarin,f,1,0.1,-91.86277199,0.30409245
YRY,151,3,2024-06-14T12:24:16.418Z,english_277.wav,0,0,910,23,4,Mandarin,f,2,0.2,15.18492706,1.04533503
YRY,151,3,2024-06-14T12:24:16.418Z,english_277.wav,0,0,910,23,4,Mandarin,f,3,0.3,-70.52173838,1.32138987
YRY,151,3,2024-06-14T12:24:16.418Z,english_277.wav,0,0,910,23,4,Mandarin,f,4,0.32341667,87.41438228,0.22027268
YRY,152,3,2024-06-14T12:24:16.418Z,english_828.wav,0,1,311,23,4,Mandarin,f,0,0,51.6479082,0.4417702
YRY,152,3,2024-06-14T12:24:16.418Z,english_828.wav,0,1,311,23,4,Mandarin,f,1,0.1,37.62818293,1.22957458
YRY,152,3,2024-06-14T12:24:16.418Z,english_828.wav,0,1,311,23,4,Mandarin,f,2,0.2,55.79615955,0.69909727
YRY,152,3,2024-06-14T12:24:16.418Z,english_828.wav,0,1,311,23,4,Mandarin,f,3,0.3,31.91979646,1.572544
YRY,152,3,2024-06-14T12:24:16.418Z,english_828.wav,0,1,311,23,4,Mandarin,f,4,0.32341667,-22.21091203,0.87669833
YRY,153,3,2024-06-14T12:24:16.418Z,english_43.wav,0,0,494,23,4,Mandarin,f,0,0,22.40064366,1.74132857
YRY,153,3,2024-06-14T12:24:16.418Z,english_43.wav,0,0,494,23,4,Mandarin,f,1,0.1,-68.20152198,0.12763156
YRY,153,3,2024-06-14T12:24:16.418Z,english_43.wav,0,0,494,23,4,Mandarin,f,2,0.2,62.56231291,0.31420738
YRY,153,3,2024-06-14T12:24:16.418Z,english_43.wav,0,0,494,23,4,Mandarin,f,3,0.3,45.0736378,0.98572154
YRY,153,3,2024-06-14T12:24:16.418Z,english_43.wav,0,0,494,23,4,Mandarin,f,4,0.32341667,-36.46791656,0.91325677
YRY,154,3,2024-06-14T12:24:16.418Z,english_629.wav,0,0,267,23,4,Mandarin,f,0,0,76.68747977,0.56482572
YRY,154,3,2024-06-14T12:24:16.418Z,english_629.wav,0,0,267,23,4,Mandarin,f,1,0.1,72.0676039,0.14075004
YRY,154,3,2024-06-14T12:24:16.418Z,english_629.wav,0,0,267,23,4,Mandarin,f,2,0.2,-3.42071834,0.80885654
YRY,154,3,2024-06-14T12:24:16.418Z,english_629.wav,0,0,267,23,4,Mandarin,f,3,0.3,-75.36993348,1.43133267
YRY,154,3,2024-06-14T12:24:16.418Z,english_629.wav,0,0,267,23,4,Mandarin,f,4,0.32341667,-15.4233884,0.14234351
YRY,155,3,2024-06-14T12:24:16.418Z,english_598.wav,0,1,630,23,4,Mandarin,f,0,0,4.26365523,0.04069017
YRY,155,3,2024-06-14T12:24:16.418Z,english_598.wav,0,1,630,23,4,Mandarin,f,1,0.1,-29.634957,1.27980102
YRY,155,3,2024-06-14T12:24:16.418Z,english_598.wav,0,1,630,23,4,Mandarin,f,2,0.2,-17.49120793,0.98781586
YRY,155,3,2024-06-14T12:24:16.418Z,english_598.wav,0,1,630,23,4,Mandarin,f,3,0.3,-34.93876912,1.55939702
YRY,155,3,2024-06-14T12:24:16.418Z,english_598.wav,0,1,630,23,4,Mandarin,f,4,0.32341667,49.49845506,1.74128412
YRY,156,3,2024-06-14T12:24:16.418Z,english_392.wav,0,1,228,23,4,Mandarin,f,0,0,-12.90562814,1.13144201
YRY,156,3,2024-06-14T12:24:16.418Z,english_392.wav,0,1,228,23,4,Mandarin,f,1,0.1,-1.29416779,0.98893381
YRY,156,3,2024-06-14T12:24:16.418Z,english_392.wav,0,1,228,23,4,Mandarin,f,2,0.2,-53.34155903,0.07204825
YRY,156,3,2024-06-14T12:24:16.418Z,english_392.wav,0,1,228,23,4,Mandarin,f,3,0.3,-48.65153398,1.52779633
YRY,156,3,2024-06-14T12:24:16.418Z,english_392.wav,0,1,228,23,4,Mandarin,f,4,0.32341667,-43.47653164,1.32355089
YRY,157,3,2024-06-14T12:24:16.418Z,english_49.wav,0,1,317,23,4,Mandarin,f,0,0,-6.08822071,0.36436507
YRY,157,3,2024-06-14T12:24:16.418Z,english_49.wav,0,1,317,23,4,Mandarin,f,1,0.1,-56.0367764,1.66948988
YRY,157,3,2024-06-14T12:24:16.418Z,english_49.wav,0,1,317,23,4,Mandarin,f,2,0.2,-51.95657584,1.20554654
YRY,157,3,2024-06-14T12:24:16.418Z,english_49.wav,0,1,317,23,4,Mandarin,f,3,0.3,-59.93208112,0.31084089
YRY,157,3,2024-06-14T12:24:16.418Z,english_49.wav,0,1,317,23,4,Mandarin,f,4,0.32341667,-7.85847813,0.44223059
YRY,158,3,2024-06-14T12:24:16.418Z,english_449.wav,0,1,71,23,4,Mandarin,f,0,0,-46.54576765,0.60085197
YRY,158,3,2024-06-14T12:24:16.418Z,english_449.wav,0,1,71,23,4,Mandarin,f,1,0.1,20.05422573,1.74901032
YRY,158,3,2024-06-14T12:24:16.418Z,english_449.wav,0,1,71,23,4,Mandarin,f,2,0.2,54.52400621,1.9506545
YRY,158,3,2024-06-14T12:24:16.418Z,english_449.wav,0,1,71,23,4,Mandarin,f,3,0.3,73.66855139,1.81044704
YRY,158,3,2024-06-14T12:24:16.418Z,english_449.wav,0,1,71,23,4,Mandarin,f,4,0.32341667,-1.88675615,0.93562966
YRY,159,3,2024-06-14T12:24:16.418Z,english_636.wav,0,1,108,23,4,Mandarin,f,0,0,-20.37295141,1.69276631
YRY,159,3,2024-06-14T12:24:16.418Z,english_636.wav,0,1,108,23,4,Mandarin,f,1,0.1,-84.7288786,1.69908726
YRY,159,3,2024-06-14T12:24:16.418Z,english_636.wav,0,1,108,23,4,Mandarin,f,2,0.2,24.84265136,1.44836333
YRY,159,3,2024-06-14T12:24:16.418Z,english_636.wav,0,1,108,23,4,Mandarin,f,3,0.3,-9.2443485,1.36647816
YRY,159,3,2024-06-14T12:24:16.418Z,english_636.wav,0,1,108,23,4,Mandarin,f,4,0.32341667,49.04875774,0.88112598
YRY,160,3,2024-06-14T12:24:16.418Z,english_916.wav,0,1,446,23,4,Mandarin,f,0,0,-50.62314768,0.5519299
YRY,160,3,2024-06-14T12:24:16.418Z,english_916.wav,0,1,446,23,4,Mandarin,f,1,0.1,-52.55300278,1.16723516
YRY,160,3,2024-06-14T12:24:16.418Z,english_916.wav,0,1,446,23,4,Mandarin,f,2,0.2,54.298582,1.72376738
YRY,160,3,2024-06-14T12:24:16.418Z,english_916.wav,0,1,446,23,4,Mandarin,f,3,0.3,-23.99088857,0.41493786
YRY,160,3,2024-06-14T12:24:16.418Z,english_916.wav,0,1,446,23,4,Mandarin,f,4,0.32341667,4.88948607,1.97918138
YRY,161,3,2024-06-14T12:24:16.418Z,english_696.wav,0,1,401,23,4,Mandarin,f,0,0,-48.45243871,0.15817179
YRY,161,3,2024-06-14T12:24:16.418Z,english_696.wav,0,1,401,23,4,Mandarin,f,1,0.1,82.41340646,0.69939178
YRY,161,3,2024-06-14T12:24:16.418Z,english_696.wav,0,1,401,23,4,Mandarin,f,2,0.2,-7.53339347,1.28466279
YRY,161,3,2024-06-14T12:24:16.418Z,english_696.wav,0,1,401,23,4,Mandarin,f,3,0.3,-30.87957178,1.90686052
YRY,161,3,2024-06-14T12:24:16.418Z,english_696.wav,0,1,401,23,4,Mandarin,f,4,0.32341667,75.39947922,0.63235415
YRY,162,3,2024-06-14T12:24:16.418Z,english_637.wav,0,1,173,23,4,Mandarin,f,0,0,-1.71458324,1.21739028
YRY,162,3,2024-06-14T12:24:16.418Z,english_637.wav,0,1,173,23,4,Mandarin,f,1,0.1,-8.03758275,0.51882016
YRY,162,3,2024-06-14T12:24:16.418Z,english_637.wav,0,1,173,23,4,Mandarin,f,2,0.2,-8.49550443,1.63519413
YRY,162,3,2024-06-14T12:24:16.418Z,english_637.wav,0,1,173,23,4,Mandarin,f,3,0.3,-8.27727969,1.34863813
YRY,162,3,2024-06-14T12:24:16.418Z,english_637.wav,0,1,173,23,4,Mandarin,f,4,0.32341667,64.42471467,1.93003029
YRY,163,3,2024-06-14T12:24:16.418Z,english_465.wav,0,1,442,23,4,Mandarin,f,0,0,40.04056426,1.33778995
YRY,163,3,2024-06-14T12:24:16.418Z,english_465.wav,0,1,442,23,4,Mandarin,f,1,0.1,-97.28817369,0.1899685
YRY,163,3,2024-06-14T12:24:16.418Z,english_465.wav,0,1,442,23,4,Mandarin,f,2,0.2,-58.72937184,1.35609136
YRY,163,3,2024-06-14T12:24:16.418Z,english_465.wav,0,1,442,23,4,Mandarin,f,3,0.3,82.2448524,1.94032164
YRY,163,3,2024-06-14T12:24:16.418Z,english_465.wav,0,1,442,23,4,Mandarin,f,4,0.32341667,-29.20233879,0.27858753
YRY,164,3,2024-06-14T12:24:16.418Z,english_180.wav,0,0,953,23,4,Mandarin,f,0,0,-79.96502932,0.84610218
YRY,164,3,2024-06-14T12:24:16.418Z,english_180.wav,0,0,953,23,4,Mandarin,f,1,0.1,33.21752916,1.88919334
YRY,164,3,2024-06-14T12:24:16.418Z,english_180.wav,0,0,953,23,4,Mandarin,f,2,0.2,-97.52705813,0.18699196
YRY,164,3,2024-06-14T12:24:16.418Z,english_180.wav,0,0,953,23,4,Mandarin,f,3,0.3,42.51331828,0.0366283
YRY,164,3,2024-06-14T12:24:16.418Z,english_180.wav,0,0,953,23,4,Mandarin,f,4,0.32341667,-42.98571984,0.95813987
YRY,165,3,2024-06-14T12:24:16.418Z,english_134.wav,0,0,198,23,4,Mandarin,f,0,0,70.72156413,1.84700732
YRY,165,3,2024-06-14T12:24:16.418Z,english_134.wav,0,0,198,23,4,Mandarin,f,1,0.1,-64.20531103,1.20878884
YRY,165,3,2024-06-14T12:24:16.418Z,english_134.wav,0,0,198,23,4,Mandarin,f,2,0.2,35.7891913,0.51924654
YRY,165,3,2024-06-14T12:24:16.418Z,english_134.wav,0,0,198,23,4,Mandarin,f,3,0.3,-77.33475241,1.95615398
YRY,165,3,2024-06-14T12:24:16.418Z,english_134.wav,0,0,198,23,4,Mandarin,f,4,0.32341667,85.6978336,1.72102519
YRY,166,3,2024-06-14T12:24:16.418Z,english_529.wav,0,0,368,23,4,Mandarin,f,0,0,13.90759343,0.83001961
YRY,166,3,2024-06-14T12:24:16.418Z,english_529.wav,0,0,368,23,4,Mandarin,f,1,0.1,-33.526088,0.02518437
YRY,166,3,2024-06-14T12:24:16.418Z,english_529.wav,0,0,368,23,4,Mandarin,f,2,0.2,-34.32120589,1.61112877
YRY,166,3,2024-06-14T12:24:16.418Z,english_529.wav,0,0,368,23,4,Mandarin,f,3,0.3,-18.30112723,0.91948239
YRY,166,3,2024-06-14T12:24:16.418Z,english_529.wav,0,0,368,23,4,Mandarin,f,4,0.32341667,16.4796061,0.33204613
YRY,167,3,2024-06-14T12:24:16.418Z,english_474.wav,0,1,1991,23,4,Mandarin,f,0,0,42.88606971,0.87351765
YRY,167,3,2024-06-14T12:24:16.418Z,english_474.wav,0,1,1991,23,4,Mandarin,f,1,0.1,6.82691085,1.08551449
YRY,167,3,2024-06-14T12:24:16.418Z,english_474.wav,0,1,1991,23,4,Mandarin,f,2,0.2,-33.80031927,1.99847166
YRY,167,3,2024-06-14T12:24:16.418Z,english_474.wav,0,1,1991,23,4,Mandarin,f,3,0.3,-97.18672796,0.27470298
YRY,167,3,2024-06-14T12:24:16.418Z,english_474.wav,0,1,1991,23,4,Mandarin,f,4,0.32341667,-4.7462475,0.02962094
YRY,168,3,2024-06-14T12:24:16.418Z,english_842.wav,0,1,1347,23,4,Mandarin,f,0,0,-48.5952207,0.12382156
YRY,168,3,2024-06-14T12:24:16.418Z,english_842.wav,0,1,1347,23,4,Mandarin,f,1,0.1,29.19485822,1.75564688
YRY,168,3,2024-06-14T12:24:16.418Z,english_842.wav,0,1,1347,23,4,Mandarin,f,2,0.2,84.54328152,0.24815543
YRY,168,3,2024-06-14T12:24:16.418Z,english_842.wav,0,1,1347,23,4,Mandarin,f,3,0.3,69.99994667,1.2885643
YRY,168,3,2024-06-14T12:24:16.418Z,english_842.wav,0,1,1347,23,4,Mandarin,f,4,0.32341667,56.72069463,0.70518165
YRY,169,3,2024-06-14T12:24:16.418Z,english_278.wav,0,1,327,23,4,Mandarin,f,0,0,-49.55521664,0.96598769
YRY,169,3,2024-06-14T12:24:16.418Z,english_278.wav,0,1,327,23,4,Mandarin,f,1,0.1,60.24292507,1.32709354
YRY,169,3,2024-06-14T12:24:16.418Z,english_278.wav,0,1,327,23,4,Mandarin,f,2,0.2,34.32984246,0.84496159
YRY,169,3,2024-06-14T12:24:16.418Z,english_278.wav,0,1,327,23,4,Mandarin,f,3,0.3,91.69210883,1.50157491
YRY,169,3,2024-06-14T12:24:16.418Z,english_278.wav,0,1,327,23,4,Mandarin,f,4,0.32341667,78.84715657,1.85534648
YRY,170,3,2024-06-14T12:24:16.418Z,english_974.wav,0,1,378,23,4,Mandarin,f,0,0,29.63575745,0.7371821
YRY,170,3,2024-06-14T12:24:16.418Z,english_974.wav,0,1,378,23,4,Mandarin,f,1,0.1,-49.63946334,1.15838362
YRY,170,3,2024-06-14T12:24:16.418Z,english_974.wav,0,1,378,23,4,Mandarin,f,2,0.2,87.75163431,1.66312363
YRY,170,3,2024-06-14T12:24:16.418Z,english_974.wav,0,1,378,23,4,Mandarin,f,3,0.3,-62.39844007,0.85783748
YRY,170,3,2024-06-14T12:24:16.418Z,english_974.wav,0,1,378,23,4,Mandarin,f,4,0.32341667,-98.5513891,1.53033297
YRY,171,3,2024-06-14T12:24:16.418Z,english_593.wav,0,1,320,23,4,Mandarin,f,0,0,0.23295982,1.83954553
YRY,171,3,2024-06-14T12:24:16.418Z,english_593.wav,0,1,320,23,4,Mandarin,f,1,0.1,-0.52832444,1.77820403
YRY,171,3,2024-06-14T12:24:16.418Z,english_593.wav,0,1,320,23,4,Mandarin,f,2,0.2,18.28609946,0.36770598
YRY,171,3,2024-06-14T12:24:16.418Z,english_593.wav,0,1,320,23,4,Mandarin,f,3,0.3,21.25816485,0.42189114
YRY,171,3,2024-06-14T12:24:16.418Z,english_593.wav,0,1,320,23,4,Mandarin,f,4,0.32341667,60.44039038,0.07588974
YRY,172,3,2024-06-14T12:24:16.418Z,english_415.wav,0,1,295,23,4,Mandarin,f,0,0,36.00223879,1.49199547
YRY,172,3,2024-06-14T12:24:16.418Z,english_415.wav,0,1,295,23,4,Mandarin,f,1,0.1,-82.63332374,1.79959711
YRY,172,3,2024-06-14T12:24:16.418Z,english_415.wav,0,1,295,23,4,Mandarin,f,2,0.2,57.55038703,0.64689267
YRY,172,3,2024-06-14T12:24:16.418Z,english_415.wav,0,1,295,23,4,Mandarin,f,3,0.3,-9.83064734,0.31881377
YRY,172,3,2024-06-14T12:24:16.418Z,english_415.wav,0,1,295,23,4,Mandarin,f,4,0.32341667,-29.78573939,0.18568486
YRY,173,3,2024-06-14T12:24:16.418Z,english_852.wav,0,0,746,23,4,Mandarin,f,0,0,-59.21906832,1.76087743
YRY,173,3,2024-06-14T12:24:16.418Z,english_852.wav,0,0,746,23,4,Mandarin,f,1,0.1,5.96662808,0.85304022
YRY,173,3,2024-06-14T12:24:16.418Z,english_852.wav,0,0,746,23,4,Mandarin,f,2,0.2,12.29830648,0.5029047
YRY,173,3,2024-06-14T12:24:16.418Z,english_852.wav,0,0,746,23,4,Mandarin,f,3,0.3,-98.20735767,0.66544939
YRY,173,3,2024-06-14T12:24:16.418Z,english_852.wav,0,0,746,23,4,Mandarin,f,4,0.32341667,-0.5186354,0.26669214
YRY,174,3,2024-06-14T12:24:16.418Z,english_173.wav,0,0,470,23,4,Mandarin,f,0,0,11.1251521,0.60172576
YRY,174,3,2024-06-14T12:24:16.418Z,english_173.wav,0,0,470,23,4,Mandarin,f,1,0.1,94.22411188,0.44802145
YRY,174,3,2024-06-14T12:24:16.418Z,english_173.wav,0,0,470,23,4,Mandarin,f,2,0.2,89.44753043,1.27552997
YRY,174,3,2024-06-14T12:24:16.418Z,english_173.wav,0,0,470,23,4,Mandarin,f,3,0.3,74.30769895,1.09756939
YRY,174,3,2024-06-14T12:24:16.418Z,english_173.wav,0,0,470,23,4,Mandarin,f,4,0.32341667,-37.47679669,0.7907315
YRY,175,3,2024-06-14T12:24:16.418Z,english_439.wav,0,0,2430,23,4,Mandarin,f,0,0,-34.98153375,0.51703437
YRY,175,3,2024-06-14T12:24:16.418Z,english_439.wav,0,0,2430,23,4,Mandarin,f,1,0.1,58.81829455,0.92552513
YRY,175,3,2024-06-14T12:24:16.418Z,english_439.wav,0,0,2430,23,4,Mandarin,f,2,0.2,-39.64168408,1.94754337
YRY,175,3,2024-06-14T12:24:16.418Z,english_439.wav,0,0,2430,23,4,Mandarin,f,3,0.3,-65.89684329,0.19153473
YRY,175,3,2024-06-14T12:24:16.418Z,english_439.wav,0,0,2430,23,4,Mandarin,f,4,0.32341667,-18.09409032,1.29438445
YRY,176,3,2024-06-14T12:24:16.418Z,english_153.wav,0,1,625,23,4,Mandarin,f,0,0,1.34878197,1.20280718
YRY,176,3,2024-06-14T12:24:16.418Z,english_153.wav,0,1,625,23,4,Mandarin,f,1,0.1,-86.14475674,1.60924223
YRY,176,3,2024-06-14T12:24:16.418Z,english_153.wav,0,1,625,23,4,Mandarin,f,2,0.2,3.24582423,0.94422247
YRY,176,3,2024-06-14T12:24:16.418Z,english_153.wav,0,1,625,23,4,Mandarin,f,3,0.3,-6.94068795,0.98008297
YRY,176,3,2024-06-14T12:24:16.418Z,english_153.wav,0,1,625,23,4,Mandarin,f,4,0.32341667,-76.91560753,0.34988026
YRY,177,3,2024-06-14T12:24:16.418Z,english_448.wav,0,1,386,23,4,Mandarin,f,0,0,0.37188167,1.15390094
YRY,177,3,2024-06-14T12:24:16.418Z,english_448.wav,0,1,386,23,4,Mandarin,f,1,0.1,-67.82723624,1.58767458
YRY,177,3,2024-06-14T12:24:16.418Z,english_448.wav,0,1,386,23,4,Mandarin,f,2,0.2,65.77705469,1.13313853
YRY,177,3,2024-06-14T12:24:16.418Z,english_448.wav,0,1,386,23,4,Mandarin,f,3,0.3,83.31626383,0.27075507
YRY,177,3,2024-06-14T12:24:16.418Z,english_448.wav,0,1,386,23,4,Mandarin,f,4,0.32341667,-27.56829045,1.20964916
YRY,178,3,2024-06-14T12:24:16.418Z,english_970.wav,0,1,559,23,4,Mandarin,f,0,0,37.22911191,0.60712849
YRY,178,3,2024-06-14T12:24:16.418Z,english_970.wav,0,1,559,23,4,Mandarin,f,1,0.1,36.57191813,1.26781741
YRY,178,3,2024-06-14T12:24:16.418Z,english_970.wav,0,1,559,23,4,Mandarin,f,2,0.2,20.2344678,1.29373459
YRY,178,3,2024-06-14T12:24:16.418Z,english_970.wav,0,1,559,23,4,Mandarin,f,3,0.3,-86.31030026,0.18112256
YRY,178,3,2024-06-14T12:24:16.418Z,english_970.wav,0,1,559,23,4,Mandarin,f,4,0.32341667,-83.96880691,1.07780169
YRY,179,3,2024-06-14T12:24:16.418Z,english_241.wav,0,1,130,23,4,Mandarin,f,0,0,68.9743722,1.94478574
YRY,179,3,2024-06-14T12:24:16.418Z,english_241.wav,0,1,130,23,4,Mandarin,f,1,0.1,68.48567391,1.84895789
YRY,179,3,2024-06-14T12:24:16.418Z,english_241.wav,0,1,130,23,4,Mandarin,f,2,0.2,12.6952975,1.1085625
YRY,179,3,2024-06-14T12:24:16.418Z,english_241.wav,0,1,130,23,4,Mandarin,f,3,0.3,61.42298605,1.36682755
YRY,179,3,2024-06-14T12:24:16.418Z,english_241.wav,0,1,130,23,4,Mandarin,f,4,0.32341667,-18.578671,0.93494379
YRY,180,3,2024-06-14T12:24:16.418Z,english_186.wav,0,1,2464,23,4,Mandarin,f,0,0,-54.7664391,1.87021502
YRY,180,3,2024-06-14T12:24:16.418Z,english_186.wav,0,1,2464,23,4,Mandarin,f,1,0.1,-8.4263529,1.36390049
YRY,180,3,2024-06-14T12:24:16.418Z,english_186.wav,0,1,2464,23,4,Mandarin,f,2,0.2,6.22451559,1.69942617
YRY,180,3,2024-06-14T12:24:16.418Z,english_186.wav,0,1,2464,23,4,Mandarin,f,3,0.3,-12.35671223,1.8066537
YRY,180,3,2024-06-14T12:24:16.418Z,english_186.wav,0,1,2464,23,4,Mandarin,f,4,0.32341667,86.21839615,1.2511354
YRY,181,3,2024-06-14T12:24:16.418Z,english_160.wav,0,0,533,23,4,Mandarin,f,0,0,2.54964477,0.54357393
YRY,181,3,2024-06-14T12:24:16.418Z,english_160.wav,0,0,533,23,4,Mandarin,f,1,0.1,26.84692557,1.29343216
YRY,181,3,2024-06-14T12:24:16.418Z,english_160.wav,0,0,533,23,4,Mandarin,f,2,0.2,72.58457191,0.42070854
YRY,181,3,2024-06-14T12:24:16.418Z,english_160.wav,0,0,533,23,4,Mandarin,f,3,0.3,-6.94481249,1.04489529
YRY,181,3,2024-06-14T12:24:16.418Z,english_160.wav,0,0,533,23,4,Mandarin,f,4,0.32341667,35.80656171,0.26802137
YRY,182,3,2024-06-14T12:24:16.418Z,english_244.wav,0,1,237,23,4,Mandarin,f,0,0,-70.20374383,1.65134166
YRY,182,3,2024-06-14T12:24:16.418Z,english_244.wav,0,1,237,23,4,Mandarin,f,1,0.1,67.84882107,1.23738837
YRY,182,3,2024-06-14T12:24:16.418Z,english_244.wav,0,1,237,23,4,Mandarin,f,2,0.2,0.61676271,0.90147553
YRY,182,3,2024-06-14T12:24:16.418Z,english_244.wav,0,1,237,23,4,Mandarin,f,3,0.3,-96.58934439,1.79293216
YRY,182,3,2024-06-14T12:24:16.418Z,english_244.wav,0,1,237,23,4,Mandarin,f,4,0.32341667,-77.46985837,1.15013727
YRY,183,3,2024-06-14T12:24:16.418Z,english_120.wav,0,1,554,23,4,Mandarin,f,0,0,55.2306484,0.43658612
YRY,183,3,2024-06-14T12:24:16.418Z,english_120.wav,0,1,554,23,4,Mandarin,f,1,0.1,82.00530973,0.03999251
YRY,183,3,2024-06-14T12:24:16.418Z,english_120.wav,0,1,554,23,4,Mandarin,f,2,0.2,-5.84837635,0.80827096
YRY,183,3,2024-06-14T12:24:16.418Z,english_120.wav,0,1,554,23,4,Mandarin,f,3,0.3,66.20489525,1.78669421
YRY,183,3,2024-06-14T12:24:16.418Z,english_120.wav,0,1,554,23,4,Mandarin,f,4,0.32341667,-73.22302923,1.04341795
YRY,184,3,2024-06-14T12:24:16.418Z,english_289.wav,0,1,794,23,4,Mandarin,f,0,0,-55.97739865,0.95213243
YRY,184,3,2024-06-14T12:24:16.418Z,english_289.wav,0,1,794,23,4,Mandarin,f,1,0.1,-97.9801122,0.81858491
YRY,184,3,2024-06-14T12:24:16.418Z,english_289.wav,0,1,794,23,4,Mandarin,f,2,0.2,44.28679287,1.16094748
YRY,184,3,2024-06-14T12:24:16.418Z,english_289.wav,0,1,794,23,4,Mandarin,f,3,0.3,-74.0895039,0.92969459
YRY,184,3,2024-06-14T12:24:16.418Z,english_289.wav,0,1,794,23,4,Mandarin,f,4,0.32341667,-44.25845537,0.41504245
YRY,185,3,2024-06-14T12:24:16.418Z,english_258.wav,0,1,276,23,4,Mandarin,f,0,0,-7.1133109,1.89026761
YRY,185,3,2024-06-14T12:24:16.418Z,english_258.wav,0,1,276,23,4,Mandarin,f,1,0.1,44.58564752,1.79361992
YRY,185,3,2024-06-14T12:24:16.418Z,english_258.wav,0,1,276,23,4,Mandarin,f,2,0.2,45.36800295,0.43687845
YRY,185,3,2024-06-14T12:24:16.418Z,english_258.wav,0,1,276,23,4,Mandarin,f,3,0.3,25.81301737,0.04688612
YRY,185,3,2024-06-14T12:24:16.418Z,english_258.wav,0,1,276,23,4,Mandarin,f,4,0.32341667,-77.97513924,0.52567924
YRY,186,3,2024-06-14T12:24:16.418Z,english_783.wav,0,1,423,23,4,Mandarin,f,0,0,23.05268069,1.49549247
YRY,186,3,2024-06-14T12:24:16.418Z,english_783.wav,0,1,423,23,4,Mandarin,f,1,0.1,9.36005369,0.13797177
YRY,186,3,2024-06-14T12:24:16.418Z,english_783.wav,0,1,423,23,4,Mandarin,f,2,0.2,62.81522218,1.80236654
YRY,186,3,2024-06-14T12:24:16.418Z,english_783.wav,0,1,423,23,4,Mandarin,f,3,0.3,67.71456376,0.33800471
YRY,186,3,2024-06-14T12:24:16.418Z,english_783.wav,0,1,423,23,4,Mandarin,f,4,0.32341667,77.96788237,1.97708045
YRY,187,3,2024-06-14T12:24:16.418Z,english_889.wav,0,1,339,23,4,Mandarin,f,0,0,-92.0683747,0.69619005
YRY,187,3,2024-06-14T12:24:16.418Z,english_889.wav,0,1,339,23,4,Mandarin,f,1,0.1,92.92883541,1.46059979
YRY,187,3,2024-06-14T12:24:16.418Z,english_889.wav,0,1,339,23,4,Mandarin,f,2,0.2,-38.78028918,1.13034103
YRY,187,3,2024-06-14T12:24:16.418Z,english_889.wav,0,1,339,23,4,Mandarin,f,3,0.3,33.48812202,1.0639125
YRY,187,3,2024-06-14T12:24:16.418Z,english_889.wav,0,1,339,23,4,Mandarin,f,4,0.32341667,68.79643169,0.42066581
YRY,188,3,2024-06-14T12:24:16.418Z,english_634.wav,0,1,465,23,4,Mandarin,f,0,0,-94.29539956,0.6011183
YRY,188,3,2024-06-14T12:24:16.418Z,english_634.wav,0,1,465,23,4,Mandarin,f,1,0.1,28.41708136,1.15242669
YRY,188,3,2024-06-14T12:24:16.418Z,english_634.wav,0,1,465,23,4,Mandarin,f,2,0.2,-99.13935281,0.68826906
YRY,188,3,2024-06-14T12:24:16.418Z,english_634.wav,0,1,465,23,4,Mandarin,f,3,0.3,-78.11216949,1.44169335
YRY,188,3,2024-06-14T12:24:16.418Z,english_634.wav,0,1,465,23,4,Mandarin,f,4,0.32341667,-54.5881907,0.90266094
YRY,189,3,2024-06-14T12:24:16.418Z,english_818.wav,0,1,352,23,4,Mandarin,f,0,0,88.49542613,1.4873036
YRY,189,3,2024-06-14T12:24:16.418Z,english_818.wav,0,1,352,23,4,Mandarin,f,1,0.1,-7.37005163,1.25102077
YRY,189,3,2024-06-14T12:24:16.418Z,english_818.wav,0,1,352,23,4,Mandarin,f,2,0.2,-1.58613611,0.80764036
YRY,189,3,2024-06-14T12:24:16.418Z,english_818.wav,0,1,352,23,4,Mandarin,f,3,0.3,-69.41222379,0.80656775
YRY,189,3,2024-06-14T12:24:16.418Z,english_818.wav,0,1,352,23,4,Mandarin,f,4,0.32341667,14.01707612,1.41859799
YRY,190,3,2024-06-14T12:24:16.418Z,english_473.wav,0,1,508,23,4,Mandarin,f,0,0,2.94536382,1.14273616
YRY,190,3,2024-06-14T12:24:16.418Z,english_473.wav,0,1,508,23,4,Mandarin,f,1,0.1,67.15962,0.71228689
YRY,190,3,2024-06-14T12:24:16.418Z,english_473.wav,0,1,508,23,4,Mandarin,f,2,0.2,-20.48190634,1.20280034
YRY,190,3,2024-06-14T12:24:16.418Z,english_473.wav,0,1,508,23,4,Mandarin,f,3,0.3,20.58811131,0.94325649
