subj,trial,block,date,stim,stim_order,response,rt,age,english,language,sex,param_index,segment,pitch,stretch
LYZ,0,0,2024-06-14T04:45:14.075Z,english_670.wav,0,0,15059,21,4,chinese,m,0,0,64.75672565,1.5535903
LYZ,0,0,2024-06-14T04:45:14.075Z,english_670.wav,0,0,15059,21,4,chinese,m,1,0.1,85.95156369,0.12522594
LYZ,0,0,2024-06-14T04:45:14.075Z,english_670.wav,0,0,15059,21,4,chinese,m,2,0.2,-44.32949438,0.22842632
LYZ,0,0,2024-06-14T04:45:14.075Z,english_670.wav,0,0,15059,21,4,chinese,m,3,0.3,22.57192219,0.17636502
LYZ,0,0,2024-06-14T04:45:14.075Z,english_670.wav,0,0,15059,21,4,chinese,m,4,0.32341667,34.74005277,0.16208776
LYZ,1,0,2024-06-14T04:45:14.075Z,english_823.wav,0,1,13187,21,4,chinese,m,0,0,24.6891334,1.19409205
LYZ,1,0,2024-06-14T04:45:14.075Z,english_823.wav,0,1,13187,21,4,chinese,m,1,0.1,86.03794788,0.72053846
LYZ,1,0,2024-06-14T04:45:14.075Z,english_823.wav,0,1,13187,21,4,chinese,m,2,0.2,45.97308045,0.2138623
LYZ,1,0,2024-06-14T04:45:14.075Z,english_823.wav,0,1,13187,21,4,chinese,m,3,0.3,39.11596791,1.56743943
LYZ,1,0,2024-06-14T04:45:14.075Z,english_823.wav,0,1,13187,21,4,chinese,m,4,0.32341667,10.29734006,1.24065623
LYZ,2,0,2024-06-14T04:45:14.075Z,english_477.wav,0,0,17755,21,4,chinese,m,0,0,9.7496965,0.26828956
LYZ,2,0,2024-06-14T04:45:14.075Z,english_477.wav,0,0,17755,21,4,chinese,m,1,0.1,70.56003184,0.51901368
LYZ,2,0,2024-06-14T04:45:14.075Z,english_477.wav,0,0,17755,21,4,chinese,m,2,0.2,34.49551211,0.35677294
LYZ,2,0,2024-06-14T04:45:14.075Z,english_477.wav,0,0,17755,21,4,chinese,m,3,0.3,-75.0597055,1.39462812
LYZ,2,0,2024-06-14T04:45:14.075Z,english_477.wav,0,0,17755,21,4,chinese,m,4,0.32341667,-82.15638008,0.55199483
LYZ,3,0,2024-06-14T04:45:14.075Z,english_538.wav,0,1,5981,21,4,chinese,m,0,0,2.36208538,1.54356298
LYZ,3,0,2024-06-14T04:45:14.075Z,english_538.wav,0,1,5981,21,4,chinese,m,1,0.1,77.85923423,0.47597082
LYZ,3,0,2024-06-14T04:45:14.075Z,english_538.wav,0,1,5981,21,4,chinese,m,2,0.2,-89.1271409,1.27977799
LYZ,3,0,2024-06-14T04:45:14.075Z,english_538.wav,0,1,5981,21,4,chinese,m,3,0.3,-18.79772534,1.05516459
LYZ,3,0,2024-06-14T04:45:14.075Z,english_538.wav,0,1,5981,21,4,chinese,m,4,0.32341667,87.62276495,1.20284762
LYZ,4,0,2024-06-14T04:45:14.075Z,english_603.wav,0,0,9194,21,4,chinese,m,0,0,-14.17444723,1.28295305
LYZ,4,0,2024-06-14T04:45:14.075Z,english_603.wav,0,0,9194,21,4,chinese,m,1,0.1,-4.64921339,0.35920956
LYZ,4,0,2024-06-14T04:45:14.075Z,english_603.wav,0,0,9194,21,4,chinese,m,2,0.2,-23.32469505,0.60281559
LYZ,4,0,2024-06-14T04:45:14.075Z,english_603.wav,0,0,9194,21,4,chinese,m,3,0.3,-59.01260874,0.58107079
LYZ,4,0,2024-06-14T04:45:14.075Z,english_603.wav,0,0,9194,21,4,chinese,m,4,0.32341667,88.53711532,1.19087365
LYZ,5,0,2024-06-14T04:45:14.075Z,english_627.wav,0,1,2389,21,4,chinese,m,0,0,-53.99355102,0.04887222
LYZ,5,0,2024-06-14T04:45:14.075Z,english_627.wav,0,1,2389,21,4,chinese,m,1,0.1,-3.03417463,0.14119608
LYZ,5,0,2024-06-14T04:45:14.075Z,english_627.wav,0,1,2389,21,4,chinese,m,2,0.2,83.9257281,0.97350107
LYZ,5,0,2024-06-14T04:45:14.075Z,english_627.wav,0,1,2389,21,4,chinese,m,3,0.3,52.52073868,0.6697358
LYZ,5,0,2024-06-14T04:45:14.075Z,english_627.wav,0,1,2389,21,4,chinese,m,4,0.32341667,-13.85481025,0.92660526
LYZ,6,0,2024-06-14T04:45:14.075Z,english_88.wav,0,0,14583,21,4,chinese,m,0,0,26.55889683,1.3027014
LYZ,6,0,2024-06-14T04:45:14.075Z,english_88.wav,0,0,14583,21,4,chinese,m,1,0.1,31.00356365,0.67122251
LYZ,6,0,2024-06-14T04:45:14.075Z,english_88.wav,0,0,14583,21,4,chinese,m,2,0.2,-60.56468942,0.59704477
LYZ,6,0,2024-06-14T04:45:14.075Z,english_88.wav,0,0,14583,21,4,chinese,m,3,0.3,-56.53017227,1.68194373
LYZ,6,0,2024-06-14T04:45:14.075Z,english_88.wav,0,0,14583,21,4,chinese,m,4,0.32341667,-78.90279024,0.42277005
LYZ,7,0,2024-06-14T04:45:14.075Z,english_111.wav,0,1,40234,21,4,chinese,m,0,0,43.12539807,1.84745579
LYZ,7,0,2024-06-14T04:45:14.075Z,english_111.wav,0,1,40234,21,4,chinese,m,1,0.1,63.99665526,0.92577031
LYZ,7,0,2024-06-14T04:45:14.075Z,english_111.wav,0,1,40234,21,4,chinese,m,2,0.2,86.04570556,0.31264784
LYZ,7,0,2024-06-14T04:45:14.075Z,english_111.wav,0,1,40234,21,4,chinese,m,3,0.3,-25.76798659,0.89352032
LYZ,7,0,2024-06-14T04:45:14.075Z,english_111.wav,0,1,40234,21,4,chinese,m,4,0.32341667,-36.14422463,0.32138535
LYZ,8,0,2024-06-14T04:45:14.075Z,english_236.wav,0,1,2030,21,4,chinese,m,0,0,14.26564849,0.89253674
LYZ,8,0,2024-06-14T04:45:14.075Z,english_236.wav,0,1,2030,21,4,chinese,m,1,0.1,60.97219358,0.38957934
LYZ,8,0,2024-06-14T04:45:14.075Z,english_236.wav,0,1,2030,21,4,chinese,m,2,0.2,-12.39626346,1.55558051
LYZ,8,0,2024-06-14T04:45:14.075Z,english_236.wav,0,1,2030,21,4,chinese,m,3,0.3,-62.87774076,0.2682718
LYZ,8,0,2024-06-14T04:45:14.075Z,english_236.wav,0,1,2030,21,4,chinese,m,4,0.32341667,-75.97684705,1.92182597
LYZ,9,0,2024-06-14T04:50:00.281Z,english_747.wav,0,1,1497,21,4,chinese,m,0,0,-77.73977436,1.00478752
LYZ,9,0,2024-06-14T04:50:00.281Z,english_747.wav,0,1,1497,21,4,chinese,m,1,0.1,-18.96284798,0.15717617
LYZ,9,0,2024-06-14T04:50:00.281Z,english_747.wav,0,1,1497,21,4,chinese,m,2,0.2,-36.55549612,1.90654565
LYZ,9,0,2024-06-14T04:50:00.281Z,english_747.wav,0,1,1497,21,4,chinese,m,3,0.3,89.20291952,0.7651101
LYZ,9,0,2024-06-14T04:50:00.281Z,english_747.wav,0,1,1497,21,4,chinese,m,4,0.32341667,-97.78574386,0.92755825
LYZ,10,0,2024-06-14T04:50:00.281Z,english_387.wav,0,1,2892,21,4,chinese,m,0,0,14.25538659,0.59610882
LYZ,10,0,2024-06-14T04:50:00.281Z,english_387.wav,0,1,2892,21,4,chinese,m,1,0.1,-5.8057983,0.93453474
LYZ,10,0,2024-06-14T04:50:00.281Z,english_387.wav,0,1,2892,21,4,chinese,m,2,0.2,-2.59288607,1.87880123
LYZ,10,0,2024-06-14T04:50:00.281Z,english_387.wav,0,1,2892,21,4,chinese,m,3,0.3,19.33055559,0.79709693
LYZ,10,0,2024-06-14T04:50:00.281Z,english_387.wav,0,1,2892,21,4,chinese,m,4,0.32341667,-85.57173801,0.90161027
LYZ,11,0,2024-06-14T04:50:00.281Z,english_592.wav,0,0,5780,21,4,chinese,m,0,0,-77.34060672,0.96869857
LYZ,11,0,2024-06-14T04:50:00.281Z,english_592.wav,0,0,5780,21,4,chinese,m,1,0.1,27.41551815,1.75134411
LYZ,11,0,2024-06-14T04:50:00.281Z,english_592.wav,0,0,5780,21,4,chinese,m,2,0.2,-17.47445882,1.41680483
LYZ,11,0,2024-06-14T04:50:00.281Z,english_592.wav,0,0,5780,21,4,chinese,m,3,0.3,-61.08462212,1.07260777
LYZ,11,0,2024-06-14T04:50:00.281Z,english_592.wav,0,0,5780,21,4,chinese,m,4,0.32341667,74.7675789,0.73150904
LYZ,12,0,2024-06-14T04:50:00.281Z,english_843.wav,0,1,8261,21,4,chinese,m,0,0,-34.38568909,1.38988397
LYZ,12,0,2024-06-14T04:50:00.281Z,english_843.wav,0,1,8261,21,4,chinese,m,1,0.1,91.48235516,0.61638546
LYZ,12,0,2024-06-14T04:50:00.281Z,english_843.wav,0,1,8261,21,4,chinese,m,2,0.2,45.43581208,1.5800421
LYZ,12,0,2024-06-14T04:50:00.281Z,english_843.wav,0,1,8261,21,4,chinese,m,3,0.3,47.04005582,1.07327256
LYZ,12,0,2024-06-14T04:50:00.281Z,english_843.wav,0,1,8261,21,4,chinese,m,4,0.32341667,30.80916685,0.46994626
LYZ,13,0,2024-06-14T04:50:00.281Z,english_696.wav,0,1,1834,21,4,chinese,m,0,0,-48.45243871,0.15817179
LYZ,13,0,2024-06-14T04:50:00.281Z,english_696.wav,0,1,1834,21,4,chinese,m,1,0.1,82.41340646,0.69939178
LYZ,13,0,2024-06-14T04:50:00.281Z,english_696.wav,0,1,1834,21,4,chinese,m,2,0.2,-7.53339347,1.28466279
LYZ,13,0,2024-06-14T04:50:00.281Z,english_696.wav,0,1,1834,21,4,chinese,m,3,0.3,-30.87957178,1.90686052
LYZ,13,0,2024-06-14T04:50:00.281Z,english_696.wav,0,1,1834,21,4,chinese,m,4,0.32341667,75.39947922,0.63235415
LYZ,14,0,2024-06-14T04:50:00.281Z,english_790.wav,0,0,4016,21,4,chinese,m,0,0,51.18493756,0.66657869
LYZ,14,0,2024-06-14T04:50:00.281Z,english_790.wav,0,0,4016,21,4,chinese,m,1,0.1,-64.70105349,0.91857876
LYZ,14,0,2024-06-14T04:50:00.281Z,english_790.wav,0,0,4016,21,4,chinese,m,2,0.2,-90.57968214,1.26779222
LYZ,14,0,2024-06-14T04:50:00.281Z,english_790.wav,0,0,4016,21,4,chinese,m,3,0.3,-94.64625917,1.54144859
LYZ,14,0,2024-06-14T04:50:00.281Z,english_790.wav,0,0,4016,21,4,chinese,m,4,0.32341667,-38.85953331,1.32367104
LYZ,15,0,2024-06-14T04:50:00.281Z,english_644.wav,0,1,3723,21,4,chinese,m,0,0,21.57551932,1.87520752
LYZ,15,0,2024-06-14T04:50:00.281Z,english_644.wav,0,1,3723,21,4,chinese,m,1,0.1,-11.98636437,1.28750901
LYZ,15,0,2024-06-14T04:50:00.281Z,english_644.wav,0,1,3723,21,4,chinese,m,2,0.2,-86.21942338,0.33708129
LYZ,15,0,2024-06-14T04:50:00.281Z,english_644.wav,0,1,3723,21,4,chinese,m,3,0.3,-38.98906039,1.53524213
LYZ,15,0,2024-06-14T04:50:00.281Z,english_644.wav,0,1,3723,21,4,chinese,m,4,0.32341667,-28.58177745,0.3058721
LYZ,16,0,2024-06-14T04:50:00.281Z,english_792.wav,0,1,2612,21,4,chinese,m,0,0,-56.39949456,1.32676777
LYZ,16,0,2024-06-14T04:50:00.281Z,english_792.wav,0,1,2612,21,4,chinese,m,1,0.1,-76.36067248,1.08004851
LYZ,16,0,2024-06-14T04:50:00.281Z,english_792.wav,0,1,2612,21,4,chinese,m,2,0.2,-58.44160547,1.5809308
LYZ,16,0,2024-06-14T04:50:00.281Z,english_792.wav,0,1,2612,21,4,chinese,m,3,0.3,25.29086486,0.16508433
LYZ,16,0,2024-06-14T04:50:00.281Z,english_792.wav,0,1,2612,21,4,chinese,m,4,0.32341667,-6.58788169,1.18870574
LYZ,17,0,2024-06-14T04:50:00.281Z,english_361.wav,0,1,9925,21,4,chinese,m,0,0,47.37783877,1.2281625
LYZ,17,0,2024-06-14T04:50:00.281Z,english_361.wav,0,1,9925,21,4,chinese,m,1,0.1,41.96620543,0.32170701
LYZ,17,0,2024-06-14T04:50:00.281Z,english_361.wav,0,1,9925,21,4,chinese,m,2,0.2,-99.83447432,0.41267147
LYZ,17,0,2024-06-14T04:50:00.281Z,english_361.wav,0,1,9925,21,4,chinese,m,3,0.3,-83.75612903,0.32528287
LYZ,17,0,2024-06-14T04:50:00.281Z,english_361.wav,0,1,9925,21,4,chinese,m,4,0.32341667,99.31228573,0.29737668
LYZ,18,0,2024-06-14T04:50:00.281Z,english_528.wav,0,1,1580,21,4,chinese,m,0,0,34.31610554,1.55529168
LYZ,18,0,2024-06-14T04:50:00.281Z,english_528.wav,0,1,1580,21,4,chinese,m,1,0.1,28.08911917,0.29936297
LYZ,18,0,2024-06-14T04:50:00.281Z,english_528.wav,0,1,1580,21,4,chinese,m,2,0.2,-86.77613696,0.95155831
LYZ,18,0,2024-06-14T04:50:00.281Z,english_528.wav,0,1,1580,21,4,chinese,m,3,0.3,-45.45420678,1.46511459
LYZ,18,0,2024-06-14T04:50:00.281Z,english_528.wav,0,1,1580,21,4,chinese,m,4,0.32341667,-58.86275596,0.63923396
LYZ,19,0,2024-06-14T04:50:00.281Z,english_422.wav,0,1,1798,21,4,chinese,m,0,0,-79.81150205,1.34332733
LYZ,19,0,2024-06-14T04:50:00.281Z,english_422.wav,0,1,1798,21,4,chinese,m,1,0.1,-2.02836706,0.77514932
LYZ,19,0,2024-06-14T04:50:00.281Z,english_422.wav,0,1,1798,21,4,chinese,m,2,0.2,-11.18998235,0.33214039
LYZ,19,0,2024-06-14T04:50:00.281Z,english_422.wav,0,1,1798,21,4,chinese,m,3,0.3,52.04958687,0.53493982
LYZ,19,0,2024-06-14T04:50:00.281Z,english_422.wav,0,1,1798,21,4,chinese,m,4,0.32341667,-63.48776447,0.45685022
LYZ,20,0,2024-06-14T04:50:00.281Z,english_14.wav,0,1,3926,21,4,chinese,m,0,0,98.00979643,0.92494293
LYZ,20,0,2024-06-14T04:50:00.281Z,english_14.wav,0,1,3926,21,4,chinese,m,1,0.1,-39.90204919,0.80403915
LYZ,20,0,2024-06-14T04:50:00.281Z,english_14.wav,0,1,3926,21,4,chinese,m,2,0.2,51.0517473,0.29426005
LYZ,20,0,2024-06-14T04:50:00.281Z,english_14.wav,0,1,3926,21,4,chinese,m,3,0.3,-8.39716694,0.14957292
LYZ,20,0,2024-06-14T04:50:00.281Z,english_14.wav,0,1,3926,21,4,chinese,m,4,0.32341667,82.54419716,0.1717279
LYZ,21,0,2024-06-14T04:50:00.281Z,english_310.wav,0,1,2984,21,4,chinese,m,0,0,82.1385274,0.14341218
LYZ,21,0,2024-06-14T04:50:00.281Z,english_310.wav,0,1,2984,21,4,chinese,m,1,0.1,-33.74608058,1.80934389
LYZ,21,0,2024-06-14T04:50:00.281Z,english_310.wav,0,1,2984,21,4,chinese,m,2,0.2,62.12487376,1.28785402
LYZ,21,0,2024-06-14T04:50:00.281Z,english_310.wav,0,1,2984,21,4,chinese,m,3,0.3,96.31437548,1.13060378
LYZ,21,0,2024-06-14T04:50:00.281Z,english_310.wav,0,1,2984,21,4,chinese,m,4,0.32341667,-23.64802517,1.05137249
LYZ,22,0,2024-06-14T04:50:00.281Z,english_180.wav,0,1,1103,21,4,chinese,m,0,0,-79.96502932,0.84610218
LYZ,22,0,2024-06-14T04:50:00.281Z,english_180.wav,0,1,1103,21,4,chinese,m,1,0.1,33.21752916,1.88919334
LYZ,22,0,2024-06-14T04:50:00.281Z,english_180.wav,0,1,1103,21,4,chinese,m,2,0.2,-97.52705813,0.18699196
LYZ,22,0,2024-06-14T04:50:00.281Z,english_180.wav,0,1,1103,21,4,chinese,m,3,0.3,42.51331828,0.0366283
LYZ,22,0,2024-06-14T04:50:00.281Z,english_180.wav,0,1,1103,21,4,chinese,m,4,0.32341667,-42.98571984,0.95813987
LYZ,23,0,2024-06-14T04:50:00.281Z,english_763.wav,0,1,2052,21,4,chinese,m,0,0,64.63144232,0.7800836
LYZ,23,0,2024-06-14T04:50:00.281Z,english_763.wav,0,1,2052,21,4,chinese,m,1,0.1,8.86346429,1.26656169
LYZ,23,0,2024-06-14T04:50:00.281Z,english_763.wav,0,1,2052,21,4,chinese,m,2,0.2,32.79569159,1.93170043
LYZ,23,0,2024-06-14T04:50:00.281Z,english_763.wav,0,1,2052,21,4,chinese,m,3,0.3,10.55051177,0.29422641
LYZ,23,0,2024-06-14T04:50:00.281Z,english_763.wav,0,1,2052,21,4,chinese,m,4,0.32341667,6.38738619,1.43860225
LYZ,24,0,2024-06-14T04:50:00.281Z,english_743.wav,0,1,13385,21,4,chinese,m,0,0,-28.24983145,1.42102626
LYZ,24,0,2024-06-14T04:50:00.281Z,english_743.wav,0,1,13385,21,4,chinese,m,1,0.1,71.30498545,0.84283155
LYZ,24,0,2024-06-14T04:50:00.281Z,english_743.wav,0,1,13385,21,4,chinese,m,2,0.2,-89.00652632,0.82757129
LYZ,24,0,2024-06-14T04:50:00.281Z,english_743.wav,0,1,13385,21,4,chinese,m,3,0.3,3.43441779,1.38808557
LYZ,24,0,2024-06-14T04:50:00.281Z,english_743.wav,0,1,13385,21,4,chinese,m,4,0.32341667,-16.71659348,0.28501565
LYZ,25,0,2024-06-14T04:50:00.281Z,english_914.wav,0,0,2912,21,4,chinese,m,0,0,37.51857345,0.04486829
LYZ,25,0,2024-06-14T04:50:00.281Z,english_914.wav,0,0,2912,21,4,chinese,m,1,0.1,-30.53068311,1.18486584
LYZ,25,0,2024-06-14T04:50:00.281Z,english_914.wav,0,0,2912,21,4,chinese,m,2,0.2,-12.980452,1.58356311
LYZ,25,0,2024-06-14T04:50:00.281Z,english_914.wav,0,0,2912,21,4,chinese,m,3,0.3,-99.09260462,1.35478251
LYZ,25,0,2024-06-14T04:50:00.281Z,english_914.wav,0,0,2912,21,4,chinese,m,4,0.32341667,-34.91402533,1.16671671
LYZ,26,0,2024-06-14T04:50:00.281Z,english_860.wav,0,1,3094,21,4,chinese,m,0,0,10.25066679,1.47817545
LYZ,26,0,2024-06-14T04:50:00.281Z,english_860.wav,0,1,3094,21,4,chinese,m,1,0.1,55.87909831,1.32859058
LYZ,26,0,2024-06-14T04:50:00.281Z,english_860.wav,0,1,3094,21,4,chinese,m,2,0.2,81.09373959,0.99201561
LYZ,26,0,2024-06-14T04:50:00.281Z,english_860.wav,0,1,3094,21,4,chinese,m,3,0.3,15.52286826,0.3312489
LYZ,26,0,2024-06-14T04:50:00.281Z,english_860.wav,0,1,3094,21,4,chinese,m,4,0.32341667,58.18702512,0.66001743
LYZ,27,0,2024-06-14T04:50:00.281Z,english_3.wav,0,1,1598,21,4,chinese,m,0,0,-57.66547148,1.73485112
LYZ,27,0,2024-06-14T04:50:00.281Z,english_3.wav,0,1,1598,21,4,chinese,m,1,0.1,-70.60568286,1.4226462
LYZ,27,0,2024-06-14T04:50:00.281Z,english_3.wav,0,1,1598,21,4,chinese,m,2,0.2,70.86912423,1.06235888
LYZ,27,0,2024-06-14T04:50:00.281Z,english_3.wav,0,1,1598,21,4,chinese,m,3,0.3,-17.39285893,1.05619652
LYZ,27,0,2024-06-14T04:50:00.281Z,english_3.wav,0,1,1598,21,4,chinese,m,4,0.32341667,-60.61780379,1.35606233
LYZ,28,0,2024-06-14T04:50:00.281Z,english_801.wav,0,1,2534,21,4,chinese,m,0,0,66.50571345,0.19311528
LYZ,28,0,2024-06-14T04:50:00.281Z,english_801.wav,0,1,2534,21,4,chinese,m,1,0.1,-53.03260979,0.48683601
LYZ,28,0,2024-06-14T04:50:00.281Z,english_801.wav,0,1,2534,21,4,chinese,m,2,0.2,-3.89459646,1.16293258
LYZ,28,0,2024-06-14T04:50:00.281Z,english_801.wav,0,1,2534,21,4,chinese,m,3,0.3,8.32951864,1.55734707
LYZ,28,0,2024-06-14T04:50:00.281Z,english_801.wav,0,1,2534,21,4,chinese,m,4,0.32341667,-87.46806733,0.63471681
LYZ,29,0,2024-06-14T04:50:00.281Z,english_74.wav,0,1,1667,21,4,chinese,m,0,0,86.29588785,1.196208
LYZ,29,0,2024-06-14T04:50:00.281Z,english_74.wav,0,1,1667,21,4,chinese,m,1,0.1,-14.52381687,1.63208143
LYZ,29,0,2024-06-14T04:50:00.281Z,english_74.wav,0,1,1667,21,4,chinese,m,2,0.2,77.94321906,0.46125368
LYZ,29,0,2024-06-14T04:50:00.281Z,english_74.wav,0,1,1667,21,4,chinese,m,3,0.3,-32.33104188,1.38278461
LYZ,29,0,2024-06-14T04:50:00.281Z,english_74.wav,0,1,1667,21,4,chinese,m,4,0.32341667,9.46602754,0.83147108
LYZ,30,0,2024-06-14T04:50:00.281Z,english_408.wav,0,1,1151,21,4,chinese,m,0,0,-0.16211679,1.52185603
LYZ,30,0,2024-06-14T04:50:00.281Z,english_408.wav,0,1,1151,21,4,chinese,m,1,0.1,16.68246491,0.27925492
LYZ,30,0,2024-06-14T04:50:00.281Z,english_408.wav,0,1,1151,21,4,chinese,m,2,0.2,-84.31504289,0.96179544
LYZ,30,0,2024-06-14T04:50:00.281Z,english_408.wav,0,1,1151,21,4,chinese,m,3,0.3,20.95362966,1.64669203
LYZ,30,0,2024-06-14T04:50:00.281Z,english_408.wav,0,1,1151,21,4,chinese,m,4,0.32341667,15.25079186,1.54793764
LYZ,31,0,2024-06-14T04:50:00.281Z,english_572.wav,0,1,1740,21,4,chinese,m,0,0,-16.16189062,1.82210005
LYZ,31,0,2024-06-14T04:50:00.281Z,english_572.wav,0,1,1740,21,4,chinese,m,1,0.1,-40.8511413,0.80249033
LYZ,31,0,2024-06-14T04:50:00.281Z,english_572.wav,0,1,1740,21,4,chinese,m,2,0.2,-77.3747243,0.69959732
LYZ,31,0,2024-06-14T04:50:00.281Z,english_572.wav,0,1,1740,21,4,chinese,m,3,0.3,87.62803369,0.43311894
LYZ,31,0,2024-06-14T04:50:00.281Z,english_572.wav,0,1,1740,21,4,chinese,m,4,0.32341667,81.6005998,1.25204325
LYZ,32,0,2024-06-14T04:50:00.281Z,english_522.wav,0,1,2496,21,4,chinese,m,0,0,11.68148217,0.44643579
LYZ,32,0,2024-06-14T04:50:00.281Z,english_522.wav,0,1,2496,21,4,chinese,m,1,0.1,-74.55265788,0.16885459
LYZ,32,0,2024-06-14T04:50:00.281Z,english_522.wav,0,1,2496,21,4,chinese,m,2,0.2,95.15954448,1.67161326
LYZ,32,0,2024-06-14T04:50:00.281Z,english_522.wav,0,1,2496,21,4,chinese,m,3,0.3,-17.14209769,0.53349848
LYZ,32,0,2024-06-14T04:50:00.281Z,english_522.wav,0,1,2496,21,4,chinese,m,4,0.32341667,-35.38302731,0.4645726
LYZ,33,0,2024-06-14T04:50:00.281Z,english_55.wav,0,1,807,21,4,chinese,m,0,0,71.89255128,0.24931264
LYZ,33,0,2024-06-14T04:50:00.281Z,english_55.wav,0,1,807,21,4,chinese,m,1,0.1,0.20692224,1.79813092
LYZ,33,0,2024-06-14T04:50:00.281Z,english_55.wav,0,1,807,21,4,chinese,m,2,0.2,-68.61006599,0.71729895
LYZ,33,0,2024-06-14T04:50:00.281Z,english_55.wav,0,1,807,21,4,chinese,m,3,0.3,-5.20952515,1.28733782
LYZ,33,0,2024-06-14T04:50:00.281Z,english_55.wav,0,1,807,21,4,chinese,m,4,0.32341667,28.45991968,1.77061752
LYZ,34,0,2024-06-14T04:54:20.360Z,english_693.wav,0,1,1255,21,4,chinese,m,0,0,-83.71635172,0.35753224
LYZ,34,0,2024-06-14T04:54:20.360Z,english_693.wav,0,1,1255,21,4,chinese,m,1,0.1,32.46406691,1.09553371
LYZ,34,0,2024-06-14T04:54:20.360Z,english_693.wav,0,1,1255,21,4,chinese,m,2,0.2,8.27548994,1.67166692
LYZ,34,0,2024-06-14T04:54:20.360Z,english_693.wav,0,1,1255,21,4,chinese,m,3,0.3,15.80660539,1.61413862
LYZ,34,0,2024-06-14T04:54:20.360Z,english_693.wav,0,1,1255,21,4,chinese,m,4,0.32341667,74.32681132,1.90943184
LYZ,35,0,2024-06-14T04:54:20.360Z,english_787.wav,0,1,605,21,4,chinese,m,0,0,57.99353047,1.96251481
LYZ,35,0,2024-06-14T04:54:20.360Z,english_787.wav,0,1,605,21,4,chinese,m,1,0.1,-40.79525362,0.94444479
LYZ,35,0,2024-06-14T04:54:20.360Z,english_787.wav,0,1,605,21,4,chinese,m,2,0.2,23.78072576,0.924778
LYZ,35,0,2024-06-14T04:54:20.360Z,english_787.wav,0,1,605,21,4,chinese,m,3,0.3,72.96982422,0.31383508
LYZ,35,0,2024-06-14T04:54:20.360Z,english_787.wav,0,1,605,21,4,chinese,m,4,0.32341667,53.76957631,0.68947425
LYZ,36,0,2024-06-14T04:54:20.360Z,english_515.wav,0,1,590,21,4,chinese,m,0,0,-51.44071002,1.17100165
LYZ,36,0,2024-06-14T04:54:20.360Z,english_515.wav,0,1,590,21,4,chinese,m,1,0.1,-54.80209221,0.37535268
LYZ,36,0,2024-06-14T04:54:20.360Z,english_515.wav,0,1,590,21,4,chinese,m,2,0.2,64.47174239,1.31079719
LYZ,36,0,2024-06-14T04:54:20.360Z,english_515.wav,0,1,590,21,4,chinese,m,3,0.3,-10.56071982,1.40472496
LYZ,36,0,2024-06-14T04:54:20.360Z,english_515.wav,0,1,590,21,4,chinese,m,4,0.32341667,-39.86348554,0.6392892
LYZ,37,0,2024-06-14T04:54:20.360Z,english_342.wav,0,1,3147,21,4,chinese,m,0,0,78.00911228,0.99673345
LYZ,37,0,2024-06-14T04:54:20.360Z,english_342.wav,0,1,3147,21,4,chinese,m,1,0.1,-28.67768894,1.80563483
LYZ,37,0,2024-06-14T04:54:20.360Z,english_342.wav,0,1,3147,21,4,chinese,m,2,0.2,73.55618202,1.38552336
LYZ,37,0,2024-06-14T04:54:20.360Z,english_342.wav,0,1,3147,21,4,chinese,m,3,0.3,93.0509223,0.17145116
LYZ,37,0,2024-06-14T04:54:20.360Z,english_342.wav,0,1,3147,21,4,chinese,m,4,0.32341667,-2.74816459,0.15059009
LYZ,38,0,2024-06-14T04:54:20.360Z,english_637.wav,0,1,1931,21,4,chinese,m,0,0,-1.71458324,1.21739028
LYZ,38,0,2024-06-14T04:54:20.360Z,english_637.wav,0,1,1931,21,4,chinese,m,1,0.1,-8.03758275,0.51882016
LYZ,38,0,2024-06-14T04:54:20.360Z,english_637.wav,0,1,1931,21,4,chinese,m,2,0.2,-8.49550443,1.63519413
LYZ,38,0,2024-06-14T04:54:20.360Z,english_637.wav,0,1,1931,21,4,chinese,m,3,0.3,-8.27727969,1.34863813
LYZ,38,0,2024-06-14T04:54:20.360Z,english_637.wav,0,1,1931,21,4,chinese,m,4,0.32341667,64.42471467,1.93003029
LYZ,39,0,2024-06-14T04:54:20.360Z,english_393.wav,0,0,2867,21,4,chinese,m,0,0,3.63201436,1.68653621
LYZ,39,0,2024-06-14T04:54:20.360Z,english_393.wav,0,0,2867,21,4,chinese,m,1,0.1,64.52667935,0.22518435
LYZ,39,0,2024-06-14T04:54:20.360Z,english_393.wav,0,0,2867,21,4,chinese,m,2,0.2,-51.23523019,0.07728703
LYZ,39,0,2024-06-14T04:54:20.360Z,english_393.wav,0,0,2867,21,4,chinese,m,3,0.3,-89.75219839,0.70962284
LYZ,39,0,2024-06-14T04:54:20.360Z,english_393.wav,0,0,2867,21,4,chinese,m,4,0.32341667,-66.06218428,0.7432397
LYZ,40,0,2024-06-14T04:54:20.360Z,english_751.wav,0,1,1091,21,4,chinese,m,0,0,45.03630887,0.43450625
LYZ,40,0,2024-06-14T04:54:20.360Z,english_751.wav,0,1,1091,21,4,chinese,m,1,0.1,46.59103402,1.30072592
LYZ,40,0,2024-06-14T04:54:20.360Z,english_751.wav,0,1,1091,21,4,chinese,m,2,0.2,-30.90440374,1.20093797
LYZ,40,0,2024-06-14T04:54:20.360Z,english_751.wav,0,1,1091,21,4,chinese,m,3,0.3,-61.26470289,0.81911259
LYZ,40,0,2024-06-14T04:54:20.360Z,english_751.wav,0,1,1091,21,4,chinese,m,4,0.32341667,34.91384756,0.19140491
LYZ,41,0,2024-06-14T04:54:20.360Z,english_473.wav,0,1,1002,21,4,chinese,m,0,0,2.94536382,1.14273616
LYZ,41,0,2024-06-14T04:54:20.360Z,english_473.wav,0,1,1002,21,4,chinese,m,1,0.1,67.15962,0.71228689
LYZ,41,0,2024-06-14T04:54:20.360Z,english_473.wav,0,1,1002,21,4,chinese,m,2,0.2,-20.48190634,1.20280034
LYZ,41,0,2024-06-14T04:54:20.360Z,english_473.wav,0,1,1002,21,4,chinese,m,3,0.3,20.58811131,0.94325649
LYZ,41,0,2024-06-14T04:54:20.360Z,english_473.wav,0,1,1002,21,4,chinese,m,4,0.32341667,-71.10919795,1.82149668
LYZ,42,0,2024-06-14T04:54:20.360Z,english_750.wav,0,1,848,21,4,chinese,m,0,0,54.68497377,0.76623701
LYZ,42,0,2024-06-14T04:54:20.360Z,english_750.wav,0,1,848,21,4,chinese,m,1,0.1,0.91792919,1.58478782
LYZ,42,0,2024-06-14T04:54:20.360Z,english_750.wav,0,1,848,21,4,chinese,m,2,0.2,-67.69423006,0.74884996
LYZ,42,0,2024-06-14T04:54:20.360Z,english_750.wav,0,1,848,21,4,chinese,m,3,0.3,20.92985273,0.15814923
LYZ,42,0,2024-06-14T04:54:20.360Z,english_750.wav,0,1,848,21,4,chinese,m,4,0.32341667,-39.60032316,1.58320499
LYZ,43,0,2024-06-14T04:54:20.360Z,english_672.wav,0,1,5155,21,4,chinese,m,0,0,30.04022321,0.7872581
LYZ,43,0,2024-06-14T04:54:20.360Z,english_672.wav,0,1,5155,21,4,chinese,m,1,0.1,-49.20146972,1.24822874
LYZ,43,0,2024-06-14T04:54:20.360Z,english_672.wav,0,1,5155,21,4,chinese,m,2,0.2,68.57510342,1.0921985
LYZ,43,0,2024-06-14T04:54:20.360Z,english_672.wav,0,1,5155,21,4,chinese,m,3,0.3,46.99705545,1.42682896
LYZ,43,0,2024-06-14T04:54:20.360Z,english_672.wav,0,1,5155,21,4,chinese,m,4,0.32341667,-96.75951233,0.39437363
LYZ,44,0,2024-06-14T04:54:20.360Z,english_147.wav,0,1,3288,21,4,chinese,m,0,0,-14.37625717,1.08714974
LYZ,44,0,2024-06-14T04:54:20.360Z,english_147.wav,0,1,3288,21,4,chinese,m,1,0.1,-48.99147792,1.05600262
LYZ,44,0,2024-06-14T04:54:20.360Z,english_147.wav,0,1,3288,21,4,chinese,m,2,0.2,-76.025031,0.62193731
LYZ,44,0,2024-06-14T04:54:20.360Z,english_147.wav,0,1,3288,21,4,chinese,m,3,0.3,-4.271985,1.23272935
LYZ,44,0,2024-06-14T04:54:20.360Z,english_147.wav,0,1,3288,21,4,chinese,m,4,0.32341667,90.36670579,0.90867663
LYZ,45,0,2024-06-14T04:54:20.360Z,english_133.wav,0,1,2716,21,4,chinese,m,0,0,12.35833749,0.72635311
LYZ,45,0,2024-06-14T04:54:20.360Z,english_133.wav,0,1,2716,21,4,chinese,m,1,0.1,40.12315016,1.38782059
LYZ,45,0,2024-06-14T04:54:20.360Z,english_133.wav,0,1,2716,21,4,chinese,m,2,0.2,21.09458129,0.15947395
LYZ,45,0,2024-06-14T04:54:20.360Z,english_133.wav,0,1,2716,21,4,chinese,m,3,0.3,-98.82286682,0.28433836
LYZ,45,0,2024-06-14T04:54:20.360Z,english_133.wav,0,1,2716,21,4,chinese,m,4,0.32341667,-85.44748976,1.2581514
LYZ,46,0,2024-06-14T04:54:20.360Z,english_320.wav,0,1,1429,21,4,chinese,m,0,0,-85.59568725,1.40519879
LYZ,46,0,2024-06-14T04:54:20.360Z,english_320.wav,0,1,1429,21,4,chinese,m,1,0.1,-85.79055124,0.4213256
LYZ,46,0,2024-06-14T04:54:20.360Z,english_320.wav,0,1,1429,21,4,chinese,m,2,0.2,-34.52195848,0.82537755
LYZ,46,0,2024-06-14T04:54:20.360Z,english_320.wav,0,1,1429,21,4,chinese,m,3,0.3,14.03031204,0.50617831
LYZ,46,0,2024-06-14T04:54:20.360Z,english_320.wav,0,1,1429,21,4,chinese,m,4,0.32341667,45.83597199,1.22725326
LYZ,47,0,2024-06-14T04:54:20.360Z,english_149.wav,0,0,4008,21,4,chinese,m,0,0,84.22842235,1.59516341
LYZ,47,0,2024-06-14T04:54:20.360Z,english_149.wav,0,0,4008,21,4,chinese,m,1,0.1,-27.4405272,0.66089578
LYZ,47,0,2024-06-14T04:54:20.360Z,english_149.wav,0,0,4008,21,4,chinese,m,2,0.2,-61.08664731,1.85372623
LYZ,47,0,2024-06-14T04:54:20.360Z,english_149.wav,0,0,4008,21,4,chinese,m,3,0.3,-73.42064763,1.25159901
LYZ,47,0,2024-06-14T04:54:20.360Z,english_149.wav,0,0,4008,21,4,chinese,m,4,0.32341667,74.80057547,1.10687529
LYZ,48,0,2024-06-14T04:54:20.360Z,english_340.wav,0,0,2656,21,4,chinese,m,0,0,42.62794877,1.44385011
LYZ,48,0,2024-06-14T04:54:20.360Z,english_340.wav,0,0,2656,21,4,chinese,m,1,0.1,67.09042835,1.29329602
LYZ,48,0,2024-06-14T04:54:20.360Z,english_340.wav,0,0,2656,21,4,chinese,m,2,0.2,-80.28719593,1.71068781
LYZ,48,0,2024-06-14T04:54:20.360Z,english_340.wav,0,0,2656,21,4,chinese,m,3,0.3,-47.97556268,0.48872717
LYZ,48,0,2024-06-14T04:54:20.360Z,english_340.wav,0,0,2656,21,4,chinese,m,4,0.32341667,32.7013797,1.09000269
LYZ,49,0,2024-06-14T04:54:20.360Z,english_493.wav,0,0,1247,21,4,chinese,m,0,0,42.62366846,0.72879325
LYZ,49,0,2024-06-14T04:54:20.360Z,english_493.wav,0,0,1247,21,4,chinese,m,1,0.1,-24.95330968,1.87742997
LYZ,49,0,2024-06-14T04:54:20.360Z,english_493.wav,0,0,1247,21,4,chinese,m,2,0.2,82.3526737,1.69463318
LYZ,49,0,2024-06-14T04:54:20.360Z,english_493.wav,0,0,1247,21,4,chinese,m,3,0.3,53.78370402,0.82529142
LYZ,49,0,2024-06-14T04:54:20.360Z,english_493.wav,0,0,1247,21,4,chinese,m,4,0.32341667,-52.5410085,0.10126548
LYZ,50,1,2024-06-14T04:56:27.229Z,english_451.wav,0,1,2230,21,4,chinese,m,0,0,-87.31297583,0.44823779
LYZ,50,1,2024-06-14T04:56:27.229Z,english_451.wav,0,1,2230,21,4,chinese,m,1,0.1,-44.51362963,0.44678563
LYZ,50,1,2024-06-14T04:56:27.229Z,english_451.wav,0,1,2230,21,4,chinese,m,2,0.2,-15.52945473,1.69444841
LYZ,50,1,2024-06-14T04:56:27.229Z,english_451.wav,0,1,2230,21,4,chinese,m,3,0.3,11.70886435,0.18586344
LYZ,50,1,2024-06-14T04:56:27.229Z,english_451.wav,0,1,2230,21,4,chinese,m,4,0.32341667,82.84342256,0.9677256
LYZ,51,1,2024-06-14T04:56:27.229Z,english_632.wav,0,1,2618,21,4,chinese,m,0,0,-56.22391322,1.21249895
LYZ,51,1,2024-06-14T04:56:27.229Z,english_632.wav,0,1,2618,21,4,chinese,m,1,0.1,-47.59423942,0.39515719
LYZ,51,1,2024-06-14T04:56:27.229Z,english_632.wav,0,1,2618,21,4,chinese,m,2,0.2,91.93727259,1.8528852
LYZ,51,1,2024-06-14T04:56:27.229Z,english_632.wav,0,1,2618,21,4,chinese,m,3,0.3,-33.89646621,1.67254104
LYZ,51,1,2024-06-14T04:56:27.229Z,english_632.wav,0,1,2618,21,4,chinese,m,4,0.32341667,46.88387871,1.21014685
LYZ,52,1,2024-06-14T04:56:27.229Z,english_5.wav,0,0,1083,21,4,chinese,m,0,0,-15.92383461,0.27445408
LYZ,52,1,2024-06-14T04:56:27.229Z,english_5.wav,0,0,1083,21,4,chinese,m,1,0.1,-20.01914587,0.54328549
LYZ,52,1,2024-06-14T04:56:27.229Z,english_5.wav,0,0,1083,21,4,chinese,m,2,0.2,40.70457056,0.32172142
LYZ,52,1,2024-06-14T04:56:27.229Z,english_5.wav,0,0,1083,21,4,chinese,m,3,0.3,-94.67131236,1.15903644
LYZ,52,1,2024-06-14T04:56:27.229Z,english_5.wav,0,0,1083,21,4,chinese,m,4,0.32341667,-88.33027294,0.94870148
LYZ,53,1,2024-06-14T04:56:27.229Z,english_333.wav,0,1,961,21,4,chinese,m,0,0,61.26933292,0.50090252
LYZ,53,1,2024-06-14T04:56:27.229Z,english_333.wav,0,1,961,21,4,chinese,m,1,0.1,38.65533839,1.61630161
LYZ,53,1,2024-06-14T04:56:27.229Z,english_333.wav,0,1,961,21,4,chinese,m,2,0.2,-27.91605269,1.73322278
LYZ,53,1,2024-06-14T04:56:27.229Z,english_333.wav,0,1,961,21,4,chinese,m,3,0.3,36.00101096,0.67742762
LYZ,53,1,2024-06-14T04:56:27.229Z,english_333.wav,0,1,961,21,4,chinese,m,4,0.32341667,-78.35943708,0.46993908
LYZ,54,1,2024-06-14T04:56:27.229Z,english_755.wav,0,0,786,21,4,chinese,m,0,0,-15.85533995,0.06987403
LYZ,54,1,2024-06-14T04:56:27.229Z,english_755.wav,0,0,786,21,4,chinese,m,1,0.1,-97.95934782,0.83204773
LYZ,54,1,2024-06-14T04:56:27.229Z,english_755.wav,0,0,786,21,4,chinese,m,2,0.2,-5.14559719,1.06816443
LYZ,54,1,2024-06-14T04:56:27.229Z,english_755.wav,0,0,786,21,4,chinese,m,3,0.3,32.74087849,1.42856986
LYZ,54,1,2024-06-14T04:56:27.229Z,english_755.wav,0,0,786,21,4,chinese,m,4,0.32341667,-56.93437429,0.58130438
LYZ,55,1,2024-06-14T04:56:27.229Z,english_101.wav,0,1,722,21,4,chinese,m,0,0,60.77829508,0.77962125
LYZ,55,1,2024-06-14T04:56:27.229Z,english_101.wav,0,1,722,21,4,chinese,m,1,0.1,43.41373716,0.02040908
LYZ,55,1,2024-06-14T04:56:27.229Z,english_101.wav,0,1,722,21,4,chinese,m,2,0.2,56.16195873,0.79248433
LYZ,55,1,2024-06-14T04:56:27.229Z,english_101.wav,0,1,722,21,4,chinese,m,3,0.3,-99.94719329,1.74003505
LYZ,55,1,2024-06-14T04:56:27.229Z,english_101.wav,0,1,722,21,4,chinese,m,4,0.32341667,-1.35074094,1.66206156
LYZ,56,1,2024-06-14T04:56:27.229Z,english_838.wav,0,1,4628,21,4,chinese,m,0,0,-46.43239877,0.57293762
LYZ,56,1,2024-06-14T04:56:27.229Z,english_838.wav,0,1,4628,21,4,chinese,m,1,0.1,-0.77549132,1.65450135
LYZ,56,1,2024-06-14T04:56:27.229Z,english_838.wav,0,1,4628,21,4,chinese,m,2,0.2,-47.56158581,0.30574951
LYZ,56,1,2024-06-14T04:56:27.229Z,english_838.wav,0,1,4628,21,4,chinese,m,3,0.3,7.18116474,0.96315644
LYZ,56,1,2024-06-14T04:56:27.229Z,english_838.wav,0,1,4628,21,4,chinese,m,4,0.32341667,-87.38880816,0.83017899
LYZ,57,1,2024-06-14T04:56:27.229Z,english_62.wav,0,1,1218,21,4,chinese,m,0,0,17.28527913,1.12530616
LYZ,57,1,2024-06-14T04:56:27.229Z,english_62.wav,0,1,1218,21,4,chinese,m,1,0.1,8.63936001,1.09357984
LYZ,57,1,2024-06-14T04:56:27.229Z,english_62.wav,0,1,1218,21,4,chinese,m,2,0.2,-69.0074729,1.07648496
LYZ,57,1,2024-06-14T04:56:27.229Z,english_62.wav,0,1,1218,21,4,chinese,m,3,0.3,-18.85502465,0.36768209
LYZ,57,1,2024-06-14T04:56:27.229Z,english_62.wav,0,1,1218,21,4,chinese,m,4,0.32341667,59.46739627,0.39033463
LYZ,58,1,2024-06-14T04:56:27.229Z,english_550.wav,0,1,882,21,4,chinese,m,0,0,19.46608022,0.78600887
LYZ,58,1,2024-06-14T04:56:27.229Z,english_550.wav,0,1,882,21,4,chinese,m,1,0.1,-94.3556307,1.03273328
LYZ,58,1,2024-06-14T04:56:27.229Z,english_550.wav,0,1,882,21,4,chinese,m,2,0.2,-80.90695222,0.36941932
LYZ,58,1,2024-06-14T04:56:27.229Z,english_550.wav,0,1,882,21,4,chinese,m,3,0.3,-65.36230075,0.47038634
LYZ,58,1,2024-06-14T04:56:27.229Z,english_550.wav,0,1,882,21,4,chinese,m,4,0.32341667,-18.45722395,0.11798167
LYZ,59,1,2024-06-14T04:56:27.229Z,english_162.wav,0,1,1920,21,4,chinese,m,0,0,-93.72635155,0.46304305
LYZ,59,1,2024-06-14T04:56:27.229Z,english_162.wav,0,1,1920,21,4,chinese,m,1,0.1,-77.68974918,1.90149112
LYZ,59,1,2024-06-14T04:56:27.229Z,english_162.wav,0,1,1920,21,4,chinese,m,2,0.2,15.19581884,1.02605911
LYZ,59,1,2024-06-14T04:56:27.229Z,english_162.wav,0,1,1920,21,4,chinese,m,3,0.3,64.44828449,1.67084882
LYZ,59,1,2024-06-14T04:56:27.229Z,english_162.wav,0,1,1920,21,4,chinese,m,4,0.32341667,-98.3856278,0.11792656
LYZ,60,1,2024-06-14T04:56:27.229Z,english_714.wav,0,1,9415,21,4,chinese,m,0,0,6.62463448,0.98205871
LYZ,60,1,2024-06-14T04:56:27.229Z,english_714.wav,0,1,9415,21,4,chinese,m,1,0.1,-7.37775178,1.90018259
LYZ,60,1,2024-06-14T04:56:27.229Z,english_714.wav,0,1,9415,21,4,chinese,m,2,0.2,-58.74003357,1.33033281
LYZ,60,1,2024-06-14T04:56:27.229Z,english_714.wav,0,1,9415,21,4,chinese,m,3,0.3,-38.84014254,0.20009115
LYZ,60,1,2024-06-14T04:56:27.229Z,english_714.wav,0,1,9415,21,4,chinese,m,4,0.32341667,-23.67047323,0.44650169
LYZ,61,1,2024-06-14T04:56:27.229Z,english_453.wav,0,0,3179,21,4,chinese,m,0,0,-60.23429987,1.87756573
LYZ,61,1,2024-06-14T04:56:27.229Z,english_453.wav,0,0,3179,21,4,chinese,m,1,0.1,80.38725697,0.94070469
LYZ,61,1,2024-06-14T04:56:27.229Z,english_453.wav,0,0,3179,21,4,chinese,m,2,0.2,66.16689695,1.71191258
LYZ,61,1,2024-06-14T04:56:27.229Z,english_453.wav,0,0,3179,21,4,chinese,m,3,0.3,-59.46214637,0.56012011
LYZ,61,1,2024-06-14T04:56:27.229Z,english_453.wav,0,0,3179,21,4,chinese,m,4,0.32341667,-39.76201882,0.35119419
LYZ,62,1,2024-06-14T04:56:27.229Z,english_61.wav,0,0,1136,21,4,chinese,m,0,0,-58.73450167,1.5196582
LYZ,62,1,2024-06-14T04:56:27.229Z,english_61.wav,0,0,1136,21,4,chinese,m,1,0.1,-68.77732169,0.79346499
LYZ,62,1,2024-06-14T04:56:27.229Z,english_61.wav,0,0,1136,21,4,chinese,m,2,0.2,-61.07430116,0.90548432
LYZ,62,1,2024-06-14T04:56:27.229Z,english_61.wav,0,0,1136,21,4,chinese,m,3,0.3,-87.12791991,1.71431728
LYZ,62,1,2024-06-14T04:56:27.229Z,english_61.wav,0,0,1136,21,4,chinese,m,4,0.32341667,47.32358741,0.57778581
LYZ,63,1,2024-06-14T04:56:27.229Z,english_735.wav,0,1,751,21,4,chinese,m,0,0,51.40973306,0.29099813
LYZ,63,1,2024-06-14T04:56:27.229Z,english_735.wav,0,1,751,21,4,chinese,m,1,0.1,-5.42867159,1.62833375
LYZ,63,1,2024-06-14T04:56:27.229Z,english_735.wav,0,1,751,21,4,chinese,m,2,0.2,13.71146629,0.32849247
LYZ,63,1,2024-06-14T04:56:27.229Z,english_735.wav,0,1,751,21,4,chinese,m,3,0.3,-14.17202169,0.46991549
LYZ,63,1,2024-06-14T04:56:27.229Z,english_735.wav,0,1,751,21,4,chinese,m,4,0.32341667,14.98699592,0.51625305
LYZ,64,1,2024-06-14T04:56:27.229Z,english_837.wav,0,1,2491,21,4,chinese,m,0,0,-10.72674788,0.56055933
LYZ,64,1,2024-06-14T04:56:27.229Z,english_837.wav,0,1,2491,21,4,chinese,m,1,0.1,33.60933966,1.16716927
LYZ,64,1,2024-06-14T04:56:27.229Z,english_837.wav,0,1,2491,21,4,chinese,m,2,0.2,-1.37827911,1.02731607
LYZ,64,1,2024-06-14T04:56:27.229Z,english_837.wav,0,1,2491,21,4,chinese,m,3,0.3,29.3498758,1.96665864
LYZ,64,1,2024-06-14T04:56:27.229Z,english_837.wav,0,1,2491,21,4,chinese,m,4,0.32341667,31.86641091,0.45425732
LYZ,65,1,2024-06-14T04:56:27.229Z,english_34.wav,0,1,1124,21,4,chinese,m,0,0,-48.07924103,1.44836266
LYZ,65,1,2024-06-14T04:56:27.229Z,english_34.wav,0,1,1124,21,4,chinese,m,1,0.1,-64.84739183,1.89580324
LYZ,65,1,2024-06-14T04:56:27.229Z,english_34.wav,0,1,1124,21,4,chinese,m,2,0.2,-20.81716265,0.64308549
LYZ,65,1,2024-06-14T04:56:27.229Z,english_34.wav,0,1,1124,21,4,chinese,m,3,0.3,91.13652067,0.0848332
LYZ,65,1,2024-06-14T04:56:27.229Z,english_34.wav,0,1,1124,21,4,chinese,m,4,0.32341667,-54.46543937,0.8036564
LYZ,66,1,2024-06-14T04:56:27.229Z,english_172.wav,0,1,1904,21,4,chinese,m,0,0,8.59493981,0.93080222
LYZ,66,1,2024-06-14T04:56:27.229Z,english_172.wav,0,1,1904,21,4,chinese,m,1,0.1,-56.34346079,0.53387901
LYZ,66,1,2024-06-14T04:56:27.229Z,english_172.wav,0,1,1904,21,4,chinese,m,2,0.2,-95.76423912,0.34406097
LYZ,66,1,2024-06-14T04:56:27.229Z,english_172.wav,0,1,1904,21,4,chinese,m,3,0.3,11.69646411,0.74935371
LYZ,66,1,2024-06-14T04:56:27.229Z,english_172.wav,0,1,1904,21,4,chinese,m,4,0.32341667,-55.10661496,0.42041327
LYZ,67,1,2024-06-14T04:56:27.229Z,english_294.wav,0,0,1466,21,4,chinese,m,0,0,-92.15775888,0.74816787
LYZ,67,1,2024-06-14T04:56:27.229Z,english_294.wav,0,0,1466,21,4,chinese,m,1,0.1,71.96645866,1.71916745
LYZ,67,1,2024-06-14T04:56:27.229Z,english_294.wav,0,0,1466,21,4,chinese,m,2,0.2,-25.46852775,1.7524902
LYZ,67,1,2024-06-14T04:56:27.229Z,english_294.wav,0,0,1466,21,4,chinese,m,3,0.3,17.21488016,0.9780509
LYZ,67,1,2024-06-14T04:56:27.229Z,english_294.wav,0,0,1466,21,4,chinese,m,4,0.32341667,-10.41176069,1.21177262
LYZ,68,1,2024-06-14T04:56:27.229Z,english_671.wav,0,1,1138,21,4,chinese,m,0,0,32.91930287,1.74193101
LYZ,68,1,2024-06-14T04:56:27.229Z,english_671.wav,0,1,1138,21,4,chinese,m,1,0.1,6.16976114,0.51820224
LYZ,68,1,2024-06-14T04:56:27.229Z,english_671.wav,0,1,1138,21,4,chinese,m,2,0.2,-34.00390264,0.07120536
LYZ,68,1,2024-06-14T04:56:27.229Z,english_671.wav,0,1,1138,21,4,chinese,m,3,0.3,18.374511,0.3828633
LYZ,68,1,2024-06-14T04:56:27.229Z,english_671.wav,0,1,1138,21,4,chinese,m,4,0.32341667,-2.98713897,1.2592669
LYZ,69,1,2024-06-14T04:56:27.229Z,english_498.wav,0,1,8565,21,4,chinese,m,0,0,2.49020902,0.78964515
LYZ,69,1,2024-06-14T04:56:27.229Z,english_498.wav,0,1,8565,21,4,chinese,m,1,0.1,-20.55300452,0.24391593
LYZ,69,1,2024-06-14T04:56:27.229Z,english_498.wav,0,1,8565,21,4,chinese,m,2,0.2,-34.14985779,0.11401041
LYZ,69,1,2024-06-14T04:56:27.229Z,english_498.wav,0,1,8565,21,4,chinese,m,3,0.3,79.54997135,1.52582154
LYZ,69,1,2024-06-14T04:56:27.229Z,english_498.wav,0,1,8565,21,4,chinese,m,4,0.32341667,20.54695207,0.62547878
LYZ,70,1,2024-06-14T04:56:27.229Z,english_942.wav,0,1,1468,21,4,chinese,m,0,0,96.26286183,1.14976657
LYZ,70,1,2024-06-14T04:56:27.229Z,english_942.wav,0,1,1468,21,4,chinese,m,1,0.1,-96.45992778,0.962364
LYZ,70,1,2024-06-14T04:56:27.229Z,english_942.wav,0,1,1468,21,4,chinese,m,2,0.2,50.93322043,0.99280793
LYZ,70,1,2024-06-14T04:56:27.229Z,english_942.wav,0,1,1468,21,4,chinese,m,3,0.3,14.6207779,1.92237923
LYZ,70,1,2024-06-14T04:56:27.229Z,english_942.wav,0,1,1468,21,4,chinese,m,4,0.32341667,7.19296333,1.02094568
LYZ,71,1,2024-06-14T04:56:27.229Z,english_414.wav,0,1,4099,21,4,chinese,m,0,0,19.47839865,0.9434816
LYZ,71,1,2024-06-14T04:56:27.229Z,english_414.wav,0,1,4099,21,4,chinese,m,1,0.1,59.9490877,1.1146936
LYZ,71,1,2024-06-14T04:56:27.229Z,english_414.wav,0,1,4099,21,4,chinese,m,2,0.2,22.33981162,0.48476454
LYZ,71,1,2024-06-14T04:56:27.229Z,english_414.wav,0,1,4099,21,4,chinese,m,3,0.3,18.97426154,0.23554241
LYZ,71,1,2024-06-14T04:56:27.229Z,english_414.wav,0,1,4099,21,4,chinese,m,4,0.32341667,15.16306506,1.13007685
LYZ,72,1,2024-06-14T04:56:27.229Z,english_201.wav,0,1,1889,21,4,chinese,m,0,0,-11.66329209,1.59313322
LYZ,72,1,2024-06-14T04:56:27.229Z,english_201.wav,0,1,1889,21,4,chinese,m,1,0.1,-73.85436231,1.78385616
LYZ,72,1,2024-06-14T04:56:27.229Z,english_201.wav,0,1,1889,21,4,chinese,m,2,0.2,-12.5199597,0.57641365
LYZ,72,1,2024-06-14T04:56:27.229Z,english_201.wav,0,1,1889,21,4,chinese,m,3,0.3,-44.18013019,1.54371285
LYZ,72,1,2024-06-14T04:56:27.229Z,english_201.wav,0,1,1889,21,4,chinese,m,4,0.32341667,47.68284229,1.11944384
LYZ,73,1,2024-06-14T04:56:27.229Z,english_85.wav,0,1,1090,21,4,chinese,m,0,0,69.91092253,1.07696769
LYZ,73,1,2024-06-14T04:56:27.229Z,english_85.wav,0,1,1090,21,4,chinese,m,1,0.1,90.04885235,1.65675227
LYZ,73,1,2024-06-14T04:56:27.229Z,english_85.wav,0,1,1090,21,4,chinese,m,2,0.2,-54.471964,1.18566865
LYZ,73,1,2024-06-14T04:56:27.229Z,english_85.wav,0,1,1090,21,4,chinese,m,3,0.3,-32.42862041,0.43131811
LYZ,73,1,2024-06-14T04:56:27.229Z,english_85.wav,0,1,1090,21,4,chinese,m,4,0.32341667,-26.25094384,1.88641509
LYZ,74,1,2024-06-14T04:56:27.229Z,english_502.wav,0,0,1344,21,4,chinese,m,0,0,-23.73065935,0.0797034
LYZ,74,1,2024-06-14T04:56:27.229Z,english_502.wav,0,0,1344,21,4,chinese,m,1,0.1,2.70754613,1.83600464
LYZ,74,1,2024-06-14T04:56:27.229Z,english_502.wav,0,0,1344,21,4,chinese,m,2,0.2,25.650451,1.48948742
LYZ,74,1,2024-06-14T04:56:27.229Z,english_502.wav,0,0,1344,21,4,chinese,m,3,0.3,-49.55254658,1.22465236
LYZ,74,1,2024-06-14T04:56:27.229Z,english_502.wav,0,0,1344,21,4,chinese,m,4,0.32341667,16.82642172,1.41984075
LYZ,75,1,2024-06-14T04:56:27.229Z,english_495.wav,0,1,9986,21,4,chinese,m,0,0,-5.58861003,1.32978923
LYZ,75,1,2024-06-14T04:56:27.229Z,english_495.wav,0,1,9986,21,4,chinese,m,1,0.1,8.95176437,0.81778757
LYZ,75,1,2024-06-14T04:56:27.229Z,english_495.wav,0,1,9986,21,4,chinese,m,2,0.2,39.42206983,0.66481361
LYZ,75,1,2024-06-14T04:56:27.229Z,english_495.wav,0,1,9986,21,4,chinese,m,3,0.3,-84.38976819,0.35850052
LYZ,75,1,2024-06-14T04:56:27.229Z,english_495.wav,0,1,9986,21,4,chinese,m,4,0.32341667,-2.90431636,0.23899864
LYZ,76,1,2024-06-14T04:56:27.229Z,english_562.wav,0,1,2048,21,4,chinese,m,0,0,-40.22672309,0.64031882
LYZ,76,1,2024-06-14T04:56:27.229Z,english_562.wav,0,1,2048,21,4,chinese,m,1,0.1,77.961849,0.7637006
LYZ,76,1,2024-06-14T04:56:27.229Z,english_562.wav,0,1,2048,21,4,chinese,m,2,0.2,25.52463525,0.87632482
LYZ,76,1,2024-06-14T04:56:27.229Z,english_562.wav,0,1,2048,21,4,chinese,m,3,0.3,84.62788358,0.98972612
LYZ,76,1,2024-06-14T04:56:27.229Z,english_562.wav,0,1,2048,21,4,chinese,m,4,0.32341667,-53.67427145,0.74010285
LYZ,77,1,2024-06-14T04:56:27.229Z,english_577.wav,0,1,674,21,4,chinese,m,0,0,0.60742169,1.18439754
LYZ,77,1,2024-06-14T04:56:27.229Z,english_577.wav,0,1,674,21,4,chinese,m,1,0.1,-16.75441018,1.17258894
LYZ,77,1,2024-06-14T04:56:27.229Z,english_577.wav,0,1,674,21,4,chinese,m,2,0.2,32.29278586,0.00832478
LYZ,77,1,2024-06-14T04:56:27.229Z,english_577.wav,0,1,674,21,4,chinese,m,3,0.3,94.63733595,1.24529525
LYZ,77,1,2024-06-14T04:56:27.229Z,english_577.wav,0,1,674,21,4,chinese,m,4,0.32341667,-75.78119055,0.24980342
LYZ,78,1,2024-06-14T04:56:27.229Z,english_717.wav,0,1,2499,21,4,chinese,m,0,0,11.70361719,1.43236824
LYZ,78,1,2024-06-14T04:56:27.229Z,english_717.wav,0,1,2499,21,4,chinese,m,1,0.1,-43.41962,0.38419888
LYZ,78,1,2024-06-14T04:56:27.229Z,english_717.wav,0,1,2499,21,4,chinese,m,2,0.2,-38.6653904,1.88953633
LYZ,78,1,2024-06-14T04:56:27.229Z,english_717.wav,0,1,2499,21,4,chinese,m,3,0.3,-38.11833374,1.28007762
LYZ,78,1,2024-06-14T04:56:27.229Z,english_717.wav,0,1,2499,21,4,chinese,m,4,0.32341667,93.29743671,0.67082429
LYZ,79,1,2024-06-14T04:56:27.229Z,english_815.wav,0,1,616,21,4,chinese,m,0,0,-76.1669867,0.29426078
LYZ,79,1,2024-06-14T04:56:27.229Z,english_815.wav,0,1,616,21,4,chinese,m,1,0.1,-40.517901,0.96858733
LYZ,79,1,2024-06-14T04:56:27.229Z,english_815.wav,0,1,616,21,4,chinese,m,2,0.2,-46.68959253,0.83382199
LYZ,79,1,2024-06-14T04:56:27.229Z,english_815.wav,0,1,616,21,4,chinese,m,3,0.3,-79.23468646,1.13727176
LYZ,79,1,2024-06-14T04:56:27.229Z,english_815.wav,0,1,616,21,4,chinese,m,4,0.32341667,-63.63497058,0.09357312
LYZ,80,1,2024-06-14T04:56:27.229Z,english_274.wav,0,1,666,21,4,chinese,m,0,0,-30.61452779,0.78021116
LYZ,80,1,2024-06-14T04:56:27.229Z,english_274.wav,0,1,666,21,4,chinese,m,1,0.1,-42.14612233,1.93993358
LYZ,80,1,2024-06-14T04:56:27.229Z,english_274.wav,0,1,666,21,4,chinese,m,2,0.2,32.00602795,0.32963606
LYZ,80,1,2024-06-14T04:56:27.229Z,english_274.wav,0,1,666,21,4,chinese,m,3,0.3,-37.74375581,1.46133782
LYZ,80,1,2024-06-14T04:56:27.229Z,english_274.wav,0,1,666,21,4,chinese,m,4,0.32341667,-54.5397802,1.53178785
LYZ,81,1,2024-06-14T04:56:27.229Z,english_523.wav,0,1,574,21,4,chinese,m,0,0,8.07414344,0.20594791
LYZ,81,1,2024-06-14T04:56:27.229Z,english_523.wav,0,1,574,21,4,chinese,m,1,0.1,27.61667564,1.87511385
LYZ,81,1,2024-06-14T04:56:27.229Z,english_523.wav,0,1,574,21,4,chinese,m,2,0.2,12.25175146,0.19246655
LYZ,81,1,2024-06-14T04:56:27.229Z,english_523.wav,0,1,574,21,4,chinese,m,3,0.3,5.7333769,0.42766967
LYZ,81,1,2024-06-14T04:56:27.229Z,english_523.wav,0,1,574,21,4,chinese,m,4,0.32341667,77.72310536,1.43882185
LYZ,82,1,2024-06-14T04:56:27.229Z,english_190.wav,0,0,1326,21,4,chinese,m,0,0,81.66607819,0.126715216
LYZ,82,1,2024-06-14T04:56:27.229Z,english_190.wav,0,0,1326,21,4,chinese,m,1,0.1,-14.16938067,0.000178349903
LYZ,82,1,2024-06-14T04:56:27.229Z,english_190.wav,0,0,1326,21,4,chinese,m,2,0.2,15.7443745,1.35192229
LYZ,82,1,2024-06-14T04:56:27.229Z,english_190.wav,0,0,1326,21,4,chinese,m,3,0.3,85.77694093,1.08905811
LYZ,82,1,2024-06-14T04:56:27.229Z,english_190.wav,0,0,1326,21,4,chinese,m,4,0.32341667,33.21115004,1.75580408
LYZ,83,1,2024-06-14T04:56:27.229Z,english_808.wav,0,1,805,21,4,chinese,m,0,0,23.02589628,1.07384277
LYZ,83,1,2024-06-14T04:56:27.229Z,english_808.wav,0,1,805,21,4,chinese,m,1,0.1,10.58817829,1.3919179
LYZ,83,1,2024-06-14T04:56:27.229Z,english_808.wav,0,1,805,21,4,chinese,m,2,0.2,36.77134597,0.54960524
LYZ,83,1,2024-06-14T04:56:27.229Z,english_808.wav,0,1,805,21,4,chinese,m,3,0.3,-30.31603221,1.95871365
LYZ,83,1,2024-06-14T04:56:27.229Z,english_808.wav,0,1,805,21,4,chinese,m,4,0.32341667,9.74764343,0.79150541
LYZ,84,1,2024-06-14T04:56:27.229Z,english_580.wav,0,1,1250,21,4,chinese,m,0,0,92.13406767,1.93694744
LYZ,84,1,2024-06-14T04:56:27.229Z,english_580.wav,0,1,1250,21,4,chinese,m,1,0.1,-85.58685866,0.28773753
LYZ,84,1,2024-06-14T04:56:27.229Z,english_580.wav,0,1,1250,21,4,chinese,m,2,0.2,57.10945482,0.86433335
LYZ,84,1,2024-06-14T04:56:27.229Z,english_580.wav,0,1,1250,21,4,chinese,m,3,0.3,32.92004132,0.96651265
LYZ,84,1,2024-06-14T04:56:27.229Z,english_580.wav,0,1,1250,21,4,chinese,m,4,0.32341667,52.08708517,1.25003658
LYZ,85,1,2024-06-14T04:56:27.229Z,english_264.wav,0,1,466,21,4,chinese,m,0,0,16.10521774,1.02407609
LYZ,85,1,2024-06-14T04:56:27.229Z,english_264.wav,0,1,466,21,4,chinese,m,1,0.1,-43.55481907,1.4393598
LYZ,85,1,2024-06-14T04:56:27.229Z,english_264.wav,0,1,466,21,4,chinese,m,2,0.2,-16.87093852,1.31552174
LYZ,85,1,2024-06-14T04:56:27.229Z,english_264.wav,0,1,466,21,4,chinese,m,3,0.3,-81.41755984,1.17516842
LYZ,85,1,2024-06-14T04:56:27.229Z,english_264.wav,0,1,466,21,4,chinese,m,4,0.32341667,-76.00277997,0.613195
LYZ,86,1,2024-06-14T04:56:27.229Z,english_970.wav,0,1,899,21,4,chinese,m,0,0,37.22911191,0.60712849
LYZ,86,1,2024-06-14T04:56:27.229Z,english_970.wav,0,1,899,21,4,chinese,m,1,0.1,36.57191813,1.26781741
LYZ,86,1,2024-06-14T04:56:27.229Z,english_970.wav,0,1,899,21,4,chinese,m,2,0.2,20.2344678,1.29373459
LYZ,86,1,2024-06-14T04:56:27.229Z,english_970.wav,0,1,899,21,4,chinese,m,3,0.3,-86.31030026,0.18112256
LYZ,86,1,2024-06-14T04:56:27.229Z,english_970.wav,0,1,899,21,4,chinese,m,4,0.32341667,-83.96880691,1.07780169
LYZ,87,1,2024-06-14T04:56:27.229Z,english_510.wav,0,1,1752,21,4,chinese,m,0,0,-39.77235695,0.97080384
LYZ,87,1,2024-06-14T04:56:27.229Z,english_510.wav,0,1,1752,21,4,chinese,m,1,0.1,-55.9025784,0.1022914
LYZ,87,1,2024-06-14T04:56:27.229Z,english_510.wav,0,1,1752,21,4,chinese,m,2,0.2,42.12378864,1.56878682
LYZ,87,1,2024-06-14T04:56:27.229Z,english_510.wav,0,1,1752,21,4,chinese,m,3,0.3,-5.9333084,1.19302163
LYZ,87,1,2024-06-14T04:56:27.229Z,english_510.wav,0,1,1752,21,4,chinese,m,4,0.32341667,84.8199861,1.45606517
LYZ,88,1,2024-06-14T04:56:27.229Z,english_284.wav,0,1,1316,21,4,chinese,m,0,0,-77.15161711,0.74585549
LYZ,88,1,2024-06-14T04:56:27.229Z,english_284.wav,0,1,1316,21,4,chinese,m,1,0.1,80.53955212,0.017077
LYZ,88,1,2024-06-14T04:56:27.229Z,english_284.wav,0,1,1316,21,4,chinese,m,2,0.2,-73.74967403,0.284322
LYZ,88,1,2024-06-14T04:56:27.229Z,english_284.wav,0,1,1316,21,4,chinese,m,3,0.3,-47.67008962,1.04459593
LYZ,88,1,2024-06-14T04:56:27.229Z,english_284.wav,0,1,1316,21,4,chinese,m,4,0.32341667,40.40758666,0.8536958
LYZ,89,1,2024-06-14T04:56:27.229Z,english_452.wav,0,0,2934,21,4,chinese,m,0,0,-15.91859121,0.16050204
LYZ,89,1,2024-06-14T04:56:27.229Z,english_452.wav,0,0,2934,21,4,chinese,m,1,0.1,66.54493607,1.05820221
LYZ,89,1,2024-06-14T04:56:27.229Z,english_452.wav,0,0,2934,21,4,chinese,m,2,0.2,49.2405228,1.42476674
LYZ,89,1,2024-06-14T04:56:27.229Z,english_452.wav,0,0,2934,21,4,chinese,m,3,0.3,-8.75382859,0.48128336
LYZ,89,1,2024-06-14T04:56:27.229Z,english_452.wav,0,0,2934,21,4,chinese,m,4,0.32341667,-35.51952716,0.52453318
LYZ,90,1,2024-06-14T04:56:27.229Z,english_604.wav,0,1,2836,21,4,chinese,m,0,0,11.37360706,1.9162078
LYZ,90,1,2024-06-14T04:56:27.229Z,english_604.wav,0,1,2836,21,4,chinese,m,1,0.1,-50.20832577,0.59247461
LYZ,90,1,2024-06-14T04:56:27.229Z,english_604.wav,0,1,2836,21,4,chinese,m,2,0.2,-34.39542541,1.79911242
LYZ,90,1,2024-06-14T04:56:27.229Z,english_604.wav,0,1,2836,21,4,chinese,m,3,0.3,-9.87560088,0.998763
LYZ,90,1,2024-06-14T04:56:27.229Z,english_604.wav,0,1,2836,21,4,chinese,m,4,0.32341667,34.71454295,0.76768671
LYZ,91,1,2024-06-14T04:56:27.229Z,english_850.wav,0,1,1423,21,4,chinese,m,0,0,79.79173837,1.46721922
LYZ,91,1,2024-06-14T04:56:27.229Z,english_850.wav,0,1,1423,21,4,chinese,m,1,0.1,-44.24877139,0.57242606
LYZ,91,1,2024-06-14T04:56:27.229Z,english_850.wav,0,1,1423,21,4,chinese,m,2,0.2,74.77623955,0.15597525
LYZ,91,1,2024-06-14T04:56:27.229Z,english_850.wav,0,1,1423,21,4,chinese,m,3,0.3,-86.32612653,1.3358867
LYZ,91,1,2024-06-14T04:56:27.229Z,english_850.wav,0,1,1423,21,4,chinese,m,4,0.32341667,-11.10230867,1.14618682
LYZ,92,1,2024-06-14T04:56:27.229Z,english_884.wav,0,1,3600,21,4,chinese,m,0,0,77.1498115,1.83268558
LYZ,92,1,2024-06-14T04:56:27.229Z,english_884.wav,0,1,3600,21,4,chinese,m,1,0.1,10.32602389,0.76817862
LYZ,92,1,2024-06-14T04:56:27.229Z,english_884.wav,0,1,3600,21,4,chinese,m,2,0.2,4.15464736,1.59331573
LYZ,92,1,2024-06-14T04:56:27.229Z,english_884.wav,0,1,3600,21,4,chinese,m,3,0.3,21.19252889,0.58913169
LYZ,92,1,2024-06-14T04:56:27.229Z,english_884.wav,0,1,3600,21,4,chinese,m,4,0.32341667,-7.11336122,0.81393531
LYZ,93,1,2024-06-14T04:56:27.229Z,english_51.wav,0,1,1400,21,4,chinese,m,0,0,88.48054236,0.21487201
LYZ,93,1,2024-06-14T04:56:27.229Z,english_51.wav,0,1,1400,21,4,chinese,m,1,0.1,-53.5534646,0.90061677
LYZ,93,1,2024-06-14T04:56:27.229Z,english_51.wav,0,1,1400,21,4,chinese,m,2,0.2,-33.31344908,0.24834744
LYZ,93,1,2024-06-14T04:56:27.229Z,english_51.wav,0,1,1400,21,4,chinese,m,3,0.3,87.0533187,1.31052611
LYZ,93,1,2024-06-14T04:56:27.229Z,english_51.wav,0,1,1400,21,4,chinese,m,4,0.32341667,-16.55219825,0.58644625
LYZ,94,1,2024-06-14T04:56:27.229Z,english_354.wav,0,1,2238,21,4,chinese,m,0,0,-63.97501145,0.52067601
LYZ,94,1,2024-06-14T04:56:27.229Z,english_354.wav,0,1,2238,21,4,chinese,m,1,0.1,-43.11314734,0.59903392
LYZ,94,1,2024-06-14T04:56:27.229Z,english_354.wav,0,1,2238,21,4,chinese,m,2,0.2,10.53928595,0.9992363
LYZ,94,1,2024-06-14T04:56:27.229Z,english_354.wav,0,1,2238,21,4,chinese,m,3,0.3,-23.15258088,1.16142831
LYZ,94,1,2024-06-14T04:56:27.229Z,english_354.wav,0,1,2238,21,4,chinese,m,4,0.32341667,3.22925066,0.37639432
LYZ,95,1,2024-06-14T04:56:27.229Z,english_829.wav,0,0,2254,21,4,chinese,m,0,0,60.30417439,0.94286345
LYZ,95,1,2024-06-14T04:56:27.229Z,english_829.wav,0,0,2254,21,4,chinese,m,1,0.1,-26.87459656,0.76756767
LYZ,95,1,2024-06-14T04:56:27.229Z,english_829.wav,0,0,2254,21,4,chinese,m,2,0.2,59.05286014,1.50609211
LYZ,95,1,2024-06-14T04:56:27.229Z,english_829.wav,0,0,2254,21,4,chinese,m,3,0.3,-38.64739237,0.33518122
LYZ,95,1,2024-06-14T04:56:27.229Z,english_829.wav,0,0,2254,21,4,chinese,m,4,0.32341667,68.61732932,1.40687349
LYZ,96,1,2024-06-14T04:56:27.229Z,english_930.wav,0,1,1066,21,4,chinese,m,0,0,-52.65701122,0.60066533
LYZ,96,1,2024-06-14T04:56:27.229Z,english_930.wav,0,1,1066,21,4,chinese,m,1,0.1,-24.36484499,1.33650528
LYZ,96,1,2024-06-14T04:56:27.229Z,english_930.wav,0,1,1066,21,4,chinese,m,2,0.2,4.10813066,0.15979886
LYZ,96,1,2024-06-14T04:56:27.229Z,english_930.wav,0,1,1066,21,4,chinese,m,3,0.3,93.74919515,1.46288505
LYZ,96,1,2024-06-14T04:56:27.229Z,english_930.wav,0,1,1066,21,4,chinese,m,4,0.32341667,66.31726896,0.93993915
LYZ,97,1,2024-06-14T04:56:27.229Z,english_269.wav,0,1,1190,21,4,chinese,m,0,0,61.09556447,1.11606818
LYZ,97,1,2024-06-14T04:56:27.229Z,english_269.wav,0,1,1190,21,4,chinese,m,1,0.1,-3.97684721,1.55443041
LYZ,97,1,2024-06-14T04:56:27.229Z,english_269.wav,0,1,1190,21,4,chinese,m,2,0.2,-87.59080112,1.78173809
LYZ,97,1,2024-06-14T04:56:27.229Z,english_269.wav,0,1,1190,21,4,chinese,m,3,0.3,78.47165079,1.73012946
LYZ,97,1,2024-06-14T04:56:27.229Z,english_269.wav,0,1,1190,21,4,chinese,m,4,0.32341667,-52.74135522,0.88090417
LYZ,98,1,2024-06-14T04:56:27.229Z,english_981.wav,0,1,1374,21,4,chinese,m,0,0,-19.49446297,1.96452006
LYZ,98,1,2024-06-14T04:56:27.229Z,english_981.wav,0,1,1374,21,4,chinese,m,1,0.1,-69.0386812,1.2006287
LYZ,98,1,2024-06-14T04:56:27.229Z,english_981.wav,0,1,1374,21,4,chinese,m,2,0.2,-25.77088537,0.98600753
LYZ,98,1,2024-06-14T04:56:27.229Z,english_981.wav,0,1,1374,21,4,chinese,m,3,0.3,65.67633712,0.21362544
LYZ,98,1,2024-06-14T04:56:27.229Z,english_981.wav,0,1,1374,21,4,chinese,m,4,0.32341667,-6.1640169,0.33780549
LYZ,99,1,2024-06-14T04:56:27.229Z,english_471.wav,0,1,1292,21,4,chinese,m,0,0,47.42131089,0.58869392
LYZ,99,1,2024-06-14T04:56:27.229Z,english_471.wav,0,1,1292,21,4,chinese,m,1,0.1,-63.95282256,1.74739294
LYZ,99,1,2024-06-14T04:56:27.229Z,english_471.wav,0,1,1292,21,4,chinese,m,2,0.2,31.67244378,1.10105994
LYZ,99,1,2024-06-14T04:56:27.229Z,english_471.wav,0,1,1292,21,4,chinese,m,3,0.3,40.6572625,0.54790015
LYZ,99,1,2024-06-14T04:56:27.229Z,english_471.wav,0,1,1292,21,4,chinese,m,4,0.32341667,-18.6332399,1.33029013
LYZ,100,2,2024-06-14T05:02:02.312Z,english_713.wav,0,1,1093,21,4,chinese,m,0,0,18.77281956,1.04868626
LYZ,100,2,2024-06-14T05:02:02.312Z,english_713.wav,0,1,1093,21,4,chinese,m,1,0.1,40.78610286,0.48332939
LYZ,100,2,2024-06-14T05:02:02.312Z,english_713.wav,0,1,1093,21,4,chinese,m,2,0.2,84.18153491,0.83217717
LYZ,100,2,2024-06-14T05:02:02.312Z,english_713.wav,0,1,1093,21,4,chinese,m,3,0.3,47.00827256,1.90318663
LYZ,100,2,2024-06-14T05:02:02.312Z,english_713.wav,0,1,1093,21,4,chinese,m,4,0.32341667,66.01008384,0.50055362
LYZ,101,2,2024-06-14T05:02:02.312Z,english_873.wav,0,1,1307,21,4,chinese,m,0,0,85.43762199,1.00056931
LYZ,101,2,2024-06-14T05:02:02.312Z,english_873.wav,0,1,1307,21,4,chinese,m,1,0.1,-27.24751419,0.47504393
LYZ,101,2,2024-06-14T05:02:02.312Z,english_873.wav,0,1,1307,21,4,chinese,m,2,0.2,-8.79829555,0.788147
LYZ,101,2,2024-06-14T05:02:02.312Z,english_873.wav,0,1,1307,21,4,chinese,m,3,0.3,-97.88620301,0.64075463
LYZ,101,2,2024-06-14T05:02:02.312Z,english_873.wav,0,1,1307,21,4,chinese,m,4,0.32341667,49.57089273,0.87603086
LYZ,102,2,2024-06-14T05:02:02.312Z,english_416.wav,0,1,851,21,4,chinese,m,0,0,26.92040942,0.66708871
LYZ,102,2,2024-06-14T05:02:02.312Z,english_416.wav,0,1,851,21,4,chinese,m,1,0.1,32.98463782,0.46140785
LYZ,102,2,2024-06-14T05:02:02.312Z,english_416.wav,0,1,851,21,4,chinese,m,2,0.2,94.30298269,0.4311344
LYZ,102,2,2024-06-14T05:02:02.312Z,english_416.wav,0,1,851,21,4,chinese,m,3,0.3,71.4008894,0.4522554
LYZ,102,2,2024-06-14T05:02:02.312Z,english_416.wav,0,1,851,21,4,chinese,m,4,0.32341667,-13.61584313,0.23817019
LYZ,103,2,2024-06-14T05:02:02.312Z,english_834.wav,0,1,976,21,4,chinese,m,0,0,-64.94927172,0.98752234
LYZ,103,2,2024-06-14T05:02:02.312Z,english_834.wav,0,1,976,21,4,chinese,m,1,0.1,49.61052881,1.31122352
LYZ,103,2,2024-06-14T05:02:02.312Z,english_834.wav,0,1,976,21,4,chinese,m,2,0.2,-25.04715585,0.09065599
LYZ,103,2,2024-06-14T05:02:02.312Z,english_834.wav,0,1,976,21,4,chinese,m,3,0.3,95.09819394,1.07854905
LYZ,103,2,2024-06-14T05:02:02.312Z,english_834.wav,0,1,976,21,4,chinese,m,4,0.32341667,84.16953653,1.76453498
LYZ,104,2,2024-06-14T05:02:02.312Z,english_548.wav,0,1,502,21,4,chinese,m,0,0,19.39315344,0.41811488
LYZ,104,2,2024-06-14T05:02:02.312Z,english_548.wav,0,1,502,21,4,chinese,m,1,0.1,82.09582914,1.70384437
LYZ,104,2,2024-06-14T05:02:02.312Z,english_548.wav,0,1,502,21,4,chinese,m,2,0.2,-65.55781301,1.82142436
LYZ,104,2,2024-06-14T05:02:02.312Z,english_548.wav,0,1,502,21,4,chinese,m,3,0.3,-5.02691035,1.13784798
LYZ,104,2,2024-06-14T05:02:02.312Z,english_548.wav,0,1,502,21,4,chinese,m,4,0.32341667,62.63141303,1.73168063
LYZ,105,2,2024-06-14T05:02:02.312Z,english_845.wav,0,1,3328,21,4,chinese,m,0,0,-39.21264236,0.82761504
LYZ,105,2,2024-06-14T05:02:02.312Z,english_845.wav,0,1,3328,21,4,chinese,m,1,0.1,99.78041888,0.53375751
LYZ,105,2,2024-06-14T05:02:02.312Z,english_845.wav,0,1,3328,21,4,chinese,m,2,0.2,-59.29104422,1.24236426
LYZ,105,2,2024-06-14T05:02:02.312Z,english_845.wav,0,1,3328,21,4,chinese,m,3,0.3,57.0409613,1.27736464
LYZ,105,2,2024-06-14T05:02:02.312Z,english_845.wav,0,1,3328,21,4,chinese,m,4,0.32341667,-93.6361214,0.79024728
LYZ,106,2,2024-06-14T05:02:02.312Z,english_692.wav,0,0,651,21,4,chinese,m,0,0,-29.13306787,0.55849531
LYZ,106,2,2024-06-14T05:02:02.312Z,english_692.wav,0,0,651,21,4,chinese,m,1,0.1,-41.86406343,1.96517265
LYZ,106,2,2024-06-14T05:02:02.312Z,english_692.wav,0,0,651,21,4,chinese,m,2,0.2,-94.94051661,0.19953253
LYZ,106,2,2024-06-14T05:02:02.312Z,english_692.wav,0,0,651,21,4,chinese,m,3,0.3,78.40426091,1.89357941
LYZ,106,2,2024-06-14T05:02:02.312Z,english_692.wav,0,0,651,21,4,chinese,m,4,0.32341667,-47.11562344,1.37874109
LYZ,107,2,2024-06-14T05:02:02.312Z,english_876.wav,0,1,928,21,4,chinese,m,0,0,-20.36884991,0.97958319
LYZ,107,2,2024-06-14T05:02:02.312Z,english_876.wav,0,1,928,21,4,chinese,m,1,0.1,-12.16725052,0.93484439
LYZ,107,2,2024-06-14T05:02:02.312Z,english_876.wav,0,1,928,21,4,chinese,m,2,0.2,-26.42868614,0.43422731
LYZ,107,2,2024-06-14T05:02:02.312Z,english_876.wav,0,1,928,21,4,chinese,m,3,0.3,-15.16942384,0.12359811
LYZ,107,2,2024-06-14T05:02:02.312Z,english_876.wav,0,1,928,21,4,chinese,m,4,0.32341667,-52.65446315,1.31629037
LYZ,108,2,2024-06-14T05:02:02.312Z,english_228.wav,0,0,780,21,4,chinese,m,0,0,10.35680964,1.81276751
LYZ,108,2,2024-06-14T05:02:02.312Z,english_228.wav,0,0,780,21,4,chinese,m,1,0.1,-84.53961792,0.9819477
LYZ,108,2,2024-06-14T05:02:02.312Z,english_228.wav,0,0,780,21,4,chinese,m,2,0.2,38.41788342,1.68506606
LYZ,108,2,2024-06-14T05:02:02.312Z,english_228.wav,0,0,780,21,4,chinese,m,3,0.3,-9.18015311,0.19219142
LYZ,108,2,2024-06-14T05:02:02.312Z,english_228.wav,0,0,780,21,4,chinese,m,4,0.32341667,-12.25744947,1.99636764
LYZ,109,2,2024-06-14T05:02:02.312Z,english_722.wav,0,1,1166,21,4,chinese,m,0,0,56.33358757,0.09194264
LYZ,109,2,2024-06-14T05:02:02.312Z,english_722.wav,0,1,1166,21,4,chinese,m,1,0.1,-63.11389498,1.89550133
LYZ,109,2,2024-06-14T05:02:02.312Z,english_722.wav,0,1,1166,21,4,chinese,m,2,0.2,65.64746862,0.18403216
LYZ,109,2,2024-06-14T05:02:02.312Z,english_722.wav,0,1,1166,21,4,chinese,m,3,0.3,-93.10605514,1.23223326
LYZ,109,2,2024-06-14T05:02:02.312Z,english_722.wav,0,1,1166,21,4,chinese,m,4,0.32341667,-45.92743551,0.28331892
LYZ,110,2,2024-06-14T05:02:02.312Z,english_53.wav,0,1,2592,21,4,chinese,m,0,0,5.97237457,0.42230306
LYZ,110,2,2024-06-14T05:02:02.312Z,english_53.wav,0,1,2592,21,4,chinese,m,1,0.1,-76.12131912,0.60624646
LYZ,110,2,2024-06-14T05:02:02.312Z,english_53.wav,0,1,2592,21,4,chinese,m,2,0.2,55.18337216,0.26369256
LYZ,110,2,2024-06-14T05:02:02.312Z,english_53.wav,0,1,2592,21,4,chinese,m,3,0.3,70.32610425,1.07400525
LYZ,110,2,2024-06-14T05:02:02.312Z,english_53.wav,0,1,2592,21,4,chinese,m,4,0.32341667,26.40450832,0.2721545
LYZ,111,2,2024-06-14T05:04:07.913Z,english_610.wav,0,1,1712,21,4,chinese,m,0,0,-14.96432812,0.5672697
LYZ,111,2,2024-06-14T05:04:07.913Z,english_610.wav,0,1,1712,21,4,chinese,m,1,0.1,48.51886955,0.75156182
LYZ,111,2,2024-06-14T05:04:07.913Z,english_610.wav,0,1,1712,21,4,chinese,m,2,0.2,47.07358548,0.38846335
LYZ,111,2,2024-06-14T05:04:07.913Z,english_610.wav,0,1,1712,21,4,chinese,m,3,0.3,17.30383174,1.52072292
LYZ,111,2,2024-06-14T05:04:07.913Z,english_610.wav,0,1,1712,21,4,chinese,m,4,0.32341667,1.51764356,1.56024836
LYZ,112,2,2024-06-14T05:04:07.913Z,english_902.wav,0,1,1287,21,4,chinese,m,0,0,-4.27617126,0.16330526
LYZ,112,2,2024-06-14T05:04:07.913Z,english_902.wav,0,1,1287,21,4,chinese,m,1,0.1,-5.01127315,0.62492789
LYZ,112,2,2024-06-14T05:04:07.913Z,english_902.wav,0,1,1287,21,4,chinese,m,2,0.2,83.22080084,1.08638924
LYZ,112,2,2024-06-14T05:04:07.913Z,english_902.wav,0,1,1287,21,4,chinese,m,3,0.3,77.56473772,1.61764227
LYZ,112,2,2024-06-14T05:04:07.913Z,english_902.wav,0,1,1287,21,4,chinese,m,4,0.32341667,-13.02741535,1.72075309
LYZ,113,2,2024-06-14T05:04:07.913Z,english_809.wav,0,1,458,21,4,chinese,m,0,0,-9.08149959,0.73203403
LYZ,113,2,2024-06-14T05:04:07.913Z,english_809.wav,0,1,458,21,4,chinese,m,1,0.1,12.16544582,0.53159531
LYZ,113,2,2024-06-14T05:04:07.913Z,english_809.wav,0,1,458,21,4,chinese,m,2,0.2,40.52205867,1.48114639
LYZ,113,2,2024-06-14T05:04:07.913Z,english_809.wav,0,1,458,21,4,chinese,m,3,0.3,-94.19679153,1.77078339
LYZ,113,2,2024-06-14T05:04:07.913Z,english_809.wav,0,1,458,21,4,chinese,m,4,0.32341667,-5.82752377,1.36117577
LYZ,114,2,2024-06-14T05:04:07.913Z,english_862.wav,0,1,957,21,4,chinese,m,0,0,97.17644144,0.51253178
LYZ,114,2,2024-06-14T05:04:07.913Z,english_862.wav,0,1,957,21,4,chinese,m,1,0.1,26.34966999,0.21080737
LYZ,114,2,2024-06-14T05:04:07.913Z,english_862.wav,0,1,957,21,4,chinese,m,2,0.2,-21.73584106,0.27401534
LYZ,114,2,2024-06-14T05:04:07.913Z,english_862.wav,0,1,957,21,4,chinese,m,3,0.3,70.49109419,1.91980484
LYZ,114,2,2024-06-14T05:04:07.913Z,english_862.wav,0,1,957,21,4,chinese,m,4,0.32341667,43.48373212,0.96077188
LYZ,115,2,2024-06-14T05:04:07.913Z,english_926.wav,0,1,3836,21,4,chinese,m,0,0,-21.84910749,1.63725542
LYZ,115,2,2024-06-14T05:04:07.913Z,english_926.wav,0,1,3836,21,4,chinese,m,1,0.1,92.62617727,0.91190035
LYZ,115,2,2024-06-14T05:04:07.913Z,english_926.wav,0,1,3836,21,4,chinese,m,2,0.2,-40.07927874,0.45967153
LYZ,115,2,2024-06-14T05:04:07.913Z,english_926.wav,0,1,3836,21,4,chinese,m,3,0.3,30.58508574,0.64362954
LYZ,115,2,2024-06-14T05:04:07.913Z,english_926.wav,0,1,3836,21,4,chinese,m,4,0.32341667,-68.98646438,1.44788087
LYZ,116,2,2024-06-14T05:04:07.913Z,english_262.wav,0,0,1643,21,4,chinese,m,0,0,-55.0240476,0.91992097
LYZ,116,2,2024-06-14T05:04:07.913Z,english_262.wav,0,0,1643,21,4,chinese,m,1,0.1,46.31562141,0.94194362
LYZ,116,2,2024-06-14T05:04:07.913Z,english_262.wav,0,0,1643,21,4,chinese,m,2,0.2,62.5855756,1.80305422
LYZ,116,2,2024-06-14T05:04:07.913Z,english_262.wav,0,0,1643,21,4,chinese,m,3,0.3,-4.25909078,0.51544707
LYZ,116,2,2024-06-14T05:04:07.913Z,english_262.wav,0,0,1643,21,4,chinese,m,4,0.32341667,16.27030636,1.47198659
LYZ,117,2,2024-06-14T05:04:07.913Z,english_827.wav,0,1,1117,21,4,chinese,m,0,0,-49.24128803,1.70838213
LYZ,117,2,2024-06-14T05:04:07.913Z,english_827.wav,0,1,1117,21,4,chinese,m,1,0.1,62.6158679,0.88048656
LYZ,117,2,2024-06-14T05:04:07.913Z,english_827.wav,0,1,1117,21,4,chinese,m,2,0.2,-85.72053716,1.47530841
LYZ,117,2,2024-06-14T05:04:07.913Z,english_827.wav,0,1,1117,21,4,chinese,m,3,0.3,-65.54354982,0.04991031
LYZ,117,2,2024-06-14T05:04:07.913Z,english_827.wav,0,1,1117,21,4,chinese,m,4,0.32341667,-42.30235352,0.1531298
LYZ,118,2,2024-06-14T05:04:07.913Z,english_318.wav,0,1,866,21,4,chinese,m,0,0,40.16064427,0.11467793
LYZ,118,2,2024-06-14T05:04:07.913Z,english_318.wav,0,1,866,21,4,chinese,m,1,0.1,-52.58874178,0.6224104
LYZ,118,2,2024-06-14T05:04:07.913Z,english_318.wav,0,1,866,21,4,chinese,m,2,0.2,46.7653316,0.05328619
LYZ,118,2,2024-06-14T05:04:07.913Z,english_318.wav,0,1,866,21,4,chinese,m,3,0.3,-41.44559589,0.01138238
LYZ,118,2,2024-06-14T05:04:07.913Z,english_318.wav,0,1,866,21,4,chinese,m,4,0.32341667,-2.50443948,1.16020285
LYZ,119,2,2024-06-14T05:04:07.913Z,english_107.wav,0,1,1006,21,4,chinese,m,0,0,-19.24931684,0.69122185
LYZ,119,2,2024-06-14T05:04:07.913Z,english_107.wav,0,1,1006,21,4,chinese,m,1,0.1,24.04874113,0.13674094
LYZ,119,2,2024-06-14T05:04:07.913Z,english_107.wav,0,1,1006,21,4,chinese,m,2,0.2,59.01955179,1.47608642
LYZ,119,2,2024-06-14T05:04:07.913Z,english_107.wav,0,1,1006,21,4,chinese,m,3,0.3,49.74315823,1.52525824
LYZ,119,2,2024-06-14T05:04:07.913Z,english_107.wav,0,1,1006,21,4,chinese,m,4,0.32341667,-75.23844627,0.11985114
LYZ,120,2,2024-06-14T05:04:07.913Z,english_694.wav,0,1,923,21,4,chinese,m,0,0,-79.88370205,0.99496101
LYZ,120,2,2024-06-14T05:04:07.913Z,english_694.wav,0,1,923,21,4,chinese,m,1,0.1,-58.02841319,0.06406007
LYZ,120,2,2024-06-14T05:04:07.913Z,english_694.wav,0,1,923,21,4,chinese,m,2,0.2,-50.54988317,0.5055253
LYZ,120,2,2024-06-14T05:04:07.913Z,english_694.wav,0,1,923,21,4,chinese,m,3,0.3,-20.79864769,0.19498426
LYZ,120,2,2024-06-14T05:04:07.913Z,english_694.wav,0,1,923,21,4,chinese,m,4,0.32341667,-73.64916114,0.36410653
LYZ,121,2,2024-06-14T05:04:07.913Z,english_1.wav,0,1,1427,21,4,chinese,m,0,0,53.99031816,1.91732561
LYZ,121,2,2024-06-14T05:04:07.913Z,english_1.wav,0,1,1427,21,4,chinese,m,1,0.1,-58.32145174,0.75352701
LYZ,121,2,2024-06-14T05:04:07.913Z,english_1.wav,0,1,1427,21,4,chinese,m,2,0.2,-86.75659624,1.40297919
LYZ,121,2,2024-06-14T05:04:07.913Z,english_1.wav,0,1,1427,21,4,chinese,m,3,0.3,-31.84945767,0.12157709
LYZ,121,2,2024-06-14T05:04:07.913Z,english_1.wav,0,1,1427,21,4,chinese,m,4,0.32341667,-59.21997754,1.57687546
LYZ,122,2,2024-06-14T05:04:07.913Z,english_396.wav,0,1,1177,21,4,chinese,m,0,0,2.39126912,1.48231007
LYZ,122,2,2024-06-14T05:04:07.913Z,english_396.wav,0,1,1177,21,4,chinese,m,1,0.1,-38.95035948,0.85829723
LYZ,122,2,2024-06-14T05:04:07.913Z,english_396.wav,0,1,1177,21,4,chinese,m,2,0.2,78.31320688,1.16655306
LYZ,122,2,2024-06-14T05:04:07.913Z,english_396.wav,0,1,1177,21,4,chinese,m,3,0.3,16.98024706,0.51680164
LYZ,122,2,2024-06-14T05:04:07.913Z,english_396.wav,0,1,1177,21,4,chinese,m,4,0.32341667,44.66397079,1.5133775
LYZ,123,2,2024-06-14T05:04:07.913Z,english_330.wav,0,1,1513,21,4,chinese,m,0,0,-66.0623823,1.84658225
LYZ,123,2,2024-06-14T05:04:07.913Z,english_330.wav,0,1,1513,21,4,chinese,m,1,0.1,-90.7862333,0.94726644
LYZ,123,2,2024-06-14T05:04:07.913Z,english_330.wav,0,1,1513,21,4,chinese,m,2,0.2,-0.00810713819,1.52006519
LYZ,123,2,2024-06-14T05:04:07.913Z,english_330.wav,0,1,1513,21,4,chinese,m,3,0.3,-61.2450651,1.63286843
LYZ,123,2,2024-06-14T05:04:07.913Z,english_330.wav,0,1,1513,21,4,chinese,m,4,0.323416667,-0.344586516,1.74173618
LYZ,124,2,2024-06-14T05:04:07.913Z,english_213.wav,0,1,1875,21,4,chinese,m,0,0,-29.91874444,1.42031243
LYZ,124,2,2024-06-14T05:04:07.913Z,english_213.wav,0,1,1875,21,4,chinese,m,1,0.1,41.64704809,0.59218852
LYZ,124,2,2024-06-14T05:04:07.913Z,english_213.wav,0,1,1875,21,4,chinese,m,2,0.2,-87.11075848,1.10576613
LYZ,124,2,2024-06-14T05:04:07.913Z,english_213.wav,0,1,1875,21,4,chinese,m,3,0.3,-61.54877495,0.09529021
LYZ,124,2,2024-06-14T05:04:07.913Z,english_213.wav,0,1,1875,21,4,chinese,m,4,0.32341667,-34.29429643,1.15583312
LYZ,125,2,2024-06-14T05:04:07.913Z,english_438.wav,0,1,1344,21,4,chinese,m,0,0,31.75305261,1.38451981
LYZ,125,2,2024-06-14T05:04:07.913Z,english_438.wav,0,1,1344,21,4,chinese,m,1,0.1,20.27112767,1.99020027
LYZ,125,2,2024-06-14T05:04:07.913Z,english_438.wav,0,1,1344,21,4,chinese,m,2,0.2,66.65258945,0.15645945
LYZ,125,2,2024-06-14T05:04:07.913Z,english_438.wav,0,1,1344,21,4,chinese,m,3,0.3,70.72003494,1.37678514
LYZ,125,2,2024-06-14T05:04:07.913Z,english_438.wav,0,1,1344,21,4,chinese,m,4,0.32341667,59.11013505,0.82730153
LYZ,126,2,2024-06-14T05:04:07.913Z,english_163.wav,0,1,999,21,4,chinese,m,0,0,-28.85321754,1.43434597
LYZ,126,2,2024-06-14T05:04:07.913Z,english_163.wav,0,1,999,21,4,chinese,m,1,0.1,9.37410395,1.75766865
LYZ,126,2,2024-06-14T05:04:07.913Z,english_163.wav,0,1,999,21,4,chinese,m,2,0.2,-43.22266742,0.90391943
LYZ,126,2,2024-06-14T05:04:07.913Z,english_163.wav,0,1,999,21,4,chinese,m,3,0.3,48.63715122,1.21743426
LYZ,126,2,2024-06-14T05:04:07.913Z,english_163.wav,0,1,999,21,4,chinese,m,4,0.32341667,-94.22333204,1.8516503
LYZ,127,2,2024-06-14T05:04:07.913Z,english_567.wav,0,1,6505,21,4,chinese,m,0,0,26.28994663,0.43358591
LYZ,127,2,2024-06-14T05:04:07.913Z,english_567.wav,0,1,6505,21,4,chinese,m,1,0.1,-84.76959918,0.96759171
LYZ,127,2,2024-06-14T05:04:07.913Z,english_567.wav,0,1,6505,21,4,chinese,m,2,0.2,-17.21635209,0.27115372
LYZ,127,2,2024-06-14T05:04:07.913Z,english_567.wav,0,1,6505,21,4,chinese,m,3,0.3,-93.28005251,1.2000135
LYZ,127,2,2024-06-14T05:04:07.913Z,english_567.wav,0,1,6505,21,4,chinese,m,4,0.32341667,55.01605665,1.11881456
LYZ,128,2,2024-06-14T05:04:07.913Z,english_973.wav,0,1,2121,21,4,chinese,m,0,0,67.86183821,1.19015671
LYZ,128,2,2024-06-14T05:04:07.913Z,english_973.wav,0,1,2121,21,4,chinese,m,1,0.1,19.68291271,0.58574514
LYZ,128,2,2024-06-14T05:04:07.913Z,english_973.wav,0,1,2121,21,4,chinese,m,2,0.2,97.35795082,0.11672587
LYZ,128,2,2024-06-14T05:04:07.913Z,english_973.wav,0,1,2121,21,4,chinese,m,3,0.3,-17.83494635,0.43523095
LYZ,128,2,2024-06-14T05:04:07.913Z,english_973.wav,0,1,2121,21,4,chinese,m,4,0.32341667,-53.451809,1.74630461
LYZ,129,2,2024-06-14T05:04:07.913Z,english_891.wav,0,1,1372,21,4,chinese,m,0,0,21.29241244,0.7419472
LYZ,129,2,2024-06-14T05:04:07.913Z,english_891.wav,0,1,1372,21,4,chinese,m,1,0.1,-1.23713702,1.09270952
LYZ,129,2,2024-06-14T05:04:07.913Z,english_891.wav,0,1,1372,21,4,chinese,m,2,0.2,-74.86460599,0.8129571
LYZ,129,2,2024-06-14T05:04:07.913Z,english_891.wav,0,1,1372,21,4,chinese,m,3,0.3,18.81587233,0.16019775
LYZ,129,2,2024-06-14T05:04:07.913Z,english_891.wav,0,1,1372,21,4,chinese,m,4,0.32341667,35.3489582,1.17476401
LYZ,130,2,2024-06-14T05:04:07.913Z,english_65.wav,0,1,1251,21,4,chinese,m,0,0,-46.88015867,0.62230507
LYZ,130,2,2024-06-14T05:04:07.913Z,english_65.wav,0,1,1251,21,4,chinese,m,1,0.1,54.34027197,1.12355997
LYZ,130,2,2024-06-14T05:04:07.913Z,english_65.wav,0,1,1251,21,4,chinese,m,2,0.2,-65.46386729,1.0507031
LYZ,130,2,2024-06-14T05:04:07.913Z,english_65.wav,0,1,1251,21,4,chinese,m,3,0.3,-66.7533487,0.71238348
LYZ,130,2,2024-06-14T05:04:07.913Z,english_65.wav,0,1,1251,21,4,chinese,m,4,0.32341667,-12.18147599,0.41048607
LYZ,131,2,2024-06-14T05:04:07.913Z,english_403.wav,0,1,895,21,4,chinese,m,0,0,-92.65414009,1.93574734
LYZ,131,2,2024-06-14T05:04:07.913Z,english_403.wav,0,1,895,21,4,chinese,m,1,0.1,75.99659731,0.36447309
LYZ,131,2,2024-06-14T05:04:07.913Z,english_403.wav,0,1,895,21,4,chinese,m,2,0.2,-27.37801557,1.02888701
LYZ,131,2,2024-06-14T05:04:07.913Z,english_403.wav,0,1,895,21,4,chinese,m,3,0.3,-80.04540334,0.02385722
LYZ,131,2,2024-06-14T05:04:07.913Z,english_403.wav,0,1,895,21,4,chinese,m,4,0.32341667,30.50648557,1.40553938
LYZ,132,2,2024-06-14T05:04:07.913Z,english_518.wav,0,1,906,21,4,chinese,m,0,0,52.37511869,0.23824141
LYZ,132,2,2024-06-14T05:04:07.913Z,english_518.wav,0,1,906,21,4,chinese,m,1,0.1,-33.3490586,0.80559068
LYZ,132,2,2024-06-14T05:04:07.913Z,english_518.wav,0,1,906,21,4,chinese,m,2,0.2,-71.20035434,1.24725456
LYZ,132,2,2024-06-14T05:04:07.913Z,english_518.wav,0,1,906,21,4,chinese,m,3,0.3,6.23243823,1.01334401
LYZ,132,2,2024-06-14T05:04:07.913Z,english_518.wav,0,1,906,21,4,chinese,m,4,0.32341667,-29.48660546,1.51264586
LYZ,133,2,2024-06-14T05:04:07.913Z,english_306.wav,0,1,2483,21,4,chinese,m,0,0,-78.46406697,1.96625377
LYZ,133,2,2024-06-14T05:04:07.913Z,english_306.wav,0,1,2483,21,4,chinese,m,1,0.1,-60.64765069,1.9128761
LYZ,133,2,2024-06-14T05:04:07.913Z,english_306.wav,0,1,2483,21,4,chinese,m,2,0.2,41.654101,0.92284414
LYZ,133,2,2024-06-14T05:04:07.913Z,english_306.wav,0,1,2483,21,4,chinese,m,3,0.3,58.45609749,1.12546267
LYZ,133,2,2024-06-14T05:04:07.913Z,english_306.wav,0,1,2483,21,4,chinese,m,4,0.32341667,-89.32145871,0.77622038
LYZ,134,2,2024-06-14T05:04:07.913Z,english_377.wav,0,1,901,21,4,chinese,m,0,0,74.10679581,1.90218841
LYZ,134,2,2024-06-14T05:04:07.913Z,english_377.wav,0,1,901,21,4,chinese,m,1,0.1,-97.36412995,1.60160035
LYZ,134,2,2024-06-14T05:04:07.913Z,english_377.wav,0,1,901,21,4,chinese,m,2,0.2,-84.25672888,1.668912
LYZ,134,2,2024-06-14T05:04:07.913Z,english_377.wav,0,1,901,21,4,chinese,m,3,0.3,27.09308902,1.51590505
LYZ,134,2,2024-06-14T05:04:07.913Z,english_377.wav,0,1,901,21,4,chinese,m,4,0.32341667,-12.33253686,0.99909344
LYZ,135,2,2024-06-14T05:04:07.913Z,english_106.wav,0,1,931,21,4,chinese,m,0,0,-46.25200282,0.21046793
LYZ,135,2,2024-06-14T05:04:07.913Z,english_106.wav,0,1,931,21,4,chinese,m,1,0.1,-83.38564728,1.42142181
LYZ,135,2,2024-06-14T05:04:07.913Z,english_106.wav,0,1,931,21,4,chinese,m,2,0.2,68.00501759,0.86156936
LYZ,135,2,2024-06-14T05:04:07.913Z,english_106.wav,0,1,931,21,4,chinese,m,3,0.3,49.15199267,0.65348811
LYZ,135,2,2024-06-14T05:04:07.913Z,english_106.wav,0,1,931,21,4,chinese,m,4,0.32341667,-5.93966373,0.76273979
LYZ,136,2,2024-06-14T05:04:07.913Z,english_504.wav,0,0,3423,21,4,chinese,m,0,0,4.11468456,0.75379057
LYZ,136,2,2024-06-14T05:04:07.913Z,english_504.wav,0,0,3423,21,4,chinese,m,1,0.1,70.56620437,1.18348717
LYZ,136,2,2024-06-14T05:04:07.913Z,english_504.wav,0,0,3423,21,4,chinese,m,2,0.2,3.26767498,0.25360202
LYZ,136,2,2024-06-14T05:04:07.913Z,english_504.wav,0,0,3423,21,4,chinese,m,3,0.3,-3.14493553,1.87094491
LYZ,136,2,2024-06-14T05:04:07.913Z,english_504.wav,0,0,3423,21,4,chinese,m,4,0.32341667,43.57926014,0.110125
LYZ,137,2,2024-06-14T05:04:07.913Z,english_982.wav,0,1,2421,21,4,chinese,m,0,0,12.44046596,0.81508625
LYZ,137,2,2024-06-14T05:04:07.913Z,english_982.wav,0,1,2421,21,4,chinese,m,1,0.1,-60.41666302,0.92712357
LYZ,137,2,2024-06-14T05:04:07.913Z,english_982.wav,0,1,2421,21,4,chinese,m,2,0.2,-35.31499742,0.77678916
LYZ,137,2,2024-06-14T05:04:07.913Z,english_982.wav,0,1,2421,21,4,chinese,m,3,0.3,-10.96739076,1.0294352
LYZ,137,2,2024-06-14T05:04:07.913Z,english_982.wav,0,1,2421,21,4,chinese,m,4,0.32341667,44.50624474,1.1322674
LYZ,138,2,2024-06-14T05:04:07.913Z,english_967.wav,0,1,1119,21,4,chinese,m,0,0,-33.19777689,0.76720641
LYZ,138,2,2024-06-14T05:04:07.913Z,english_967.wav,0,1,1119,21,4,chinese,m,1,0.1,83.84847924,1.4094361
LYZ,138,2,2024-06-14T05:04:07.913Z,english_967.wav,0,1,1119,21,4,chinese,m,2,0.2,81.27362124,0.74435637
LYZ,138,2,2024-06-14T05:04:07.913Z,english_967.wav,0,1,1119,21,4,chinese,m,3,0.3,22.78466805,0.29904584
LYZ,138,2,2024-06-14T05:04:07.913Z,english_967.wav,0,1,1119,21,4,chinese,m,4,0.32341667,16.56894366,0.47687807
LYZ,139,2,2024-06-14T05:04:07.913Z,english_799.wav,0,1,1553,21,4,chinese,m,0,0,-48.4958847,1.9233431
LYZ,139,2,2024-06-14T05:04:07.913Z,english_799.wav,0,1,1553,21,4,chinese,m,1,0.1,-9.52866418,1.11542891
LYZ,139,2,2024-06-14T05:04:07.913Z,english_799.wav,0,1,1553,21,4,chinese,m,2,0.2,1.94176449,0.95865462
LYZ,139,2,2024-06-14T05:04:07.913Z,english_799.wav,0,1,1553,21,4,chinese,m,3,0.3,5.71676827,0.6616034
LYZ,139,2,2024-06-14T05:04:07.913Z,english_799.wav,0,1,1553,21,4,chinese,m,4,0.32341667,30.27282792,1.91183458
LYZ,140,2,2024-06-14T05:04:07.913Z,english_715.wav,0,1,844,21,4,chinese,m,0,0,-64.21420564,1.80154013
LYZ,140,2,2024-06-14T05:04:07.913Z,english_715.wav,0,1,844,21,4,chinese,m,1,0.1,77.40813629,0.51096517
LYZ,140,2,2024-06-14T05:04:07.913Z,english_715.wav,0,1,844,21,4,chinese,m,2,0.2,-98.26791609,0.49870215
LYZ,140,2,2024-06-14T05:04:07.913Z,english_715.wav,0,1,844,21,4,chinese,m,3,0.3,-32.66334796,0.64344691
LYZ,140,2,2024-06-14T05:04:07.913Z,english_715.wav,0,1,844,21,4,chinese,m,4,0.32341667,93.12500574,1.17662216
LYZ,141,2,2024-06-14T05:04:07.913Z,english_199.wav,0,0,895,21,4,chinese,m,0,0,-24.89956817,0.07306367
LYZ,141,2,2024-06-14T05:04:07.913Z,english_199.wav,0,0,895,21,4,chinese,m,1,0.1,-48.49200931,0.10334581
LYZ,141,2,2024-06-14T05:04:07.913Z,english_199.wav,0,0,895,21,4,chinese,m,2,0.2,-89.66548778,1.49062114
LYZ,141,2,2024-06-14T05:04:07.913Z,english_199.wav,0,0,895,21,4,chinese,m,3,0.3,29.20785813,0.36717513
LYZ,141,2,2024-06-14T05:04:07.913Z,english_199.wav,0,0,895,21,4,chinese,m,4,0.32341667,-88.68286362,1.33179809
LYZ,142,2,2024-06-14T05:04:07.913Z,english_418.wav,0,1,1223,21,4,chinese,m,0,0,-7.92859899,0.20369216
LYZ,142,2,2024-06-14T05:04:07.913Z,english_418.wav,0,1,1223,21,4,chinese,m,1,0.1,10.19863107,0.15242613
LYZ,142,2,2024-06-14T05:04:07.913Z,english_418.wav,0,1,1223,21,4,chinese,m,2,0.2,-44.82770696,0.77695319
LYZ,142,2,2024-06-14T05:04:07.913Z,english_418.wav,0,1,1223,21,4,chinese,m,3,0.3,-80.4141896,0.71786342
LYZ,142,2,2024-06-14T05:04:07.913Z,english_418.wav,0,1,1223,21,4,chinese,m,4,0.32341667,32.43674468,1.20494416
LYZ,143,2,2024-06-14T05:04:07.913Z,english_758.wav,0,1,885,21,4,chinese,m,0,0,-56.29380511,1.72966744
LYZ,143,2,2024-06-14T05:04:07.913Z,english_758.wav,0,1,885,21,4,chinese,m,1,0.1,1.29517397,1.20455484
LYZ,143,2,2024-06-14T05:04:07.913Z,english_758.wav,0,1,885,21,4,chinese,m,2,0.2,49.77366466,0.98441853
LYZ,143,2,2024-06-14T05:04:07.913Z,english_758.wav,0,1,885,21,4,chinese,m,3,0.3,51.49077837,0.78323536
LYZ,143,2,2024-06-14T05:04:07.913Z,english_758.wav,0,1,885,21,4,chinese,m,4,0.32341667,80.19813303,1.88107652
LYZ,144,2,2024-06-14T05:04:07.913Z,english_947.wav,0,1,8945,21,4,chinese,m,0,0,73.13113362,0.1925557
LYZ,144,2,2024-06-14T05:04:07.913Z,english_947.wav,0,1,8945,21,4,chinese,m,1,0.1,-55.13077299,1.89478059
LYZ,144,2,2024-06-14T05:04:07.913Z,english_947.wav,0,1,8945,21,4,chinese,m,2,0.2,59.32217849,0.99662771
LYZ,144,2,2024-06-14T05:04:07.913Z,english_947.wav,0,1,8945,21,4,chinese,m,3,0.3,-71.25946194,0.61263341
LYZ,144,2,2024-06-14T05:04:07.913Z,english_947.wav,0,1,8945,21,4,chinese,m,4,0.32341667,39.2274254,0.46373334
LYZ,145,2,2024-06-14T05:04:07.913Z,english_104.wav,0,0,3989,21,4,chinese,m,0,0,42.44693926,0.1741435
LYZ,145,2,2024-06-14T05:04:07.913Z,english_104.wav,0,0,3989,21,4,chinese,m,1,0.1,82.22484934,0.11379641
LYZ,145,2,2024-06-14T05:04:07.913Z,english_104.wav,0,0,3989,21,4,chinese,m,2,0.2,7.21737924,1.60376175
LYZ,145,2,2024-06-14T05:04:07.913Z,english_104.wav,0,0,3989,21,4,chinese,m,3,0.3,26.54640215,1.08059257
LYZ,145,2,2024-06-14T05:04:07.913Z,english_104.wav,0,0,3989,21,4,chinese,m,4,0.32341667,-33.4974026,1.8061622
LYZ,146,2,2024-06-14T05:04:07.913Z,english_338.wav,0,1,585,21,4,chinese,m,0,0,-22.40965878,1.93572195
LYZ,146,2,2024-06-14T05:04:07.913Z,english_338.wav,0,1,585,21,4,chinese,m,1,0.1,-10.16153496,1.78994992
LYZ,146,2,2024-06-14T05:04:07.913Z,english_338.wav,0,1,585,21,4,chinese,m,2,0.2,-50.2449588,1.38134059
LYZ,146,2,2024-06-14T05:04:07.913Z,english_338.wav,0,1,585,21,4,chinese,m,3,0.3,14.05674122,1.78462007
LYZ,146,2,2024-06-14T05:04:07.913Z,english_338.wav,0,1,585,21,4,chinese,m,4,0.32341667,-78.35339858,1.2607094
LYZ,147,2,2024-06-14T05:04:07.913Z,english_189.wav,0,1,595,21,4,chinese,m,0,0,-22.70456848,0.82906961
LYZ,147,2,2024-06-14T05:04:07.913Z,english_189.wav,0,1,595,21,4,chinese,m,1,0.1,-12.00888723,0.58408113
LYZ,147,2,2024-06-14T05:04:07.913Z,english_189.wav,0,1,595,21,4,chinese,m,2,0.2,15.14046376,0.19058783
LYZ,147,2,2024-06-14T05:04:07.913Z,english_189.wav,0,1,595,21,4,chinese,m,3,0.3,-19.30106293,0.57788611
LYZ,147,2,2024-06-14T05:04:07.913Z,english_189.wav,0,1,595,21,4,chinese,m,4,0.32341667,-20.57313834,0.32577637
LYZ,148,2,2024-06-14T05:04:07.913Z,english_32.wav,0,1,1036,21,4,chinese,m,0,0,89.50349963,1.73304916
LYZ,148,2,2024-06-14T05:04:07.913Z,english_32.wav,0,1,1036,21,4,chinese,m,1,0.1,51.51128255,0.02192789
LYZ,148,2,2024-06-14T05:04:07.913Z,english_32.wav,0,1,1036,21,4,chinese,m,2,0.2,-58.32910347,1.71493142
LYZ,148,2,2024-06-14T05:04:07.913Z,english_32.wav,0,1,1036,21,4,chinese,m,3,0.3,15.96172744,1.28451373
LYZ,148,2,2024-06-14T05:04:07.913Z,english_32.wav,0,1,1036,21,4,chinese,m,4,0.32341667,84.40449403,1.22971166
LYZ,149,2,2024-06-14T05:04:07.913Z,english_226.wav,0,1,686,21,4,chinese,m,0,0,-56.53605181,0.51185795
LYZ,149,2,2024-06-14T05:04:07.913Z,english_226.wav,0,1,686,21,4,chinese,m,1,0.1,-5.93547338,0.73377568
LYZ,149,2,2024-06-14T05:04:07.913Z,english_226.wav,0,1,686,21,4,chinese,m,2,0.2,-81.0596442,1.62034912
LYZ,149,2,2024-06-14T05:04:07.913Z,english_226.wav,0,1,686,21,4,chinese,m,3,0.3,-12.14261426,0.19474782
LYZ,149,2,2024-06-14T05:04:07.913Z,english_226.wav,0,1,686,21,4,chinese,m,4,0.32341667,40.67667876,0.1395898
LYZ,150,3,2024-06-14T05:08:21.028Z,english_431.wav,0,1,1388,21,4,chinese,m,0,0,-28.91437381,1.3282391
LYZ,150,3,2024-06-14T05:08:21.028Z,english_431.wav,0,1,1388,21,4,chinese,m,1,0.1,30.6479342,1.9405757
LYZ,150,3,2024-06-14T05:08:21.028Z,english_431.wav,0,1,1388,21,4,chinese,m,2,0.2,41.25713347,1.67607787
LYZ,150,3,2024-06-14T05:08:21.028Z,english_431.wav,0,1,1388,21,4,chinese,m,3,0.3,9.19018397,0.62213613
LYZ,150,3,2024-06-14T05:08:21.028Z,english_431.wav,0,1,1388,21,4,chinese,m,4,0.32341667,-61.77590044,0.50881411
LYZ,151,3,2024-06-14T05:08:21.028Z,english_273.wav,0,1,744,21,4,chinese,m,0,0,-44.98289573,1.94838534
LYZ,151,3,2024-06-14T05:08:21.028Z,english_273.wav,0,1,744,21,4,chinese,m,1,0.1,24.32546199,0.68888608
LYZ,151,3,2024-06-14T05:08:21.028Z,english_273.wav,0,1,744,21,4,chinese,m,2,0.2,61.84573583,1.95265796
LYZ,151,3,2024-06-14T05:08:21.028Z,english_273.wav,0,1,744,21,4,chinese,m,3,0.3,-1.88803465,1.62060328
LYZ,151,3,2024-06-14T05:08:21.028Z,english_273.wav,0,1,744,21,4,chinese,m,4,0.32341667,57.02125087,0.94638053
LYZ,152,3,2024-06-14T05:08:21.028Z,english_686.wav,0,1,911,21,4,chinese,m,0,0,-30.40223154,0.36787347
LYZ,152,3,2024-06-14T05:08:21.028Z,english_686.wav,0,1,911,21,4,chinese,m,1,0.1,40.30213926,1.54584144
LYZ,152,3,2024-06-14T05:08:21.028Z,english_686.wav,0,1,911,21,4,chinese,m,2,0.2,68.68183252,1.54645212
LYZ,152,3,2024-06-14T05:08:21.028Z,english_686.wav,0,1,911,21,4,chinese,m,3,0.3,82.36920372,1.04035585
LYZ,152,3,2024-06-14T05:08:21.028Z,english_686.wav,0,1,911,21,4,chinese,m,4,0.32341667,5.8000707,1.51520661
LYZ,153,3,2024-06-14T05:08:21.028Z,english_662.wav,0,1,3072,21,4,chinese,m,0,0,-34.20942979,0.58122658
LYZ,153,3,2024-06-14T05:08:21.028Z,english_662.wav,0,1,3072,21,4,chinese,m,1,0.1,-64.9220759,0.35407044
LYZ,153,3,2024-06-14T05:08:21.028Z,english_662.wav,0,1,3072,21,4,chinese,m,2,0.2,-46.13526655,1.02300599
LYZ,153,3,2024-06-14T05:08:21.028Z,english_662.wav,0,1,3072,21,4,chinese,m,3,0.3,16.61128262,0.09808433
LYZ,153,3,2024-06-14T05:08:21.028Z,english_662.wav,0,1,3072,21,4,chinese,m,4,0.32341667,-72.42442326,0.71975239
LYZ,154,3,2024-06-14T05:08:21.028Z,english_630.wav,0,1,1162,21,4,chinese,m,0,0,97.25925287,0.34607754
LYZ,154,3,2024-06-14T05:08:21.028Z,english_630.wav,0,1,1162,21,4,chinese,m,1,0.1,76.95662127,0.15996234
LYZ,154,3,2024-06-14T05:08:21.028Z,english_630.wav,0,1,1162,21,4,chinese,m,2,0.2,5.01423186,1.73874617
LYZ,154,3,2024-06-14T05:08:21.028Z,english_630.wav,0,1,1162,21,4,chinese,m,3,0.3,-27.88706711,0.41181915
LYZ,154,3,2024-06-14T05:08:21.028Z,english_630.wav,0,1,1162,21,4,chinese,m,4,0.32341667,90.69966072,0.77788697
LYZ,155,3,2024-06-14T05:08:21.028Z,english_650.wav,0,1,584,21,4,chinese,m,0,0,-14.34164867,1.10695192
LYZ,155,3,2024-06-14T05:08:21.028Z,english_650.wav,0,1,584,21,4,chinese,m,1,0.1,-59.47569919,1.2442548
LYZ,155,3,2024-06-14T05:08:21.028Z,english_650.wav,0,1,584,21,4,chinese,m,2,0.2,-47.0995584,0.31281267
LYZ,155,3,2024-06-14T05:08:21.028Z,english_650.wav,0,1,584,21,4,chinese,m,3,0.3,-55.25841156,1.9869399
LYZ,155,3,2024-06-14T05:08:21.028Z,english_650.wav,0,1,584,21,4,chinese,m,4,0.32341667,83.92345375,1.10607629
LYZ,156,3,2024-06-14T05:08:21.028Z,english_529.wav,0,1,584,21,4,chinese,m,0,0,13.90759343,0.83001961
LYZ,156,3,2024-06-14T05:08:21.028Z,english_529.wav,0,1,584,21,4,chinese,m,1,0.1,-33.526088,0.02518437
LYZ,156,3,2024-06-14T05:08:21.028Z,english_529.wav,0,1,584,21,4,chinese,m,2,0.2,-34.32120589,1.61112877
LYZ,156,3,2024-06-14T05:08:21.028Z,english_529.wav,0,1,584,21,4,chinese,m,3,0.3,-18.30112723,0.91948239
LYZ,156,3,2024-06-14T05:08:21.028Z,english_529.wav,0,1,584,21,4,chinese,m,4,0.32341667,16.4796061,0.33204613
LYZ,157,3,2024-06-14T05:08:21.028Z,english_742.wav,0,1,589,21,4,chinese,m,0,0,12.62363586,1.26368295
LYZ,157,3,2024-06-14T05:08:21.028Z,english_742.wav,0,1,589,21,4,chinese,m,1,0.1,23.02085171,0.7448394
LYZ,157,3,2024-06-14T05:08:21.028Z,english_742.wav,0,1,589,21,4,chinese,m,2,0.2,23.36423086,0.05261082
LYZ,157,3,2024-06-14T05:08:21.028Z,english_742.wav,0,1,589,21,4,chinese,m,3,0.3,97.70614946,1.01748925
LYZ,157,3,2024-06-14T05:08:21.028Z,english_742.wav,0,1,589,21,4,chinese,m,4,0.32341667,-25.72861775,0.88645775
LYZ,158,3,2024-06-14T05:08:21.028Z,english_399.wav,0,1,571,21,4,chinese,m,0,0,77.00947727,0.99570417
LYZ,158,3,2024-06-14T05:08:21.028Z,english_399.wav,0,1,571,21,4,chinese,m,1,0.1,68.68212777,1.08385584
LYZ,158,3,2024-06-14T05:08:21.028Z,english_399.wav,0,1,571,21,4,chinese,m,2,0.2,29.89909441,0.2210854
LYZ,158,3,2024-06-14T05:08:21.028Z,english_399.wav,0,1,571,21,4,chinese,m,3,0.3,-37.60275897,0.41623588
LYZ,158,3,2024-06-14T05:08:21.028Z,english_399.wav,0,1,571,21,4,chinese,m,4,0.32341667,-61.49193386,0.38461981
LYZ,159,3,2024-06-14T05:08:21.028Z,english_119.wav,0,1,478,21,4,chinese,m,0,0,-72.13623542,1.33116293
LYZ,159,3,2024-06-14T05:08:21.028Z,english_119.wav,0,1,478,21,4,chinese,m,1,0.1,-47.93500709,0.14257244
LYZ,159,3,2024-06-14T05:08:21.028Z,english_119.wav,0,1,478,21,4,chinese,m,2,0.2,91.39212861,1.10285667
LYZ,159,3,2024-06-14T05:08:21.028Z,english_119.wav,0,1,478,21,4,chinese,m,3,0.3,-4.62561099,0.57572872
LYZ,159,3,2024-06-14T05:08:21.028Z,english_119.wav,0,1,478,21,4,chinese,m,4,0.32341667,-33.86599352,1.36512269
LYZ,160,3,2024-06-14T05:08:21.028Z,english_695.wav,0,1,523,21,4,chinese,m,0,0,-74.02191529,1.19534619
LYZ,160,3,2024-06-14T05:08:21.028Z,english_695.wav,0,1,523,21,4,chinese,m,1,0.1,54.28596986,0.93917139
LYZ,160,3,2024-06-14T05:08:21.028Z,english_695.wav,0,1,523,21,4,chinese,m,2,0.2,-13.22196683,0.1241488
LYZ,160,3,2024-06-14T05:08:21.028Z,english_695.wav,0,1,523,21,4,chinese,m,3,0.3,1.82272444,1.20091234
LYZ,160,3,2024-06-14T05:08:21.028Z,english_695.wav,0,1,523,21,4,chinese,m,4,0.32341667,-11.74905262,0.46222147
LYZ,161,3,2024-06-14T05:08:21.028Z,english_417.wav,0,1,783,21,4,chinese,m,0,0,-17.25972862,1.29903721
LYZ,161,3,2024-06-14T05:08:21.028Z,english_417.wav,0,1,783,21,4,chinese,m,1,0.1,72.11413149,0.87773419
LYZ,161,3,2024-06-14T05:08:21.028Z,english_417.wav,0,1,783,21,4,chinese,m,2,0.2,83.70212603,1.45838331
LYZ,161,3,2024-06-14T05:08:21.028Z,english_417.wav,0,1,783,21,4,chinese,m,3,0.3,67.19530478,0.90979472
LYZ,161,3,2024-06-14T05:08:21.028Z,english_417.wav,0,1,783,21,4,chinese,m,4,0.32341667,29.72084594,0.1224986
LYZ,162,3,2024-06-14T05:08:21.028Z,english_509.wav,0,1,580,21,4,chinese,m,0,0,58.37136146,0.93627824
LYZ,162,3,2024-06-14T05:08:21.028Z,english_509.wav,0,1,580,21,4,chinese,m,1,0.1,-30.59588084,1.268957
LYZ,162,3,2024-06-14T05:08:21.028Z,english_509.wav,0,1,580,21,4,chinese,m,2,0.2,-42.62400689,0.87018438
LYZ,162,3,2024-06-14T05:08:21.028Z,english_509.wav,0,1,580,21,4,chinese,m,3,0.3,58.46483968,1.67134466
LYZ,162,3,2024-06-14T05:08:21.028Z,english_509.wav,0,1,580,21,4,chinese,m,4,0.32341667,44.09610342,1.96584472
LYZ,163,3,2024-06-14T05:08:21.028Z,english_304.wav,0,1,2354,21,4,chinese,m,0,0,-80.7192326,0.54130022
LYZ,163,3,2024-06-14T05:08:21.028Z,english_304.wav,0,1,2354,21,4,chinese,m,1,0.1,34.14230443,0.20766845
LYZ,163,3,2024-06-14T05:08:21.028Z,english_304.wav,0,1,2354,21,4,chinese,m,2,0.2,-43.78548789,1.25157904
LYZ,163,3,2024-06-14T05:08:21.028Z,english_304.wav,0,1,2354,21,4,chinese,m,3,0.3,85.79520644,0.76195837
LYZ,163,3,2024-06-14T05:08:21.028Z,english_304.wav,0,1,2354,21,4,chinese,m,4,0.32341667,-29.32737886,0.20991234
LYZ,164,3,2024-06-14T05:08:21.028Z,english_544.wav,0,1,4487,21,4,chinese,m,0,0,96.80704334,1.85115917
LYZ,164,3,2024-06-14T05:08:21.028Z,english_544.wav,0,1,4487,21,4,chinese,m,1,0.1,70.5198752,0.8718407
LYZ,164,3,2024-06-14T05:08:21.028Z,english_544.wav,0,1,4487,21,4,chinese,m,2,0.2,78.21609099,1.82238935
LYZ,164,3,2024-06-14T05:08:21.028Z,english_544.wav,0,1,4487,21,4,chinese,m,3,0.3,-95.7752672,0.25719172
LYZ,164,3,2024-06-14T05:08:21.028Z,english_544.wav,0,1,4487,21,4,chinese,m,4,0.32341667,-56.58918052,0.72929157
LYZ,165,3,2024-06-14T05:08:21.028Z,english_348.wav,0,1,1805,21,4,chinese,m,0,0,21.35215111,0.19799702
LYZ,165,3,2024-06-14T05:08:21.028Z,english_348.wav,0,1,1805,21,4,chinese,m,1,0.1,14.79849269,0.60931017
LYZ,165,3,2024-06-14T05:08:21.028Z,english_348.wav,0,1,1805,21,4,chinese,m,2,0.2,53.1788992,0.16102666
LYZ,165,3,2024-06-14T05:08:21.028Z,english_348.wav,0,1,1805,21,4,chinese,m,3,0.3,-95.85723561,1.54818605
LYZ,165,3,2024-06-14T05:08:21.028Z,english_348.wav,0,1,1805,21,4,chinese,m,4,0.32341667,5.27283499,0.26552753
LYZ,166,3,2024-06-14T05:08:21.028Z,english_460.wav,0,1,1179,21,4,chinese,m,0,0,-93.21492338,1.97422145
LYZ,166,3,2024-06-14T05:08:21.028Z,english_460.wav,0,1,1179,21,4,chinese,m,1,0.1,-65.59669931,0.48313428
LYZ,166,3,2024-06-14T05:08:21.028Z,english_460.wav,0,1,1179,21,4,chinese,m,2,0.2,76.47030005,0.91916034
LYZ,166,3,2024-06-14T05:08:21.028Z,english_460.wav,0,1,1179,21,4,chinese,m,3,0.3,-24.62267943,0.34121923
LYZ,166,3,2024-06-14T05:08:21.028Z,english_460.wav,0,1,1179,21,4,chinese,m,4,0.32341667,17.6428759,0.75894887
LYZ,167,3,2024-06-14T05:08:21.028Z,english_63.wav,0,1,730,21,4,chinese,m,0,0,-99.27532027,1.55063038
LYZ,167,3,2024-06-14T05:08:21.028Z,english_63.wav,0,1,730,21,4,chinese,m,1,0.1,76.75365344,0.78453917
LYZ,167,3,2024-06-14T05:08:21.028Z,english_63.wav,0,1,730,21,4,chinese,m,2,0.2,-4.19867406,1.54061689
LYZ,167,3,2024-06-14T05:08:21.028Z,english_63.wav,0,1,730,21,4,chinese,m,3,0.3,58.21469339,0.9417581
LYZ,167,3,2024-06-14T05:08:21.028Z,english_63.wav,0,1,730,21,4,chinese,m,4,0.32341667,-76.25580242,1.07689855
LYZ,168,3,2024-06-14T05:08:21.028Z,english_358.wav,0,1,1965,21,4,chinese,m,0,0,-24.40280242,0.64702298
LYZ,168,3,2024-06-14T05:08:21.028Z,english_358.wav,0,1,1965,21,4,chinese,m,1,0.1,62.18566088,0.86836285
LYZ,168,3,2024-06-14T05:08:21.028Z,english_358.wav,0,1,1965,21,4,chinese,m,2,0.2,5.26675109,1.05826104
LYZ,168,3,2024-06-14T05:08:21.028Z,english_358.wav,0,1,1965,21,4,chinese,m,3,0.3,-31.91571391,1.98011631
LYZ,168,3,2024-06-14T05:08:21.028Z,english_358.wav,0,1,1965,21,4,chinese,m,4,0.32341667,27.35112364,0.35058307
LYZ,169,3,2024-06-14T05:08:21.028Z,english_840.wav,0,1,1541,21,4,chinese,m,0,0,-27.11425843,1.31301797
LYZ,169,3,2024-06-14T05:08:21.028Z,english_840.wav,0,1,1541,21,4,chinese,m,1,0.1,-47.31494811,0.54280133
LYZ,169,3,2024-06-14T05:08:21.028Z,english_840.wav,0,1,1541,21,4,chinese,m,2,0.2,-88.66887426,0.14090987
LYZ,169,3,2024-06-14T05:08:21.028Z,english_840.wav,0,1,1541,21,4,chinese,m,3,0.3,7.86940595,0.11950116
LYZ,169,3,2024-06-14T05:08:21.028Z,english_840.wav,0,1,1541,21,4,chinese,m,4,0.32341667,87.61758205,1.48166624
LYZ,170,3,2024-06-14T05:08:21.028Z,english_988.wav,0,1,1283,21,4,chinese,m,0,0,23.53561789,0.18772999
LYZ,170,3,2024-06-14T05:08:21.028Z,english_988.wav,0,1,1283,21,4,chinese,m,1,0.1,39.09545525,0.71537172
LYZ,170,3,2024-06-14T05:08:21.028Z,english_988.wav,0,1,1283,21,4,chinese,m,2,0.2,-32.2225044,0.50944864
LYZ,170,3,2024-06-14T05:08:21.028Z,english_988.wav,0,1,1283,21,4,chinese,m,3,0.3,5.54449519,0.59930705
LYZ,170,3,2024-06-14T05:08:21.028Z,english_988.wav,0,1,1283,21,4,chinese,m,4,0.32341667,-94.58480047,1.43881296
LYZ,171,3,2024-06-14T05:08:21.028Z,english_634.wav,0,1,1613,21,4,chinese,m,0,0,-94.29539956,0.6011183
LYZ,171,3,2024-06-14T05:08:21.028Z,english_634.wav,0,1,1613,21,4,chinese,m,1,0.1,28.41708136,1.15242669
LYZ,171,3,2024-06-14T05:08:21.028Z,english_634.wav,0,1,1613,21,4,chinese,m,2,0.2,-99.13935281,0.68826906
LYZ,171,3,2024-06-14T05:08:21.028Z,english_634.wav,0,1,1613,21,4,chinese,m,3,0.3,-78.11216949,1.44169335
LYZ,171,3,2024-06-14T05:08:21.028Z,english_634.wav,0,1,1613,21,4,chinese,m,4,0.32341667,-54.5881907,0.90266094
LYZ,172,3,2024-06-14T05:08:21.028Z,english_721.wav,0,1,1630,21,4,chinese,m,0,0,-1.67193172,0.23966059
LYZ,172,3,2024-06-14T05:08:21.028Z,english_721.wav,0,1,1630,21,4,chinese,m,1,0.1,23.81304459,1.61361986
LYZ,172,3,2024-06-14T05:08:21.028Z,english_721.wav,0,1,1630,21,4,chinese,m,2,0.2,94.27532923,0.58045828
LYZ,172,3,2024-06-14T05:08:21.028Z,english_721.wav,0,1,1630,21,4,chinese,m,3,0.3,10.08520391,1.63757532
LYZ,172,3,2024-06-14T05:08:21.028Z,english_721.wav,0,1,1630,21,4,chinese,m,4,0.32341667,-26.68837018,1.4581473
LYZ,173,3,2024-06-14T05:08:21.028Z,english_937.wav,0,1,1117,21,4,chinese,m,0,0,76.77394395,1.55370699
LYZ,173,3,2024-06-14T05:08:21.028Z,english_937.wav,0,1,1117,21,4,chinese,m,1,0.1,49.33576264,1.82028848
LYZ,173,3,2024-06-14T05:08:21.028Z,english_937.wav,0,1,1117,21,4,chinese,m,2,0.2,-87.39935237,1.42487505
LYZ,173,3,2024-06-14T05:08:21.028Z,english_937.wav,0,1,1117,21,4,chinese,m,3,0.3,11.02170053,0.87896062
LYZ,173,3,2024-06-14T05:08:21.028Z,english_937.wav,0,1,1117,21,4,chinese,m,4,0.32341667,91.99381322,0.96516852
LYZ,174,3,2024-06-14T05:08:21.028Z,english_998.wav,0,0,1860,21,4,chinese,m,0,0,-57.03196796,0.0179282
LYZ,174,3,2024-06-14T05:08:21.028Z,english_998.wav,0,0,1860,21,4,chinese,m,1,0.1,-12.93623633,1.72217412
LYZ,174,3,2024-06-14T05:08:21.028Z,english_998.wav,0,0,1860,21,4,chinese,m,2,0.2,-24.63186366,0.91011795
LYZ,174,3,2024-06-14T05:08:21.028Z,english_998.wav,0,0,1860,21,4,chinese,m,3,0.3,-10.49750637,1.24282972
LYZ,174,3,2024-06-14T05:08:21.028Z,english_998.wav,0,0,1860,21,4,chinese,m,4,0.32341667,22.76793653,0.40520665
LYZ,175,3,2024-06-14T05:08:21.028Z,english_976.wav,0,1,538,21,4,chinese,m,0,0,-92.49082032,0.30893725
LYZ,175,3,2024-06-14T05:08:21.028Z,english_976.wav,0,1,538,21,4,chinese,m,1,0.1,92.01562452,1.54393752
LYZ,175,3,2024-06-14T05:08:21.028Z,english_976.wav,0,1,538,21,4,chinese,m,2,0.2,-80.55764576,1.31466429
LYZ,175,3,2024-06-14T05:08:21.028Z,english_976.wav,0,1,538,21,4,chinese,m,3,0.3,-70.09009567,1.88171095
LYZ,175,3,2024-06-14T05:08:21.028Z,english_976.wav,0,1,538,21,4,chinese,m,4,0.32341667,-7.5394989,1.71314556
LYZ,176,3,2024-06-14T05:08:21.028Z,english_516.wav,0,1,595,21,4,chinese,m,0,0,-37.49134217,0.47483782
LYZ,176,3,2024-06-14T05:08:21.028Z,english_516.wav,0,1,595,21,4,chinese,m,1,0.1,56.61653956,1.0523806
LYZ,176,3,2024-06-14T05:08:21.028Z,english_516.wav,0,1,595,21,4,chinese,m,2,0.2,60.98574822,0.59798137
LYZ,176,3,2024-06-14T05:08:21.028Z,english_516.wav,0,1,595,21,4,chinese,m,3,0.3,-0.52682824,0.6957238
LYZ,176,3,2024-06-14T05:08:21.028Z,english_516.wav,0,1,595,21,4,chinese,m,4,0.32341667,-50.41932267,1.76373844
LYZ,177,3,2024-06-14T05:08:21.028Z,english_628.wav,0,1,1082,21,4,chinese,m,0,0,-19.71295886,0.8960583
LYZ,177,3,2024-06-14T05:08:21.028Z,english_628.wav,0,1,1082,21,4,chinese,m,1,0.1,-79.294697,1.61949508
LYZ,177,3,2024-06-14T05:08:21.028Z,english_628.wav,0,1,1082,21,4,chinese,m,2,0.2,-59.93256946,0.65483299
LYZ,177,3,2024-06-14T05:08:21.028Z,english_628.wav,0,1,1082,21,4,chinese,m,3,0.3,-18.46863719,0.12001531
LYZ,177,3,2024-06-14T05:08:21.028Z,english_628.wav,0,1,1082,21,4,chinese,m,4,0.32341667,53.30350975,0.85308449
LYZ,178,3,2024-06-14T05:08:21.028Z,english_142.wav,0,1,671,21,4,chinese,m,0,0,-46.59943425,0.40064358
LYZ,178,3,2024-06-14T05:08:21.028Z,english_142.wav,0,1,671,21,4,chinese,m,1,0.1,63.17145436,0.61162855
LYZ,178,3,2024-06-14T05:08:21.028Z,english_142.wav,0,1,671,21,4,chinese,m,2,0.2,73.87775976,0.23189939
LYZ,178,3,2024-06-14T05:08:21.028Z,english_142.wav,0,1,671,21,4,chinese,m,3,0.3,-84.55157756,1.54635995
LYZ,178,3,2024-06-14T05:08:21.028Z,english_142.wav,0,1,671,21,4,chinese,m,4,0.32341667,20.35536038,1.86221744
LYZ,179,3,2024-06-14T05:08:21.028Z,english_678.wav,0,1,630,21,4,chinese,m,0,0,87.86222938,1.6760541
LYZ,179,3,2024-06-14T05:08:21.028Z,english_678.wav,0,1,630,21,4,chinese,m,1,0.1,-47.14792626,0.22369522
LYZ,179,3,2024-06-14T05:08:21.028Z,english_678.wav,0,1,630,21,4,chinese,m,2,0.2,-6.84659798,1.1260271
LYZ,179,3,2024-06-14T05:08:21.028Z,english_678.wav,0,1,630,21,4,chinese,m,3,0.3,87.67045201,1.53941447
LYZ,179,3,2024-06-14T05:08:21.028Z,english_678.wav,0,1,630,21,4,chinese,m,4,0.32341667,-51.71213936,1.37136581
LYZ,180,3,2024-06-14T05:08:21.028Z,english_551.wav,0,0,1681,21,4,chinese,m,0,0,51.69986033,0.0331047
LYZ,180,3,2024-06-14T05:08:21.028Z,english_551.wav,0,0,1681,21,4,chinese,m,1,0.1,-91.31948841,0.51079487
LYZ,180,3,2024-06-14T05:08:21.028Z,english_551.wav,0,0,1681,21,4,chinese,m,2,0.2,12.24586311,1.83581854
LYZ,180,3,2024-06-14T05:08:21.028Z,english_551.wav,0,0,1681,21,4,chinese,m,3,0.3,-52.90680215,0.12201236
LYZ,180,3,2024-06-14T05:08:21.028Z,english_551.wav,0,0,1681,21,4,chinese,m,4,0.32341667,-27.23325687,1.55189277
LYZ,181,3,2024-06-14T05:08:21.028Z,english_311.wav,0,0,1547,21,4,chinese,m,0,0,-35.59355899,0.16094856
LYZ,181,3,2024-06-14T05:08:21.028Z,english_311.wav,0,0,1547,21,4,chinese,m,1,0.1,-50.39310557,1.33895436
LYZ,181,3,2024-06-14T05:08:21.028Z,english_311.wav,0,0,1547,21,4,chinese,m,2,0.2,-53.37222601,0.01028283
LYZ,181,3,2024-06-14T05:08:21.028Z,english_311.wav,0,0,1547,21,4,chinese,m,3,0.3,72.25802658,0.48497386
LYZ,181,3,2024-06-14T05:08:21.028Z,english_311.wav,0,0,1547,21,4,chinese,m,4,0.32341667,48.72421008,0.48591183
LYZ,182,3,2024-06-14T05:08:21.028Z,english_720.wav,0,1,1120,21,4,chinese,m,0,0,85.23240719,1.23446246
LYZ,182,3,2024-06-14T05:08:21.028Z,english_720.wav,0,1,1120,21,4,chinese,m,1,0.1,78.65958559,0.77382892
LYZ,182,3,2024-06-14T05:08:21.028Z,english_720.wav,0,1,1120,21,4,chinese,m,2,0.2,-56.45174874,0.48705718
LYZ,182,3,2024-06-14T05:08:21.028Z,english_720.wav,0,1,1120,21,4,chinese,m,3,0.3,71.88898266,1.42335328
LYZ,182,3,2024-06-14T05:08:21.028Z,english_720.wav,0,1,1120,21,4,chinese,m,4,0.32341667,-9.13482,1.32495619
LYZ,183,3,2024-06-14T05:08:21.028Z,english_7.wav,0,1,784,21,4,chinese,m,0,0,-21.06405819,1.08184232
LYZ,183,3,2024-06-14T05:08:21.028Z,english_7.wav,0,1,784,21,4,chinese,m,1,0.1,52.71042782,0.36719269
LYZ,183,3,2024-06-14T05:08:21.028Z,english_7.wav,0,1,784,21,4,chinese,m,2,0.2,-75.60464889,0.43185312
LYZ,183,3,2024-06-14T05:08:21.028Z,english_7.wav,0,1,784,21,4,chinese,m,3,0.3,-40.56941306,0.01474265
LYZ,183,3,2024-06-14T05:08:21.028Z,english_7.wav,0,1,784,21,4,chinese,m,4,0.32341667,63.70656894,0.90880476
LYZ,184,3,2024-06-14T05:08:21.028Z,english_331.wav,0,0,2589,21,4,chinese,m,0,0,12.66323204,1.93220763
LYZ,184,3,2024-06-14T05:08:21.028Z,english_331.wav,0,0,2589,21,4,chinese,m,1,0.1,-81.78605138,1.48237299
LYZ,184,3,2024-06-14T05:08:21.028Z,english_331.wav,0,0,2589,21,4,chinese,m,2,0.2,59.07546792,1.15413743
LYZ,184,3,2024-06-14T05:08:21.028Z,english_331.wav,0,0,2589,21,4,chinese,m,3,0.3,-83.73170191,1.02182823
LYZ,184,3,2024-06-14T05:08:21.028Z,english_331.wav,0,0,2589,21,4,chinese,m,4,0.32341667,3.10587362,0.81670354
LYZ,185,3,2024-06-14T05:08:21.028Z,english_955.wav,0,1,933,21,4,chinese,m,0,0,-93.58498903,1.26703381
LYZ,185,3,2024-06-14T05:08:21.028Z,english_955.wav,0,1,933,21,4,chinese,m,1,0.1,-11.56731864,0.51967441
LYZ,185,3,2024-06-14T05:08:21.028Z,english_955.wav,0,1,933,21,4,chinese,m,2,0.2,60.37787928,1.0313906
LYZ,185,3,2024-06-14T05:08:21.028Z,english_955.wav,0,1,933,21,4,chinese,m,3,0.3,83.42366765,1.58878747
LYZ,185,3,2024-06-14T05:08:21.028Z,english_955.wav,0,1,933,21,4,chinese,m,4,0.32341667,-60.32056418,1.0025339
LYZ,186,3,2024-06-14T05:08:21.028Z,english_875.wav,0,1,1072,21,4,chinese,m,0,0,-72.29566874,0.47412948
LYZ,186,3,2024-06-14T05:08:21.028Z,english_875.wav,0,1,1072,21,4,chinese,m,1,0.1,40.49821439,0.97105678
LYZ,186,3,2024-06-14T05:08:21.028Z,english_875.wav,0,1,1072,21,4,chinese,m,2,0.2,61.66936014,1.31175081
LYZ,186,3,2024-06-14T05:08:21.028Z,english_875.wav,0,1,1072,21,4,chinese,m,3,0.3,36.92950197,0.55015514
LYZ,186,3,2024-06-14T05:08:21.028Z,english_875.wav,0,1,1072,21,4,chinese,m,4,0.32341667,61.03530789,1.23529794
LYZ,187,3,2024-06-14T05:08:21.028Z,english_776.wav,0,1,845,21,4,chinese,m,0,0,29.86548478,0.57139857
LYZ,187,3,2024-06-14T05:08:21.028Z,english_776.wav,0,1,845,21,4,chinese,m,1,0.1,2.8025705,1.94435619
LYZ,187,3,2024-06-14T05:08:21.028Z,english_776.wav,0,1,845,21,4,chinese,m,2,0.2,-38.4768188,0.3951066
LYZ,187,3,2024-06-14T05:08:21.028Z,english_776.wav,0,1,845,21,4,chinese,m,3,0.3,-89.49838949,0.29859462
LYZ,187,3,2024-06-14T05:08:21.028Z,english_776.wav,0,1,845,21,4,chinese,m,4,0.32341667,30.18488016,1.93939037
LYZ,188,3,2024-06-14T05:08:21.028Z,english_818.wav,0,1,713,21,4,chinese,m,0,0,88.49542613,1.4873036
LYZ,188,3,2024-06-14T05:08:21.028Z,english_818.wav,0,1,713,21,4,chinese,m,1,0.1,-7.37005163,1.25102077
LYZ,188,3,2024-06-14T05:08:21.028Z,english_818.wav,0,1,713,21,4,chinese,m,2,0.2,-1.58613611,0.80764036
LYZ,188,3,2024-06-14T05:08:21.028Z,english_818.wav,0,1,713,21,4,chinese,m,3,0.3,-69.41222379,0.80656775
LYZ,188,3,2024-06-14T05:08:21.028Z,english_818.wav,0,1,713,21,4,chinese,m,4,0.32341667,14.01707612,1.41859799
LYZ,189,3,2024-06-14T05:08:21.028Z,english_744.wav,0,1,783,21,4,chinese,m,0,0,43.39686976,0.75505854
LYZ,189,3,2024-06-14T05:08:21.028Z,english_744.wav,0,1,783,21,4,chinese,m,1,0.1,-61.67573043,1.01311725
LYZ,189,3,2024-06-14T05:08:21.028Z,english_744.wav,0,1,783,21,4,chinese,m,2,0.2,0.51873183,0.73457108
LYZ,189,3,2024-06-14T05:08:21.028Z,english_744.wav,0,1,783,21,4,chinese,m,3,0.3,12.88130512,0.90154102
LYZ,189,3,2024-06-14T05:08:21.028Z,english_744.wav,0,1,783,21,4,chinese,m,4,0.32341667,57.31714449,1.01338509
LYZ,190,3,2024-06-14T05:08:21.028Z,english_972.wav,0,1,437,21,4,chinese,m,0,0,-87.82800068,1.28286493
LYZ,190,3,2024-06-14T05:08:21.028Z,english_972.wav,0,1,437,21,4,chinese,m,1,0.1,-25.45661385,0.89058027
LYZ,190,3,2024-06-14T05:08:21.028Z,english_972.wav,0,1,437,21,4,chinese,m,2,0.2,2.95853851,1.4716374
LYZ,190,3,2024-06-14T05:08:21.028Z,english_972.wav,0,1,437,21,4,chinese,m,3,0.3,84.61583696,0.6386035
LYZ,190,3,2024-06-14T05:08:21.028Z,english_972.wav,0,1,437,21,4,chinese,m,4,0.32341667,42.95706616,1.51056083
LYZ,191,3,2024-06-14T05:08:21.028Z,english_282.wav,0,1,1069,21,4,chinese,m,0,0,0.76940706,0.32837311
LYZ,191,3,2024-06-14T05:08:21.028Z,english_282.wav,0,1,1069,21,4,chinese,m,1,0.1,85.14494722,0.39977994
LYZ,191,3,2024-06-14T05:08:21.028Z,english_282.wav,0,1,1069,21,4,chinese,m,2,0.2,-92.43433596,0.62065738
