subj,trial,block,date,stim,stim_order,response,rt,age,english,language,sex,param_index,segment,pitch,stretch
XUJIAJIE,0,0,2024-06-14T12:41:27.078Z,english_62.wav,0,0,2773,21,3,Chinese,f,0,0,17.28527913,1.12530616
XUJIAJIE,0,0,2024-06-14T12:41:27.078Z,english_62.wav,0,0,2773,21,3,Chinese,f,1,0.1,8.63936001,1.09357984
XUJIAJIE,0,0,2024-06-14T12:41:27.078Z,english_62.wav,0,0,2773,21,3,Chinese,f,2,0.2,-69.0074729,1.07648496
XUJIAJIE,0,0,2024-06-14T12:41:27.078Z,english_62.wav,0,0,2773,21,3,Chinese,f,3,0.3,-18.85502465,0.36768209
XUJIAJIE,0,0,2024-06-14T12:41:27.078Z,english_62.wav,0,0,2773,21,3,Chinese,f,4,0.32341667,59.46739627,0.39033463
XUJIAJIE,1,0,2024-06-14T12:41:27.078Z,english_941.wav,0,0,2087,21,3,Chinese,f,0,0,88.25484185,1.5236155
XUJIAJIE,1,0,2024-06-14T12:41:27.078Z,english_941.wav,0,0,2087,21,3,Chinese,f,1,0.1,29.23312353,0.93469446
XUJIAJIE,1,0,2024-06-14T12:41:27.078Z,english_941.wav,0,0,2087,21,3,Chinese,f,2,0.2,-73.60888885,0.44203051
XUJIAJIE,1,0,2024-06-14T12:41:27.078Z,english_941.wav,0,0,2087,21,3,Chinese,f,3,0.3,-38.35663254,1.28625712
XUJIAJIE,1,0,2024-06-14T12:41:27.078Z,english_941.wav,0,0,2087,21,3,Chinese,f,4,0.32341667,-37.21470774,1.264942
XUJIAJIE,2,0,2024-06-14T12:41:27.078Z,english_738.wav,0,0,1474,21,3,Chinese,f,0,0,-37.88087101,1.83397703
XUJIAJIE,2,0,2024-06-14T12:41:27.078Z,english_738.wav,0,0,1474,21,3,Chinese,f,1,0.1,-16.85966727,1.52099356
XUJIAJIE,2,0,2024-06-14T12:41:27.078Z,english_738.wav,0,0,1474,21,3,Chinese,f,2,0.2,-79.76891938,1.69283951
XUJIAJIE,2,0,2024-06-14T12:41:27.078Z,english_738.wav,0,0,1474,21,3,Chinese,f,3,0.3,-82.30918252,1.81957343
XUJIAJIE,2,0,2024-06-14T12:41:27.078Z,english_738.wav,0,0,1474,21,3,Chinese,f,4,0.32341667,59.65991076,0.75908376
XUJIAJIE,3,0,2024-06-14T12:41:27.078Z,english_760.wav,0,0,1161,21,3,Chinese,f,0,0,24.3902693,0.67210823
XUJIAJIE,3,0,2024-06-14T12:41:27.078Z,english_760.wav,0,0,1161,21,3,Chinese,f,1,0.1,-0.0247174936,1.89588113
XUJIAJIE,3,0,2024-06-14T12:41:27.078Z,english_760.wav,0,0,1161,21,3,Chinese,f,2,0.2,82.8662613,0.23432987
XUJIAJIE,3,0,2024-06-14T12:41:27.078Z,english_760.wav,0,0,1161,21,3,Chinese,f,3,0.3,-7.97314524,1.20797246
XUJIAJIE,3,0,2024-06-14T12:41:27.078Z,english_760.wav,0,0,1161,21,3,Chinese,f,4,0.323416667,-6.32438983,1.72866971
XUJIAJIE,4,0,2024-06-14T12:41:27.078Z,english_166.wav,0,0,2248,21,3,Chinese,f,0,0,37.27670025,1.42766663
XUJIAJIE,4,0,2024-06-14T12:41:27.078Z,english_166.wav,0,0,2248,21,3,Chinese,f,1,0.1,34.38847046,0.72731767
XUJIAJIE,4,0,2024-06-14T12:41:27.078Z,english_166.wav,0,0,2248,21,3,Chinese,f,2,0.2,49.91842175,1.80608275
XUJIAJIE,4,0,2024-06-14T12:41:27.078Z,english_166.wav,0,0,2248,21,3,Chinese,f,3,0.3,56.9541748,1.91598421
XUJIAJIE,4,0,2024-06-14T12:41:27.078Z,english_166.wav,0,0,2248,21,3,Chinese,f,4,0.32341667,10.97290623,1.21084105
XUJIAJIE,5,0,2024-06-14T12:41:27.078Z,english_247.wav,0,0,857,21,3,Chinese,f,0,0,48.65693284,0.25539499
XUJIAJIE,5,0,2024-06-14T12:41:27.078Z,english_247.wav,0,0,857,21,3,Chinese,f,1,0.1,-27.64572099,1.09429421
XUJIAJIE,5,0,2024-06-14T12:41:27.078Z,english_247.wav,0,0,857,21,3,Chinese,f,2,0.2,-20.19701808,0.88115619
XUJIAJIE,5,0,2024-06-14T12:41:27.078Z,english_247.wav,0,0,857,21,3,Chinese,f,3,0.3,-10.74442668,1.97859338
XUJIAJIE,5,0,2024-06-14T12:41:27.078Z,english_247.wav,0,0,857,21,3,Chinese,f,4,0.32341667,91.42432082,0.10638235
XUJIAJIE,6,0,2024-06-14T12:41:27.078Z,english_561.wav,0,0,675,21,3,Chinese,f,0,0,62.21065415,1.32725493
XUJIAJIE,6,0,2024-06-14T12:41:27.078Z,english_561.wav,0,0,675,21,3,Chinese,f,1,0.1,-9.84770717,1.15871491
XUJIAJIE,6,0,2024-06-14T12:41:27.078Z,english_561.wav,0,0,675,21,3,Chinese,f,2,0.2,-12.92274306,0.82816789
XUJIAJIE,6,0,2024-06-14T12:41:27.078Z,english_561.wav,0,0,675,21,3,Chinese,f,3,0.3,16.08334811,1.72308293
XUJIAJIE,6,0,2024-06-14T12:41:27.078Z,english_561.wav,0,0,675,21,3,Chinese,f,4,0.32341667,-22.38830035,0.72943893
XUJIAJIE,7,0,2024-06-14T12:41:27.078Z,english_501.wav,0,0,411,21,3,Chinese,f,0,0,-7.07122187,1.4737248
XUJIAJIE,7,0,2024-06-14T12:41:27.078Z,english_501.wav,0,0,411,21,3,Chinese,f,1,0.1,10.00250781,1.10212017
XUJIAJIE,7,0,2024-06-14T12:41:27.078Z,english_501.wav,0,0,411,21,3,Chinese,f,2,0.2,-21.98285256,1.65595948
XUJIAJIE,7,0,2024-06-14T12:41:27.078Z,english_501.wav,0,0,411,21,3,Chinese,f,3,0.3,46.16062549,0.64757112
XUJIAJIE,7,0,2024-06-14T12:41:27.078Z,english_501.wav,0,0,411,21,3,Chinese,f,4,0.32341667,41.01655214,0.36171009
XUJIAJIE,8,0,2024-06-14T12:41:27.078Z,english_905.wav,0,1,2759,21,3,Chinese,f,0,0,73.76258642,1.30259847
XUJIAJIE,8,0,2024-06-14T12:41:27.078Z,english_905.wav,0,1,2759,21,3,Chinese,f,1,0.1,49.84186991,0.15786419
XUJIAJIE,8,0,2024-06-14T12:41:27.078Z,english_905.wav,0,1,2759,21,3,Chinese,f,2,0.2,-84.55275191,0.47562292
XUJIAJIE,8,0,2024-06-14T12:41:27.078Z,english_905.wav,0,1,2759,21,3,Chinese,f,3,0.3,70.45460649,1.69272047
XUJIAJIE,8,0,2024-06-14T12:41:27.078Z,english_905.wav,0,1,2759,21,3,Chinese,f,4,0.32341667,-84.87734561,1.28570309
XUJIAJIE,9,0,2024-06-14T12:41:27.078Z,english_71.wav,0,0,456,21,3,Chinese,f,0,0,-89.06637534,0.37218892
XUJIAJIE,9,0,2024-06-14T12:41:27.078Z,english_71.wav,0,0,456,21,3,Chinese,f,1,0.1,-28.638437,1.29479557
XUJIAJIE,9,0,2024-06-14T12:41:27.078Z,english_71.wav,0,0,456,21,3,Chinese,f,2,0.2,-8.31899436,1.34818575
XUJIAJIE,9,0,2024-06-14T12:41:27.078Z,english_71.wav,0,0,456,21,3,Chinese,f,3,0.3,67.7820648,1.24266832
XUJIAJIE,9,0,2024-06-14T12:41:27.078Z,english_71.wav,0,0,456,21,3,Chinese,f,4,0.32341667,4.09606073,1.38884894
XUJIAJIE,10,0,2024-06-14T12:41:27.078Z,english_500.wav,0,0,331,21,3,Chinese,f,0,0,34.07818593,1.14050746
XUJIAJIE,10,0,2024-06-14T12:41:27.078Z,english_500.wav,0,0,331,21,3,Chinese,f,1,0.1,31.06479142,1.87458021
XUJIAJIE,10,0,2024-06-14T12:41:27.078Z,english_500.wav,0,0,331,21,3,Chinese,f,2,0.2,-63.34751057,0.77467433
XUJIAJIE,10,0,2024-06-14T12:41:27.078Z,english_500.wav,0,0,331,21,3,Chinese,f,3,0.3,36.97827554,1.278432
XUJIAJIE,10,0,2024-06-14T12:41:27.078Z,english_500.wav,0,0,331,21,3,Chinese,f,4,0.32341667,96.68235718,0.68469821
XUJIAJIE,11,0,2024-06-14T12:41:27.078Z,english_519.wav,0,0,547,21,3,Chinese,f,0,0,-8.06946753,0.14231686
XUJIAJIE,11,0,2024-06-14T12:41:27.078Z,english_519.wav,0,0,547,21,3,Chinese,f,1,0.1,-66.74939098,1.74411569
XUJIAJIE,11,0,2024-06-14T12:41:27.078Z,english_519.wav,0,0,547,21,3,Chinese,f,2,0.2,-27.98142454,1.42967772
XUJIAJIE,11,0,2024-06-14T12:41:27.078Z,english_519.wav,0,0,547,21,3,Chinese,f,3,0.3,-72.75033344,0.44774012
XUJIAJIE,11,0,2024-06-14T12:41:27.078Z,english_519.wav,0,0,547,21,3,Chinese,f,4,0.32341667,-36.15575878,1.4256209
XUJIAJIE,12,0,2024-06-14T12:41:27.078Z,english_630.wav,0,1,711,21,3,Chinese,f,0,0,97.25925287,0.34607754
XUJIAJIE,12,0,2024-06-14T12:41:27.078Z,english_630.wav,0,1,711,21,3,Chinese,f,1,0.1,76.95662127,0.15996234
XUJIAJIE,12,0,2024-06-14T12:41:27.078Z,english_630.wav,0,1,711,21,3,Chinese,f,2,0.2,5.01423186,1.73874617
XUJIAJIE,12,0,2024-06-14T12:41:27.078Z,english_630.wav,0,1,711,21,3,Chinese,f,3,0.3,-27.88706711,0.41181915
XUJIAJIE,12,0,2024-06-14T12:41:27.078Z,english_630.wav,0,1,711,21,3,Chinese,f,4,0.32341667,90.69966072,0.77788697
XUJIAJIE,13,0,2024-06-14T12:41:27.078Z,english_653.wav,0,0,505,21,3,Chinese,f,0,0,8.14815906,1.27061672
XUJIAJIE,13,0,2024-06-14T12:41:27.078Z,english_653.wav,0,0,505,21,3,Chinese,f,1,0.1,4.49815435,1.37470465
XUJIAJIE,13,0,2024-06-14T12:41:27.078Z,english_653.wav,0,0,505,21,3,Chinese,f,2,0.2,-96.80954485,1.57421691
XUJIAJIE,13,0,2024-06-14T12:41:27.078Z,english_653.wav,0,0,505,21,3,Chinese,f,3,0.3,-0.49075979,1.39011427
XUJIAJIE,13,0,2024-06-14T12:41:27.078Z,english_653.wav,0,0,505,21,3,Chinese,f,4,0.32341667,98.12577208,0.75484601
XUJIAJIE,14,0,2024-06-14T12:41:27.078Z,english_529.wav,0,1,785,21,3,Chinese,f,0,0,13.90759343,0.83001961
XUJIAJIE,14,0,2024-06-14T12:41:27.078Z,english_529.wav,0,1,785,21,3,Chinese,f,1,0.1,-33.526088,0.02518437
XUJIAJIE,14,0,2024-06-14T12:41:27.078Z,english_529.wav,0,1,785,21,3,Chinese,f,2,0.2,-34.32120589,1.61112877
XUJIAJIE,14,0,2024-06-14T12:41:27.078Z,english_529.wav,0,1,785,21,3,Chinese,f,3,0.3,-18.30112723,0.91948239
XUJIAJIE,14,0,2024-06-14T12:41:27.078Z,english_529.wav,0,1,785,21,3,Chinese,f,4,0.32341667,16.4796061,0.33204613
XUJIAJIE,15,0,2024-06-14T12:41:27.078Z,english_98.wav,0,1,740,21,3,Chinese,f,0,0,-23.07451683,0.55932234
XUJIAJIE,15,0,2024-06-14T12:41:27.078Z,english_98.wav,0,1,740,21,3,Chinese,f,1,0.1,58.83766866,1.03192869
XUJIAJIE,15,0,2024-06-14T12:41:27.078Z,english_98.wav,0,1,740,21,3,Chinese,f,2,0.2,75.90401246,1.16154403
XUJIAJIE,15,0,2024-06-14T12:41:27.078Z,english_98.wav,0,1,740,21,3,Chinese,f,3,0.3,-86.31256295,0.50819795
XUJIAJIE,15,0,2024-06-14T12:41:27.078Z,english_98.wav,0,1,740,21,3,Chinese,f,4,0.32341667,26.17624316,1.94690859
XUJIAJIE,16,0,2024-06-14T12:41:27.078Z,english_697.wav,0,1,805,21,3,Chinese,f,0,0,34.8877197,0.10761674
XUJIAJIE,16,0,2024-06-14T12:41:27.078Z,english_697.wav,0,1,805,21,3,Chinese,f,1,0.1,-0.0129750448,0.88035305
XUJIAJIE,16,0,2024-06-14T12:41:27.078Z,english_697.wav,0,1,805,21,3,Chinese,f,2,0.2,48.8877829,0.12183403
XUJIAJIE,16,0,2024-06-14T12:41:27.078Z,english_697.wav,0,1,805,21,3,Chinese,f,3,0.3,68.5745634,0.55306263
XUJIAJIE,16,0,2024-06-14T12:41:27.078Z,english_697.wav,0,1,805,21,3,Chinese,f,4,0.323416667,18.9536775,1.83833688
XUJIAJIE,17,0,2024-06-14T12:41:27.078Z,english_177.wav,0,1,1650,21,3,Chinese,f,0,0,87.98258728,1.54790065
XUJIAJIE,17,0,2024-06-14T12:41:27.078Z,english_177.wav,0,1,1650,21,3,Chinese,f,1,0.1,87.12011565,0.90861448
XUJIAJIE,17,0,2024-06-14T12:41:27.078Z,english_177.wav,0,1,1650,21,3,Chinese,f,2,0.2,-29.82518494,0.58649069
XUJIAJIE,17,0,2024-06-14T12:41:27.078Z,english_177.wav,0,1,1650,21,3,Chinese,f,3,0.3,54.38835911,0.51296238
XUJIAJIE,17,0,2024-06-14T12:41:27.078Z,english_177.wav,0,1,1650,21,3,Chinese,f,4,0.32341667,53.98423531,1.78492888
XUJIAJIE,18,0,2024-06-14T12:41:27.078Z,english_595.wav,0,0,572,21,3,Chinese,f,0,0,-39.84727911,1.6526444
XUJIAJIE,18,0,2024-06-14T12:41:27.078Z,english_595.wav,0,0,572,21,3,Chinese,f,1,0.1,-68.85607622,1.11711065
XUJIAJIE,18,0,2024-06-14T12:41:27.078Z,english_595.wav,0,0,572,21,3,Chinese,f,2,0.2,23.68364187,1.96516016
XUJIAJIE,18,0,2024-06-14T12:41:27.078Z,english_595.wav,0,0,572,21,3,Chinese,f,3,0.3,-80.51887658,0.34053421
XUJIAJIE,18,0,2024-06-14T12:41:27.078Z,english_595.wav,0,0,572,21,3,Chinese,f,4,0.32341667,-94.66311932,1.22603371
XUJIAJIE,19,0,2024-06-14T12:41:27.078Z,english_618.wav,0,0,2401,21,3,Chinese,f,0,0,58.31579708,1.46895394
XUJIAJIE,19,0,2024-06-14T12:41:27.078Z,english_618.wav,0,0,2401,21,3,Chinese,f,1,0.1,6.96253647,0.48660613
XUJIAJIE,19,0,2024-06-14T12:41:27.078Z,english_618.wav,0,0,2401,21,3,Chinese,f,2,0.2,-4.41581756,1.00963977
XUJIAJIE,19,0,2024-06-14T12:41:27.078Z,english_618.wav,0,0,2401,21,3,Chinese,f,3,0.3,-63.5775247,1.29399549
XUJIAJIE,19,0,2024-06-14T12:41:27.078Z,english_618.wav,0,0,2401,21,3,Chinese,f,4,0.32341667,97.77631762,0.84060701
XUJIAJIE,20,0,2024-06-14T12:41:27.078Z,english_659.wav,0,0,776,21,3,Chinese,f,0,0,-86.13080632,0.77157019
XUJIAJIE,20,0,2024-06-14T12:41:27.078Z,english_659.wav,0,0,776,21,3,Chinese,f,1,0.1,39.51927718,1.34569204
XUJIAJIE,20,0,2024-06-14T12:41:27.078Z,english_659.wav,0,0,776,21,3,Chinese,f,2,0.2,-6.22185106,0.71695874
XUJIAJIE,20,0,2024-06-14T12:41:27.078Z,english_659.wav,0,0,776,21,3,Chinese,f,3,0.3,5.64287294,1.04110125
XUJIAJIE,20,0,2024-06-14T12:41:27.078Z,english_659.wav,0,0,776,21,3,Chinese,f,4,0.32341667,47.08694279,1.84115141
XUJIAJIE,21,0,2024-06-14T12:41:27.078Z,english_773.wav,0,0,415,21,3,Chinese,f,0,0,-97.46951928,0.54003315
XUJIAJIE,21,0,2024-06-14T12:41:27.078Z,english_773.wav,0,0,415,21,3,Chinese,f,1,0.1,85.58858853,1.35505424
XUJIAJIE,21,0,2024-06-14T12:41:27.078Z,english_773.wav,0,0,415,21,3,Chinese,f,2,0.2,-54.69649905,1.09283168
XUJIAJIE,21,0,2024-06-14T12:41:27.078Z,english_773.wav,0,0,415,21,3,Chinese,f,3,0.3,-97.24656559,1.42526307
XUJIAJIE,21,0,2024-06-14T12:41:27.078Z,english_773.wav,0,0,415,21,3,Chinese,f,4,0.32341667,40.28006613,0.69844725
XUJIAJIE,22,0,2024-06-14T12:41:27.078Z,english_889.wav,0,1,835,21,3,Chinese,f,0,0,-92.0683747,0.69619005
XUJIAJIE,22,0,2024-06-14T12:41:27.078Z,english_889.wav,0,1,835,21,3,Chinese,f,1,0.1,92.92883541,1.46059979
XUJIAJIE,22,0,2024-06-14T12:41:27.078Z,english_889.wav,0,1,835,21,3,Chinese,f,2,0.2,-38.78028918,1.13034103
XUJIAJIE,22,0,2024-06-14T12:41:27.078Z,english_889.wav,0,1,835,21,3,Chinese,f,3,0.3,33.48812202,1.0639125
XUJIAJIE,22,0,2024-06-14T12:41:27.078Z,english_889.wav,0,1,835,21,3,Chinese,f,4,0.32341667,68.79643169,0.42066581
XUJIAJIE,23,0,2024-06-14T12:41:27.078Z,english_874.wav,0,0,1710,21,3,Chinese,f,0,0,32.94582558,0.77720789
XUJIAJIE,23,0,2024-06-14T12:41:27.078Z,english_874.wav,0,0,1710,21,3,Chinese,f,1,0.1,73.76521909,1.44852608
XUJIAJIE,23,0,2024-06-14T12:41:27.078Z,english_874.wav,0,0,1710,21,3,Chinese,f,2,0.2,-83.94992572,1.18086928
XUJIAJIE,23,0,2024-06-14T12:41:27.078Z,english_874.wav,0,0,1710,21,3,Chinese,f,3,0.3,-61.86791133,0.75042975
XUJIAJIE,23,0,2024-06-14T12:41:27.078Z,english_874.wav,0,0,1710,21,3,Chinese,f,4,0.32341667,-94.71312943,1.11461748
XUJIAJIE,24,0,2024-06-14T12:41:27.078Z,english_897.wav,0,0,404,21,3,Chinese,f,0,0,-6.17515852,1.45954458
XUJIAJIE,24,0,2024-06-14T12:41:27.078Z,english_897.wav,0,0,404,21,3,Chinese,f,1,0.1,-25.56252799,1.4662158
XUJIAJIE,24,0,2024-06-14T12:41:27.078Z,english_897.wav,0,0,404,21,3,Chinese,f,2,0.2,-51.51756482,1.09304129
XUJIAJIE,24,0,2024-06-14T12:41:27.078Z,english_897.wav,0,0,404,21,3,Chinese,f,3,0.3,-57.3776393,1.17713492
XUJIAJIE,24,0,2024-06-14T12:41:27.078Z,english_897.wav,0,0,404,21,3,Chinese,f,4,0.32341667,-65.82780913,1.23726335
XUJIAJIE,25,0,2024-06-14T12:41:27.078Z,english_33.wav,0,0,391,21,3,Chinese,f,0,0,13.53683954,1.37746345
XUJIAJIE,25,0,2024-06-14T12:41:27.078Z,english_33.wav,0,0,391,21,3,Chinese,f,1,0.1,-23.61599557,1.14776292
XUJIAJIE,25,0,2024-06-14T12:41:27.078Z,english_33.wav,0,0,391,21,3,Chinese,f,2,0.2,60.58241295,1.15899553
XUJIAJIE,25,0,2024-06-14T12:41:27.078Z,english_33.wav,0,0,391,21,3,Chinese,f,3,0.3,-2.03686091,0.64766031
XUJIAJIE,25,0,2024-06-14T12:41:27.078Z,english_33.wav,0,0,391,21,3,Chinese,f,4,0.32341667,79.90239576,1.69768968
XUJIAJIE,26,0,2024-06-14T12:41:27.078Z,english_859.wav,0,1,564,21,3,Chinese,f,0,0,71.31858369,0.11764496
XUJIAJIE,26,0,2024-06-14T12:41:27.078Z,english_859.wav,0,1,564,21,3,Chinese,f,1,0.1,-33.60875554,0.29827778
XUJIAJIE,26,0,2024-06-14T12:41:27.078Z,english_859.wav,0,1,564,21,3,Chinese,f,2,0.2,-64.15502461,0.43254339
XUJIAJIE,26,0,2024-06-14T12:41:27.078Z,english_859.wav,0,1,564,21,3,Chinese,f,3,0.3,-36.22537369,0.12368506
XUJIAJIE,26,0,2024-06-14T12:41:27.078Z,english_859.wav,0,1,564,21,3,Chinese,f,4,0.32341667,-23.59955866,0.97858169
XUJIAJIE,27,0,2024-06-14T12:41:27.078Z,english_799.wav,0,0,363,21,3,Chinese,f,0,0,-48.4958847,1.9233431
XUJIAJIE,27,0,2024-06-14T12:41:27.078Z,english_799.wav,0,0,363,21,3,Chinese,f,1,0.1,-9.52866418,1.11542891
XUJIAJIE,27,0,2024-06-14T12:41:27.078Z,english_799.wav,0,0,363,21,3,Chinese,f,2,0.2,1.94176449,0.95865462
XUJIAJIE,27,0,2024-06-14T12:41:27.078Z,english_799.wav,0,0,363,21,3,Chinese,f,3,0.3,5.71676827,0.6616034
XUJIAJIE,27,0,2024-06-14T12:41:27.078Z,english_799.wav,0,0,363,21,3,Chinese,f,4,0.32341667,30.27282792,1.91183458
XUJIAJIE,28,0,2024-06-14T12:41:27.078Z,english_432.wav,0,1,830,21,3,Chinese,f,0,0,34.04923955,0.51661687
XUJIAJIE,28,0,2024-06-14T12:41:27.078Z,english_432.wav,0,1,830,21,3,Chinese,f,1,0.1,-20.16773507,0.2259012
XUJIAJIE,28,0,2024-06-14T12:41:27.078Z,english_432.wav,0,1,830,21,3,Chinese,f,2,0.2,58.06800811,1.98214485
XUJIAJIE,28,0,2024-06-14T12:41:27.078Z,english_432.wav,0,1,830,21,3,Chinese,f,3,0.3,46.82268278,1.23025235
XUJIAJIE,28,0,2024-06-14T12:41:27.078Z,english_432.wav,0,1,830,21,3,Chinese,f,4,0.32341667,16.04458546,1.72803009
XUJIAJIE,29,0,2024-06-14T12:41:27.078Z,english_401.wav,0,0,467,21,3,Chinese,f,0,0,-70.37998858,1.11338134
XUJIAJIE,29,0,2024-06-14T12:41:27.078Z,english_401.wav,0,0,467,21,3,Chinese,f,1,0.1,49.27188779,1.59691292
XUJIAJIE,29,0,2024-06-14T12:41:27.078Z,english_401.wav,0,0,467,21,3,Chinese,f,2,0.2,5.09566389,0.88679935
XUJIAJIE,29,0,2024-06-14T12:41:27.078Z,english_401.wav,0,0,467,21,3,Chinese,f,3,0.3,58.42368176,1.89749174
XUJIAJIE,29,0,2024-06-14T12:41:27.078Z,english_401.wav,0,0,467,21,3,Chinese,f,4,0.32341667,-43.06407799,1.35831765
XUJIAJIE,30,0,2024-06-14T12:41:27.078Z,english_823.wav,0,1,787,21,3,Chinese,f,0,0,24.6891334,1.19409205
XUJIAJIE,30,0,2024-06-14T12:41:27.078Z,english_823.wav,0,1,787,21,3,Chinese,f,1,0.1,86.03794788,0.72053846
XUJIAJIE,30,0,2024-06-14T12:41:27.078Z,english_823.wav,0,1,787,21,3,Chinese,f,2,0.2,45.97308045,0.2138623
XUJIAJIE,30,0,2024-06-14T12:41:27.078Z,english_823.wav,0,1,787,21,3,Chinese,f,3,0.3,39.11596791,1.56743943
XUJIAJIE,30,0,2024-06-14T12:41:27.078Z,english_823.wav,0,1,787,21,3,Chinese,f,4,0.32341667,10.29734006,1.24065623
XUJIAJIE,31,0,2024-06-14T12:41:27.078Z,english_726.wav,0,0,356,21,3,Chinese,f,0,0,76.65318619,0.71374833
XUJIAJIE,31,0,2024-06-14T12:41:27.078Z,english_726.wav,0,0,356,21,3,Chinese,f,1,0.1,62.97746083,1.94407191
XUJIAJIE,31,0,2024-06-14T12:41:27.078Z,english_726.wav,0,0,356,21,3,Chinese,f,2,0.2,-20.72245964,0.55951675
XUJIAJIE,31,0,2024-06-14T12:41:27.078Z,english_726.wav,0,0,356,21,3,Chinese,f,3,0.3,42.64953343,0.7826891
XUJIAJIE,31,0,2024-06-14T12:41:27.078Z,english_726.wav,0,0,356,21,3,Chinese,f,4,0.32341667,23.5514061,0.11592549
XUJIAJIE,32,0,2024-06-14T12:41:27.078Z,english_867.wav,0,0,378,21,3,Chinese,f,0,0,9.0283109,0.25019481
XUJIAJIE,32,0,2024-06-14T12:41:27.078Z,english_867.wav,0,0,378,21,3,Chinese,f,1,0.1,6.96107974,0.62311927
XUJIAJIE,32,0,2024-06-14T12:41:27.078Z,english_867.wav,0,0,378,21,3,Chinese,f,2,0.2,14.88339172,1.78918939
XUJIAJIE,32,0,2024-06-14T12:41:27.078Z,english_867.wav,0,0,378,21,3,Chinese,f,3,0.3,-2.73093064,1.34945049
XUJIAJIE,32,0,2024-06-14T12:41:27.078Z,english_867.wav,0,0,378,21,3,Chinese,f,4,0.32341667,-85.27526638,0.75720604
XUJIAJIE,33,0,2024-06-14T12:41:27.078Z,english_623.wav,0,0,455,21,3,Chinese,f,0,0,-23.54178515,1.91881792
XUJIAJIE,33,0,2024-06-14T12:41:27.078Z,english_623.wav,0,0,455,21,3,Chinese,f,1,0.1,-47.52772515,0.99675119
XUJIAJIE,33,0,2024-06-14T12:41:27.078Z,english_623.wav,0,0,455,21,3,Chinese,f,2,0.2,47.20668934,0.26332691
XUJIAJIE,33,0,2024-06-14T12:41:27.078Z,english_623.wav,0,0,455,21,3,Chinese,f,3,0.3,-98.32001938,1.33317057
XUJIAJIE,33,0,2024-06-14T12:41:27.078Z,english_623.wav,0,0,455,21,3,Chinese,f,4,0.32341667,-63.09014275,1.04211108
XUJIAJIE,34,0,2024-06-14T12:41:27.078Z,english_444.wav,0,1,710,21,3,Chinese,f,0,0,57.2872587,0.52242118
XUJIAJIE,34,0,2024-06-14T12:41:27.078Z,english_444.wav,0,1,710,21,3,Chinese,f,1,0.1,68.85097071,1.61316948
XUJIAJIE,34,0,2024-06-14T12:41:27.078Z,english_444.wav,0,1,710,21,3,Chinese,f,2,0.2,-30.10164543,0.15196309
XUJIAJIE,34,0,2024-06-14T12:41:27.078Z,english_444.wav,0,1,710,21,3,Chinese,f,3,0.3,-57.0249627,0.44426911
XUJIAJIE,34,0,2024-06-14T12:41:27.078Z,english_444.wav,0,1,710,21,3,Chinese,f,4,0.32341667,-54.19692118,1.48693747
XUJIAJIE,35,0,2024-06-14T12:41:27.078Z,english_532.wav,0,1,586,21,3,Chinese,f,0,0,-19.59321792,1.69826346
XUJIAJIE,35,0,2024-06-14T12:41:27.078Z,english_532.wav,0,1,586,21,3,Chinese,f,1,0.1,84.44945775,1.19849103
XUJIAJIE,35,0,2024-06-14T12:41:27.078Z,english_532.wav,0,1,586,21,3,Chinese,f,2,0.2,-5.6477907,0.05164805
XUJIAJIE,35,0,2024-06-14T12:41:27.078Z,english_532.wav,0,1,586,21,3,Chinese,f,3,0.3,-66.11375502,0.74129516
XUJIAJIE,35,0,2024-06-14T12:41:27.078Z,english_532.wav,0,1,586,21,3,Chinese,f,4,0.32341667,-46.16722618,0.11393119
XUJIAJIE,36,0,2024-06-14T12:41:27.078Z,english_144.wav,0,1,663,21,3,Chinese,f,0,0,-68.95587174,0.23806678
XUJIAJIE,36,0,2024-06-14T12:41:27.078Z,english_144.wav,0,1,663,21,3,Chinese,f,1,0.1,-74.16141139,0.77020267
XUJIAJIE,36,0,2024-06-14T12:41:27.078Z,english_144.wav,0,1,663,21,3,Chinese,f,2,0.2,-19.31034794,0.33858197
XUJIAJIE,36,0,2024-06-14T12:41:27.078Z,english_144.wav,0,1,663,21,3,Chinese,f,3,0.3,-77.96768175,1.42512122
XUJIAJIE,36,0,2024-06-14T12:41:27.078Z,english_144.wav,0,1,663,21,3,Chinese,f,4,0.32341667,3.46911061,0.57629619
XUJIAJIE,37,0,2024-06-14T12:41:27.078Z,english_547.wav,0,0,227,21,3,Chinese,f,0,0,30.48969685,1.04682874
XUJIAJIE,37,0,2024-06-14T12:41:27.078Z,english_547.wav,0,0,227,21,3,Chinese,f,1,0.1,-38.27442703,0.75017858
XUJIAJIE,37,0,2024-06-14T12:41:27.078Z,english_547.wav,0,0,227,21,3,Chinese,f,2,0.2,29.58442849,0.7996645
XUJIAJIE,37,0,2024-06-14T12:41:27.078Z,english_547.wav,0,0,227,21,3,Chinese,f,3,0.3,-4.27268154,1.92102789
XUJIAJIE,37,0,2024-06-14T12:41:27.078Z,english_547.wav,0,0,227,21,3,Chinese,f,4,0.32341667,58.02076364,1.77056707
XUJIAJIE,38,0,2024-06-14T12:41:27.078Z,english_411.wav,0,1,164,21,3,Chinese,f,0,0,75.357241,0.83773649
XUJIAJIE,38,0,2024-06-14T12:41:27.078Z,english_411.wav,0,1,164,21,3,Chinese,f,1,0.1,-55.75688593,0.80885485
XUJIAJIE,38,0,2024-06-14T12:41:27.078Z,english_411.wav,0,1,164,21,3,Chinese,f,2,0.2,61.10111178,0.61144368
XUJIAJIE,38,0,2024-06-14T12:41:27.078Z,english_411.wav,0,1,164,21,3,Chinese,f,3,0.3,90.25367142,0.73863407
XUJIAJIE,38,0,2024-06-14T12:41:27.078Z,english_411.wav,0,1,164,21,3,Chinese,f,4,0.32341667,26.85831553,0.4624235
XUJIAJIE,39,0,2024-06-14T12:41:27.078Z,english_713.wav,0,0,394,21,3,Chinese,f,0,0,18.77281956,1.04868626
XUJIAJIE,39,0,2024-06-14T12:41:27.078Z,english_713.wav,0,0,394,21,3,Chinese,f,1,0.1,40.78610286,0.48332939
XUJIAJIE,39,0,2024-06-14T12:41:27.078Z,english_713.wav,0,0,394,21,3,Chinese,f,2,0.2,84.18153491,0.83217717
XUJIAJIE,39,0,2024-06-14T12:41:27.078Z,english_713.wav,0,0,394,21,3,Chinese,f,3,0.3,47.00827256,1.90318663
XUJIAJIE,39,0,2024-06-14T12:41:27.078Z,english_713.wav,0,0,394,21,3,Chinese,f,4,0.32341667,66.01008384,0.50055362
XUJIAJIE,40,0,2024-06-14T12:41:27.078Z,english_127.wav,0,0,200,21,3,Chinese,f,0,0,-69.70750805,0.25070661
XUJIAJIE,40,0,2024-06-14T12:41:27.078Z,english_127.wav,0,0,200,21,3,Chinese,f,1,0.1,-23.17484413,1.1475992
XUJIAJIE,40,0,2024-06-14T12:41:27.078Z,english_127.wav,0,0,200,21,3,Chinese,f,2,0.2,16.27024862,1.99299371
XUJIAJIE,40,0,2024-06-14T12:41:27.078Z,english_127.wav,0,0,200,21,3,Chinese,f,3,0.3,-50.08342814,0.57749513
XUJIAJIE,40,0,2024-06-14T12:41:27.078Z,english_127.wav,0,0,200,21,3,Chinese,f,4,0.32341667,22.60332787,1.27832678
XUJIAJIE,41,0,2024-06-14T12:41:27.078Z,english_644.wav,0,0,293,21,3,Chinese,f,0,0,21.57551932,1.87520752
XUJIAJIE,41,0,2024-06-14T12:41:27.078Z,english_644.wav,0,0,293,21,3,Chinese,f,1,0.1,-11.98636437,1.28750901
XUJIAJIE,41,0,2024-06-14T12:41:27.078Z,english_644.wav,0,0,293,21,3,Chinese,f,2,0.2,-86.21942338,0.33708129
XUJIAJIE,41,0,2024-06-14T12:41:27.078Z,english_644.wav,0,0,293,21,3,Chinese,f,3,0.3,-38.98906039,1.53524213
XUJIAJIE,41,0,2024-06-14T12:41:27.078Z,english_644.wav,0,0,293,21,3,Chinese,f,4,0.32341667,-28.58177745,0.3058721
XUJIAJIE,42,0,2024-06-14T12:41:27.078Z,english_593.wav,0,0,197,21,3,Chinese,f,0,0,0.23295982,1.83954553
XUJIAJIE,42,0,2024-06-14T12:41:27.078Z,english_593.wav,0,0,197,21,3,Chinese,f,1,0.1,-0.52832444,1.77820403
XUJIAJIE,42,0,2024-06-14T12:41:27.078Z,english_593.wav,0,0,197,21,3,Chinese,f,2,0.2,18.28609946,0.36770598
XUJIAJIE,42,0,2024-06-14T12:41:27.078Z,english_593.wav,0,0,197,21,3,Chinese,f,3,0.3,21.25816485,0.42189114
XUJIAJIE,42,0,2024-06-14T12:41:27.078Z,english_593.wav,0,0,197,21,3,Chinese,f,4,0.32341667,60.44039038,0.07588974
XUJIAJIE,43,0,2024-06-14T12:41:27.078Z,english_826.wav,0,0,230,21,3,Chinese,f,0,0,24.96468068,1.6444456
XUJIAJIE,43,0,2024-06-14T12:41:27.078Z,english_826.wav,0,0,230,21,3,Chinese,f,1,0.1,1.37616969,0.97947611
XUJIAJIE,43,0,2024-06-14T12:41:27.078Z,english_826.wav,0,0,230,21,3,Chinese,f,2,0.2,-71.19975556,0.49097947
XUJIAJIE,43,0,2024-06-14T12:41:27.078Z,english_826.wav,0,0,230,21,3,Chinese,f,3,0.3,-48.49913399,0.98819908
XUJIAJIE,43,0,2024-06-14T12:41:27.078Z,english_826.wav,0,0,230,21,3,Chinese,f,4,0.32341667,40.69153462,1.05842158
XUJIAJIE,44,0,2024-06-14T12:41:27.078Z,english_624.wav,0,0,253,21,3,Chinese,f,0,0,-66.94889137,0.79130031
XUJIAJIE,44,0,2024-06-14T12:41:27.078Z,english_624.wav,0,0,253,21,3,Chinese,f,1,0.1,-6.87427926,1.85178888
XUJIAJIE,44,0,2024-06-14T12:41:27.078Z,english_624.wav,0,0,253,21,3,Chinese,f,2,0.2,69.52298075,0.79988954
XUJIAJIE,44,0,2024-06-14T12:41:27.078Z,english_624.wav,0,0,253,21,3,Chinese,f,3,0.3,-45.26015132,0.87521033
XUJIAJIE,44,0,2024-06-14T12:41:27.078Z,english_624.wav,0,0,253,21,3,Chinese,f,4,0.32341667,-50.37935108,1.50754026
XUJIAJIE,45,0,2024-06-14T12:41:27.078Z,english_390.wav,0,0,366,21,3,Chinese,f,0,0,-50.40750922,1.41643644
XUJIAJIE,45,0,2024-06-14T12:41:27.078Z,english_390.wav,0,0,366,21,3,Chinese,f,1,0.1,-38.67641955,0.84399933
XUJIAJIE,45,0,2024-06-14T12:41:27.078Z,english_390.wav,0,0,366,21,3,Chinese,f,2,0.2,-37.03459725,1.67796426
XUJIAJIE,45,0,2024-06-14T12:41:27.078Z,english_390.wav,0,0,366,21,3,Chinese,f,3,0.3,-24.07335547,0.43781117
XUJIAJIE,45,0,2024-06-14T12:41:27.078Z,english_390.wav,0,0,366,21,3,Chinese,f,4,0.32341667,75.09366884,0.01225463
XUJIAJIE,46,0,2024-06-14T12:41:27.078Z,english_202.wav,0,0,112,21,3,Chinese,f,0,0,-30.7410802,1.48506999
XUJIAJIE,46,0,2024-06-14T12:41:27.078Z,english_202.wav,0,0,112,21,3,Chinese,f,1,0.1,-19.68361402,1.61937363
XUJIAJIE,46,0,2024-06-14T12:41:27.078Z,english_202.wav,0,0,112,21,3,Chinese,f,2,0.2,-9.93463647,0.73964021
XUJIAJIE,46,0,2024-06-14T12:41:27.078Z,english_202.wav,0,0,112,21,3,Chinese,f,3,0.3,-7.1971022,1.93955383
XUJIAJIE,46,0,2024-06-14T12:41:27.078Z,english_202.wav,0,0,112,21,3,Chinese,f,4,0.32341667,-23.97797133,1.43199581
XUJIAJIE,47,0,2024-06-14T12:41:27.078Z,english_534.wav,0,1,399,21,3,Chinese,f,0,0,-42.4271338,1.1267565
XUJIAJIE,47,0,2024-06-14T12:41:27.078Z,english_534.wav,0,1,399,21,3,Chinese,f,1,0.1,-80.6424644,0.6842577
XUJIAJIE,47,0,2024-06-14T12:41:27.078Z,english_534.wav,0,1,399,21,3,Chinese,f,2,0.2,59.29592388,0.01459656
XUJIAJIE,47,0,2024-06-14T12:41:27.078Z,english_534.wav,0,1,399,21,3,Chinese,f,3,0.3,75.02007223,1.03701198
XUJIAJIE,47,0,2024-06-14T12:41:27.078Z,english_534.wav,0,1,399,21,3,Chinese,f,4,0.32341667,-57.55026449,1.25840342
XUJIAJIE,48,0,2024-06-14T12:41:27.078Z,english_197.wav,0,0,92,21,3,Chinese,f,0,0,-60.72223742,1.8449777
XUJIAJIE,48,0,2024-06-14T12:41:27.078Z,english_197.wav,0,0,92,21,3,Chinese,f,1,0.1,-88.93421142,1.74693134
XUJIAJIE,48,0,2024-06-14T12:41:27.078Z,english_197.wav,0,0,92,21,3,Chinese,f,2,0.2,51.43827126,1.11057597
XUJIAJIE,48,0,2024-06-14T12:41:27.078Z,english_197.wav,0,0,92,21,3,Chinese,f,3,0.3,7.80125839,1.67371275
XUJIAJIE,48,0,2024-06-14T12:41:27.078Z,english_197.wav,0,0,92,21,3,Chinese,f,4,0.32341667,-53.06876459,1.16077516
XUJIAJIE,49,0,2024-06-14T12:41:27.078Z,english_211.wav,0,0,208,21,3,Chinese,f,0,0,37.34807541,1.77380832
XUJIAJIE,49,0,2024-06-14T12:41:27.078Z,english_211.wav,0,0,208,21,3,Chinese,f,1,0.1,97.98979508,1.35747523
XUJIAJIE,49,0,2024-06-14T12:41:27.078Z,english_211.wav,0,0,208,21,3,Chinese,f,2,0.2,-20.02981109,1.74013371
XUJIAJIE,49,0,2024-06-14T12:41:27.078Z,english_211.wav,0,0,208,21,3,Chinese,f,3,0.3,-69.8116311,0.94808553
XUJIAJIE,49,0,2024-06-14T12:41:27.078Z,english_211.wav,0,0,208,21,3,Chinese,f,4,0.32341667,35.11126142,0.23094119
XUJIAJIE,50,1,2024-06-14T12:41:27.078Z,english_311.wav,0,1,525,21,3,Chinese,f,0,0,-35.59355899,0.16094856
XUJIAJIE,50,1,2024-06-14T12:41:27.078Z,english_311.wav,0,1,525,21,3,Chinese,f,1,0.1,-50.39310557,1.33895436
XUJIAJIE,50,1,2024-06-14T12:41:27.078Z,english_311.wav,0,1,525,21,3,Chinese,f,2,0.2,-53.37222601,0.01028283
XUJIAJIE,50,1,2024-06-14T12:41:27.078Z,english_311.wav,0,1,525,21,3,Chinese,f,3,0.3,72.25802658,0.48497386
XUJIAJIE,50,1,2024-06-14T12:41:27.078Z,english_311.wav,0,1,525,21,3,Chinese,f,4,0.32341667,48.72421008,0.48591183
XUJIAJIE,51,1,2024-06-14T12:41:27.078Z,english_479.wav,0,1,392,21,3,Chinese,f,0,0,74.98268857,0.98081986
XUJIAJIE,51,1,2024-06-14T12:41:27.078Z,english_479.wav,0,1,392,21,3,Chinese,f,1,0.1,16.03290679,0.71187618
XUJIAJIE,51,1,2024-06-14T12:41:27.078Z,english_479.wav,0,1,392,21,3,Chinese,f,2,0.2,78.97784812,0.27050369
XUJIAJIE,51,1,2024-06-14T12:41:27.078Z,english_479.wav,0,1,392,21,3,Chinese,f,3,0.3,-15.63843586,1.15797271
XUJIAJIE,51,1,2024-06-14T12:41:27.078Z,english_479.wav,0,1,392,21,3,Chinese,f,4,0.32341667,42.04802753,1.51318639
XUJIAJIE,52,1,2024-06-14T12:41:27.078Z,english_702.wav,0,0,228,21,3,Chinese,f,0,0,-19.6614881,1.13820402
XUJIAJIE,52,1,2024-06-14T12:41:27.078Z,english_702.wav,0,0,228,21,3,Chinese,f,1,0.1,-92.60133235,1.47755069
XUJIAJIE,52,1,2024-06-14T12:41:27.078Z,english_702.wav,0,0,228,21,3,Chinese,f,2,0.2,-18.01071493,1.33705675
XUJIAJIE,52,1,2024-06-14T12:41:27.078Z,english_702.wav,0,0,228,21,3,Chinese,f,3,0.3,91.54675011,0.59768286
XUJIAJIE,52,1,2024-06-14T12:41:27.078Z,english_702.wav,0,0,228,21,3,Chinese,f,4,0.32341667,23.09112348,0.82103567
XUJIAJIE,53,1,2024-06-14T12:41:27.078Z,english_848.wav,0,0,434,21,3,Chinese,f,0,0,43.30233352,0.12582596
XUJIAJIE,53,1,2024-06-14T12:41:27.078Z,english_848.wav,0,0,434,21,3,Chinese,f,1,0.1,-77.77691247,1.72621372
XUJIAJIE,53,1,2024-06-14T12:41:27.078Z,english_848.wav,0,0,434,21,3,Chinese,f,2,0.2,-68.99020863,1.753656
XUJIAJIE,53,1,2024-06-14T12:41:27.078Z,english_848.wav,0,0,434,21,3,Chinese,f,3,0.3,-43.68641023,1.37442753
XUJIAJIE,53,1,2024-06-14T12:41:27.078Z,english_848.wav,0,0,434,21,3,Chinese,f,4,0.32341667,-14.19502025,1.04930351
XUJIAJIE,54,1,2024-06-14T12:41:27.078Z,english_349.wav,0,0,598,21,3,Chinese,f,0,0,-10.00495534,0.36915768
XUJIAJIE,54,1,2024-06-14T12:41:27.078Z,english_349.wav,0,0,598,21,3,Chinese,f,1,0.1,54.31199814,0.83111041
XUJIAJIE,54,1,2024-06-14T12:41:27.078Z,english_349.wav,0,0,598,21,3,Chinese,f,2,0.2,48.17968705,1.70147194
XUJIAJIE,54,1,2024-06-14T12:41:27.078Z,english_349.wav,0,0,598,21,3,Chinese,f,3,0.3,8.48926652,1.08588898
XUJIAJIE,54,1,2024-06-14T12:41:27.078Z,english_349.wav,0,0,598,21,3,Chinese,f,4,0.32341667,42.05620052,0.02584958
XUJIAJIE,55,1,2024-06-14T12:41:27.078Z,english_690.wav,0,0,392,21,3,Chinese,f,0,0,33.047654,1.58265684
XUJIAJIE,55,1,2024-06-14T12:41:27.078Z,english_690.wav,0,0,392,21,3,Chinese,f,1,0.1,0.0212167444,0.6931717
XUJIAJIE,55,1,2024-06-14T12:41:27.078Z,english_690.wav,0,0,392,21,3,Chinese,f,2,0.2,21.343237,1.47002515
XUJIAJIE,55,1,2024-06-14T12:41:27.078Z,english_690.wav,0,0,392,21,3,Chinese,f,3,0.3,35.4710796,1.9856235
XUJIAJIE,55,1,2024-06-14T12:41:27.078Z,english_690.wav,0,0,392,21,3,Chinese,f,4,0.323416667,79.4400816,1.00479917
XUJIAJIE,56,1,2024-06-14T12:41:27.078Z,english_772.wav,0,0,343,21,3,Chinese,f,0,0,-76.23750274,0.54712598
XUJIAJIE,56,1,2024-06-14T12:41:27.078Z,english_772.wav,0,0,343,21,3,Chinese,f,1,0.1,54.42820472,1.66698734
XUJIAJIE,56,1,2024-06-14T12:41:27.078Z,english_772.wav,0,0,343,21,3,Chinese,f,2,0.2,26.41325181,1.761061
XUJIAJIE,56,1,2024-06-14T12:41:27.078Z,english_772.wav,0,0,343,21,3,Chinese,f,3,0.3,14.10037165,1.80899506
XUJIAJIE,56,1,2024-06-14T12:41:27.078Z,english_772.wav,0,0,343,21,3,Chinese,f,4,0.32341667,-75.83605273,1.29882268
XUJIAJIE,57,1,2024-06-14T12:41:27.078Z,english_58.wav,0,0,288,21,3,Chinese,f,0,0,20.12478601,1.19415515
XUJIAJIE,57,1,2024-06-14T12:41:27.078Z,english_58.wav,0,0,288,21,3,Chinese,f,1,0.1,-22.60038942,0.26098942
XUJIAJIE,57,1,2024-06-14T12:41:27.078Z,english_58.wav,0,0,288,21,3,Chinese,f,2,0.2,34.38627512,1.99195241
XUJIAJIE,57,1,2024-06-14T12:41:27.078Z,english_58.wav,0,0,288,21,3,Chinese,f,3,0.3,30.90369434,0.42925074
XUJIAJIE,57,1,2024-06-14T12:41:27.078Z,english_58.wav,0,0,288,21,3,Chinese,f,4,0.32341667,11.39971337,0.50368767
XUJIAJIE,58,1,2024-06-14T12:41:27.078Z,english_627.wav,0,1,1220,21,3,Chinese,f,0,0,-53.99355102,0.04887222
XUJIAJIE,58,1,2024-06-14T12:41:27.078Z,english_627.wav,0,1,1220,21,3,Chinese,f,1,0.1,-3.03417463,0.14119608
XUJIAJIE,58,1,2024-06-14T12:41:27.078Z,english_627.wav,0,1,1220,21,3,Chinese,f,2,0.2,83.9257281,0.97350107
XUJIAJIE,58,1,2024-06-14T12:41:27.078Z,english_627.wav,0,1,1220,21,3,Chinese,f,3,0.3,52.52073868,0.6697358
XUJIAJIE,58,1,2024-06-14T12:41:27.078Z,english_627.wav,0,1,1220,21,3,Chinese,f,4,0.32341667,-13.85481025,0.92660526
XUJIAJIE,59,1,2024-06-14T12:41:27.078Z,english_661.wav,0,0,407,21,3,Chinese,f,0,0,14.15805194,1.06290545
XUJIAJIE,59,1,2024-06-14T12:41:27.078Z,english_661.wav,0,0,407,21,3,Chinese,f,1,0.1,-77.97020538,1.12952287
XUJIAJIE,59,1,2024-06-14T12:41:27.078Z,english_661.wav,0,0,407,21,3,Chinese,f,2,0.2,-31.78835068,1.47556517
XUJIAJIE,59,1,2024-06-14T12:41:27.078Z,english_661.wav,0,0,407,21,3,Chinese,f,3,0.3,1.84085651,0.41137052
XUJIAJIE,59,1,2024-06-14T12:41:27.078Z,english_661.wav,0,0,407,21,3,Chinese,f,4,0.32341667,31.49677972,1.48872703
XUJIAJIE,60,1,2024-06-14T12:41:27.078Z,english_288.wav,0,0,135,21,3,Chinese,f,0,0,35.15100251,1.01330681
XUJIAJIE,60,1,2024-06-14T12:41:27.078Z,english_288.wav,0,0,135,21,3,Chinese,f,1,0.1,49.55485069,0.90213232
XUJIAJIE,60,1,2024-06-14T12:41:27.078Z,english_288.wav,0,0,135,21,3,Chinese,f,2,0.2,28.604189,1.8181607
XUJIAJIE,60,1,2024-06-14T12:41:27.078Z,english_288.wav,0,0,135,21,3,Chinese,f,3,0.3,38.59633835,1.82579698
XUJIAJIE,60,1,2024-06-14T12:41:27.078Z,english_288.wav,0,0,135,21,3,Chinese,f,4,0.32341667,-98.9026904,0.14571105
XUJIAJIE,61,1,2024-06-14T12:41:27.078Z,english_134.wav,0,0,565,21,3,Chinese,f,0,0,70.72156413,1.84700732
XUJIAJIE,61,1,2024-06-14T12:41:27.078Z,english_134.wav,0,0,565,21,3,Chinese,f,1,0.1,-64.20531103,1.20878884
XUJIAJIE,61,1,2024-06-14T12:41:27.078Z,english_134.wav,0,0,565,21,3,Chinese,f,2,0.2,35.7891913,0.51924654
XUJIAJIE,61,1,2024-06-14T12:41:27.078Z,english_134.wav,0,0,565,21,3,Chinese,f,3,0.3,-77.33475241,1.95615398
XUJIAJIE,61,1,2024-06-14T12:41:27.078Z,english_134.wav,0,0,565,21,3,Chinese,f,4,0.32341667,85.6978336,1.72102519
XUJIAJIE,62,1,2024-06-14T12:41:27.078Z,english_209.wav,0,0,408,21,3,Chinese,f,0,0,14.15361396,1.44232267
XUJIAJIE,62,1,2024-06-14T12:41:27.078Z,english_209.wav,0,0,408,21,3,Chinese,f,1,0.1,85.95109622,1.49291498
XUJIAJIE,62,1,2024-06-14T12:41:27.078Z,english_209.wav,0,0,408,21,3,Chinese,f,2,0.2,18.04804687,1.19611731
XUJIAJIE,62,1,2024-06-14T12:41:27.078Z,english_209.wav,0,0,408,21,3,Chinese,f,3,0.3,28.2522976,1.49647535
XUJIAJIE,62,1,2024-06-14T12:41:27.078Z,english_209.wav,0,0,408,21,3,Chinese,f,4,0.32341667,5.36776296,0.30324849
XUJIAJIE,63,1,2024-06-14T12:41:27.078Z,english_940.wav,0,1,502,21,3,Chinese,f,0,0,47.11462569,0.32214594
XUJIAJIE,63,1,2024-06-14T12:41:27.078Z,english_940.wav,0,1,502,21,3,Chinese,f,1,0.1,11.81885745,0.21999868
XUJIAJIE,63,1,2024-06-14T12:41:27.078Z,english_940.wav,0,1,502,21,3,Chinese,f,2,0.2,-1.49931669,0.34357292
XUJIAJIE,63,1,2024-06-14T12:41:27.078Z,english_940.wav,0,1,502,21,3,Chinese,f,3,0.3,45.92466934,1.61274527
XUJIAJIE,63,1,2024-06-14T12:41:27.078Z,english_940.wav,0,1,502,21,3,Chinese,f,4,0.32341667,-72.78738407,0.9185628
XUJIAJIE,64,1,2024-06-14T12:41:27.078Z,english_526.wav,0,1,457,21,3,Chinese,f,0,0,-32.34532461,0.924261
XUJIAJIE,64,1,2024-06-14T12:41:27.078Z,english_526.wav,0,1,457,21,3,Chinese,f,1,0.1,-46.6208459,0.25414499
XUJIAJIE,64,1,2024-06-14T12:41:27.078Z,english_526.wav,0,1,457,21,3,Chinese,f,2,0.2,-42.84927068,1.01925886
XUJIAJIE,64,1,2024-06-14T12:41:27.078Z,english_526.wav,0,1,457,21,3,Chinese,f,3,0.3,3.47643827,0.65966822
XUJIAJIE,64,1,2024-06-14T12:41:27.078Z,english_526.wav,0,1,457,21,3,Chinese,f,4,0.32341667,52.79087598,1.50872035
XUJIAJIE,65,1,2024-06-14T12:41:27.078Z,english_415.wav,0,1,921,21,3,Chinese,f,0,0,36.00223879,1.49199547
XUJIAJIE,65,1,2024-06-14T12:41:27.078Z,english_415.wav,0,1,921,21,3,Chinese,f,1,0.1,-82.63332374,1.79959711
XUJIAJIE,65,1,2024-06-14T12:41:27.078Z,english_415.wav,0,1,921,21,3,Chinese,f,2,0.2,57.55038703,0.64689267
XUJIAJIE,65,1,2024-06-14T12:41:27.078Z,english_415.wav,0,1,921,21,3,Chinese,f,3,0.3,-9.83064734,0.31881377
XUJIAJIE,65,1,2024-06-14T12:41:27.078Z,english_415.wav,0,1,921,21,3,Chinese,f,4,0.32341667,-29.78573939,0.18568486
XUJIAJIE,66,1,2024-06-14T12:41:27.078Z,english_333.wav,0,0,253,21,3,Chinese,f,0,0,61.26933292,0.50090252
XUJIAJIE,66,1,2024-06-14T12:41:27.078Z,english_333.wav,0,0,253,21,3,Chinese,f,1,0.1,38.65533839,1.61630161
XUJIAJIE,66,1,2024-06-14T12:41:27.078Z,english_333.wav,0,0,253,21,3,Chinese,f,2,0.2,-27.91605269,1.73322278
XUJIAJIE,66,1,2024-06-14T12:41:27.078Z,english_333.wav,0,0,253,21,3,Chinese,f,3,0.3,36.00101096,0.67742762
XUJIAJIE,66,1,2024-06-14T12:41:27.078Z,english_333.wav,0,0,253,21,3,Chinese,f,4,0.32341667,-78.35943708,0.46993908
XUJIAJIE,67,1,2024-06-14T12:41:27.078Z,english_66.wav,0,1,387,21,3,Chinese,f,0,0,16.07147303,1.75051971
XUJIAJIE,67,1,2024-06-14T12:41:27.078Z,english_66.wav,0,1,387,21,3,Chinese,f,1,0.1,50.76577123,0.02971233
XUJIAJIE,67,1,2024-06-14T12:41:27.078Z,english_66.wav,0,1,387,21,3,Chinese,f,2,0.2,-29.1595681,0.63583886
XUJIAJIE,67,1,2024-06-14T12:41:27.078Z,english_66.wav,0,1,387,21,3,Chinese,f,3,0.3,-80.89120138,1.46734397
XUJIAJIE,67,1,2024-06-14T12:41:27.078Z,english_66.wav,0,1,387,21,3,Chinese,f,4,0.32341667,-8.46229461,1.61280944
XUJIAJIE,68,1,2024-06-14T12:41:27.078Z,english_21.wav,0,0,220,21,3,Chinese,f,0,0,-21.85116114,1.17417274
XUJIAJIE,68,1,2024-06-14T12:41:27.078Z,english_21.wav,0,0,220,21,3,Chinese,f,1,0.1,-94.69976897,0.84289237
XUJIAJIE,68,1,2024-06-14T12:41:27.078Z,english_21.wav,0,0,220,21,3,Chinese,f,2,0.2,59.00053046,1.58737119
XUJIAJIE,68,1,2024-06-14T12:41:27.078Z,english_21.wav,0,0,220,21,3,Chinese,f,3,0.3,-81.44868512,0.70500889
XUJIAJIE,68,1,2024-06-14T12:41:27.078Z,english_21.wav,0,0,220,21,3,Chinese,f,4,0.32341667,-68.72650823,1.41810016
XUJIAJIE,69,1,2024-06-14T12:41:27.078Z,english_571.wav,0,1,797,21,3,Chinese,f,0,0,-42.92588422,0.65590276
XUJIAJIE,69,1,2024-06-14T12:41:27.078Z,english_571.wav,0,1,797,21,3,Chinese,f,1,0.1,-87.39276897,1.8306878
XUJIAJIE,69,1,2024-06-14T12:41:27.078Z,english_571.wav,0,1,797,21,3,Chinese,f,2,0.2,19.06282168,0.06889765
XUJIAJIE,69,1,2024-06-14T12:41:27.078Z,english_571.wav,0,1,797,21,3,Chinese,f,3,0.3,-99.30459792,0.29364209
XUJIAJIE,69,1,2024-06-14T12:41:27.078Z,english_571.wav,0,1,797,21,3,Chinese,f,4,0.32341667,41.25263337,1.388798
XUJIAJIE,70,1,2024-06-14T12:41:27.078Z,english_909.wav,0,0,432,21,3,Chinese,f,0,0,-19.4205152,0.17681169
XUJIAJIE,70,1,2024-06-14T12:41:27.078Z,english_909.wav,0,0,432,21,3,Chinese,f,1,0.1,-31.830868,1.02014656
XUJIAJIE,70,1,2024-06-14T12:41:27.078Z,english_909.wav,0,0,432,21,3,Chinese,f,2,0.2,71.05598051,1.59945112
XUJIAJIE,70,1,2024-06-14T12:41:27.078Z,english_909.wav,0,0,432,21,3,Chinese,f,3,0.3,-13.09259164,1.33685121
XUJIAJIE,70,1,2024-06-14T12:41:27.078Z,english_909.wav,0,0,432,21,3,Chinese,f,4,0.32341667,-99.47743822,0.41114962
XUJIAJIE,71,1,2024-06-14T12:41:27.078Z,english_910.wav,0,0,470,21,3,Chinese,f,0,0,-5.78748479,0.61840584
XUJIAJIE,71,1,2024-06-14T12:41:27.078Z,english_910.wav,0,0,470,21,3,Chinese,f,1,0.1,25.040103,1.20431928
XUJIAJIE,71,1,2024-06-14T12:41:27.078Z,english_910.wav,0,0,470,21,3,Chinese,f,2,0.2,-40.66398147,1.66594732
XUJIAJIE,71,1,2024-06-14T12:41:27.078Z,english_910.wav,0,0,470,21,3,Chinese,f,3,0.3,-99.21011725,0.99007018
XUJIAJIE,71,1,2024-06-14T12:41:27.078Z,english_910.wav,0,0,470,21,3,Chinese,f,4,0.32341667,30.82754841,0.23705338
XUJIAJIE,72,1,2024-06-14T12:41:27.078Z,english_155.wav,0,0,457,21,3,Chinese,f,0,0,53.87474094,1.93436975
XUJIAJIE,72,1,2024-06-14T12:41:27.078Z,english_155.wav,0,0,457,21,3,Chinese,f,1,0.1,74.81745726,0.64472983
XUJIAJIE,72,1,2024-06-14T12:41:27.078Z,english_155.wav,0,0,457,21,3,Chinese,f,2,0.2,8.25192738,1.6098708
XUJIAJIE,72,1,2024-06-14T12:41:27.078Z,english_155.wav,0,0,457,21,3,Chinese,f,3,0.3,-52.88121257,1.15705679
XUJIAJIE,72,1,2024-06-14T12:41:27.078Z,english_155.wav,0,0,457,21,3,Chinese,f,4,0.32341667,48.31209788,0.66500292
XUJIAJIE,73,1,2024-06-14T12:41:27.078Z,english_577.wav,0,1,362,21,3,Chinese,f,0,0,0.60742169,1.18439754
XUJIAJIE,73,1,2024-06-14T12:41:27.078Z,english_577.wav,0,1,362,21,3,Chinese,f,1,0.1,-16.75441018,1.17258894
XUJIAJIE,73,1,2024-06-14T12:41:27.078Z,english_577.wav,0,1,362,21,3,Chinese,f,2,0.2,32.29278586,0.00832478
XUJIAJIE,73,1,2024-06-14T12:41:27.078Z,english_577.wav,0,1,362,21,3,Chinese,f,3,0.3,94.63733595,1.24529525
XUJIAJIE,73,1,2024-06-14T12:41:27.078Z,english_577.wav,0,1,362,21,3,Chinese,f,4,0.32341667,-75.78119055,0.24980342
XUJIAJIE,74,1,2024-06-14T12:41:27.078Z,english_721.wav,0,0,951,21,3,Chinese,f,0,0,-1.67193172,0.23966059
XUJIAJIE,74,1,2024-06-14T12:41:27.078Z,english_721.wav,0,0,951,21,3,Chinese,f,1,0.1,23.81304459,1.61361986
XUJIAJIE,74,1,2024-06-14T12:41:27.078Z,english_721.wav,0,0,951,21,3,Chinese,f,2,0.2,94.27532923,0.58045828
XUJIAJIE,74,1,2024-06-14T12:41:27.078Z,english_721.wav,0,0,951,21,3,Chinese,f,3,0.3,10.08520391,1.63757532
XUJIAJIE,74,1,2024-06-14T12:41:27.078Z,english_721.wav,0,0,951,21,3,Chinese,f,4,0.32341667,-26.68837018,1.4581473
XUJIAJIE,75,1,2024-06-14T12:41:27.078Z,english_798.wav,0,0,207,21,3,Chinese,f,0,0,-16.40769998,1.85457914
XUJIAJIE,75,1,2024-06-14T12:41:27.078Z,english_798.wav,0,0,207,21,3,Chinese,f,1,0.1,3.00381127,1.50219522
XUJIAJIE,75,1,2024-06-14T12:41:27.078Z,english_798.wav,0,0,207,21,3,Chinese,f,2,0.2,-31.24410556,0.78751403
XUJIAJIE,75,1,2024-06-14T12:41:27.078Z,english_798.wav,0,0,207,21,3,Chinese,f,3,0.3,-53.27973877,1.17339142
XUJIAJIE,75,1,2024-06-14T12:41:27.078Z,english_798.wav,0,0,207,21,3,Chinese,f,4,0.32341667,91.43563813,1.30184409
XUJIAJIE,76,1,2024-06-14T12:41:27.078Z,english_589.wav,0,0,277,21,3,Chinese,f,0,0,58.55453646,1.98928345
XUJIAJIE,76,1,2024-06-14T12:41:27.078Z,english_589.wav,0,0,277,21,3,Chinese,f,1,0.1,30.45164265,1.49107718
XUJIAJIE,76,1,2024-06-14T12:41:27.078Z,english_589.wav,0,0,277,21,3,Chinese,f,2,0.2,-45.43400091,0.52639062
XUJIAJIE,76,1,2024-06-14T12:41:27.078Z,english_589.wav,0,0,277,21,3,Chinese,f,3,0.3,84.99084473,0.34590986
XUJIAJIE,76,1,2024-06-14T12:41:27.078Z,english_589.wav,0,0,277,21,3,Chinese,f,4,0.32341667,65.45411119,0.67022481
XUJIAJIE,77,1,2024-06-14T12:41:27.078Z,english_315.wav,0,1,641,21,3,Chinese,f,0,0,3.76150079,1.04293113
XUJIAJIE,77,1,2024-06-14T12:41:27.078Z,english_315.wav,0,1,641,21,3,Chinese,f,1,0.1,4.93204799,0.55537984
XUJIAJIE,77,1,2024-06-14T12:41:27.078Z,english_315.wav,0,1,641,21,3,Chinese,f,2,0.2,-81.53480532,1.13024782
XUJIAJIE,77,1,2024-06-14T12:41:27.078Z,english_315.wav,0,1,641,21,3,Chinese,f,3,0.3,45.94577355,1.06792043
XUJIAJIE,77,1,2024-06-14T12:41:27.078Z,english_315.wav,0,1,641,21,3,Chinese,f,4,0.32341667,-55.96194099,1.80369969
XUJIAJIE,78,1,2024-06-14T12:41:27.078Z,english_579.wav,0,0,419,21,3,Chinese,f,0,0,78.52989573,1.74799876
XUJIAJIE,78,1,2024-06-14T12:41:27.078Z,english_579.wav,0,0,419,21,3,Chinese,f,1,0.1,-26.17758211,0.36264633
XUJIAJIE,78,1,2024-06-14T12:41:27.078Z,english_579.wav,0,0,419,21,3,Chinese,f,2,0.2,-65.60231522,1.15645327
XUJIAJIE,78,1,2024-06-14T12:41:27.078Z,english_579.wav,0,0,419,21,3,Chinese,f,3,0.3,-66.03357835,1.81639149
XUJIAJIE,78,1,2024-06-14T12:41:27.078Z,english_579.wav,0,0,419,21,3,Chinese,f,4,0.32341667,-36.23940811,1.38509752
XUJIAJIE,79,1,2024-06-14T12:41:27.078Z,english_36.wav,0,1,534,21,3,Chinese,f,0,0,8.79498818,0.0614271
XUJIAJIE,79,1,2024-06-14T12:41:27.078Z,english_36.wav,0,1,534,21,3,Chinese,f,1,0.1,-18.99628775,0.22652961
XUJIAJIE,79,1,2024-06-14T12:41:27.078Z,english_36.wav,0,1,534,21,3,Chinese,f,2,0.2,-17.40156662,0.46484299
XUJIAJIE,79,1,2024-06-14T12:41:27.078Z,english_36.wav,0,1,534,21,3,Chinese,f,3,0.3,-85.73958234,0.81464033
XUJIAJIE,79,1,2024-06-14T12:41:27.078Z,english_36.wav,0,1,534,21,3,Chinese,f,4,0.32341667,45.44069908,0.21843777
XUJIAJIE,80,1,2024-06-14T12:41:27.078Z,english_950.wav,0,0,264,21,3,Chinese,f,0,0,-21.9776243,0.20752278
XUJIAJIE,80,1,2024-06-14T12:41:27.078Z,english_950.wav,0,0,264,21,3,Chinese,f,1,0.1,-41.40023943,1.93939622
XUJIAJIE,80,1,2024-06-14T12:41:27.078Z,english_950.wav,0,0,264,21,3,Chinese,f,2,0.2,48.01515584,1.55608343
XUJIAJIE,80,1,2024-06-14T12:41:27.078Z,english_950.wav,0,0,264,21,3,Chinese,f,3,0.3,-87.95551252,1.49634866
XUJIAJIE,80,1,2024-06-14T12:41:27.078Z,english_950.wav,0,0,264,21,3,Chinese,f,4,0.32341667,-39.5252386,0.91783384
XUJIAJIE,81,1,2024-06-14T12:41:27.078Z,english_666.wav,0,1,440,21,3,Chinese,f,0,0,-6.63307831,0.44221414
XUJIAJIE,81,1,2024-06-14T12:41:27.078Z,english_666.wav,0,1,440,21,3,Chinese,f,1,0.1,-47.66524373,1.62559692
XUJIAJIE,81,1,2024-06-14T12:41:27.078Z,english_666.wav,0,1,440,21,3,Chinese,f,2,0.2,66.93817534,0.27313334
XUJIAJIE,81,1,2024-06-14T12:41:27.078Z,english_666.wav,0,1,440,21,3,Chinese,f,3,0.3,-1.338646,0.46846925
XUJIAJIE,81,1,2024-06-14T12:41:27.078Z,english_666.wav,0,1,440,21,3,Chinese,f,4,0.32341667,-14.31927765,1.08883823
XUJIAJIE,82,1,2024-06-14T12:41:27.078Z,english_412.wav,0,1,801,21,3,Chinese,f,0,0,-82.38375592,0.41347899
XUJIAJIE,82,1,2024-06-14T12:41:27.078Z,english_412.wav,0,1,801,21,3,Chinese,f,1,0.1,-35.89348303,0.05505218
XUJIAJIE,82,1,2024-06-14T12:41:27.078Z,english_412.wav,0,1,801,21,3,Chinese,f,2,0.2,-78.50422887,1.28972039
XUJIAJIE,82,1,2024-06-14T12:41:27.078Z,english_412.wav,0,1,801,21,3,Chinese,f,3,0.3,8.19618882,0.97331843
XUJIAJIE,82,1,2024-06-14T12:41:27.078Z,english_412.wav,0,1,801,21,3,Chinese,f,4,0.32341667,88.30694734,0.22558246
XUJIAJIE,83,1,2024-06-14T12:41:27.078Z,english_76.wav,0,0,259,21,3,Chinese,f,0,0,24.78743387,1.26829138
XUJIAJIE,83,1,2024-06-14T12:41:27.078Z,english_76.wav,0,0,259,21,3,Chinese,f,1,0.1,-7.95135802,1.4446717
XUJIAJIE,83,1,2024-06-14T12:41:27.078Z,english_76.wav,0,0,259,21,3,Chinese,f,2,0.2,-9.56689875,0.88177173
XUJIAJIE,83,1,2024-06-14T12:41:27.078Z,english_76.wav,0,0,259,21,3,Chinese,f,3,0.3,-78.25819759,1.63003096
XUJIAJIE,83,1,2024-06-14T12:41:27.078Z,english_76.wav,0,0,259,21,3,Chinese,f,4,0.32341667,26.4311908,1.97074408
XUJIAJIE,84,1,2024-06-14T12:41:27.078Z,english_141.wav,0,1,490,21,3,Chinese,f,0,0,-85.83390244,1.36546316
XUJIAJIE,84,1,2024-06-14T12:41:27.078Z,english_141.wav,0,1,490,21,3,Chinese,f,1,0.1,-83.68236309,0.39424104
XUJIAJIE,84,1,2024-06-14T12:41:27.078Z,english_141.wav,0,1,490,21,3,Chinese,f,2,0.2,-69.95552588,1.31629396
XUJIAJIE,84,1,2024-06-14T12:41:27.078Z,english_141.wav,0,1,490,21,3,Chinese,f,3,0.3,-14.67715053,0.23786768
XUJIAJIE,84,1,2024-06-14T12:41:27.078Z,english_141.wav,0,1,490,21,3,Chinese,f,4,0.32341667,73.76142723,0.2069198
XUJIAJIE,85,1,2024-06-14T12:41:27.078Z,english_664.wav,0,1,409,21,3,Chinese,f,0,0,-76.94516773,1.88823832
XUJIAJIE,85,1,2024-06-14T12:41:27.078Z,english_664.wav,0,1,409,21,3,Chinese,f,1,0.1,-6.4858311,1.41396893
XUJIAJIE,85,1,2024-06-14T12:41:27.078Z,english_664.wav,0,1,409,21,3,Chinese,f,2,0.2,46.60528691,0.11773869
XUJIAJIE,85,1,2024-06-14T12:41:27.078Z,english_664.wav,0,1,409,21,3,Chinese,f,3,0.3,9.48323043,1.80376032
XUJIAJIE,85,1,2024-06-14T12:41:27.078Z,english_664.wav,0,1,409,21,3,Chinese,f,4,0.32341667,89.85696022,1.43209877
XUJIAJIE,86,1,2024-06-14T12:41:27.078Z,english_440.wav,0,1,709,21,3,Chinese,f,0,0,44.70308901,1.51497438
XUJIAJIE,86,1,2024-06-14T12:41:27.078Z,english_440.wav,0,1,709,21,3,Chinese,f,1,0.1,-88.0257567,1.05972447
XUJIAJIE,86,1,2024-06-14T12:41:27.078Z,english_440.wav,0,1,709,21,3,Chinese,f,2,0.2,1.19893433,0.590820378
XUJIAJIE,86,1,2024-06-14T12:41:27.078Z,english_440.wav,0,1,709,21,3,Chinese,f,3,0.3,19.45485395,0.680586803
XUJIAJIE,86,1,2024-06-14T12:41:27.078Z,english_440.wav,0,1,709,21,3,Chinese,f,4,0.32341667,13.00088222,0.000618341324
XUJIAJIE,87,1,2024-06-14T12:41:27.078Z,english_622.wav,0,0,510,21,3,Chinese,f,0,0,-46.49267806,1.425187
XUJIAJIE,87,1,2024-06-14T12:41:27.078Z,english_622.wav,0,0,510,21,3,Chinese,f,1,0.1,-80.07623079,0.61910367
XUJIAJIE,87,1,2024-06-14T12:41:27.078Z,english_622.wav,0,0,510,21,3,Chinese,f,2,0.2,-28.70131311,1.30297951
XUJIAJIE,87,1,2024-06-14T12:41:27.078Z,english_622.wav,0,0,510,21,3,Chinese,f,3,0.3,-26.89352847,1.73248838
XUJIAJIE,87,1,2024-06-14T12:41:27.078Z,english_622.wav,0,0,510,21,3,Chinese,f,4,0.32341667,-24.31243398,0.85523545
XUJIAJIE,88,1,2024-06-14T12:41:27.078Z,english_78.wav,0,0,325,21,3,Chinese,f,0,0,57.57509383,0.85738581
XUJIAJIE,88,1,2024-06-14T12:41:27.078Z,english_78.wav,0,0,325,21,3,Chinese,f,1,0.1,8.37611797,1.59375359
XUJIAJIE,88,1,2024-06-14T12:41:27.078Z,english_78.wav,0,0,325,21,3,Chinese,f,2,0.2,-42.8518908,1.65756647
XUJIAJIE,88,1,2024-06-14T12:41:27.078Z,english_78.wav,0,0,325,21,3,Chinese,f,3,0.3,26.19415986,0.53011742
XUJIAJIE,88,1,2024-06-14T12:41:27.078Z,english_78.wav,0,0,325,21,3,Chinese,f,4,0.32341667,65.52498429,1.5323802
XUJIAJIE,89,1,2024-06-14T12:41:27.078Z,english_217.wav,0,0,1083,21,3,Chinese,f,0,0,-87.44045162,1.20965721
XUJIAJIE,89,1,2024-06-14T12:41:27.078Z,english_217.wav,0,0,1083,21,3,Chinese,f,1,0.1,26.67222095,0.05295089
XUJIAJIE,89,1,2024-06-14T12:41:27.078Z,english_217.wav,0,0,1083,21,3,Chinese,f,2,0.2,97.90977363,1.23557872
XUJIAJIE,89,1,2024-06-14T12:41:27.078Z,english_217.wav,0,0,1083,21,3,Chinese,f,3,0.3,4.49718441,1.80752812
XUJIAJIE,89,1,2024-06-14T12:41:27.078Z,english_217.wav,0,0,1083,21,3,Chinese,f,4,0.32341667,13.31384309,1.57586313
XUJIAJIE,90,1,2024-06-14T12:41:27.078Z,english_679.wav,0,1,380,21,3,Chinese,f,0,0,37.61966445,0.05085037
XUJIAJIE,90,1,2024-06-14T12:41:27.078Z,english_679.wav,0,1,380,21,3,Chinese,f,1,0.1,51.99791738,0.83446012
XUJIAJIE,90,1,2024-06-14T12:41:27.078Z,english_679.wav,0,1,380,21,3,Chinese,f,2,0.2,47.28862711,0.17034906
XUJIAJIE,90,1,2024-06-14T12:41:27.078Z,english_679.wav,0,1,380,21,3,Chinese,f,3,0.3,96.96405016,1.15010704
XUJIAJIE,90,1,2024-06-14T12:41:27.078Z,english_679.wav,0,1,380,21,3,Chinese,f,4,0.32341667,17.22990972,1.32170415
XUJIAJIE,91,1,2024-06-14T12:41:27.078Z,english_57.wav,0,0,276,21,3,Chinese,f,0,0,-27.39668164,1.97835384
XUJIAJIE,91,1,2024-06-14T12:41:27.078Z,english_57.wav,0,0,276,21,3,Chinese,f,1,0.1,63.52389761,0.69906452
XUJIAJIE,91,1,2024-06-14T12:41:27.078Z,english_57.wav,0,0,276,21,3,Chinese,f,2,0.2,-55.42033209,0.75389415
XUJIAJIE,91,1,2024-06-14T12:41:27.078Z,english_57.wav,0,0,276,21,3,Chinese,f,3,0.3,40.81906742,0.20375649
XUJIAJIE,91,1,2024-06-14T12:41:27.078Z,english_57.wav,0,0,276,21,3,Chinese,f,4,0.32341667,-12.75543821,1.65585112
XUJIAJIE,92,1,2024-06-14T12:41:27.078Z,english_657.wav,0,0,284,21,3,Chinese,f,0,0,30.03208284,1.42095662
XUJIAJIE,92,1,2024-06-14T12:41:27.078Z,english_657.wav,0,0,284,21,3,Chinese,f,1,0.1,-5.57127058,1.29790323
XUJIAJIE,92,1,2024-06-14T12:41:27.078Z,english_657.wav,0,0,284,21,3,Chinese,f,2,0.2,9.55793083,0.51612643
XUJIAJIE,92,1,2024-06-14T12:41:27.078Z,english_657.wav,0,0,284,21,3,Chinese,f,3,0.3,3.39766504,0.37671101
XUJIAJIE,92,1,2024-06-14T12:41:27.078Z,english_657.wav,0,0,284,21,3,Chinese,f,4,0.32341667,84.38659916,1.20124021
XUJIAJIE,93,1,2024-06-14T12:41:27.078Z,english_480.wav,0,0,526,21,3,Chinese,f,0,0,-9.10453384,0.61491247
XUJIAJIE,93,1,2024-06-14T12:41:27.078Z,english_480.wav,0,0,526,21,3,Chinese,f,1,0.1,72.09708103,1.35502449
XUJIAJIE,93,1,2024-06-14T12:41:27.078Z,english_480.wav,0,0,526,21,3,Chinese,f,2,0.2,-73.7181862,0.28674933
XUJIAJIE,93,1,2024-06-14T12:41:27.078Z,english_480.wav,0,0,526,21,3,Chinese,f,3,0.3,18.73451671,0.14653082
XUJIAJIE,93,1,2024-06-14T12:41:27.078Z,english_480.wav,0,0,526,21,3,Chinese,f,4,0.32341667,83.35837597,1.34653786
XUJIAJIE,94,1,2024-06-14T12:41:27.078Z,english_994.wav,0,0,520,21,3,Chinese,f,0,0,53.6083957,1.72152032
XUJIAJIE,94,1,2024-06-14T12:41:27.078Z,english_994.wav,0,0,520,21,3,Chinese,f,1,0.1,62.5650281,0.97077126
XUJIAJIE,94,1,2024-06-14T12:41:27.078Z,english_994.wav,0,0,520,21,3,Chinese,f,2,0.2,91.00734213,1.1154275
XUJIAJIE,94,1,2024-06-14T12:41:27.078Z,english_994.wav,0,0,520,21,3,Chinese,f,3,0.3,-14.6853323,0.93534142
XUJIAJIE,94,1,2024-06-14T12:41:27.078Z,english_994.wav,0,0,520,21,3,Chinese,f,4,0.32341667,42.94025292,1.51312842
XUJIAJIE,95,1,2024-06-14T12:41:27.078Z,english_142.wav,0,0,662,21,3,Chinese,f,0,0,-46.59943425,0.40064358
XUJIAJIE,95,1,2024-06-14T12:41:27.078Z,english_142.wav,0,0,662,21,3,Chinese,f,1,0.1,63.17145436,0.61162855
XUJIAJIE,95,1,2024-06-14T12:41:27.078Z,english_142.wav,0,0,662,21,3,Chinese,f,2,0.2,73.87775976,0.23189939
XUJIAJIE,95,1,2024-06-14T12:41:27.078Z,english_142.wav,0,0,662,21,3,Chinese,f,3,0.3,-84.55157756,1.54635995
XUJIAJIE,95,1,2024-06-14T12:41:27.078Z,english_142.wav,0,0,662,21,3,Chinese,f,4,0.32341667,20.35536038,1.86221744
XUJIAJIE,96,1,2024-06-14T12:41:27.078Z,english_646.wav,0,0,303,21,3,Chinese,f,0,0,65.65927644,1.85038449
XUJIAJIE,96,1,2024-06-14T12:41:27.078Z,english_646.wav,0,0,303,21,3,Chinese,f,1,0.1,-31.23211399,1.10748568
XUJIAJIE,96,1,2024-06-14T12:41:27.078Z,english_646.wav,0,0,303,21,3,Chinese,f,2,0.2,62.59110385,1.14052106
XUJIAJIE,96,1,2024-06-14T12:41:27.078Z,english_646.wav,0,0,303,21,3,Chinese,f,3,0.3,-86.43369357,1.38971404
XUJIAJIE,96,1,2024-06-14T12:41:27.078Z,english_646.wav,0,0,303,21,3,Chinese,f,4,0.32341667,41.84315348,0.49971738
XUJIAJIE,97,1,2024-06-14T12:41:27.078Z,english_566.wav,0,0,182,21,3,Chinese,f,0,0,70.56000247,1.04698608
XUJIAJIE,97,1,2024-06-14T12:41:27.078Z,english_566.wav,0,0,182,21,3,Chinese,f,1,0.1,-0.18246418,1.13826263
XUJIAJIE,97,1,2024-06-14T12:41:27.078Z,english_566.wav,0,0,182,21,3,Chinese,f,2,0.2,-23.7188651,1.91259561
XUJIAJIE,97,1,2024-06-14T12:41:27.078Z,english_566.wav,0,0,182,21,3,Chinese,f,3,0.3,12.5469797,1.08561121
XUJIAJIE,97,1,2024-06-14T12:41:27.078Z,english_566.wav,0,0,182,21,3,Chinese,f,4,0.32341667,-84.37997634,1.98926692
XUJIAJIE,98,1,2024-06-14T12:41:27.078Z,english_445.wav,0,0,411,21,3,Chinese,f,0,0,88.00598922,1.42174052
XUJIAJIE,98,1,2024-06-14T12:41:27.078Z,english_445.wav,0,0,411,21,3,Chinese,f,1,0.1,96.51328737,1.49122509
XUJIAJIE,98,1,2024-06-14T12:41:27.078Z,english_445.wav,0,0,411,21,3,Chinese,f,2,0.2,29.11093561,0.62095286
XUJIAJIE,98,1,2024-06-14T12:41:27.078Z,english_445.wav,0,0,411,21,3,Chinese,f,3,0.3,69.6076589,1.14630865
XUJIAJIE,98,1,2024-06-14T12:41:27.078Z,english_445.wav,0,0,411,21,3,Chinese,f,4,0.32341667,-59.73938179,1.38538671
XUJIAJIE,99,1,2024-06-14T12:41:27.078Z,english_794.wav,0,0,246,21,3,Chinese,f,0,0,5.57967757,1.6157291
XUJIAJIE,99,1,2024-06-14T12:41:27.078Z,english_794.wav,0,0,246,21,3,Chinese,f,1,0.1,-3.8737546,0.80008436
XUJIAJIE,99,1,2024-06-14T12:41:27.078Z,english_794.wav,0,0,246,21,3,Chinese,f,2,0.2,-24.29943164,0.69881068
XUJIAJIE,99,1,2024-06-14T12:41:27.078Z,english_794.wav,0,0,246,21,3,Chinese,f,3,0.3,3.56417137,1.55658335
XUJIAJIE,99,1,2024-06-14T12:41:27.078Z,english_794.wav,0,0,246,21,3,Chinese,f,4,0.32341667,-13.30357118,1.787412
XUJIAJIE,100,2,2024-06-14T12:41:27.078Z,english_719.wav,0,0,375,21,3,Chinese,f,0,0,-32.14306232,1.4431753
XUJIAJIE,100,2,2024-06-14T12:41:27.078Z,english_719.wav,0,0,375,21,3,Chinese,f,1,0.1,-81.40439332,0.46175707
XUJIAJIE,100,2,2024-06-14T12:41:27.078Z,english_719.wav,0,0,375,21,3,Chinese,f,2,0.2,-20.1172293,1.86886769
XUJIAJIE,100,2,2024-06-14T12:41:27.078Z,english_719.wav,0,0,375,21,3,Chinese,f,3,0.3,67.63048238,0.67969247
XUJIAJIE,100,2,2024-06-14T12:41:27.078Z,english_719.wav,0,0,375,21,3,Chinese,f,4,0.32341667,50.83305788,1.68151983
XUJIAJIE,101,2,2024-06-14T12:41:27.078Z,english_448.wav,0,0,465,21,3,Chinese,f,0,0,0.37188167,1.15390094
XUJIAJIE,101,2,2024-06-14T12:41:27.078Z,english_448.wav,0,0,465,21,3,Chinese,f,1,0.1,-67.82723624,1.58767458
XUJIAJIE,101,2,2024-06-14T12:41:27.078Z,english_448.wav,0,0,465,21,3,Chinese,f,2,0.2,65.77705469,1.13313853
XUJIAJIE,101,2,2024-06-14T12:41:27.078Z,english_448.wav,0,0,465,21,3,Chinese,f,3,0.3,83.31626383,0.27075507
XUJIAJIE,101,2,2024-06-14T12:41:27.078Z,english_448.wav,0,0,465,21,3,Chinese,f,4,0.32341667,-27.56829045,1.20964916
XUJIAJIE,102,2,2024-06-14T12:41:27.078Z,english_684.wav,0,0,685,21,3,Chinese,f,0,0,0.36394418,1.65924935
XUJIAJIE,102,2,2024-06-14T12:41:27.078Z,english_684.wav,0,0,685,21,3,Chinese,f,1,0.1,28.47964645,1.32149406
XUJIAJIE,102,2,2024-06-14T12:41:27.078Z,english_684.wav,0,0,685,21,3,Chinese,f,2,0.2,60.47995017,0.32417562
XUJIAJIE,102,2,2024-06-14T12:41:27.078Z,english_684.wav,0,0,685,21,3,Chinese,f,3,0.3,-33.43266819,1.42108385
XUJIAJIE,102,2,2024-06-14T12:41:27.078Z,english_684.wav,0,0,685,21,3,Chinese,f,4,0.32341667,-31.86672206,1.29243289
XUJIAJIE,103,2,2024-06-14T12:41:27.078Z,english_180.wav,0,1,570,21,3,Chinese,f,0,0,-79.96502932,0.84610218
XUJIAJIE,103,2,2024-06-14T12:41:27.078Z,english_180.wav,0,1,570,21,3,Chinese,f,1,0.1,33.21752916,1.88919334
XUJIAJIE,103,2,2024-06-14T12:41:27.078Z,english_180.wav,0,1,570,21,3,Chinese,f,2,0.2,-97.52705813,0.18699196
XUJIAJIE,103,2,2024-06-14T12:41:27.078Z,english_180.wav,0,1,570,21,3,Chinese,f,3,0.3,42.51331828,0.0366283
XUJIAJIE,103,2,2024-06-14T12:41:27.078Z,english_180.wav,0,1,570,21,3,Chinese,f,4,0.32341667,-42.98571984,0.95813987
XUJIAJIE,104,2,2024-06-14T12:41:27.078Z,english_648.wav,0,0,329,21,3,Chinese,f,0,0,-36.17742204,0.57576188
XUJIAJIE,104,2,2024-06-14T12:41:27.078Z,english_648.wav,0,0,329,21,3,Chinese,f,1,0.1,30.10697278,1.1310908
XUJIAJIE,104,2,2024-06-14T12:41:27.078Z,english_648.wav,0,0,329,21,3,Chinese,f,2,0.2,-67.31320052,1.67112441
XUJIAJIE,104,2,2024-06-14T12:41:27.078Z,english_648.wav,0,0,329,21,3,Chinese,f,3,0.3,-10.94597212,0.39641968
XUJIAJIE,104,2,2024-06-14T12:41:27.078Z,english_648.wav,0,0,329,21,3,Chinese,f,4,0.32341667,72.59648235,1.93789316
XUJIAJIE,105,2,2024-06-14T12:41:27.078Z,english_379.wav,0,0,577,21,3,Chinese,f,0,0,30.14616912,1.43961489
XUJIAJIE,105,2,2024-06-14T12:41:27.078Z,english_379.wav,0,0,577,21,3,Chinese,f,1,0.1,-79.51193423,1.4219763
XUJIAJIE,105,2,2024-06-14T12:41:27.078Z,english_379.wav,0,0,577,21,3,Chinese,f,2,0.2,7.34860539,0.62633101
XUJIAJIE,105,2,2024-06-14T12:41:27.078Z,english_379.wav,0,0,577,21,3,Chinese,f,3,0.3,-43.99342265,1.13621958
XUJIAJIE,105,2,2024-06-14T12:41:27.078Z,english_379.wav,0,0,577,21,3,Chinese,f,4,0.32341667,37.72881761,1.35387794
XUJIAJIE,106,2,2024-06-14T12:41:27.078Z,english_161.wav,0,0,575,21,3,Chinese,f,0,0,16.17182642,0.80971259
XUJIAJIE,106,2,2024-06-14T12:41:27.078Z,english_161.wav,0,0,575,21,3,Chinese,f,1,0.1,51.23408036,1.56168911
XUJIAJIE,106,2,2024-06-14T12:41:27.078Z,english_161.wav,0,0,575,21,3,Chinese,f,2,0.2,56.55598601,0.91666403
XUJIAJIE,106,2,2024-06-14T12:41:27.078Z,english_161.wav,0,0,575,21,3,Chinese,f,3,0.3,-25.08054758,1.93998208
XUJIAJIE,106,2,2024-06-14T12:41:27.078Z,english_161.wav,0,0,575,21,3,Chinese,f,4,0.32341667,-70.36900789,0.76147365
XUJIAJIE,107,2,2024-06-14T12:41:27.078Z,english_553.wav,0,0,546,21,3,Chinese,f,0,0,-18.85071283,1.30647824
XUJIAJIE,107,2,2024-06-14T12:41:27.078Z,english_553.wav,0,0,546,21,3,Chinese,f,1,0.1,56.72439372,1.55205535
XUJIAJIE,107,2,2024-06-14T12:41:27.078Z,english_553.wav,0,0,546,21,3,Chinese,f,2,0.2,-32.51510613,1.79127341
XUJIAJIE,107,2,2024-06-14T12:41:27.078Z,english_553.wav,0,0,546,21,3,Chinese,f,3,0.3,-81.56708954,0.1795284
XUJIAJIE,107,2,2024-06-14T12:41:27.078Z,english_553.wav,0,0,546,21,3,Chinese,f,4,0.32341667,42.80590219,0.48805839
XUJIAJIE,108,2,2024-06-14T12:41:27.078Z,english_559.wav,0,0,972,21,3,Chinese,f,0,0,72.91796617,0.28347303
XUJIAJIE,108,2,2024-06-14T12:41:27.078Z,english_559.wav,0,0,972,21,3,Chinese,f,1,0.1,49.0763932,0.33705515
XUJIAJIE,108,2,2024-06-14T12:41:27.078Z,english_559.wav,0,0,972,21,3,Chinese,f,2,0.2,37.36372944,1.25665906
XUJIAJIE,108,2,2024-06-14T12:41:27.078Z,english_559.wav,0,0,972,21,3,Chinese,f,3,0.3,62.8744144,0.42135622
XUJIAJIE,108,2,2024-06-14T12:41:27.078Z,english_559.wav,0,0,972,21,3,Chinese,f,4,0.32341667,-70.24316133,0.44445559
XUJIAJIE,109,2,2024-06-14T12:41:27.078Z,english_720.wav,0,1,508,21,3,Chinese,f,0,0,85.23240719,1.23446246
XUJIAJIE,109,2,2024-06-14T12:41:27.078Z,english_720.wav,0,1,508,21,3,Chinese,f,1,0.1,78.65958559,0.77382892
XUJIAJIE,109,2,2024-06-14T12:41:27.078Z,english_720.wav,0,1,508,21,3,Chinese,f,2,0.2,-56.45174874,0.48705718
XUJIAJIE,109,2,2024-06-14T12:41:27.078Z,english_720.wav,0,1,508,21,3,Chinese,f,3,0.3,71.88898266,1.42335328
XUJIAJIE,109,2,2024-06-14T12:41:27.078Z,english_720.wav,0,1,508,21,3,Chinese,f,4,0.32341667,-9.13482,1.32495619
XUJIAJIE,110,2,2024-06-14T12:41:27.078Z,english_984.wav,0,1,479,21,3,Chinese,f,0,0,-4.00148485,1.68596177
XUJIAJIE,110,2,2024-06-14T12:41:27.078Z,english_984.wav,0,1,479,21,3,Chinese,f,1,0.1,26.28173365,0.06678014
XUJIAJIE,110,2,2024-06-14T12:41:27.078Z,english_984.wav,0,1,479,21,3,Chinese,f,2,0.2,80.79042683,0.65490985
XUJIAJIE,110,2,2024-06-14T12:41:27.078Z,english_984.wav,0,1,479,21,3,Chinese,f,3,0.3,94.69131331,0.57269921
XUJIAJIE,110,2,2024-06-14T12:41:27.078Z,english_984.wav,0,1,479,21,3,Chinese,f,4,0.32341667,75.17511154,0.71264295
XUJIAJIE,111,2,2024-06-14T12:41:27.078Z,english_267.wav,0,1,969,21,3,Chinese,f,0,0,-83.13365237,1.47105267
XUJIAJIE,111,2,2024-06-14T12:41:27.078Z,english_267.wav,0,1,969,21,3,Chinese,f,1,0.1,76.30308178,0.87521108
XUJIAJIE,111,2,2024-06-14T12:41:27.078Z,english_267.wav,0,1,969,21,3,Chinese,f,2,0.2,53.87961391,1.04060287
XUJIAJIE,111,2,2024-06-14T12:41:27.078Z,english_267.wav,0,1,969,21,3,Chinese,f,3,0.3,62.72167491,0.25080793
XUJIAJIE,111,2,2024-06-14T12:41:27.078Z,english_267.wav,0,1,969,21,3,Chinese,f,4,0.32341667,-33.79574379,1.11989054
XUJIAJIE,112,2,2024-06-14T12:41:27.078Z,english_743.wav,0,0,1656,21,3,Chinese,f,0,0,-28.24983145,1.42102626
XUJIAJIE,112,2,2024-06-14T12:41:27.078Z,english_743.wav,0,0,1656,21,3,Chinese,f,1,0.1,71.30498545,0.84283155
XUJIAJIE,112,2,2024-06-14T12:41:27.078Z,english_743.wav,0,0,1656,21,3,Chinese,f,2,0.2,-89.00652632,0.82757129
XUJIAJIE,112,2,2024-06-14T12:41:27.078Z,english_743.wav,0,0,1656,21,3,Chinese,f,3,0.3,3.43441779,1.38808557
XUJIAJIE,112,2,2024-06-14T12:41:27.078Z,english_743.wav,0,0,1656,21,3,Chinese,f,4,0.32341667,-16.71659348,0.28501565
XUJIAJIE,113,2,2024-06-14T12:41:27.078Z,english_923.wav,0,0,238,21,3,Chinese,f,0,0,-0.59122564,1.19594648
XUJIAJIE,113,2,2024-06-14T12:41:27.078Z,english_923.wav,0,0,238,21,3,Chinese,f,1,0.1,-5.70499959,1.05419104
XUJIAJIE,113,2,2024-06-14T12:41:27.078Z,english_923.wav,0,0,238,21,3,Chinese,f,2,0.2,-29.88927864,0.73000078
XUJIAJIE,113,2,2024-06-14T12:41:27.078Z,english_923.wav,0,0,238,21,3,Chinese,f,3,0.3,-82.02126299,1.36390543
XUJIAJIE,113,2,2024-06-14T12:41:27.078Z,english_923.wav,0,0,238,21,3,Chinese,f,4,0.32341667,16.89967319,1.13865732
XUJIAJIE,114,2,2024-06-14T12:41:27.078Z,english_409.wav,0,0,370,21,3,Chinese,f,0,0,-24.04105399,0.29560797
XUJIAJIE,114,2,2024-06-14T12:41:27.078Z,english_409.wav,0,0,370,21,3,Chinese,f,1,0.1,-26.67389605,1.53762848
XUJIAJIE,114,2,2024-06-14T12:41:27.078Z,english_409.wav,0,0,370,21,3,Chinese,f,2,0.2,23.9966363,0.34602898
XUJIAJIE,114,2,2024-06-14T12:41:27.078Z,english_409.wav,0,0,370,21,3,Chinese,f,3,0.3,16.61705293,1.21824435
XUJIAJIE,114,2,2024-06-14T12:41:27.078Z,english_409.wav,0,0,370,21,3,Chinese,f,4,0.32341667,73.09980407,1.55330233
XUJIAJIE,115,2,2024-06-14T12:41:27.078Z,english_851.wav,0,0,376,21,3,Chinese,f,0,0,-83.90491711,1.65488062
XUJIAJIE,115,2,2024-06-14T12:41:27.078Z,english_851.wav,0,0,376,21,3,Chinese,f,1,0.1,92.94065497,0.14315595
XUJIAJIE,115,2,2024-06-14T12:41:27.078Z,english_851.wav,0,0,376,21,3,Chinese,f,2,0.2,-63.47542883,0.84481863
XUJIAJIE,115,2,2024-06-14T12:41:27.078Z,english_851.wav,0,0,376,21,3,Chinese,f,3,0.3,13.34025436,1.9580918
XUJIAJIE,115,2,2024-06-14T12:41:27.078Z,english_851.wav,0,0,376,21,3,Chinese,f,4,0.32341667,32.96474042,0.23608581
XUJIAJIE,116,2,2024-06-14T12:41:27.078Z,english_460.wav,0,1,531,21,3,Chinese,f,0,0,-93.21492338,1.97422145
XUJIAJIE,116,2,2024-06-14T12:41:27.078Z,english_460.wav,0,1,531,21,3,Chinese,f,1,0.1,-65.59669931,0.48313428
XUJIAJIE,116,2,2024-06-14T12:41:27.078Z,english_460.wav,0,1,531,21,3,Chinese,f,2,0.2,76.47030005,0.91916034
XUJIAJIE,116,2,2024-06-14T12:41:27.078Z,english_460.wav,0,1,531,21,3,Chinese,f,3,0.3,-24.62267943,0.34121923
XUJIAJIE,116,2,2024-06-14T12:41:27.078Z,english_460.wav,0,1,531,21,3,Chinese,f,4,0.32341667,17.6428759,0.75894887
XUJIAJIE,117,2,2024-06-14T12:41:27.078Z,english_467.wav,0,0,322,21,3,Chinese,f,0,0,-0.54983343,1.824027
XUJIAJIE,117,2,2024-06-14T12:41:27.078Z,english_467.wav,0,0,322,21,3,Chinese,f,1,0.1,-84.54516502,1.06295632
XUJIAJIE,117,2,2024-06-14T12:41:27.078Z,english_467.wav,0,0,322,21,3,Chinese,f,2,0.2,54.30123894,1.09976952
XUJIAJIE,117,2,2024-06-14T12:41:27.078Z,english_467.wav,0,0,322,21,3,Chinese,f,3,0.3,-82.00368026,1.11766566
XUJIAJIE,117,2,2024-06-14T12:41:27.078Z,english_467.wav,0,0,322,21,3,Chinese,f,4,0.32341667,-54.10816942,0.44824559
XUJIAJIE,118,2,2024-06-14T12:41:27.078Z,english_989.wav,0,0,288,21,3,Chinese,f,0,0,-51.1051603,1.00035195
XUJIAJIE,118,2,2024-06-14T12:41:27.078Z,english_989.wav,0,0,288,21,3,Chinese,f,1,0.1,-91.26717948,0.46124463
XUJIAJIE,118,2,2024-06-14T12:41:27.078Z,english_989.wav,0,0,288,21,3,Chinese,f,2,0.2,73.5145218,0.77735517
XUJIAJIE,118,2,2024-06-14T12:41:27.078Z,english_989.wav,0,0,288,21,3,Chinese,f,3,0.3,54.43703181,1.21549894
XUJIAJIE,118,2,2024-06-14T12:41:27.078Z,english_989.wav,0,0,288,21,3,Chinese,f,4,0.32341667,-36.95823638,0.33045291
XUJIAJIE,119,2,2024-06-14T12:41:27.078Z,english_777.wav,0,1,371,21,3,Chinese,f,0,0,-69.33808121,1.41371967
XUJIAJIE,119,2,2024-06-14T12:41:27.078Z,english_777.wav,0,1,371,21,3,Chinese,f,1,0.1,83.00406244,0.89293833
XUJIAJIE,119,2,2024-06-14T12:41:27.078Z,english_777.wav,0,1,371,21,3,Chinese,f,2,0.2,52.8456083,0.52129979
XUJIAJIE,119,2,2024-06-14T12:41:27.078Z,english_777.wav,0,1,371,21,3,Chinese,f,3,0.3,-67.57367145,0.31704889
XUJIAJIE,119,2,2024-06-14T12:41:27.078Z,english_777.wav,0,1,371,21,3,Chinese,f,4,0.32341667,44.30015735,0.90388625
XUJIAJIE,120,2,2024-06-14T12:41:27.078Z,english_932.wav,0,1,611,21,3,Chinese,f,0,0,-3.8848098,1.00949787
XUJIAJIE,120,2,2024-06-14T12:41:27.078Z,english_932.wav,0,1,611,21,3,Chinese,f,1,0.1,-32.48916274,1.44703087
XUJIAJIE,120,2,2024-06-14T12:41:27.078Z,english_932.wav,0,1,611,21,3,Chinese,f,2,0.2,81.26251807,0.10808594
XUJIAJIE,120,2,2024-06-14T12:41:27.078Z,english_932.wav,0,1,611,21,3,Chinese,f,3,0.3,-18.23478105,0.03465182
XUJIAJIE,120,2,2024-06-14T12:41:27.078Z,english_932.wav,0,1,611,21,3,Chinese,f,4,0.32341667,7.90132089,0.79845554
XUJIAJIE,121,2,2024-06-14T12:41:27.078Z,english_330.wav,0,0,239,21,3,Chinese,f,0,0,-66.0623823,1.84658225
XUJIAJIE,121,2,2024-06-14T12:41:27.078Z,english_330.wav,0,0,239,21,3,Chinese,f,1,0.1,-90.7862333,0.94726644
XUJIAJIE,121,2,2024-06-14T12:41:27.078Z,english_330.wav,0,0,239,21,3,Chinese,f,2,0.2,-0.00810713819,1.52006519
XUJIAJIE,121,2,2024-06-14T12:41:27.078Z,english_330.wav,0,0,239,21,3,Chinese,f,3,0.3,-61.2450651,1.63286843
XUJIAJIE,121,2,2024-06-14T12:41:27.078Z,english_330.wav,0,0,239,21,3,Chinese,f,4,0.323416667,-0.344586516,1.74173618
XUJIAJIE,122,2,2024-06-14T12:41:27.078Z,english_195.wav,0,0,313,21,3,Chinese,f,0,0,88.76446124,0.85936173
XUJIAJIE,122,2,2024-06-14T12:41:27.078Z,english_195.wav,0,0,313,21,3,Chinese,f,1,0.1,56.50909504,1.06337161
XUJIAJIE,122,2,2024-06-14T12:41:27.078Z,english_195.wav,0,0,313,21,3,Chinese,f,2,0.2,-5.11157055,1.01766647
XUJIAJIE,122,2,2024-06-14T12:41:27.078Z,english_195.wav,0,0,313,21,3,Chinese,f,3,0.3,14.19517065,1.03928052
XUJIAJIE,122,2,2024-06-14T12:41:27.078Z,english_195.wav,0,0,313,21,3,Chinese,f,4,0.32341667,67.19148892,1.18131313
XUJIAJIE,123,2,2024-06-14T12:41:27.078Z,english_381.wav,0,0,250,21,3,Chinese,f,0,0,-64.83599525,0.77808766
XUJIAJIE,123,2,2024-06-14T12:41:27.078Z,english_381.wav,0,0,250,21,3,Chinese,f,1,0.1,97.61236857,1.62635576
XUJIAJIE,123,2,2024-06-14T12:41:27.078Z,english_381.wav,0,0,250,21,3,Chinese,f,2,0.2,-60.27157178,0.65298664
XUJIAJIE,123,2,2024-06-14T12:41:27.078Z,english_381.wav,0,0,250,21,3,Chinese,f,3,0.3,84.45732791,0.46881793
XUJIAJIE,123,2,2024-06-14T12:41:27.078Z,english_381.wav,0,0,250,21,3,Chinese,f,4,0.32341667,-87.53832291,1.22836965
XUJIAJIE,124,2,2024-06-14T12:41:27.078Z,english_580.wav,0,0,880,21,3,Chinese,f,0,0,92.13406767,1.93694744
XUJIAJIE,124,2,2024-06-14T12:41:27.078Z,english_580.wav,0,0,880,21,3,Chinese,f,1,0.1,-85.58685866,0.28773753
XUJIAJIE,124,2,2024-06-14T12:41:27.078Z,english_580.wav,0,0,880,21,3,Chinese,f,2,0.2,57.10945482,0.86433335
XUJIAJIE,124,2,2024-06-14T12:41:27.078Z,english_580.wav,0,0,880,21,3,Chinese,f,3,0.3,32.92004132,0.96651265
XUJIAJIE,124,2,2024-06-14T12:41:27.078Z,english_580.wav,0,0,880,21,3,Chinese,f,4,0.32341667,52.08708517,1.25003658
XUJIAJIE,125,2,2024-06-14T12:41:27.078Z,english_298.wav,0,1,518,21,3,Chinese,f,0,0,-71.75530507,0.91890611
XUJIAJIE,125,2,2024-06-14T12:41:27.078Z,english_298.wav,0,1,518,21,3,Chinese,f,1,0.1,76.25876358,0.7322353
XUJIAJIE,125,2,2024-06-14T12:41:27.078Z,english_298.wav,0,1,518,21,3,Chinese,f,2,0.2,11.95102224,0.50601445
XUJIAJIE,125,2,2024-06-14T12:41:27.078Z,english_298.wav,0,1,518,21,3,Chinese,f,3,0.3,79.91037795,0.41160049
XUJIAJIE,125,2,2024-06-14T12:41:27.078Z,english_298.wav,0,1,518,21,3,Chinese,f,4,0.32341667,30.12462174,0.81223035
XUJIAJIE,126,2,2024-06-14T12:41:27.078Z,english_350.wav,0,0,595,21,3,Chinese,f,0,0,97.64268741,0.61487918
XUJIAJIE,126,2,2024-06-14T12:41:27.078Z,english_350.wav,0,0,595,21,3,Chinese,f,1,0.1,23.96704837,0.40988424
XUJIAJIE,126,2,2024-06-14T12:41:27.078Z,english_350.wav,0,0,595,21,3,Chinese,f,2,0.2,50.30792237,0.86872158
XUJIAJIE,126,2,2024-06-14T12:41:27.078Z,english_350.wav,0,0,595,21,3,Chinese,f,3,0.3,71.77937185,1.01783109
XUJIAJIE,126,2,2024-06-14T12:41:27.078Z,english_350.wav,0,0,595,21,3,Chinese,f,4,0.32341667,-64.81416361,0.68761283
XUJIAJIE,127,2,2024-06-14T12:41:27.078Z,english_805.wav,0,0,282,21,3,Chinese,f,0,0,-11.97504695,0.06029378
XUJIAJIE,127,2,2024-06-14T12:41:27.078Z,english_805.wav,0,0,282,21,3,Chinese,f,1,0.1,96.82911573,0.81391401
XUJIAJIE,127,2,2024-06-14T12:41:27.078Z,english_805.wav,0,0,282,21,3,Chinese,f,2,0.2,7.51835152,1.33531055
XUJIAJIE,127,2,2024-06-14T12:41:27.078Z,english_805.wav,0,0,282,21,3,Chinese,f,3,0.3,2.47378187,1.7608484
XUJIAJIE,127,2,2024-06-14T12:41:27.078Z,english_805.wav,0,0,282,21,3,Chinese,f,4,0.32341667,-43.26336213,1.4289718
XUJIAJIE,128,2,2024-06-14T12:41:27.078Z,english_163.wav,0,0,569,21,3,Chinese,f,0,0,-28.85321754,1.43434597
XUJIAJIE,128,2,2024-06-14T12:41:27.078Z,english_163.wav,0,0,569,21,3,Chinese,f,1,0.1,9.37410395,1.75766865
XUJIAJIE,128,2,2024-06-14T12:41:27.078Z,english_163.wav,0,0,569,21,3,Chinese,f,2,0.2,-43.22266742,0.90391943
XUJIAJIE,128,2,2024-06-14T12:41:27.078Z,english_163.wav,0,0,569,21,3,Chinese,f,3,0.3,48.63715122,1.21743426
XUJIAJIE,128,2,2024-06-14T12:41:27.078Z,english_163.wav,0,0,569,21,3,Chinese,f,4,0.32341667,-94.22333204,1.8516503
XUJIAJIE,129,2,2024-06-14T12:41:27.078Z,english_616.wav,0,0,161,21,3,Chinese,f,0,0,-71.12360497,0.83412473
XUJIAJIE,129,2,2024-06-14T12:41:27.078Z,english_616.wav,0,0,161,21,3,Chinese,f,1,0.1,55.35355355,1.49185731
XUJIAJIE,129,2,2024-06-14T12:41:27.078Z,english_616.wav,0,0,161,21,3,Chinese,f,2,0.2,-15.85026512,1.32170209
XUJIAJIE,129,2,2024-06-14T12:41:27.078Z,english_616.wav,0,0,161,21,3,Chinese,f,3,0.3,-22.60587367,0.90458331
XUJIAJIE,129,2,2024-06-14T12:41:27.078Z,english_616.wav,0,0,161,21,3,Chinese,f,4,0.32341667,-45.64131884,1.17134835
XUJIAJIE,130,2,2024-06-14T12:41:27.078Z,english_495.wav,0,0,275,21,3,Chinese,f,0,0,-5.58861003,1.32978923
XUJIAJIE,130,2,2024-06-14T12:41:27.078Z,english_495.wav,0,0,275,21,3,Chinese,f,1,0.1,8.95176437,0.81778757
XUJIAJIE,130,2,2024-06-14T12:41:27.078Z,english_495.wav,0,0,275,21,3,Chinese,f,2,0.2,39.42206983,0.66481361
XUJIAJIE,130,2,2024-06-14T12:41:27.078Z,english_495.wav,0,0,275,21,3,Chinese,f,3,0.3,-84.38976819,0.35850052
XUJIAJIE,130,2,2024-06-14T12:41:27.078Z,english_495.wav,0,0,275,21,3,Chinese,f,4,0.32341667,-2.90431636,0.23899864
XUJIAJIE,131,2,2024-06-14T12:41:27.078Z,english_643.wav,0,0,176,21,3,Chinese,f,0,0,-40.15003434,1.60262153
XUJIAJIE,131,2,2024-06-14T12:41:27.078Z,english_643.wav,0,0,176,21,3,Chinese,f,1,0.1,-24.12893917,1.7682358
XUJIAJIE,131,2,2024-06-14T12:41:27.078Z,english_643.wav,0,0,176,21,3,Chinese,f,2,0.2,-40.66556796,0.31725537
XUJIAJIE,131,2,2024-06-14T12:41:27.078Z,english_643.wav,0,0,176,21,3,Chinese,f,3,0.3,75.01987067,0.56722121
XUJIAJIE,131,2,2024-06-14T12:41:27.078Z,english_643.wav,0,0,176,21,3,Chinese,f,4,0.32341667,29.71481383,1.87277365
XUJIAJIE,132,2,2024-06-14T12:41:27.078Z,english_625.wav,0,1,424,21,3,Chinese,f,0,0,25.70847239,1.1960971
XUJIAJIE,132,2,2024-06-14T12:41:27.078Z,english_625.wav,0,1,424,21,3,Chinese,f,1,0.1,-37.82303983,0.02795501
XUJIAJIE,132,2,2024-06-14T12:41:27.078Z,english_625.wav,0,1,424,21,3,Chinese,f,2,0.2,38.52328891,1.10198652
XUJIAJIE,132,2,2024-06-14T12:41:27.078Z,english_625.wav,0,1,424,21,3,Chinese,f,3,0.3,-23.93667478,0.08852642
XUJIAJIE,132,2,2024-06-14T12:41:27.078Z,english_625.wav,0,1,424,21,3,Chinese,f,4,0.32341667,-53.98326942,1.59813041
XUJIAJIE,133,2,2024-06-14T12:41:27.078Z,english_70.wav,0,0,345,21,3,Chinese,f,0,0,-53.09237622,1.21678364
XUJIAJIE,133,2,2024-06-14T12:41:27.078Z,english_70.wav,0,0,345,21,3,Chinese,f,1,0.1,85.97526897,0.94111324
XUJIAJIE,133,2,2024-06-14T12:41:27.078Z,english_70.wav,0,0,345,21,3,Chinese,f,2,0.2,25.5645184,1.03926055
XUJIAJIE,133,2,2024-06-14T12:41:27.078Z,english_70.wav,0,0,345,21,3,Chinese,f,3,0.3,1.25172137,0.29519406
XUJIAJIE,133,2,2024-06-14T12:41:27.078Z,english_70.wav,0,0,345,21,3,Chinese,f,4,0.32341667,93.59431896,0.80175783
XUJIAJIE,134,2,2024-06-14T12:41:27.078Z,english_927.wav,0,1,468,21,3,Chinese,f,0,0,81.66311017,1.3783001
XUJIAJIE,134,2,2024-06-14T12:41:27.078Z,english_927.wav,0,1,468,21,3,Chinese,f,1,0.1,0.87570902,0.51323502
XUJIAJIE,134,2,2024-06-14T12:41:27.078Z,english_927.wav,0,1,468,21,3,Chinese,f,2,0.2,-59.21619647,0.98265958
XUJIAJIE,134,2,2024-06-14T12:41:27.078Z,english_927.wav,0,1,468,21,3,Chinese,f,3,0.3,-57.6787773,0.30790993
XUJIAJIE,134,2,2024-06-14T12:41:27.078Z,english_927.wav,0,1,468,21,3,Chinese,f,4,0.32341667,-30.87043146,1.17222751
XUJIAJIE,135,2,2024-06-14T12:41:27.078Z,english_437.wav,0,0,262,21,3,Chinese,f,0,0,61.91803223,0.36516876
XUJIAJIE,135,2,2024-06-14T12:41:27.078Z,english_437.wav,0,0,262,21,3,Chinese,f,1,0.1,0.99543568,0.43500315
XUJIAJIE,135,2,2024-06-14T12:41:27.078Z,english_437.wav,0,0,262,21,3,Chinese,f,2,0.2,-50.96874522,1.25398366
XUJIAJIE,135,2,2024-06-14T12:41:27.078Z,english_437.wav,0,0,262,21,3,Chinese,f,3,0.3,-47.73319396,0.60570222
XUJIAJIE,135,2,2024-06-14T12:41:27.078Z,english_437.wav,0,0,262,21,3,Chinese,f,4,0.32341667,15.35939938,0.97208355
XUJIAJIE,136,2,2024-06-14T12:41:27.078Z,english_841.wav,0,0,184,21,3,Chinese,f,0,0,36.57834023,0.37598589
XUJIAJIE,136,2,2024-06-14T12:41:27.078Z,english_841.wav,0,0,184,21,3,Chinese,f,1,0.1,81.12994836,1.18949815
XUJIAJIE,136,2,2024-06-14T12:41:27.078Z,english_841.wav,0,0,184,21,3,Chinese,f,2,0.2,55.4316434,1.24219065
XUJIAJIE,136,2,2024-06-14T12:41:27.078Z,english_841.wav,0,0,184,21,3,Chinese,f,3,0.3,-50.85387517,1.45004046
XUJIAJIE,136,2,2024-06-14T12:41:27.078Z,english_841.wav,0,0,184,21,3,Chinese,f,4,0.32341667,-52.13814436,0.19253582
XUJIAJIE,137,2,2024-06-14T12:41:27.078Z,english_518.wav,0,0,377,21,3,Chinese,f,0,0,52.37511869,0.23824141
XUJIAJIE,137,2,2024-06-14T12:41:27.078Z,english_518.wav,0,0,377,21,3,Chinese,f,1,0.1,-33.3490586,0.80559068
XUJIAJIE,137,2,2024-06-14T12:41:27.078Z,english_518.wav,0,0,377,21,3,Chinese,f,2,0.2,-71.20035434,1.24725456
XUJIAJIE,137,2,2024-06-14T12:41:27.078Z,english_518.wav,0,0,377,21,3,Chinese,f,3,0.3,6.23243823,1.01334401
XUJIAJIE,137,2,2024-06-14T12:41:27.078Z,english_518.wav,0,0,377,21,3,Chinese,f,4,0.32341667,-29.48660546,1.51264586
XUJIAJIE,138,2,2024-06-14T12:41:27.078Z,english_470.wav,0,0,145,21,3,Chinese,f,0,0,-20.39789813,1.83124966
XUJIAJIE,138,2,2024-06-14T12:41:27.078Z,english_470.wav,0,0,145,21,3,Chinese,f,1,0.1,20.62750989,0.41787925
XUJIAJIE,138,2,2024-06-14T12:41:27.078Z,english_470.wav,0,0,145,21,3,Chinese,f,2,0.2,-59.78251605,1.85790598
XUJIAJIE,138,2,2024-06-14T12:41:27.078Z,english_470.wav,0,0,145,21,3,Chinese,f,3,0.3,-88.74051682,0.99710793
XUJIAJIE,138,2,2024-06-14T12:41:27.078Z,english_470.wav,0,0,145,21,3,Chinese,f,4,0.32341667,8.31634628,0.56985764
XUJIAJIE,139,2,2024-06-14T12:41:27.078Z,english_765.wav,0,0,511,21,3,Chinese,f,0,0,-52.71695997,0.24697616
XUJIAJIE,139,2,2024-06-14T12:41:27.078Z,english_765.wav,0,0,511,21,3,Chinese,f,1,0.1,-0.72548599,1.34458244
XUJIAJIE,139,2,2024-06-14T12:41:27.078Z,english_765.wav,0,0,511,21,3,Chinese,f,2,0.2,-25.46106624,0.2833524
XUJIAJIE,139,2,2024-06-14T12:41:27.078Z,english_765.wav,0,0,511,21,3,Chinese,f,3,0.3,-15.36834083,0.99517128
XUJIAJIE,139,2,2024-06-14T12:41:27.078Z,english_765.wav,0,0,511,21,3,Chinese,f,4,0.32341667,-34.08212533,0.81265208
XUJIAJIE,140,2,2024-06-14T12:41:27.078Z,english_801.wav,0,0,432,21,3,Chinese,f,0,0,66.50571345,0.19311528
XUJIAJIE,140,2,2024-06-14T12:41:27.078Z,english_801.wav,0,0,432,21,3,Chinese,f,1,0.1,-53.03260979,0.48683601
XUJIAJIE,140,2,2024-06-14T12:41:27.078Z,english_801.wav,0,0,432,21,3,Chinese,f,2,0.2,-3.89459646,1.16293258
XUJIAJIE,140,2,2024-06-14T12:41:27.078Z,english_801.wav,0,0,432,21,3,Chinese,f,3,0.3,8.32951864,1.55734707
XUJIAJIE,140,2,2024-06-14T12:41:27.078Z,english_801.wav,0,0,432,21,3,Chinese,f,4,0.32341667,-87.46806733,0.63471681
XUJIAJIE,141,2,2024-06-14T12:41:27.078Z,english_368.wav,0,0,732,21,3,Chinese,f,0,0,-25.00542805,1.03431482
XUJIAJIE,141,2,2024-06-14T12:41:27.078Z,english_368.wav,0,0,732,21,3,Chinese,f,1,0.1,-48.20991773,0.92366821
XUJIAJIE,141,2,2024-06-14T12:41:27.078Z,english_368.wav,0,0,732,21,3,Chinese,f,2,0.2,-51.83604218,0.34019883
XUJIAJIE,141,2,2024-06-14T12:41:27.078Z,english_368.wav,0,0,732,21,3,Chinese,f,3,0.3,14.57062672,1.21184807
XUJIAJIE,141,2,2024-06-14T12:41:27.078Z,english_368.wav,0,0,732,21,3,Chinese,f,4,0.32341667,-26.77020505,0.81530657
XUJIAJIE,142,2,2024-06-14T12:41:27.078Z,english_406.wav,0,0,188,21,3,Chinese,f,0,0,28.09923375,1.43312072
XUJIAJIE,142,2,2024-06-14T12:41:27.078Z,english_406.wav,0,0,188,21,3,Chinese,f,1,0.1,-15.10813675,0.8890381
XUJIAJIE,142,2,2024-06-14T12:41:27.078Z,english_406.wav,0,0,188,21,3,Chinese,f,2,0.2,-12.43931725,0.60560557
XUJIAJIE,142,2,2024-06-14T12:41:27.078Z,english_406.wav,0,0,188,21,3,Chinese,f,3,0.3,-27.33468297,1.13565345
XUJIAJIE,142,2,2024-06-14T12:41:27.078Z,english_406.wav,0,0,188,21,3,Chinese,f,4,0.32341667,-62.66931892,1.8467177
XUJIAJIE,143,2,2024-06-14T12:41:27.078Z,english_576.wav,0,0,212,21,3,Chinese,f,0,0,70.71636046,1.40655209
XUJIAJIE,143,2,2024-06-14T12:41:27.078Z,english_576.wav,0,0,212,21,3,Chinese,f,1,0.1,-53.10414049,0.7609351
XUJIAJIE,143,2,2024-06-14T12:41:27.078Z,english_576.wav,0,0,212,21,3,Chinese,f,2,0.2,34.4374047,1.0155723
XUJIAJIE,143,2,2024-06-14T12:41:27.078Z,english_576.wav,0,0,212,21,3,Chinese,f,3,0.3,19.64113521,1.45906276
XUJIAJIE,143,2,2024-06-14T12:41:27.078Z,english_576.wav,0,0,212,21,3,Chinese,f,4,0.32341667,36.63265498,1.49724695
XUJIAJIE,144,2,2024-06-14T12:41:27.078Z,english_67.wav,0,0,333,21,3,Chinese,f,0,0,70.16279698,0.73199358
XUJIAJIE,144,2,2024-06-14T12:41:27.078Z,english_67.wav,0,0,333,21,3,Chinese,f,1,0.1,33.8182948,0.88382403
XUJIAJIE,144,2,2024-06-14T12:41:27.078Z,english_67.wav,0,0,333,21,3,Chinese,f,2,0.2,-49.10498957,1.67993254
XUJIAJIE,144,2,2024-06-14T12:41:27.078Z,english_67.wav,0,0,333,21,3,Chinese,f,3,0.3,-4.93823124,0.24455532
XUJIAJIE,144,2,2024-06-14T12:41:27.078Z,english_67.wav,0,0,333,21,3,Chinese,f,4,0.32341667,24.09614703,1.99747442
XUJIAJIE,145,2,2024-06-14T12:41:27.078Z,english_868.wav,0,1,466,21,3,Chinese,f,0,0,-32.61379415,0.76599538
XUJIAJIE,145,2,2024-06-14T12:41:27.078Z,english_868.wav,0,1,466,21,3,Chinese,f,1,0.1,-13.61007492,0.34348987
XUJIAJIE,145,2,2024-06-14T12:41:27.078Z,english_868.wav,0,1,466,21,3,Chinese,f,2,0.2,-35.23756027,0.26787397
XUJIAJIE,145,2,2024-06-14T12:41:27.078Z,english_868.wav,0,1,466,21,3,Chinese,f,3,0.3,83.12333319,0.46343078
XUJIAJIE,145,2,2024-06-14T12:41:27.078Z,english_868.wav,0,1,466,21,3,Chinese,f,4,0.32341667,62.80865362,1.59158725
XUJIAJIE,146,2,2024-06-14T12:41:27.078Z,english_159.wav,0,0,480,21,3,Chinese,f,0,0,-83.7072706,0.09138871
XUJIAJIE,146,2,2024-06-14T12:41:27.078Z,english_159.wav,0,0,480,21,3,Chinese,f,1,0.1,-62.69238784,0.63335487
XUJIAJIE,146,2,2024-06-14T12:41:27.078Z,english_159.wav,0,0,480,21,3,Chinese,f,2,0.2,22.09248507,1.23550763
XUJIAJIE,146,2,2024-06-14T12:41:27.078Z,english_159.wav,0,0,480,21,3,Chinese,f,3,0.3,-80.94681782,1.83356136
XUJIAJIE,146,2,2024-06-14T12:41:27.078Z,english_159.wav,0,0,480,21,3,Chinese,f,4,0.32341667,-55.76861956,0.76796393
XUJIAJIE,147,2,2024-06-14T12:41:27.078Z,english_322.wav,0,0,717,21,3,Chinese,f,0,0,-27.28438319,0.79345249
XUJIAJIE,147,2,2024-06-14T12:41:27.078Z,english_322.wav,0,0,717,21,3,Chinese,f,1,0.1,-98.66999083,0.28651419
XUJIAJIE,147,2,2024-06-14T12:41:27.078Z,english_322.wav,0,0,717,21,3,Chinese,f,2,0.2,-54.08694108,1.26482546
XUJIAJIE,147,2,2024-06-14T12:41:27.078Z,english_322.wav,0,0,717,21,3,Chinese,f,3,0.3,-7.3933801,0.6947791
XUJIAJIE,147,2,2024-06-14T12:41:27.078Z,english_322.wav,0,0,717,21,3,Chinese,f,4,0.32341667,72.49489683,0.74875353
XUJIAJIE,148,2,2024-06-14T12:41:27.078Z,english_934.wav,0,0,157,21,3,Chinese,f,0,0,48.23169593,1.38760579
XUJIAJIE,148,2,2024-06-14T12:41:27.078Z,english_934.wav,0,0,157,21,3,Chinese,f,1,0.1,42.81145804,1.74622613
XUJIAJIE,148,2,2024-06-14T12:41:27.078Z,english_934.wav,0,0,157,21,3,Chinese,f,2,0.2,79.06411095,0.2874918
XUJIAJIE,148,2,2024-06-14T12:41:27.078Z,english_934.wav,0,0,157,21,3,Chinese,f,3,0.3,69.44528076,1.61606763
XUJIAJIE,148,2,2024-06-14T12:41:27.078Z,english_934.wav,0,0,157,21,3,Chinese,f,4,0.32341667,88.54940569,1.62058381
XUJIAJIE,149,2,2024-06-14T12:41:27.078Z,english_822.wav,0,0,238,21,3,Chinese,f,0,0,22.19463519,1.34957498
XUJIAJIE,149,2,2024-06-14T12:41:27.078Z,english_822.wav,0,0,238,21,3,Chinese,f,1,0.1,46.02970585,1.18534363
XUJIAJIE,149,2,2024-06-14T12:41:27.078Z,english_822.wav,0,0,238,21,3,Chinese,f,2,0.2,44.31281831,0.88966115
XUJIAJIE,149,2,2024-06-14T12:41:27.078Z,english_822.wav,0,0,238,21,3,Chinese,f,3,0.3,27.24156044,1.22476657
XUJIAJIE,149,2,2024-06-14T12:41:27.078Z,english_822.wav,0,0,238,21,3,Chinese,f,4,0.32341667,41.58842879,0.51847317
XUJIAJIE,150,3,2024-06-14T12:41:27.078Z,english_167.wav,0,1,526,21,3,Chinese,f,0,0,57.26975159,0.44729063
XUJIAJIE,150,3,2024-06-14T12:41:27.078Z,english_167.wav,0,1,526,21,3,Chinese,f,1,0.1,54.31010869,1.623568
XUJIAJIE,150,3,2024-06-14T12:41:27.078Z,english_167.wav,0,1,526,21,3,Chinese,f,2,0.2,99.57020207,0.28743218
XUJIAJIE,150,3,2024-06-14T12:41:27.078Z,english_167.wav,0,1,526,21,3,Chinese,f,3,0.3,27.92735821,0.71837494
XUJIAJIE,150,3,2024-06-14T12:41:27.078Z,english_167.wav,0,1,526,21,3,Chinese,f,4,0.32341667,73.13424206,1.35815305
XUJIAJIE,151,3,2024-06-14T12:41:27.078Z,english_243.wav,0,0,1065,21,3,Chinese,f,0,0,-74.41503345,0.65151457
XUJIAJIE,151,3,2024-06-14T12:41:27.078Z,english_243.wav,0,0,1065,21,3,Chinese,f,1,0.1,-16.65530333,0.20623253
XUJIAJIE,151,3,2024-06-14T12:41:27.078Z,english_243.wav,0,0,1065,21,3,Chinese,f,2,0.2,-1.41224798,0.87153721
XUJIAJIE,151,3,2024-06-14T12:41:27.078Z,english_243.wav,0,0,1065,21,3,Chinese,f,3,0.3,37.30419975,0.28583671
XUJIAJIE,151,3,2024-06-14T12:41:27.078Z,english_243.wav,0,0,1065,21,3,Chinese,f,4,0.32341667,-3.40378668,1.90700275
XUJIAJIE,152,3,2024-06-14T12:41:27.078Z,english_427.wav,0,0,620,21,3,Chinese,f,0,0,38.10585738,0.62221409
XUJIAJIE,152,3,2024-06-14T12:41:27.078Z,english_427.wav,0,0,620,21,3,Chinese,f,1,0.1,75.26959407,1.20145201
XUJIAJIE,152,3,2024-06-14T12:41:27.078Z,english_427.wav,0,0,620,21,3,Chinese,f,2,0.2,-92.48152235,0.18894815
XUJIAJIE,152,3,2024-06-14T12:41:27.078Z,english_427.wav,0,0,620,21,3,Chinese,f,3,0.3,-38.24940669,0.36527681
XUJIAJIE,152,3,2024-06-14T12:41:27.078Z,english_427.wav,0,0,620,21,3,Chinese,f,4,0.32341667,-41.67637111,0.02898627
XUJIAJIE,153,3,2024-06-14T12:41:27.078Z,english_324.wav,0,0,502,21,3,Chinese,f,0,0,49.07155908,0.10864525
XUJIAJIE,153,3,2024-06-14T12:41:27.078Z,english_324.wav,0,0,502,21,3,Chinese,f,1,0.1,-58.77252084,1.61132735
XUJIAJIE,153,3,2024-06-14T12:41:27.078Z,english_324.wav,0,0,502,21,3,Chinese,f,2,0.2,-55.40155542,0.60180616
XUJIAJIE,153,3,2024-06-14T12:41:27.078Z,english_324.wav,0,0,502,21,3,Chinese,f,3,0.3,19.02224292,0.93555132
XUJIAJIE,153,3,2024-06-14T12:41:27.078Z,english_324.wav,0,0,502,21,3,Chinese,f,4,0.32341667,21.20382854,0.34417591
XUJIAJIE,154,3,2024-06-14T12:41:27.078Z,english_535.wav,0,0,435,21,3,Chinese,f,0,0,-5.32882057,0.21055966
XUJIAJIE,154,3,2024-06-14T12:41:27.078Z,english_535.wav,0,0,435,21,3,Chinese,f,1,0.1,-34.98045039,0.89683134
XUJIAJIE,154,3,2024-06-14T12:41:27.078Z,english_535.wav,0,0,435,21,3,Chinese,f,2,0.2,30.10834221,1.11178172
XUJIAJIE,154,3,2024-06-14T12:41:27.078Z,english_535.wav,0,0,435,21,3,Chinese,f,3,0.3,-70.22542568,0.20123235
XUJIAJIE,154,3,2024-06-14T12:41:27.078Z,english_535.wav,0,0,435,21,3,Chinese,f,4,0.32341667,-73.0016054,0.99564794
XUJIAJIE,155,3,2024-06-14T12:41:27.078Z,english_587.wav,0,0,111,21,3,Chinese,f,0,0,-33.32102811,0.7972352
XUJIAJIE,155,3,2024-06-14T12:41:27.078Z,english_587.wav,0,0,111,21,3,Chinese,f,1,0.1,46.1287001,1.97425238
XUJIAJIE,155,3,2024-06-14T12:41:27.078Z,english_587.wav,0,0,111,21,3,Chinese,f,2,0.2,-62.23894368,0.99609006
XUJIAJIE,155,3,2024-06-14T12:41:27.078Z,english_587.wav,0,0,111,21,3,Chinese,f,3,0.3,36.67711132,1.18577707
XUJIAJIE,155,3,2024-06-14T12:41:27.078Z,english_587.wav,0,0,111,21,3,Chinese,f,4,0.32341667,-11.53320103,1.64089558
XUJIAJIE,156,3,2024-06-14T12:41:27.078Z,english_807.wav,0,0,94,21,3,Chinese,f,0,0,-70.27095807,1.48455572
XUJIAJIE,156,3,2024-06-14T12:41:27.078Z,english_807.wav,0,0,94,21,3,Chinese,f,1,0.1,84.77391363,1.24837561
XUJIAJIE,156,3,2024-06-14T12:41:27.078Z,english_807.wav,0,0,94,21,3,Chinese,f,2,0.2,-27.52537388,0.77726095
XUJIAJIE,156,3,2024-06-14T12:41:27.078Z,english_807.wav,0,0,94,21,3,Chinese,f,3,0.3,36.82986288,1.65388598
XUJIAJIE,156,3,2024-06-14T12:41:27.078Z,english_807.wav,0,0,94,21,3,Chinese,f,4,0.32341667,16.63983573,1.10343216
XUJIAJIE,157,3,2024-06-14T12:41:27.078Z,english_639.wav,0,1,368,21,3,Chinese,f,0,0,-8.64176861,1.80061108
XUJIAJIE,157,3,2024-06-14T12:41:27.078Z,english_639.wav,0,1,368,21,3,Chinese,f,1,0.1,-2.28240571,0.32075858
XUJIAJIE,157,3,2024-06-14T12:41:27.078Z,english_639.wav,0,1,368,21,3,Chinese,f,2,0.2,61.07673865,0.35362442
XUJIAJIE,157,3,2024-06-14T12:41:27.078Z,english_639.wav,0,1,368,21,3,Chinese,f,3,0.3,-20.33592136,1.48415136
XUJIAJIE,157,3,2024-06-14T12:41:27.078Z,english_639.wav,0,1,368,21,3,Chinese,f,4,0.32341667,-24.05835486,0.14560931
XUJIAJIE,158,3,2024-06-14T12:41:27.078Z,english_791.wav,0,0,163,21,3,Chinese,f,0,0,65.91759783,1.00744019
XUJIAJIE,158,3,2024-06-14T12:41:27.078Z,english_791.wav,0,0,163,21,3,Chinese,f,1,0.1,-36.70731143,0.67929445
XUJIAJIE,158,3,2024-06-14T12:41:27.078Z,english_791.wav,0,0,163,21,3,Chinese,f,2,0.2,67.54354156,0.95779159
XUJIAJIE,158,3,2024-06-14T12:41:27.078Z,english_791.wav,0,0,163,21,3,Chinese,f,3,0.3,2.89249458,1.93585264
XUJIAJIE,158,3,2024-06-14T12:41:27.078Z,english_791.wav,0,0,163,21,3,Chinese,f,4,0.32341667,-55.92630603,0.7587469
XUJIAJIE,159,3,2024-06-14T12:41:27.078Z,english_1.wav,0,0,267,21,3,Chinese,f,0,0,53.99031816,1.91732561
XUJIAJIE,159,3,2024-06-14T12:41:27.078Z,english_1.wav,0,0,267,21,3,Chinese,f,1,0.1,-58.32145174,0.75352701
XUJIAJIE,159,3,2024-06-14T12:41:27.078Z,english_1.wav,0,0,267,21,3,Chinese,f,2,0.2,-86.75659624,1.40297919
XUJIAJIE,159,3,2024-06-14T12:41:27.078Z,english_1.wav,0,0,267,21,3,Chinese,f,3,0.3,-31.84945767,0.12157709
XUJIAJIE,159,3,2024-06-14T12:41:27.078Z,english_1.wav,0,0,267,21,3,Chinese,f,4,0.32341667,-59.21997754,1.57687546
XUJIAJIE,160,3,2024-06-14T12:41:27.078Z,english_605.wav,0,0,70,21,3,Chinese,f,0,0,-82.65591545,0.90945233
XUJIAJIE,160,3,2024-06-14T12:41:27.078Z,english_605.wav,0,0,70,21,3,Chinese,f,1,0.1,35.78886654,1.65178877
XUJIAJIE,160,3,2024-06-14T12:41:27.078Z,english_605.wav,0,0,70,21,3,Chinese,f,2,0.2,-36.80716754,0.21181898
XUJIAJIE,160,3,2024-06-14T12:41:27.078Z,english_605.wav,0,0,70,21,3,Chinese,f,3,0.3,-4.39131435,1.21754483
XUJIAJIE,160,3,2024-06-14T12:41:27.078Z,english_605.wav,0,0,70,21,3,Chinese,f,4,0.32341667,-17.17702763,1.60493484
XUJIAJIE,161,3,2024-06-14T12:41:27.078Z,english_976.wav,0,0,455,21,3,Chinese,f,0,0,-92.49082032,0.30893725
XUJIAJIE,161,3,2024-06-14T12:41:27.078Z,english_976.wav,0,0,455,21,3,Chinese,f,1,0.1,92.01562452,1.54393752
XUJIAJIE,161,3,2024-06-14T12:41:27.078Z,english_976.wav,0,0,455,21,3,Chinese,f,2,0.2,-80.55764576,1.31466429
XUJIAJIE,161,3,2024-06-14T12:41:27.078Z,english_976.wav,0,0,455,21,3,Chinese,f,3,0.3,-70.09009567,1.88171095
XUJIAJIE,161,3,2024-06-14T12:41:27.078Z,english_976.wav,0,0,455,21,3,Chinese,f,4,0.32341667,-7.5394989,1.71314556
XUJIAJIE,162,3,2024-06-14T12:41:27.078Z,english_215.wav,0,0,190,21,3,Chinese,f,0,0,-93.71362427,1.31176069
XUJIAJIE,162,3,2024-06-14T12:41:27.078Z,english_215.wav,0,0,190,21,3,Chinese,f,1,0.1,20.4696733,1.25536714
XUJIAJIE,162,3,2024-06-14T12:41:27.078Z,english_215.wav,0,0,190,21,3,Chinese,f,2,0.2,-66.57352715,1.5696385
XUJIAJIE,162,3,2024-06-14T12:41:27.078Z,english_215.wav,0,0,190,21,3,Chinese,f,3,0.3,-0.6079782,0.03144419
XUJIAJIE,162,3,2024-06-14T12:41:27.078Z,english_215.wav,0,0,190,21,3,Chinese,f,4,0.32341667,-5.73921948,0.79048669
XUJIAJIE,163,3,2024-06-14T12:41:27.078Z,english_321.wav,0,0,16,21,3,Chinese,f,0,0,2.07721816,1.69623759
XUJIAJIE,163,3,2024-06-14T12:41:27.078Z,english_321.wav,0,0,16,21,3,Chinese,f,1,0.1,59.48735819,1.35736687
XUJIAJIE,163,3,2024-06-14T12:41:27.078Z,english_321.wav,0,0,16,21,3,Chinese,f,2,0.2,64.78149714,1.92920457
XUJIAJIE,163,3,2024-06-14T12:41:27.078Z,english_321.wav,0,0,16,21,3,Chinese,f,3,0.3,65.58393414,0.66559077
XUJIAJIE,163,3,2024-06-14T12:41:27.078Z,english_321.wav,0,0,16,21,3,Chinese,f,4,0.32341667,14.66673939,1.66523208
XUJIAJIE,164,3,2024-06-14T12:41:27.078Z,english_160.wav,0,1,458,21,3,Chinese,f,0,0,2.54964477,0.54357393
XUJIAJIE,164,3,2024-06-14T12:41:27.078Z,english_160.wav,0,1,458,21,3,Chinese,f,1,0.1,26.84692557,1.29343216
XUJIAJIE,164,3,2024-06-14T12:41:27.078Z,english_160.wav,0,1,458,21,3,Chinese,f,2,0.2,72.58457191,0.42070854
XUJIAJIE,164,3,2024-06-14T12:41:27.078Z,english_160.wav,0,1,458,21,3,Chinese,f,3,0.3,-6.94481249,1.04489529
XUJIAJIE,164,3,2024-06-14T12:41:27.078Z,english_160.wav,0,1,458,21,3,Chinese,f,4,0.32341667,35.80656171,0.26802137
XUJIAJIE,165,3,2024-06-14T12:41:27.078Z,english_783.wav,0,0,287,21,3,Chinese,f,0,0,23.05268069,1.49549247
XUJIAJIE,165,3,2024-06-14T12:41:27.078Z,english_783.wav,0,0,287,21,3,Chinese,f,1,0.1,9.36005369,0.13797177
XUJIAJIE,165,3,2024-06-14T12:41:27.078Z,english_783.wav,0,0,287,21,3,Chinese,f,2,0.2,62.81522218,1.80236654
XUJIAJIE,165,3,2024-06-14T12:41:27.078Z,english_783.wav,0,0,287,21,3,Chinese,f,3,0.3,67.71456376,0.33800471
XUJIAJIE,165,3,2024-06-14T12:41:27.078Z,english_783.wav,0,0,287,21,3,Chinese,f,4,0.32341667,77.96788237,1.97708045
XUJIAJIE,166,3,2024-06-14T12:41:27.078Z,english_150.wav,0,0,357,21,3,Chinese,f,0,0,-51.77489255,0.6625495
XUJIAJIE,166,3,2024-06-14T12:41:27.078Z,english_150.wav,0,0,357,21,3,Chinese,f,1,0.1,16.7322824,1.26353984
XUJIAJIE,166,3,2024-06-14T12:41:27.078Z,english_150.wav,0,0,357,21,3,Chinese,f,2,0.2,-56.19561079,0.38378194
XUJIAJIE,166,3,2024-06-14T12:41:27.078Z,english_150.wav,0,0,357,21,3,Chinese,f,3,0.3,36.81691324,1.59154348
XUJIAJIE,166,3,2024-06-14T12:41:27.078Z,english_150.wav,0,0,357,21,3,Chinese,f,4,0.32341667,-97.11243964,0.94821753
XUJIAJIE,167,3,2024-06-14T12:41:27.078Z,english_610.wav,0,1,310,21,3,Chinese,f,0,0,-14.96432812,0.5672697
XUJIAJIE,167,3,2024-06-14T12:41:27.078Z,english_610.wav,0,1,310,21,3,Chinese,f,1,0.1,48.51886955,0.75156182
XUJIAJIE,167,3,2024-06-14T12:41:27.078Z,english_610.wav,0,1,310,21,3,Chinese,f,2,0.2,47.07358548,0.38846335
XUJIAJIE,167,3,2024-06-14T12:41:27.078Z,english_610.wav,0,1,310,21,3,Chinese,f,3,0.3,17.30383174,1.52072292
XUJIAJIE,167,3,2024-06-14T12:41:27.078Z,english_610.wav,0,1,310,21,3,Chinese,f,4,0.32341667,1.51764356,1.56024836
XUJIAJIE,168,3,2024-06-14T12:41:27.078Z,english_543.wav,0,0,204,21,3,Chinese,f,0,0,13.74009622,0.63900578
XUJIAJIE,168,3,2024-06-14T12:41:27.078Z,english_543.wav,0,0,204,21,3,Chinese,f,1,0.1,51.80972721,1.6206981
XUJIAJIE,168,3,2024-06-14T12:41:27.078Z,english_543.wav,0,0,204,21,3,Chinese,f,2,0.2,86.3964352,0.03304675
XUJIAJIE,168,3,2024-06-14T12:41:27.078Z,english_543.wav,0,0,204,21,3,Chinese,f,3,0.3,-66.39783761,1.7049324
XUJIAJIE,168,3,2024-06-14T12:41:27.078Z,english_543.wav,0,0,204,21,3,Chinese,f,4,0.32341667,31.11863834,1.46507556
XUJIAJIE,169,3,2024-06-14T12:41:27.078Z,english_854.wav,0,0,229,21,3,Chinese,f,0,0,-3.2532791,1.78139632
XUJIAJIE,169,3,2024-06-14T12:41:27.078Z,english_854.wav,0,0,229,21,3,Chinese,f,1,0.1,19.40039505,1.50161717
XUJIAJIE,169,3,2024-06-14T12:41:27.078Z,english_854.wav,0,0,229,21,3,Chinese,f,2,0.2,-14.62360686,0.8978804
XUJIAJIE,169,3,2024-06-14T12:41:27.078Z,english_854.wav,0,0,229,21,3,Chinese,f,3,0.3,-63.13820282,1.66267041
XUJIAJIE,169,3,2024-06-14T12:41:27.078Z,english_854.wav,0,0,229,21,3,Chinese,f,4,0.32341667,44.42181264,1.68588082
XUJIAJIE,170,3,2024-06-14T12:41:27.078Z,english_191.wav,0,1,377,21,3,Chinese,f,0,0,5.22709543,0.24693927
XUJIAJIE,170,3,2024-06-14T12:41:27.078Z,english_191.wav,0,1,377,21,3,Chinese,f,1,0.1,-51.29785688,1.61528443
XUJIAJIE,170,3,2024-06-14T12:41:27.078Z,english_191.wav,0,1,377,21,3,Chinese,f,2,0.2,14.39503603,0.10158113
XUJIAJIE,170,3,2024-06-14T12:41:27.078Z,english_191.wav,0,1,377,21,3,Chinese,f,3,0.3,60.50312404,1.02883866
XUJIAJIE,170,3,2024-06-14T12:41:27.078Z,english_191.wav,0,1,377,21,3,Chinese,f,4,0.32341667,68.15927452,0.69870432
XUJIAJIE,171,3,2024-06-14T12:41:27.078Z,english_87.wav,0,0,161,21,3,Chinese,f,0,0,54.83056612,1.56132998
XUJIAJIE,171,3,2024-06-14T12:41:27.078Z,english_87.wav,0,0,161,21,3,Chinese,f,1,0.1,56.31531505,1.28614089
XUJIAJIE,171,3,2024-06-14T12:41:27.078Z,english_87.wav,0,0,161,21,3,Chinese,f,2,0.2,-65.55002777,1.44579989
XUJIAJIE,171,3,2024-06-14T12:41:27.078Z,english_87.wav,0,0,161,21,3,Chinese,f,3,0.3,-25.15788212,0.3607766
XUJIAJIE,171,3,2024-06-14T12:41:27.078Z,english_87.wav,0,0,161,21,3,Chinese,f,4,0.32341667,22.72349562,0.17745198
XUJIAJIE,172,3,2024-06-14T12:41:27.078Z,english_812.wav,0,0,393,21,3,Chinese,f,0,0,70.24469457,0.85599223
XUJIAJIE,172,3,2024-06-14T12:41:27.078Z,english_812.wav,0,0,393,21,3,Chinese,f,1,0.1,-27.51466786,0.39005905
XUJIAJIE,172,3,2024-06-14T12:41:27.078Z,english_812.wav,0,0,393,21,3,Chinese,f,2,0.2,60.55844263,1.43275618
XUJIAJIE,172,3,2024-06-14T12:41:27.078Z,english_812.wav,0,0,393,21,3,Chinese,f,3,0.3,52.93607499,1.34329238
XUJIAJIE,172,3,2024-06-14T12:41:27.078Z,english_812.wav,0,0,393,21,3,Chinese,f,4,0.32341667,74.74872052,0.96810209
XUJIAJIE,173,3,2024-06-14T12:41:27.078Z,english_132.wav,0,0,223,21,3,Chinese,f,0,0,-72.51222148,1.10010631
XUJIAJIE,173,3,2024-06-14T12:41:27.078Z,english_132.wav,0,0,223,21,3,Chinese,f,1,0.1,-7.68798614,1.14985521
XUJIAJIE,173,3,2024-06-14T12:41:27.078Z,english_132.wav,0,0,223,21,3,Chinese,f,2,0.2,-26.80347179,1.49426164
XUJIAJIE,173,3,2024-06-14T12:41:27.078Z,english_132.wav,0,0,223,21,3,Chinese,f,3,0.3,-51.62992771,1.25622472
XUJIAJIE,173,3,2024-06-14T12:41:27.078Z,english_132.wav,0,0,223,21,3,Chinese,f,4,0.32341667,-1.85745595,0.89976888
XUJIAJIE,174,3,2024-06-14T12:41:27.078Z,english_210.wav,0,0,304,21,3,Chinese,f,0,0,43.03172008,0.27268056
XUJIAJIE,174,3,2024-06-14T12:41:27.078Z,english_210.wav,0,0,304,21,3,Chinese,f,1,0.1,58.48529179,0.59270989
XUJIAJIE,174,3,2024-06-14T12:41:27.078Z,english_210.wav,0,0,304,21,3,Chinese,f,2,0.2,57.29337371,1.57355776
XUJIAJIE,174,3,2024-06-14T12:41:27.078Z,english_210.wav,0,0,304,21,3,Chinese,f,3,0.3,-45.34642936,1.97663548
XUJIAJIE,174,3,2024-06-14T12:41:27.078Z,english_210.wav,0,0,304,21,3,Chinese,f,4,0.32341667,-3.49486879,1.39997912
XUJIAJIE,175,3,2024-06-14T12:41:27.078Z,english_439.wav,0,0,513,21,3,Chinese,f,0,0,-34.98153375,0.51703437
XUJIAJIE,175,3,2024-06-14T12:41:27.078Z,english_439.wav,0,0,513,21,3,Chinese,f,1,0.1,58.81829455,0.92552513
XUJIAJIE,175,3,2024-06-14T12:41:27.078Z,english_439.wav,0,0,513,21,3,Chinese,f,2,0.2,-39.64168408,1.94754337
XUJIAJIE,175,3,2024-06-14T12:41:27.078Z,english_439.wav,0,0,513,21,3,Chinese,f,3,0.3,-65.89684329,0.19153473
XUJIAJIE,175,3,2024-06-14T12:41:27.078Z,english_439.wav,0,0,513,21,3,Chinese,f,4,0.32341667,-18.09409032,1.29438445
XUJIAJIE,176,3,2024-06-14T12:41:27.078Z,english_307.wav,0,0,1009,21,3,Chinese,f,0,0,-38.93106299,1.91951228
XUJIAJIE,176,3,2024-06-14T12:41:27.078Z,english_307.wav,0,0,1009,21,3,Chinese,f,1,0.1,-30.40144858,0.50419792
XUJIAJIE,176,3,2024-06-14T12:41:27.078Z,english_307.wav,0,0,1009,21,3,Chinese,f,2,0.2,2.19081651,0.76602689
XUJIAJIE,176,3,2024-06-14T12:41:27.078Z,english_307.wav,0,0,1009,21,3,Chinese,f,3,0.3,30.82741361,0.59904457
XUJIAJIE,176,3,2024-06-14T12:41:27.078Z,english_307.wav,0,0,1009,21,3,Chinese,f,4,0.32341667,46.9007513,1.94941235
XUJIAJIE,177,3,2024-06-14T12:41:27.078Z,english_408.wav,0,0,397,21,3,Chinese,f,0,0,-0.16211679,1.52185603
XUJIAJIE,177,3,2024-06-14T12:41:27.078Z,english_408.wav,0,0,397,21,3,Chinese,f,1,0.1,16.68246491,0.27925492
XUJIAJIE,177,3,2024-06-14T12:41:27.078Z,english_408.wav,0,0,397,21,3,Chinese,f,2,0.2,-84.31504289,0.96179544
XUJIAJIE,177,3,2024-06-14T12:41:27.078Z,english_408.wav,0,0,397,21,3,Chinese,f,3,0.3,20.95362966,1.64669203
XUJIAJIE,177,3,2024-06-14T12:41:27.078Z,english_408.wav,0,0,397,21,3,Chinese,f,4,0.32341667,15.25079186,1.54793764
XUJIAJIE,178,3,2024-06-14T12:41:27.078Z,english_912.wav,0,0,371,21,3,Chinese,f,0,0,-43.64864707,0.87210048
XUJIAJIE,178,3,2024-06-14T12:41:27.078Z,english_912.wav,0,0,371,21,3,Chinese,f,1,0.1,94.54433808,1.43243955
XUJIAJIE,178,3,2024-06-14T12:41:27.078Z,english_912.wav,0,0,371,21,3,Chinese,f,2,0.2,67.98324072,1.49899487
XUJIAJIE,178,3,2024-06-14T12:41:27.078Z,english_912.wav,0,0,371,21,3,Chinese,f,3,0.3,9.27329172,0.42663795
XUJIAJIE,178,3,2024-06-14T12:41:27.078Z,english_912.wav,0,0,371,21,3,Chinese,f,4,0.32341667,-55.44973818,0.19299009
XUJIAJIE,179,3,2024-06-14T12:41:27.078Z,english_530.wav,0,0,491,21,3,Chinese,f,0,0,21.55057906,0.25130805
XUJIAJIE,179,3,2024-06-14T12:41:27.078Z,english_530.wav,0,0,491,21,3,Chinese,f,1,0.1,-20.17265513,0.96020899
XUJIAJIE,179,3,2024-06-14T12:41:27.078Z,english_530.wav,0,0,491,21,3,Chinese,f,2,0.2,-52.07974762,1.55252741
XUJIAJIE,179,3,2024-06-14T12:41:27.078Z,english_530.wav,0,0,491,21,3,Chinese,f,3,0.3,87.36384387,1.19622655
XUJIAJIE,179,3,2024-06-14T12:41:27.078Z,english_530.wav,0,0,491,21,3,Chinese,f,4,0.32341667,-72.92256984,0.75880724
XUJIAJIE,180,3,2024-06-14T12:41:27.078Z,english_482.wav,0,0,562,21,3,Chinese,f,0,0,-75.58658814,1.00366747
XUJIAJIE,180,3,2024-06-14T12:41:27.078Z,english_482.wav,0,0,562,21,3,Chinese,f,1,0.1,-97.88900999,1.47597923
XUJIAJIE,180,3,2024-06-14T12:41:27.078Z,english_482.wav,0,0,562,21,3,Chinese,f,2,0.2,-4.46161317,1.10854794
XUJIAJIE,180,3,2024-06-14T12:41:27.078Z,english_482.wav,0,0,562,21,3,Chinese,f,3,0.3,31.34799552,1.07348452
XUJIAJIE,180,3,2024-06-14T12:41:27.078Z,english_482.wav,0,0,562,21,3,Chinese,f,4,0.32341667,-51.80510351,0.67390339
XUJIAJIE,181,3,2024-06-14T12:41:27.078Z,english_128.wav,0,0,634,21,3,Chinese,f,0,0,-84.07301703,0.96445051
XUJIAJIE,181,3,2024-06-14T12:41:27.078Z,english_128.wav,0,0,634,21,3,Chinese,f,1,0.1,0.2051398,0.77165422
XUJIAJIE,181,3,2024-06-14T12:41:27.078Z,english_128.wav,0,0,634,21,3,Chinese,f,2,0.2,50.77588291,0.60279997
XUJIAJIE,181,3,2024-06-14T12:41:27.078Z,english_128.wav,0,0,634,21,3,Chinese,f,3,0.3,3.27834455,0.59915485
XUJIAJIE,181,3,2024-06-14T12:41:27.078Z,english_128.wav,0,0,634,21,3,Chinese,f,4,0.32341667,59.5943459,0.43521132
XUJIAJIE,182,3,2024-06-14T12:41:27.078Z,english_20.wav,0,0,527,21,3,Chinese,f,0,0,-56.6830557,0.06363068
XUJIAJIE,182,3,2024-06-14T12:41:27.078Z,english_20.wav,0,0,527,21,3,Chinese,f,1,0.1,50.66790367,1.80739158
XUJIAJIE,182,3,2024-06-14T12:41:27.078Z,english_20.wav,0,0,527,21,3,Chinese,f,2,0.2,-18.96445326,1.41045117
XUJIAJIE,182,3,2024-06-14T12:41:27.078Z,english_20.wav,0,0,527,21,3,Chinese,f,3,0.3,-25.44345058,0.2049667
XUJIAJIE,182,3,2024-06-14T12:41:27.078Z,english_20.wav,0,0,527,21,3,Chinese,f,4,0.32341667,12.75548414,0.27136646
XUJIAJIE,183,3,2024-06-14T12:41:27.078Z,english_637.wav,0,0,394,21,3,Chinese,f,0,0,-1.71458324,1.21739028
XUJIAJIE,183,3,2024-06-14T12:41:27.078Z,english_637.wav,0,0,394,21,3,Chinese,f,1,0.1,-8.03758275,0.51882016
XUJIAJIE,183,3,2024-06-14T12:41:27.078Z,english_637.wav,0,0,394,21,3,Chinese,f,2,0.2,-8.49550443,1.63519413
XUJIAJIE,183,3,2024-06-14T12:41:27.078Z,english_637.wav,0,0,394,21,3,Chinese,f,3,0.3,-8.27727969,1.34863813
XUJIAJIE,183,3,2024-06-14T12:41:27.078Z,english_637.wav,0,0,394,21,3,Chinese,f,4,0.32341667,64.42471467,1.93003029
