subj,trial,block,date,stim,stim_order,response,rt,age,english,language,sex,param_index,segment,pitch,stretch
ZJY,0,0,2024-06-13T06:11:37.684Z,english_804.wav,0,0,3977,,,,,0,0,11.23319328,0.16159815
ZJY,0,0,2024-06-13T06:11:37.684Z,english_804.wav,0,0,3977,,,,,1,0.1,-75.15189859,1.76023076
ZJY,0,0,2024-06-13T06:11:37.684Z,english_804.wav,0,0,3977,,,,,2,0.2,5.39397939,0.7355024
ZJY,0,0,2024-06-13T06:11:37.684Z,english_804.wav,0,0,3977,,,,,3,0.3,42.92141331,1.74636497
ZJY,0,0,2024-06-13T06:11:37.684Z,english_804.wav,0,0,3977,,,,,4,0.32341667,-79.84726866,1.05562007
ZJY,1,0,2024-06-13T06:11:37.684Z,english_238.wav,0,0,2772,,,,,0,0,87.78466979,1.0750983
ZJY,1,0,2024-06-13T06:11:37.684Z,english_238.wav,0,0,2772,,,,,1,0.1,65.39287108,0.03626896
ZJY,1,0,2024-06-13T06:11:37.684Z,english_238.wav,0,0,2772,,,,,2,0.2,-38.39100082,1.9832234
ZJY,1,0,2024-06-13T06:11:37.684Z,english_238.wav,0,0,2772,,,,,3,0.3,-20.01297649,0.17604691
ZJY,1,0,2024-06-13T06:11:37.684Z,english_238.wav,0,0,2772,,,,,4,0.32341667,78.31880556,1.61383808
ZJY,2,0,2024-06-13T06:11:37.684Z,english_865.wav,0,0,1192,,,,,0,0,57.45647421,1.64387024
ZJY,2,0,2024-06-13T06:11:37.684Z,english_865.wav,0,0,1192,,,,,1,0.1,-62.30549211,0.05749027
ZJY,2,0,2024-06-13T06:11:37.684Z,english_865.wav,0,0,1192,,,,,2,0.2,-35.85649312,0.09554773
ZJY,2,0,2024-06-13T06:11:37.684Z,english_865.wav,0,0,1192,,,,,3,0.3,55.00701181,1.62598434
ZJY,2,0,2024-06-13T06:11:37.684Z,english_865.wav,0,0,1192,,,,,4,0.32341667,-39.97662747,0.71232625
ZJY,3,0,2024-06-13T06:11:37.684Z,english_343.wav,0,0,2104,,,,,0,0,-26.15456552,0.99905336
ZJY,3,0,2024-06-13T06:11:37.684Z,english_343.wav,0,0,2104,,,,,1,0.1,-4.26522308,0.59066439
ZJY,3,0,2024-06-13T06:11:37.684Z,english_343.wav,0,0,2104,,,,,2,0.2,55.3227334,1.69088488
ZJY,3,0,2024-06-13T06:11:37.684Z,english_343.wav,0,0,2104,,,,,3,0.3,-26.26518208,1.70645599
ZJY,3,0,2024-06-13T06:11:37.684Z,english_343.wav,0,0,2104,,,,,4,0.32341667,-18.3065251,0.13143106
ZJY,4,0,2024-06-13T06:11:37.684Z,english_180.wav,0,1,2482,,,,,0,0,-79.96502932,0.84610218
ZJY,4,0,2024-06-13T06:11:37.684Z,english_180.wav,0,1,2482,,,,,1,0.1,33.21752916,1.88919334
ZJY,4,0,2024-06-13T06:11:37.684Z,english_180.wav,0,1,2482,,,,,2,0.2,-97.52705813,0.18699196
ZJY,4,0,2024-06-13T06:11:37.684Z,english_180.wav,0,1,2482,,,,,3,0.3,42.51331828,0.0366283
ZJY,4,0,2024-06-13T06:11:37.684Z,english_180.wav,0,1,2482,,,,,4,0.32341667,-42.98571984,0.95813987
ZJY,5,0,2024-06-13T06:11:37.684Z,english_825.wav,0,1,2248,,,,,0,0,9.96211161,0.17252736
ZJY,5,0,2024-06-13T06:11:37.684Z,english_825.wav,0,1,2248,,,,,1,0.1,-28.44120521,0.52830291
ZJY,5,0,2024-06-13T06:11:37.684Z,english_825.wav,0,1,2248,,,,,2,0.2,58.95311712,0.51646024
ZJY,5,0,2024-06-13T06:11:37.684Z,english_825.wav,0,1,2248,,,,,3,0.3,-14.85414305,0.70859388
ZJY,5,0,2024-06-13T06:11:37.684Z,english_825.wav,0,1,2248,,,,,4,0.32341667,85.14956963,0.64434305
ZJY,6,0,2024-06-13T06:11:37.684Z,english_569.wav,0,0,2263,,,,,0,0,-44.4695194,1.56768834
ZJY,6,0,2024-06-13T06:11:37.684Z,english_569.wav,0,0,2263,,,,,1,0.1,50.36705327,0.42032873
ZJY,6,0,2024-06-13T06:11:37.684Z,english_569.wav,0,0,2263,,,,,2,0.2,-76.17438636,0.31133764
ZJY,6,0,2024-06-13T06:11:37.684Z,english_569.wav,0,0,2263,,,,,3,0.3,55.47083669,0.91900801
ZJY,6,0,2024-06-13T06:11:37.684Z,english_569.wav,0,0,2263,,,,,4,0.32341667,-10.68913609,1.26529561
ZJY,7,0,2024-06-13T06:11:37.684Z,english_910.wav,0,1,1909,,,,,0,0,-5.78748479,0.61840584
ZJY,7,0,2024-06-13T06:11:37.684Z,english_910.wav,0,1,1909,,,,,1,0.1,25.040103,1.20431928
ZJY,7,0,2024-06-13T06:11:37.684Z,english_910.wav,0,1,1909,,,,,2,0.2,-40.66398147,1.66594732
ZJY,7,0,2024-06-13T06:11:37.684Z,english_910.wav,0,1,1909,,,,,3,0.3,-99.21011725,0.99007018
ZJY,7,0,2024-06-13T06:11:37.684Z,english_910.wav,0,1,1909,,,,,4,0.32341667,30.82754841,0.23705338
ZJY,8,0,2024-06-13T06:11:37.684Z,english_361.wav,0,0,895,,,,,0,0,47.37783877,1.2281625
ZJY,8,0,2024-06-13T06:11:37.684Z,english_361.wav,0,0,895,,,,,1,0.1,41.96620543,0.32170701
ZJY,8,0,2024-06-13T06:11:37.684Z,english_361.wav,0,0,895,,,,,2,0.2,-99.83447432,0.41267147
ZJY,8,0,2024-06-13T06:11:37.684Z,english_361.wav,0,0,895,,,,,3,0.3,-83.75612903,0.32528287
ZJY,8,0,2024-06-13T06:11:37.684Z,english_361.wav,0,0,895,,,,,4,0.32341667,99.31228573,0.29737668
ZJY,9,0,2024-06-13T06:11:37.684Z,english_371.wav,0,1,1238,,,,,0,0,44.65928585,0.25571852
ZJY,9,0,2024-06-13T06:11:37.684Z,english_371.wav,0,1,1238,,,,,1,0.1,2.85031152,1.3562861
ZJY,9,0,2024-06-13T06:11:37.684Z,english_371.wav,0,1,1238,,,,,2,0.2,-57.71166213,1.30905236
ZJY,9,0,2024-06-13T06:11:37.684Z,english_371.wav,0,1,1238,,,,,3,0.3,-66.93032782,1.33160076
ZJY,9,0,2024-06-13T06:11:37.684Z,english_371.wav,0,1,1238,,,,,4,0.32341667,13.43806553,0.62192137
ZJY,10,0,2024-06-13T06:11:37.684Z,english_226.wav,0,1,3713,,,,,0,0,-56.53605181,0.51185795
ZJY,10,0,2024-06-13T06:11:37.684Z,english_226.wav,0,1,3713,,,,,1,0.1,-5.93547338,0.73377568
ZJY,10,0,2024-06-13T06:11:37.684Z,english_226.wav,0,1,3713,,,,,2,0.2,-81.0596442,1.62034912
ZJY,10,0,2024-06-13T06:11:37.684Z,english_226.wav,0,1,3713,,,,,3,0.3,-12.14261426,0.19474782
ZJY,10,0,2024-06-13T06:11:37.684Z,english_226.wav,0,1,3713,,,,,4,0.32341667,40.67667876,0.1395898
ZJY,11,0,2024-06-13T06:11:37.684Z,english_871.wav,0,0,3662,,,,,0,0,84.63625516,0.21643415
ZJY,11,0,2024-06-13T06:11:37.684Z,english_871.wav,0,0,3662,,,,,1,0.1,-19.11058767,1.23538017
ZJY,11,0,2024-06-13T06:11:37.684Z,english_871.wav,0,0,3662,,,,,2,0.2,49.1497137,1.26375285
ZJY,11,0,2024-06-13T06:11:37.684Z,english_871.wav,0,0,3662,,,,,3,0.3,-83.07816512,0.03257235
ZJY,11,0,2024-06-13T06:11:37.684Z,english_871.wav,0,0,3662,,,,,4,0.32341667,11.22002909,1.90703832
ZJY,12,0,2024-06-13T06:11:37.684Z,english_237.wav,0,0,41631,,,,,0,0,-40.35335157,0.42178982
ZJY,12,0,2024-06-13T06:11:37.684Z,english_237.wav,0,0,41631,,,,,1,0.1,42.86374565,0.6060796
ZJY,12,0,2024-06-13T06:11:37.684Z,english_237.wav,0,0,41631,,,,,2,0.2,7.79480372,0.58312984
ZJY,12,0,2024-06-13T06:11:37.684Z,english_237.wav,0,0,41631,,,,,3,0.3,-48.50613844,1.50499267
ZJY,12,0,2024-06-13T06:11:37.684Z,english_237.wav,0,0,41631,,,,,4,0.32341667,17.78174719,1.72211243
ZJY,13,0,2024-06-13T06:11:37.684Z,english_986.wav,0,1,1400,,,,,0,0,36.93997263,1.7539978
ZJY,13,0,2024-06-13T06:11:37.684Z,english_986.wav,0,1,1400,,,,,1,0.1,-76.80061303,1.40735445
ZJY,13,0,2024-06-13T06:11:37.684Z,english_986.wav,0,1,1400,,,,,2,0.2,60.8418497,0.62226098
ZJY,13,0,2024-06-13T06:11:37.684Z,english_986.wav,0,1,1400,,,,,3,0.3,-27.90828951,0.48175931
ZJY,13,0,2024-06-13T06:11:37.684Z,english_986.wav,0,1,1400,,,,,4,0.32341667,99.51838141,1.5918282
ZJY,14,0,2024-06-13T06:11:37.684Z,english_572.wav,0,1,871,,,,,0,0,-16.16189062,1.82210005
ZJY,14,0,2024-06-13T06:11:37.684Z,english_572.wav,0,1,871,,,,,1,0.1,-40.8511413,0.80249033
ZJY,14,0,2024-06-13T06:11:37.684Z,english_572.wav,0,1,871,,,,,2,0.2,-77.3747243,0.69959732
ZJY,14,0,2024-06-13T06:11:37.684Z,english_572.wav,0,1,871,,,,,3,0.3,87.62803369,0.43311894
ZJY,14,0,2024-06-13T06:11:37.684Z,english_572.wav,0,1,871,,,,,4,0.32341667,81.6005998,1.25204325
ZJY,15,0,2024-06-13T06:11:37.684Z,english_100.wav,0,1,3298,,,,,0,0,-66.86198445,0.79522553
ZJY,15,0,2024-06-13T06:11:37.684Z,english_100.wav,0,1,3298,,,,,1,0.1,32.23990363,0.27784591
ZJY,15,0,2024-06-13T06:11:37.684Z,english_100.wav,0,1,3298,,,,,2,0.2,-63.31896149,1.76330212
ZJY,15,0,2024-06-13T06:11:37.684Z,english_100.wav,0,1,3298,,,,,3,0.3,-73.00038049,0.60946618
ZJY,15,0,2024-06-13T06:11:37.684Z,english_100.wav,0,1,3298,,,,,4,0.32341667,32.15710315,0.42695433
ZJY,16,0,2024-06-13T06:11:37.684Z,english_856.wav,0,0,2420,,,,,0,0,-44.08940674,1.51880133
ZJY,16,0,2024-06-13T06:11:37.684Z,english_856.wav,0,0,2420,,,,,1,0.1,-25.77644107,0.99524475
ZJY,16,0,2024-06-13T06:11:37.684Z,english_856.wav,0,0,2420,,,,,2,0.2,6.39263247,1.11391415
ZJY,16,0,2024-06-13T06:11:37.684Z,english_856.wav,0,0,2420,,,,,3,0.3,92.67536145,0.95575529
ZJY,16,0,2024-06-13T06:11:37.684Z,english_856.wav,0,0,2420,,,,,4,0.32341667,45.15991817,1.02944292
ZJY,17,0,2024-06-13T06:11:37.684Z,english_720.wav,0,1,2493,,,,,0,0,85.23240719,1.23446246
ZJY,17,0,2024-06-13T06:11:37.684Z,english_720.wav,0,1,2493,,,,,1,0.1,78.65958559,0.77382892
ZJY,17,0,2024-06-13T06:11:37.684Z,english_720.wav,0,1,2493,,,,,2,0.2,-56.45174874,0.48705718
ZJY,17,0,2024-06-13T06:11:37.684Z,english_720.wav,0,1,2493,,,,,3,0.3,71.88898266,1.42335328
ZJY,17,0,2024-06-13T06:11:37.684Z,english_720.wav,0,1,2493,,,,,4,0.32341667,-9.13482,1.32495619
ZJY,18,0,2024-06-13T06:11:37.684Z,english_853.wav,0,0,950,,,,,0,0,87.83319324,0.81037323
ZJY,18,0,2024-06-13T06:11:37.684Z,english_853.wav,0,0,950,,,,,1,0.1,64.16710312,1.2495933
ZJY,18,0,2024-06-13T06:11:37.684Z,english_853.wav,0,0,950,,,,,2,0.2,12.98667351,0.22916278
ZJY,18,0,2024-06-13T06:11:37.684Z,english_853.wav,0,0,950,,,,,3,0.3,25.03434444,0.67764146
ZJY,18,0,2024-06-13T06:11:37.684Z,english_853.wav,0,0,950,,,,,4,0.32341667,98.3458188,0.13807639
ZJY,19,0,2024-06-13T06:11:37.684Z,english_809.wav,0,1,783,,,,,0,0,-9.08149959,0.73203403
ZJY,19,0,2024-06-13T06:11:37.684Z,english_809.wav,0,1,783,,,,,1,0.1,12.16544582,0.53159531
ZJY,19,0,2024-06-13T06:11:37.684Z,english_809.wav,0,1,783,,,,,2,0.2,40.52205867,1.48114639
ZJY,19,0,2024-06-13T06:11:37.684Z,english_809.wav,0,1,783,,,,,3,0.3,-94.19679153,1.77078339
ZJY,19,0,2024-06-13T06:11:37.684Z,english_809.wav,0,1,783,,,,,4,0.32341667,-5.82752377,1.36117577
ZJY,20,0,2024-06-13T06:11:37.684Z,english_727.wav,0,1,590,,,,,0,0,86.20347479,1.33530257
ZJY,20,0,2024-06-13T06:11:37.684Z,english_727.wav,0,1,590,,,,,1,0.1,12.26210304,1.85547333
ZJY,20,0,2024-06-13T06:11:37.684Z,english_727.wav,0,1,590,,,,,2,0.2,5.59218777,1.19683436
ZJY,20,0,2024-06-13T06:11:37.684Z,english_727.wav,0,1,590,,,,,3,0.3,-46.39280156,1.89207751
ZJY,20,0,2024-06-13T06:11:37.684Z,english_727.wav,0,1,590,,,,,4,0.32341667,21.79775503,1.05019022
ZJY,21,0,2024-06-13T06:11:37.684Z,english_872.wav,0,0,598,,,,,0,0,0.56374655,0.10935802
ZJY,21,0,2024-06-13T06:11:37.684Z,english_872.wav,0,0,598,,,,,1,0.1,-70.88107799,0.91778609
ZJY,21,0,2024-06-13T06:11:37.684Z,english_872.wav,0,0,598,,,,,2,0.2,6.46677515,1.38740199
ZJY,21,0,2024-06-13T06:11:37.684Z,english_872.wav,0,0,598,,,,,3,0.3,-23.51354109,0.12682507
ZJY,21,0,2024-06-13T06:11:37.684Z,english_872.wav,0,0,598,,,,,4,0.32341667,81.64578493,0.71067476
ZJY,22,0,2024-06-13T06:11:37.684Z,english_714.wav,0,1,398,,,,,0,0,6.62463448,0.98205871
ZJY,22,0,2024-06-13T06:11:37.684Z,english_714.wav,0,1,398,,,,,1,0.1,-7.37775178,1.90018259
ZJY,22,0,2024-06-13T06:11:37.684Z,english_714.wav,0,1,398,,,,,2,0.2,-58.74003357,1.33033281
ZJY,22,0,2024-06-13T06:11:37.684Z,english_714.wav,0,1,398,,,,,3,0.3,-38.84014254,0.20009115
ZJY,22,0,2024-06-13T06:11:37.684Z,english_714.wav,0,1,398,,,,,4,0.32341667,-23.67047323,0.44650169
ZJY,23,0,2024-06-13T06:11:37.684Z,english_793.wav,0,0,837,,,,,0,0,-3.59370976,0.95327953
ZJY,23,0,2024-06-13T06:11:37.684Z,english_793.wav,0,0,837,,,,,1,0.1,-92.44382947,0.8890172
ZJY,23,0,2024-06-13T06:11:37.684Z,english_793.wav,0,0,837,,,,,2,0.2,-89.84008222,0.47547445
ZJY,23,0,2024-06-13T06:11:37.684Z,english_793.wav,0,0,837,,,,,3,0.3,96.09352514,1.09208031
ZJY,23,0,2024-06-13T06:11:37.684Z,english_793.wav,0,0,837,,,,,4,0.32341667,42.94050617,0.63383093
ZJY,24,0,2024-06-13T06:11:37.684Z,english_479.wav,0,1,452,,,,,0,0,74.98268857,0.98081986
ZJY,24,0,2024-06-13T06:11:37.684Z,english_479.wav,0,1,452,,,,,1,0.1,16.03290679,0.71187618
ZJY,24,0,2024-06-13T06:11:37.684Z,english_479.wav,0,1,452,,,,,2,0.2,78.97784812,0.27050369
ZJY,24,0,2024-06-13T06:11:37.684Z,english_479.wav,0,1,452,,,,,3,0.3,-15.63843586,1.15797271
ZJY,24,0,2024-06-13T06:11:37.684Z,english_479.wav,0,1,452,,,,,4,0.32341667,42.04802753,1.51318639
ZJY,25,0,2024-06-13T06:11:37.684Z,english_355.wav,0,0,712,,,,,0,0,33.6784286,1.28512049
ZJY,25,0,2024-06-13T06:11:37.684Z,english_355.wav,0,0,712,,,,,1,0.1,30.74796889,1.04729355
ZJY,25,0,2024-06-13T06:11:37.684Z,english_355.wav,0,0,712,,,,,2,0.2,71.39310534,0.74339822
ZJY,25,0,2024-06-13T06:11:37.684Z,english_355.wav,0,0,712,,,,,3,0.3,38.16266559,0.86152361
ZJY,25,0,2024-06-13T06:11:37.684Z,english_355.wav,0,0,712,,,,,4,0.32341667,-39.8799084,1.83215587
ZJY,26,0,2024-06-13T06:11:37.684Z,english_274.wav,0,1,363,,,,,0,0,-30.61452779,0.78021116
ZJY,26,0,2024-06-13T06:11:37.684Z,english_274.wav,0,1,363,,,,,1,0.1,-42.14612233,1.93993358
ZJY,26,0,2024-06-13T06:11:37.684Z,english_274.wav,0,1,363,,,,,2,0.2,32.00602795,0.32963606
ZJY,26,0,2024-06-13T06:11:37.684Z,english_274.wav,0,1,363,,,,,3,0.3,-37.74375581,1.46133782
ZJY,26,0,2024-06-13T06:11:37.684Z,english_274.wav,0,1,363,,,,,4,0.32341667,-54.5397802,1.53178785
ZJY,27,0,2024-06-13T06:11:37.684Z,english_648.wav,0,1,798,,,,,0,0,-36.17742204,0.57576188
ZJY,27,0,2024-06-13T06:11:37.684Z,english_648.wav,0,1,798,,,,,1,0.1,30.10697278,1.1310908
ZJY,27,0,2024-06-13T06:11:37.684Z,english_648.wav,0,1,798,,,,,2,0.2,-67.31320052,1.67112441
ZJY,27,0,2024-06-13T06:11:37.684Z,english_648.wav,0,1,798,,,,,3,0.3,-10.94597212,0.39641968
ZJY,27,0,2024-06-13T06:11:37.684Z,english_648.wav,0,1,798,,,,,4,0.32341667,72.59648235,1.93789316
ZJY,28,0,2024-06-13T06:11:37.684Z,english_376.wav,0,1,742,,,,,0,0,-10.66231765,0.83936518
ZJY,28,0,2024-06-13T06:11:37.684Z,english_376.wav,0,1,742,,,,,1,0.1,-53.95799634,1.7265478
ZJY,28,0,2024-06-13T06:11:37.684Z,english_376.wav,0,1,742,,,,,2,0.2,-44.60014177,0.44309389
ZJY,28,0,2024-06-13T06:11:37.684Z,english_376.wav,0,1,742,,,,,3,0.3,-84.32777745,1.91772458
ZJY,28,0,2024-06-13T06:11:37.684Z,english_376.wav,0,1,742,,,,,4,0.32341667,-2.76179289,0.76255227
ZJY,29,0,2024-06-13T06:11:37.684Z,english_802.wav,0,1,497,,,,,0,0,44.11448731,1.89082481
ZJY,29,0,2024-06-13T06:11:37.684Z,english_802.wav,0,1,497,,,,,1,0.1,27.89646601,1.73386287
ZJY,29,0,2024-06-13T06:11:37.684Z,english_802.wav,0,1,497,,,,,2,0.2,-19.36127415,0.34468699
ZJY,29,0,2024-06-13T06:11:37.684Z,english_802.wav,0,1,497,,,,,3,0.3,15.17899174,0.39328876
ZJY,29,0,2024-06-13T06:11:37.684Z,english_802.wav,0,1,497,,,,,4,0.32341667,-18.70870555,1.25778986
ZJY,30,0,2024-06-13T06:11:37.684Z,english_53.wav,0,0,460,,,,,0,0,5.97237457,0.42230306
ZJY,30,0,2024-06-13T06:11:37.684Z,english_53.wav,0,0,460,,,,,1,0.1,-76.12131912,0.60624646
ZJY,30,0,2024-06-13T06:11:37.684Z,english_53.wav,0,0,460,,,,,2,0.2,55.18337216,0.26369256
ZJY,30,0,2024-06-13T06:11:37.684Z,english_53.wav,0,0,460,,,,,3,0.3,70.32610425,1.07400525
ZJY,30,0,2024-06-13T06:11:37.684Z,english_53.wav,0,0,460,,,,,4,0.32341667,26.40450832,0.2721545
ZJY,31,0,2024-06-13T06:11:37.684Z,english_961.wav,0,1,268,,,,,0,0,20.81275789,1.87720953
ZJY,31,0,2024-06-13T06:11:37.684Z,english_961.wav,0,1,268,,,,,1,0.1,46.48072234,1.43497285
ZJY,31,0,2024-06-13T06:11:37.684Z,english_961.wav,0,1,268,,,,,2,0.2,79.36291712,1.9095844
ZJY,31,0,2024-06-13T06:11:37.684Z,english_961.wav,0,1,268,,,,,3,0.3,7.86976501,0.20821065
ZJY,31,0,2024-06-13T06:11:37.684Z,english_961.wav,0,1,268,,,,,4,0.32341667,-45.45751668,0.0640973
ZJY,32,0,2024-06-13T06:11:37.684Z,english_890.wav,0,1,1754,,,,,0,0,-68.21158685,0.82535308
ZJY,32,0,2024-06-13T06:11:37.684Z,english_890.wav,0,1,1754,,,,,1,0.1,-83.19360642,1.79167423
ZJY,32,0,2024-06-13T06:11:37.684Z,english_890.wav,0,1,1754,,,,,2,0.2,79.13343252,0.78297904
ZJY,32,0,2024-06-13T06:11:37.684Z,english_890.wav,0,1,1754,,,,,3,0.3,80.54326003,0.23441015
ZJY,32,0,2024-06-13T06:11:37.684Z,english_890.wav,0,1,1754,,,,,4,0.32341667,-30.48737523,1.41044901
ZJY,33,0,2024-06-13T06:11:37.684Z,english_836.wav,0,0,1001,,,,,0,0,34.85846782,1.04017402
ZJY,33,0,2024-06-13T06:11:37.684Z,english_836.wav,0,0,1001,,,,,1,0.1,41.54458908,0.35535359
ZJY,33,0,2024-06-13T06:11:37.684Z,english_836.wav,0,0,1001,,,,,2,0.2,23.27363575,0.10471693
ZJY,33,0,2024-06-13T06:11:37.684Z,english_836.wav,0,0,1001,,,,,3,0.3,86.83996211,0.55523491
ZJY,33,0,2024-06-13T06:11:37.684Z,english_836.wav,0,0,1001,,,,,4,0.32341667,-32.25656931,0.70311776
ZJY,34,0,2024-06-13T06:11:37.684Z,english_695.wav,0,0,1384,,,,,0,0,-74.02191529,1.19534619
ZJY,34,0,2024-06-13T06:11:37.684Z,english_695.wav,0,0,1384,,,,,1,0.1,54.28596986,0.93917139
ZJY,34,0,2024-06-13T06:11:37.684Z,english_695.wav,0,0,1384,,,,,2,0.2,-13.22196683,0.1241488
ZJY,34,0,2024-06-13T06:11:37.684Z,english_695.wav,0,0,1384,,,,,3,0.3,1.82272444,1.20091234
ZJY,34,0,2024-06-13T06:11:37.684Z,english_695.wav,0,0,1384,,,,,4,0.32341667,-11.74905262,0.46222147
ZJY,35,0,2024-06-13T06:11:37.684Z,english_354.wav,0,0,3106,,,,,0,0,-63.97501145,0.52067601
ZJY,35,0,2024-06-13T06:11:37.684Z,english_354.wav,0,0,3106,,,,,1,0.1,-43.11314734,0.59903392
ZJY,35,0,2024-06-13T06:11:37.684Z,english_354.wav,0,0,3106,,,,,2,0.2,10.53928595,0.9992363
ZJY,35,0,2024-06-13T06:11:37.684Z,english_354.wav,0,0,3106,,,,,3,0.3,-23.15258088,1.16142831
ZJY,35,0,2024-06-13T06:11:37.684Z,english_354.wav,0,0,3106,,,,,4,0.32341667,3.22925066,0.37639432
ZJY,36,0,2024-06-13T06:11:37.684Z,english_262.wav,0,1,2567,,,,,0,0,-55.0240476,0.91992097
ZJY,36,0,2024-06-13T06:11:37.684Z,english_262.wav,0,1,2567,,,,,1,0.1,46.31562141,0.94194362
ZJY,36,0,2024-06-13T06:11:37.684Z,english_262.wav,0,1,2567,,,,,2,0.2,62.5855756,1.80305422
ZJY,36,0,2024-06-13T06:11:37.684Z,english_262.wav,0,1,2567,,,,,3,0.3,-4.25909078,0.51544707
ZJY,36,0,2024-06-13T06:11:37.684Z,english_262.wav,0,1,2567,,,,,4,0.32341667,16.27030636,1.47198659
ZJY,37,0,2024-06-13T06:11:37.684Z,english_169.wav,0,0,1148,,,,,0,0,21.52556644,0.24747868
ZJY,37,0,2024-06-13T06:11:37.684Z,english_169.wav,0,0,1148,,,,,1,0.1,-62.21960884,0.51530303
ZJY,37,0,2024-06-13T06:11:37.684Z,english_169.wav,0,0,1148,,,,,2,0.2,-58.58818316,1.14352058
ZJY,37,0,2024-06-13T06:11:37.684Z,english_169.wav,0,0,1148,,,,,3,0.3,14.95103608,1.46694059
ZJY,37,0,2024-06-13T06:11:37.684Z,english_169.wav,0,0,1148,,,,,4,0.32341667,21.70814087,1.67980684
ZJY,38,0,2024-06-13T06:11:37.684Z,english_130.wav,0,1,823,,,,,0,0,-27.4951122,0.83907871
ZJY,38,0,2024-06-13T06:11:37.684Z,english_130.wav,0,1,823,,,,,1,0.1,-38.07775804,1.38560413
ZJY,38,0,2024-06-13T06:11:37.684Z,english_130.wav,0,1,823,,,,,2,0.2,-9.69340922,0.50531735
ZJY,38,0,2024-06-13T06:11:37.684Z,english_130.wav,0,1,823,,,,,3,0.3,-88.09187015,0.53414674
ZJY,38,0,2024-06-13T06:11:37.684Z,english_130.wav,0,1,823,,,,,4,0.32341667,-47.45461314,1.10107345
ZJY,39,0,2024-06-13T06:11:37.684Z,english_282.wav,0,0,746,,,,,0,0,0.76940706,0.32837311
ZJY,39,0,2024-06-13T06:11:37.684Z,english_282.wav,0,0,746,,,,,1,0.1,85.14494722,0.39977994
ZJY,39,0,2024-06-13T06:11:37.684Z,english_282.wav,0,0,746,,,,,2,0.2,-92.43433596,0.62065738
ZJY,39,0,2024-06-13T06:11:37.684Z,english_282.wav,0,0,746,,,,,3,0.3,-98.42888083,0.06200237
ZJY,39,0,2024-06-13T06:11:37.684Z,english_282.wav,0,0,746,,,,,4,0.32341667,-32.58662549,1.4193679
ZJY,40,0,2024-06-13T06:11:37.684Z,english_948.wav,0,1,412,,,,,0,0,12.28616187,1.33435242
ZJY,40,0,2024-06-13T06:11:37.684Z,english_948.wav,0,1,412,,,,,1,0.1,33.44634687,1.33862855
ZJY,40,0,2024-06-13T06:11:37.684Z,english_948.wav,0,1,412,,,,,2,0.2,98.80566767,1.25876505
ZJY,40,0,2024-06-13T06:11:37.684Z,english_948.wav,0,1,412,,,,,3,0.3,-93.57044844,1.87938727
ZJY,40,0,2024-06-13T06:11:37.684Z,english_948.wav,0,1,412,,,,,4,0.32341667,-51.09398555,1.88731406
ZJY,41,0,2024-06-13T06:11:37.684Z,english_59.wav,0,0,700,,,,,0,0,30.26604033,1.5973148
ZJY,41,0,2024-06-13T06:11:37.684Z,english_59.wav,0,0,700,,,,,1,0.1,25.69112756,0.24758472
ZJY,41,0,2024-06-13T06:11:37.684Z,english_59.wav,0,0,700,,,,,2,0.2,-24.85549033,0.1547886
ZJY,41,0,2024-06-13T06:11:37.684Z,english_59.wav,0,0,700,,,,,3,0.3,-31.2790444,0.30754036
ZJY,41,0,2024-06-13T06:11:37.684Z,english_59.wav,0,0,700,,,,,4,0.32341667,86.30355152,0.40312024
ZJY,42,0,2024-06-13T06:11:37.684Z,english_598.wav,0,1,2146,,,,,0,0,4.26365523,0.04069017
ZJY,42,0,2024-06-13T06:11:37.684Z,english_598.wav,0,1,2146,,,,,1,0.1,-29.634957,1.27980102
ZJY,42,0,2024-06-13T06:11:37.684Z,english_598.wav,0,1,2146,,,,,2,0.2,-17.49120793,0.98781586
ZJY,42,0,2024-06-13T06:11:37.684Z,english_598.wav,0,1,2146,,,,,3,0.3,-34.93876912,1.55939702
ZJY,42,0,2024-06-13T06:11:37.684Z,english_598.wav,0,1,2146,,,,,4,0.32341667,49.49845506,1.74128412
ZJY,43,0,2024-06-13T06:11:37.684Z,english_157.wav,0,1,5036,,,,,0,0,-74.01864956,1.10168906
ZJY,43,0,2024-06-13T06:11:37.684Z,english_157.wav,0,1,5036,,,,,1,0.1,1.44529667,1.71225259
ZJY,43,0,2024-06-13T06:11:37.684Z,english_157.wav,0,1,5036,,,,,2,0.2,-42.76251303,1.71884561
ZJY,43,0,2024-06-13T06:11:37.684Z,english_157.wav,0,1,5036,,,,,3,0.3,-49.01483239,1.47822148
ZJY,43,0,2024-06-13T06:11:37.684Z,english_157.wav,0,1,5036,,,,,4,0.32341667,-96.85595697,1.36273156
ZJY,44,0,2024-06-13T06:11:37.684Z,english_788.wav,0,1,619,,,,,0,0,-93.79628683,0.67330318
ZJY,44,0,2024-06-13T06:11:37.684Z,english_788.wav,0,1,619,,,,,1,0.1,-45.29703147,1.33385595
ZJY,44,0,2024-06-13T06:11:37.684Z,english_788.wav,0,1,619,,,,,2,0.2,-46.01001772,1.35248941
ZJY,44,0,2024-06-13T06:11:37.684Z,english_788.wav,0,1,619,,,,,3,0.3,-56.6729179,1.33220146
ZJY,44,0,2024-06-13T06:11:37.684Z,english_788.wav,0,1,619,,,,,4,0.32341667,51.29020462,1.32468206
ZJY,45,0,2024-06-13T06:11:37.684Z,english_300.wav,0,0,3040,,,,,0,0,-57.32903368,1.31106943
ZJY,45,0,2024-06-13T06:11:37.684Z,english_300.wav,0,0,3040,,,,,1,0.1,-14.80176218,1.36432179
ZJY,45,0,2024-06-13T06:11:37.684Z,english_300.wav,0,0,3040,,,,,2,0.2,17.32090115,1.9756976
ZJY,45,0,2024-06-13T06:11:37.684Z,english_300.wav,0,0,3040,,,,,3,0.3,9.38584248,1.38621255
ZJY,45,0,2024-06-13T06:11:37.684Z,english_300.wav,0,0,3040,,,,,4,0.32341667,-54.58865419,1.60203422
ZJY,46,0,2024-06-13T06:11:37.684Z,english_884.wav,0,1,366,,,,,0,0,77.1498115,1.83268558
ZJY,46,0,2024-06-13T06:11:37.684Z,english_884.wav,0,1,366,,,,,1,0.1,10.32602389,0.76817862
ZJY,46,0,2024-06-13T06:11:37.684Z,english_884.wav,0,1,366,,,,,2,0.2,4.15464736,1.59331573
ZJY,46,0,2024-06-13T06:11:37.684Z,english_884.wav,0,1,366,,,,,3,0.3,21.19252889,0.58913169
ZJY,46,0,2024-06-13T06:11:37.684Z,english_884.wav,0,1,366,,,,,4,0.32341667,-7.11336122,0.81393531
ZJY,47,0,2024-06-13T06:11:37.684Z,english_970.wav,0,0,743,,,,,0,0,37.22911191,0.60712849
ZJY,47,0,2024-06-13T06:11:37.684Z,english_970.wav,0,0,743,,,,,1,0.1,36.57191813,1.26781741
ZJY,47,0,2024-06-13T06:11:37.684Z,english_970.wav,0,0,743,,,,,2,0.2,20.2344678,1.29373459
ZJY,47,0,2024-06-13T06:11:37.684Z,english_970.wav,0,0,743,,,,,3,0.3,-86.31030026,0.18112256
ZJY,47,0,2024-06-13T06:11:37.684Z,english_970.wav,0,0,743,,,,,4,0.32341667,-83.96880691,1.07780169
ZJY,48,0,2024-06-13T06:11:37.684Z,english_568.wav,0,1,585,,,,,0,0,-80.38325009,1.52383372
ZJY,48,0,2024-06-13T06:11:37.684Z,english_568.wav,0,1,585,,,,,1,0.1,65.28340143,0.37337456
ZJY,48,0,2024-06-13T06:11:37.684Z,english_568.wav,0,1,585,,,,,2,0.2,22.57833022,0.67023469
ZJY,48,0,2024-06-13T06:11:37.684Z,english_568.wav,0,1,585,,,,,3,0.3,-55.44872251,1.98652091
ZJY,48,0,2024-06-13T06:11:37.684Z,english_568.wav,0,1,585,,,,,4,0.32341667,-94.3142815,1.15861726
ZJY,49,0,2024-06-13T06:11:37.684Z,english_384.wav,0,0,8300,,,,,0,0,-38.96228733,0.34616893
ZJY,49,0,2024-06-13T06:11:37.684Z,english_384.wav,0,0,8300,,,,,1,0.1,2.386347,0.04115024
ZJY,49,0,2024-06-13T06:11:37.684Z,english_384.wav,0,0,8300,,,,,2,0.2,48.26486793,0.35900131
ZJY,49,0,2024-06-13T06:11:37.684Z,english_384.wav,0,0,8300,,,,,3,0.3,-48.11903655,1.58519606
ZJY,49,0,2024-06-13T06:11:37.684Z,english_384.wav,0,0,8300,,,,,4,0.32341667,19.29531145,0.95531857
ZJY,50,1,2024-06-13T06:11:37.684Z,english_245.wav,0,0,4486,,,,,0,0,74.89239003,1.30710747
ZJY,50,1,2024-06-13T06:11:37.684Z,english_245.wav,0,0,4486,,,,,1,0.1,41.98679172,0.93119149
ZJY,50,1,2024-06-13T06:11:37.684Z,english_245.wav,0,0,4486,,,,,2,0.2,99.42105985,1.84379828
ZJY,50,1,2024-06-13T06:11:37.684Z,english_245.wav,0,0,4486,,,,,3,0.3,-75.11958538,1.72828743
ZJY,50,1,2024-06-13T06:11:37.684Z,english_245.wav,0,0,4486,,,,,4,0.32341667,-62.10664415,0.50124118
ZJY,51,1,2024-06-13T06:11:37.684Z,english_775.wav,0,0,1107,,,,,0,0,58.00753923,1.75560269
ZJY,51,1,2024-06-13T06:11:37.684Z,english_775.wav,0,0,1107,,,,,1,0.1,88.61433734,0.86519841
ZJY,51,1,2024-06-13T06:11:37.684Z,english_775.wav,0,0,1107,,,,,2,0.2,97.9031651,0.93867241
ZJY,51,1,2024-06-13T06:11:37.684Z,english_775.wav,0,0,1107,,,,,3,0.3,14.61974867,1.86901891
ZJY,51,1,2024-06-13T06:11:37.684Z,english_775.wav,0,0,1107,,,,,4,0.32341667,-5.44703254,0.0946911
ZJY,52,1,2024-06-13T06:11:37.684Z,english_426.wav,0,1,1830,,,,,0,0,84.66887763,0.58495982
ZJY,52,1,2024-06-13T06:11:37.684Z,english_426.wav,0,1,1830,,,,,1,0.1,6.08176803,0.31710055
ZJY,52,1,2024-06-13T06:11:37.684Z,english_426.wav,0,1,1830,,,,,2,0.2,90.82211143,1.7123379
ZJY,52,1,2024-06-13T06:11:37.684Z,english_426.wav,0,1,1830,,,,,3,0.3,42.04787562,1.38911617
ZJY,52,1,2024-06-13T06:11:37.684Z,english_426.wav,0,1,1830,,,,,4,0.32341667,-40.19306584,1.84862951
ZJY,53,1,2024-06-13T06:11:37.684Z,english_849.wav,0,1,1163,,,,,0,0,-24.45439181,1.62147024
ZJY,53,1,2024-06-13T06:11:37.684Z,english_849.wav,0,1,1163,,,,,1,0.1,-64.97605389,1.28655358
ZJY,53,1,2024-06-13T06:11:37.684Z,english_849.wav,0,1,1163,,,,,2,0.2,-67.78874915,0.154454
ZJY,53,1,2024-06-13T06:11:37.684Z,english_849.wav,0,1,1163,,,,,3,0.3,-6.53184928,1.49227138
ZJY,53,1,2024-06-13T06:11:37.684Z,english_849.wav,0,1,1163,,,,,4,0.32341667,59.1884023,1.08662162
ZJY,54,1,2024-06-13T06:11:37.684Z,english_220.wav,0,0,1373,,,,,0,0,-49.83323752,1.6244524
ZJY,54,1,2024-06-13T06:11:37.684Z,english_220.wav,0,0,1373,,,,,1,0.1,49.13629021,0.7812698
ZJY,54,1,2024-06-13T06:11:37.684Z,english_220.wav,0,0,1373,,,,,2,0.2,10.673463,1.29736816
ZJY,54,1,2024-06-13T06:11:37.684Z,english_220.wav,0,0,1373,,,,,3,0.3,-2.35218347,1.3419496
ZJY,54,1,2024-06-13T06:11:37.684Z,english_220.wav,0,0,1373,,,,,4,0.32341667,-2.61587219,1.06575232
ZJY,55,1,2024-06-13T06:11:37.684Z,english_239.wav,0,1,756,,,,,0,0,87.44943986,1.42022081
ZJY,55,1,2024-06-13T06:11:37.684Z,english_239.wav,0,1,756,,,,,1,0.1,50.09814929,0.64261102
ZJY,55,1,2024-06-13T06:11:37.684Z,english_239.wav,0,1,756,,,,,2,0.2,-20.91132269,0.17156284
ZJY,55,1,2024-06-13T06:11:37.684Z,english_239.wav,0,1,756,,,,,3,0.3,1.56869958,1.89365974
ZJY,55,1,2024-06-13T06:11:37.684Z,english_239.wav,0,1,756,,,,,4,0.32341667,15.23790706,1.86939691
ZJY,56,1,2024-06-13T06:11:37.684Z,english_462.wav,0,0,1700,,,,,0,0,-35.73318704,1.53267708
ZJY,56,1,2024-06-13T06:11:37.684Z,english_462.wav,0,0,1700,,,,,1,0.1,-5.65949109,1.98369384
ZJY,56,1,2024-06-13T06:11:37.684Z,english_462.wav,0,0,1700,,,,,2,0.2,-49.47542688,1.31270994
ZJY,56,1,2024-06-13T06:11:37.684Z,english_462.wav,0,0,1700,,,,,3,0.3,-98.18570674,1.26289606
ZJY,56,1,2024-06-13T06:11:37.684Z,english_462.wav,0,0,1700,,,,,4,0.32341667,-16.34927785,1.36496903
ZJY,57,1,2024-06-13T06:11:37.684Z,english_52.wav,0,1,1477,,,,,0,0,54.63859099,0.91426261
ZJY,57,1,2024-06-13T06:11:37.684Z,english_52.wav,0,1,1477,,,,,1,0.1,-85.67195477,1.20728413
ZJY,57,1,2024-06-13T06:11:37.684Z,english_52.wav,0,1,1477,,,,,2,0.2,2.4878885,0.71733995
ZJY,57,1,2024-06-13T06:11:37.684Z,english_52.wav,0,1,1477,,,,,3,0.3,86.13143505,1.54149443
ZJY,57,1,2024-06-13T06:11:37.684Z,english_52.wav,0,1,1477,,,,,4,0.32341667,-53.30399902,1.3376245
ZJY,58,1,2024-06-13T06:11:37.684Z,english_597.wav,0,0,1790,,,,,0,0,-83.66792118,0.17389721
ZJY,58,1,2024-06-13T06:11:37.684Z,english_597.wav,0,0,1790,,,,,1,0.1,-19.98744657,0.39349672
ZJY,58,1,2024-06-13T06:11:37.684Z,english_597.wav,0,0,1790,,,,,2,0.2,-30.38458549,1.97590818
ZJY,58,1,2024-06-13T06:11:37.684Z,english_597.wav,0,0,1790,,,,,3,0.3,-63.4406446,1.84988074
ZJY,58,1,2024-06-13T06:11:37.684Z,english_597.wav,0,0,1790,,,,,4,0.32341667,25.67812426,1.17620678
ZJY,59,1,2024-06-13T06:11:37.684Z,english_119.wav,0,0,1142,,,,,0,0,-72.13623542,1.33116293
ZJY,59,1,2024-06-13T06:11:37.684Z,english_119.wav,0,0,1142,,,,,1,0.1,-47.93500709,0.14257244
ZJY,59,1,2024-06-13T06:11:37.684Z,english_119.wav,0,0,1142,,,,,2,0.2,91.39212861,1.10285667
ZJY,59,1,2024-06-13T06:11:37.684Z,english_119.wav,0,0,1142,,,,,3,0.3,-4.62561099,0.57572872
ZJY,59,1,2024-06-13T06:11:37.684Z,english_119.wav,0,0,1142,,,,,4,0.32341667,-33.86599352,1.36512269
ZJY,60,1,2024-06-13T06:11:37.684Z,english_638.wav,0,0,2486,,,,,0,0,6.92468799,1.1702122
ZJY,60,1,2024-06-13T06:11:37.684Z,english_638.wav,0,0,2486,,,,,1,0.1,52.10042521,0.51269982
ZJY,60,1,2024-06-13T06:11:37.684Z,english_638.wav,0,0,2486,,,,,2,0.2,-39.07293948,0.1912204
ZJY,60,1,2024-06-13T06:11:37.684Z,english_638.wav,0,0,2486,,,,,3,0.3,38.46029754,0.91406415
ZJY,60,1,2024-06-13T06:11:37.684Z,english_638.wav,0,0,2486,,,,,4,0.32341667,-16.6630855,1.67689755
ZJY,61,1,2024-06-13T06:11:37.684Z,english_562.wav,0,1,544,,,,,0,0,-40.22672309,0.64031882
ZJY,61,1,2024-06-13T06:11:37.684Z,english_562.wav,0,1,544,,,,,1,0.1,77.961849,0.7637006
ZJY,61,1,2024-06-13T06:11:37.684Z,english_562.wav,0,1,544,,,,,2,0.2,25.52463525,0.87632482
ZJY,61,1,2024-06-13T06:11:37.684Z,english_562.wav,0,1,544,,,,,3,0.3,84.62788358,0.98972612
ZJY,61,1,2024-06-13T06:11:37.684Z,english_562.wav,0,1,544,,,,,4,0.32341667,-53.67427145,0.74010285
ZJY,62,1,2024-06-13T06:11:37.684Z,english_504.wav,0,0,470,,,,,0,0,4.11468456,0.75379057
ZJY,62,1,2024-06-13T06:11:37.684Z,english_504.wav,0,0,470,,,,,1,0.1,70.56620437,1.18348717
ZJY,62,1,2024-06-13T06:11:37.684Z,english_504.wav,0,0,470,,,,,2,0.2,3.26767498,0.25360202
ZJY,62,1,2024-06-13T06:11:37.684Z,english_504.wav,0,0,470,,,,,3,0.3,-3.14493553,1.87094491
ZJY,62,1,2024-06-13T06:11:37.684Z,english_504.wav,0,0,470,,,,,4,0.32341667,43.57926014,0.110125
ZJY,63,1,2024-06-13T06:11:37.684Z,english_527.wav,0,1,593,,,,,0,0,-32.70996179,0.06646481
ZJY,63,1,2024-06-13T06:11:37.684Z,english_527.wav,0,1,593,,,,,1,0.1,-61.96334317,1.75268105
ZJY,63,1,2024-06-13T06:11:37.684Z,english_527.wav,0,1,593,,,,,2,0.2,86.46317242,0.41061726
ZJY,63,1,2024-06-13T06:11:37.684Z,english_527.wav,0,1,593,,,,,3,0.3,-18.9429262,1.43024268
ZJY,63,1,2024-06-13T06:11:37.684Z,english_527.wav,0,1,593,,,,,4,0.32341667,-59.75355058,0.73468543
ZJY,64,1,2024-06-13T06:11:37.684Z,english_920.wav,0,0,444,,,,,0,0,95.7501832,1.54313256
ZJY,64,1,2024-06-13T06:11:37.684Z,english_920.wav,0,0,444,,,,,1,0.1,-3.19831823,1.33500472
ZJY,64,1,2024-06-13T06:11:37.684Z,english_920.wav,0,0,444,,,,,2,0.2,-16.96134457,1.12819963
ZJY,64,1,2024-06-13T06:11:37.684Z,english_920.wav,0,0,444,,,,,3,0.3,-28.81747413,1.72147256
ZJY,64,1,2024-06-13T06:11:37.684Z,english_920.wav,0,0,444,,,,,4,0.32341667,42.63505928,0.57593815
ZJY,65,1,2024-06-13T06:11:37.684Z,english_596.wav,0,0,1192,,,,,0,0,90.29147433,0.88361056
ZJY,65,1,2024-06-13T06:11:37.684Z,english_596.wav,0,0,1192,,,,,1,0.1,12.52853873,0.63799557
ZJY,65,1,2024-06-13T06:11:37.684Z,english_596.wav,0,0,1192,,,,,2,0.2,50.53853174,0.09787331
ZJY,65,1,2024-06-13T06:11:37.684Z,english_596.wav,0,0,1192,,,,,3,0.3,-77.3590695,1.15168959
ZJY,65,1,2024-06-13T06:11:37.684Z,english_596.wav,0,0,1192,,,,,4,0.32341667,-1.65440801,0.06773829
ZJY,66,1,2024-06-13T06:11:37.684Z,english_599.wav,0,1,5485,,,,,0,0,-57.09760884,1.03382432
ZJY,66,1,2024-06-13T06:11:37.684Z,english_599.wav,0,1,5485,,,,,1,0.1,31.85682387,1.26885403
ZJY,66,1,2024-06-13T06:11:37.684Z,english_599.wav,0,1,5485,,,,,2,0.2,-6.73425875,1.24717465
ZJY,66,1,2024-06-13T06:11:37.684Z,english_599.wav,0,1,5485,,,,,3,0.3,47.95830633,1.34338376
ZJY,66,1,2024-06-13T06:11:37.684Z,english_599.wav,0,1,5485,,,,,4,0.32341667,-83.8084816,0.34550335
ZJY,67,1,2024-06-13T06:11:37.684Z,english_235.wav,0,0,3630,,,,,0,0,-1.09951899,1.56432712
ZJY,67,1,2024-06-13T06:11:37.684Z,english_235.wav,0,0,3630,,,,,1,0.1,-96.83918407,0.18127978
ZJY,67,1,2024-06-13T06:11:37.684Z,english_235.wav,0,0,3630,,,,,2,0.2,96.22116446,1.26168206
ZJY,67,1,2024-06-13T06:11:37.684Z,english_235.wav,0,0,3630,,,,,3,0.3,48.9502898,1.98140435
ZJY,67,1,2024-06-13T06:11:37.684Z,english_235.wav,0,0,3630,,,,,4,0.32341667,38.18641725,0.52366779
ZJY,68,1,2024-06-13T06:11:37.684Z,english_134.wav,0,0,1192,,,,,0,0,70.72156413,1.84700732
ZJY,68,1,2024-06-13T06:11:37.684Z,english_134.wav,0,0,1192,,,,,1,0.1,-64.20531103,1.20878884
ZJY,68,1,2024-06-13T06:11:37.684Z,english_134.wav,0,0,1192,,,,,2,0.2,35.7891913,0.51924654
ZJY,68,1,2024-06-13T06:11:37.684Z,english_134.wav,0,0,1192,,,,,3,0.3,-77.33475241,1.95615398
ZJY,68,1,2024-06-13T06:11:37.684Z,english_134.wav,0,0,1192,,,,,4,0.32341667,85.6978336,1.72102519
ZJY,69,1,2024-06-13T06:11:37.684Z,english_511.wav,0,0,993,,,,,0,0,-54.05076571,1.68448531
ZJY,69,1,2024-06-13T06:11:37.684Z,english_511.wav,0,0,993,,,,,1,0.1,58.21305336,0.64957271
ZJY,69,1,2024-06-13T06:11:37.684Z,english_511.wav,0,0,993,,,,,2,0.2,93.28984864,1.47534814
ZJY,69,1,2024-06-13T06:11:37.684Z,english_511.wav,0,0,993,,,,,3,0.3,-93.08437199,1.38615571
ZJY,69,1,2024-06-13T06:11:37.684Z,english_511.wav,0,0,993,,,,,4,0.32341667,48.49476441,0.71972648
ZJY,70,1,2024-06-13T06:11:37.684Z,english_284.wav,0,1,1955,,,,,0,0,-77.15161711,0.74585549
ZJY,70,1,2024-06-13T06:11:37.684Z,english_284.wav,0,1,1955,,,,,1,0.1,80.53955212,0.017077
ZJY,70,1,2024-06-13T06:11:37.684Z,english_284.wav,0,1,1955,,,,,2,0.2,-73.74967403,0.284322
ZJY,70,1,2024-06-13T06:11:37.684Z,english_284.wav,0,1,1955,,,,,3,0.3,-47.67008962,1.04459593
ZJY,70,1,2024-06-13T06:11:37.684Z,english_284.wav,0,1,1955,,,,,4,0.32341667,40.40758666,0.8536958
ZJY,71,1,2024-06-13T06:11:37.684Z,english_632.wav,0,0,1337,,,,,0,0,-56.22391322,1.21249895
ZJY,71,1,2024-06-13T06:11:37.684Z,english_632.wav,0,0,1337,,,,,1,0.1,-47.59423942,0.39515719
ZJY,71,1,2024-06-13T06:11:37.684Z,english_632.wav,0,0,1337,,,,,2,0.2,91.93727259,1.8528852
ZJY,71,1,2024-06-13T06:11:37.684Z,english_632.wav,0,0,1337,,,,,3,0.3,-33.89646621,1.67254104
ZJY,71,1,2024-06-13T06:11:37.684Z,english_632.wav,0,0,1337,,,,,4,0.32341667,46.88387871,1.21014685
ZJY,72,1,2024-06-13T06:11:37.684Z,english_448.wav,0,0,522,,,,,0,0,0.37188167,1.15390094
ZJY,72,1,2024-06-13T06:11:37.684Z,english_448.wav,0,0,522,,,,,1,0.1,-67.82723624,1.58767458
ZJY,72,1,2024-06-13T06:11:37.684Z,english_448.wav,0,0,522,,,,,2,0.2,65.77705469,1.13313853
ZJY,72,1,2024-06-13T06:11:37.684Z,english_448.wav,0,0,522,,,,,3,0.3,83.31626383,0.27075507
ZJY,72,1,2024-06-13T06:11:37.684Z,english_448.wav,0,0,522,,,,,4,0.32341667,-27.56829045,1.20964916
ZJY,73,1,2024-06-13T06:11:37.684Z,english_842.wav,0,1,1560,,,,,0,0,-48.5952207,0.12382156
ZJY,73,1,2024-06-13T06:11:37.684Z,english_842.wav,0,1,1560,,,,,1,0.1,29.19485822,1.75564688
ZJY,73,1,2024-06-13T06:11:37.684Z,english_842.wav,0,1,1560,,,,,2,0.2,84.54328152,0.24815543
ZJY,73,1,2024-06-13T06:11:37.684Z,english_842.wav,0,1,1560,,,,,3,0.3,69.99994667,1.2885643
ZJY,73,1,2024-06-13T06:11:37.684Z,english_842.wav,0,1,1560,,,,,4,0.32341667,56.72069463,0.70518165
ZJY,74,1,2024-06-13T06:11:37.684Z,english_530.wav,0,0,509,,,,,0,0,21.55057906,0.25130805
ZJY,74,1,2024-06-13T06:11:37.684Z,english_530.wav,0,0,509,,,,,1,0.1,-20.17265513,0.96020899
ZJY,74,1,2024-06-13T06:11:37.684Z,english_530.wav,0,0,509,,,,,2,0.2,-52.07974762,1.55252741
ZJY,74,1,2024-06-13T06:11:37.684Z,english_530.wav,0,0,509,,,,,3,0.3,87.36384387,1.19622655
ZJY,74,1,2024-06-13T06:11:37.684Z,english_530.wav,0,0,509,,,,,4,0.32341667,-72.92256984,0.75880724
ZJY,75,1,2024-06-13T06:11:37.684Z,english_447.wav,0,1,953,,,,,0,0,38.77193801,0.52212734
ZJY,75,1,2024-06-13T06:11:37.684Z,english_447.wav,0,1,953,,,,,1,0.1,-3.53992528,0.58948567
ZJY,75,1,2024-06-13T06:11:37.684Z,english_447.wav,0,1,953,,,,,2,0.2,54.1888363,0.60662966
ZJY,75,1,2024-06-13T06:11:37.684Z,english_447.wav,0,1,953,,,,,3,0.3,-95.90180003,0.73195254
ZJY,75,1,2024-06-13T06:11:37.684Z,english_447.wav,0,1,953,,,,,4,0.32341667,48.32118178,0.21856551
ZJY,76,1,2024-06-13T06:11:37.684Z,english_847.wav,0,0,630,,,,,0,0,76.45550118,0.38890762
ZJY,76,1,2024-06-13T06:11:37.684Z,english_847.wav,0,0,630,,,,,1,0.1,-18.38123868,1.01718805
ZJY,76,1,2024-06-13T06:11:37.684Z,english_847.wav,0,0,630,,,,,2,0.2,18.403778,1.24872656
ZJY,76,1,2024-06-13T06:11:37.684Z,english_847.wav,0,0,630,,,,,3,0.3,57.196546,0.81951257
ZJY,76,1,2024-06-13T06:11:37.684Z,english_847.wav,0,0,630,,,,,4,0.32341667,32.99763753,0.74194876
ZJY,77,1,2024-06-13T06:11:37.684Z,english_183.wav,0,0,553,,,,,0,0,-43.98322413,0.65201846
ZJY,77,1,2024-06-13T06:11:37.684Z,english_183.wav,0,0,553,,,,,1,0.1,-25.77671075,1.22292345
ZJY,77,1,2024-06-13T06:11:37.684Z,english_183.wav,0,0,553,,,,,2,0.2,39.5110442,1.45876179
ZJY,77,1,2024-06-13T06:11:37.684Z,english_183.wav,0,0,553,,,,,3,0.3,-32.19697736,0.98656907
ZJY,77,1,2024-06-13T06:11:37.684Z,english_183.wav,0,0,553,,,,,4,0.32341667,10.88673449,1.0349791
ZJY,78,1,2024-06-13T06:11:37.684Z,english_733.wav,0,0,559,,,,,0,0,-77.09135463,1.21028291
ZJY,78,1,2024-06-13T06:11:37.684Z,english_733.wav,0,0,559,,,,,1,0.1,-30.68901019,1.14931675
ZJY,78,1,2024-06-13T06:11:37.684Z,english_733.wav,0,0,559,,,,,2,0.2,-27.18135709,1.68866455
ZJY,78,1,2024-06-13T06:11:37.684Z,english_733.wav,0,0,559,,,,,3,0.3,-10.74804936,0.29390693
ZJY,78,1,2024-06-13T06:11:37.684Z,english_733.wav,0,0,559,,,,,4,0.32341667,-57.14773718,0.43305962
ZJY,79,1,2024-06-13T06:11:37.684Z,english_741.wav,0,0,444,,,,,0,0,-74.62614727,1.92216761
ZJY,79,1,2024-06-13T06:11:37.684Z,english_741.wav,0,0,444,,,,,1,0.1,33.834367,1.50741835
ZJY,79,1,2024-06-13T06:11:37.684Z,english_741.wav,0,0,444,,,,,2,0.2,-60.21329901,0.74273648
ZJY,79,1,2024-06-13T06:11:37.684Z,english_741.wav,0,0,444,,,,,3,0.3,-95.39639135,0.98175705
ZJY,79,1,2024-06-13T06:11:37.684Z,english_741.wav,0,0,444,,,,,4,0.32341667,3.10560698,0.9878567
ZJY,80,1,2024-06-13T06:11:37.684Z,english_771.wav,0,0,2175,,,,,0,0,52.29619013,1.65909918
ZJY,80,1,2024-06-13T06:11:37.684Z,english_771.wav,0,0,2175,,,,,1,0.1,55.26271333,1.05958749
ZJY,80,1,2024-06-13T06:11:37.684Z,english_771.wav,0,0,2175,,,,,2,0.2,49.2587818,1.33758239
ZJY,80,1,2024-06-13T06:11:37.684Z,english_771.wav,0,0,2175,,,,,3,0.3,48.45532009,1.75478958
ZJY,80,1,2024-06-13T06:11:37.684Z,english_771.wav,0,0,2175,,,,,4,0.32341667,-98.45631565,0.37013483
ZJY,81,1,2024-06-13T06:11:37.684Z,english_136.wav,0,1,1192,,,,,0,0,12.04186247,0.70846626
ZJY,81,1,2024-06-13T06:11:37.684Z,english_136.wav,0,1,1192,,,,,1,0.1,-56.97950323,1.3229906
ZJY,81,1,2024-06-13T06:11:37.684Z,english_136.wav,0,1,1192,,,,,2,0.2,32.29793995,0.25119571
ZJY,81,1,2024-06-13T06:11:37.684Z,english_136.wav,0,1,1192,,,,,3,0.3,40.05814767,1.28510755
ZJY,81,1,2024-06-13T06:11:37.684Z,english_136.wav,0,1,1192,,,,,4,0.32341667,61.40693937,1.20697433
ZJY,82,1,2024-06-13T06:11:37.684Z,english_502.wav,0,0,1611,,,,,0,0,-23.73065935,0.0797034
ZJY,82,1,2024-06-13T06:11:37.684Z,english_502.wav,0,0,1611,,,,,1,0.1,2.70754613,1.83600464
ZJY,82,1,2024-06-13T06:11:37.684Z,english_502.wav,0,0,1611,,,,,2,0.2,25.650451,1.48948742
ZJY,82,1,2024-06-13T06:11:37.684Z,english_502.wav,0,0,1611,,,,,3,0.3,-49.55254658,1.22465236
ZJY,82,1,2024-06-13T06:11:37.684Z,english_502.wav,0,0,1611,,,,,4,0.32341667,16.82642172,1.41984075
ZJY,83,1,2024-06-13T06:11:37.684Z,english_506.wav,0,1,1686,,,,,0,0,-17.73769578,0.98447335
ZJY,83,1,2024-06-13T06:11:37.684Z,english_506.wav,0,1,1686,,,,,1,0.1,-41.45582363,0.94666259
ZJY,83,1,2024-06-13T06:11:37.684Z,english_506.wav,0,1,1686,,,,,2,0.2,30.66866042,0.72831062
ZJY,83,1,2024-06-13T06:11:37.684Z,english_506.wav,0,1,1686,,,,,3,0.3,59.8078046,1.02790064
ZJY,83,1,2024-06-13T06:11:37.684Z,english_506.wav,0,1,1686,,,,,4,0.32341667,84.38248427,0.39724826
ZJY,84,1,2024-06-13T06:11:37.684Z,english_703.wav,0,0,365,,,,,0,0,21.25560127,1.22587136
ZJY,84,1,2024-06-13T06:11:37.684Z,english_703.wav,0,0,365,,,,,1,0.1,-5.61566417,1.28752652
ZJY,84,1,2024-06-13T06:11:37.684Z,english_703.wav,0,0,365,,,,,2,0.2,-88.15973778,1.61643937
ZJY,84,1,2024-06-13T06:11:37.684Z,english_703.wav,0,0,365,,,,,3,0.3,39.86499493,1.32560109
ZJY,84,1,2024-06-13T06:11:37.684Z,english_703.wav,0,0,365,,,,,4,0.32341667,64.67338156,0.74206522
ZJY,85,1,2024-06-13T06:11:37.684Z,english_309.wav,0,1,591,,,,,0,0,59.8258624,0.58100331
ZJY,85,1,2024-06-13T06:11:37.684Z,english_309.wav,0,1,591,,,,,1,0.1,73.70427758,0.81024997
ZJY,85,1,2024-06-13T06:11:37.684Z,english_309.wav,0,1,591,,,,,2,0.2,-8.71125849,0.10827203
ZJY,85,1,2024-06-13T06:11:37.684Z,english_309.wav,0,1,591,,,,,3,0.3,-86.6882155,0.09670208
ZJY,85,1,2024-06-13T06:11:37.684Z,english_309.wav,0,1,591,,,,,4,0.32341667,-90.77340978,1.53063904
ZJY,86,1,2024-06-13T06:11:37.684Z,english_976.wav,0,0,321,,,,,0,0,-92.49082032,0.30893725
ZJY,86,1,2024-06-13T06:11:37.684Z,english_976.wav,0,0,321,,,,,1,0.1,92.01562452,1.54393752
ZJY,86,1,2024-06-13T06:11:37.684Z,english_976.wav,0,0,321,,,,,2,0.2,-80.55764576,1.31466429
ZJY,86,1,2024-06-13T06:11:37.684Z,english_976.wav,0,0,321,,,,,3,0.3,-70.09009567,1.88171095
ZJY,86,1,2024-06-13T06:11:37.684Z,english_976.wav,0,0,321,,,,,4,0.32341667,-7.5394989,1.71314556
ZJY,87,1,2024-06-13T06:11:37.684Z,english_468.wav,0,1,405,,,,,0,0,-33.82586043,0.35164089
ZJY,87,1,2024-06-13T06:11:37.684Z,english_468.wav,0,1,405,,,,,1,0.1,-42.55840131,0.20114733
ZJY,87,1,2024-06-13T06:11:37.684Z,english_468.wav,0,1,405,,,,,2,0.2,-36.6492295,1.40729654
ZJY,87,1,2024-06-13T06:11:37.684Z,english_468.wav,0,1,405,,,,,3,0.3,39.91321296,0.04300573
ZJY,87,1,2024-06-13T06:11:37.684Z,english_468.wav,0,1,405,,,,,4,0.32341667,54.14936319,1.79642733
ZJY,88,1,2024-06-13T06:11:37.684Z,english_766.wav,0,0,212,,,,,0,0,-86.57417509,1.21737292
ZJY,88,1,2024-06-13T06:11:37.684Z,english_766.wav,0,0,212,,,,,1,0.1,-67.75686223,1.61484435
ZJY,88,1,2024-06-13T06:11:37.684Z,english_766.wav,0,0,212,,,,,2,0.2,74.21258041,1.47872362
ZJY,88,1,2024-06-13T06:11:37.684Z,english_766.wav,0,0,212,,,,,3,0.3,65.20164426,1.81064247
ZJY,88,1,2024-06-13T06:11:37.684Z,english_766.wav,0,0,212,,,,,4,0.32341667,-26.41371036,1.37776493
ZJY,89,1,2024-06-13T06:11:37.684Z,english_540.wav,0,1,1021,,,,,0,0,-46.6752609,1.16352469
ZJY,89,1,2024-06-13T06:11:37.684Z,english_540.wav,0,1,1021,,,,,1,0.1,-93.20209644,0.0234781
ZJY,89,1,2024-06-13T06:11:37.684Z,english_540.wav,0,1,1021,,,,,2,0.2,64.96419662,0.05926191
ZJY,89,1,2024-06-13T06:11:37.684Z,english_540.wav,0,1,1021,,,,,3,0.3,-12.16484387,1.47406284
ZJY,89,1,2024-06-13T06:11:37.684Z,english_540.wav,0,1,1021,,,,,4,0.32341667,-44.34688232,0.60104864
ZJY,90,1,2024-06-13T06:11:37.684Z,english_571.wav,0,1,1807,,,,,0,0,-42.92588422,0.65590276
ZJY,90,1,2024-06-13T06:11:37.684Z,english_571.wav,0,1,1807,,,,,1,0.1,-87.39276897,1.8306878
ZJY,90,1,2024-06-13T06:11:37.684Z,english_571.wav,0,1,1807,,,,,2,0.2,19.06282168,0.06889765
ZJY,90,1,2024-06-13T06:11:37.684Z,english_571.wav,0,1,1807,,,,,3,0.3,-99.30459792,0.29364209
ZJY,90,1,2024-06-13T06:11:37.684Z,english_571.wav,0,1,1807,,,,,4,0.32341667,41.25263337,1.388798
ZJY,91,1,2024-06-13T06:11:37.684Z,english_176.wav,0,0,1827,,,,,0,0,-62.84257592,0.68193044
ZJY,91,1,2024-06-13T06:11:37.684Z,english_176.wav,0,0,1827,,,,,1,0.1,86.95506575,0.26950978
ZJY,91,1,2024-06-13T06:11:37.684Z,english_176.wav,0,0,1827,,,,,2,0.2,-28.0397163,0.45294908
ZJY,91,1,2024-06-13T06:11:37.684Z,english_176.wav,0,0,1827,,,,,3,0.3,-64.80124174,0.91353321
ZJY,91,1,2024-06-13T06:11:37.684Z,english_176.wav,0,0,1827,,,,,4,0.32341667,-98.66046935,1.10925614
ZJY,92,1,2024-06-13T06:11:37.684Z,english_628.wav,0,1,633,,,,,0,0,-19.71295886,0.8960583
ZJY,92,1,2024-06-13T06:11:37.684Z,english_628.wav,0,1,633,,,,,1,0.1,-79.294697,1.61949508
ZJY,92,1,2024-06-13T06:11:37.684Z,english_628.wav,0,1,633,,,,,2,0.2,-59.93256946,0.65483299
ZJY,92,1,2024-06-13T06:11:37.684Z,english_628.wav,0,1,633,,,,,3,0.3,-18.46863719,0.12001531
ZJY,92,1,2024-06-13T06:11:37.684Z,english_628.wav,0,1,633,,,,,4,0.32341667,53.30350975,0.85308449
ZJY,93,1,2024-06-13T06:11:37.684Z,english_339.wav,0,0,609,,,,,0,0,-58.67599578,0.13141934
ZJY,93,1,2024-06-13T06:11:37.684Z,english_339.wav,0,0,609,,,,,1,0.1,-13.30258388,0.16133177
ZJY,93,1,2024-06-13T06:11:37.684Z,english_339.wav,0,0,609,,,,,2,0.2,-52.40820381,1.13500643
ZJY,93,1,2024-06-13T06:11:37.684Z,english_339.wav,0,0,609,,,,,3,0.3,11.33062491,0.98717522
ZJY,93,1,2024-06-13T06:11:37.684Z,english_339.wav,0,0,609,,,,,4,0.32341667,9.6385593,0.10332776
ZJY,94,1,2024-06-13T06:11:37.684Z,english_193.wav,0,0,1233,,,,,0,0,98.63199606,1.10219899
ZJY,94,1,2024-06-13T06:11:37.684Z,english_193.wav,0,0,1233,,,,,1,0.1,38.06859183,1.75752318
ZJY,94,1,2024-06-13T06:11:37.684Z,english_193.wav,0,0,1233,,,,,2,0.2,58.19309996,1.8701857
ZJY,94,1,2024-06-13T06:11:37.684Z,english_193.wav,0,0,1233,,,,,3,0.3,70.68425501,1.90449871
ZJY,94,1,2024-06-13T06:11:37.684Z,english_193.wav,0,0,1233,,,,,4,0.32341667,89.06926868,1.70479661
ZJY,95,1,2024-06-13T06:11:37.684Z,english_782.wav,0,0,1453,,,,,0,0,-98.70381677,1.47488053
ZJY,95,1,2024-06-13T06:11:37.684Z,english_782.wav,0,0,1453,,,,,1,0.1,-69.82387258,0.7270016
ZJY,95,1,2024-06-13T06:11:37.684Z,english_782.wav,0,0,1453,,,,,2,0.2,35.26613747,0.08778447
ZJY,95,1,2024-06-13T06:11:37.684Z,english_782.wav,0,0,1453,,,,,3,0.3,-81.38004879,1.16903228
ZJY,95,1,2024-06-13T06:11:37.684Z,english_782.wav,0,0,1453,,,,,4,0.32341667,-61.83067014,0.92727902
ZJY,96,1,2024-06-13T06:11:37.684Z,english_101.wav,0,0,751,,,,,0,0,60.77829508,0.77962125
ZJY,96,1,2024-06-13T06:11:37.684Z,english_101.wav,0,0,751,,,,,1,0.1,43.41373716,0.02040908
ZJY,96,1,2024-06-13T06:11:37.684Z,english_101.wav,0,0,751,,,,,2,0.2,56.16195873,0.79248433
ZJY,96,1,2024-06-13T06:11:37.684Z,english_101.wav,0,0,751,,,,,3,0.3,-99.94719329,1.74003505
ZJY,96,1,2024-06-13T06:11:37.684Z,english_101.wav,0,0,751,,,,,4,0.32341667,-1.35074094,1.66206156
ZJY,97,1,2024-06-13T06:11:37.684Z,english_551.wav,0,1,1565,,,,,0,0,51.69986033,0.0331047
ZJY,97,1,2024-06-13T06:11:37.684Z,english_551.wav,0,1,1565,,,,,1,0.1,-91.31948841,0.51079487
ZJY,97,1,2024-06-13T06:11:37.684Z,english_551.wav,0,1,1565,,,,,2,0.2,12.24586311,1.83581854
ZJY,97,1,2024-06-13T06:11:37.684Z,english_551.wav,0,1,1565,,,,,3,0.3,-52.90680215,0.12201236
ZJY,97,1,2024-06-13T06:11:37.684Z,english_551.wav,0,1,1565,,,,,4,0.32341667,-27.23325687,1.55189277
ZJY,98,1,2024-06-13T06:11:37.684Z,english_485.wav,0,0,3088,,,,,0,0,-7.08941798,1.8206563
ZJY,98,1,2024-06-13T06:11:37.684Z,english_485.wav,0,0,3088,,,,,1,0.1,-70.64579204,0.10660577
ZJY,98,1,2024-06-13T06:11:37.684Z,english_485.wav,0,0,3088,,,,,2,0.2,23.79115045,1.92760945
ZJY,98,1,2024-06-13T06:11:37.684Z,english_485.wav,0,0,3088,,,,,3,0.3,0.80487994,0.77499174
ZJY,98,1,2024-06-13T06:11:37.684Z,english_485.wav,0,0,3088,,,,,4,0.32341667,4.72097057,1.20070888
ZJY,99,1,2024-06-13T06:11:37.684Z,english_304.wav,0,1,1439,,,,,0,0,-80.7192326,0.54130022
ZJY,99,1,2024-06-13T06:11:37.684Z,english_304.wav,0,1,1439,,,,,1,0.1,34.14230443,0.20766845
ZJY,99,1,2024-06-13T06:11:37.684Z,english_304.wav,0,1,1439,,,,,2,0.2,-43.78548789,1.25157904
ZJY,99,1,2024-06-13T06:11:37.684Z,english_304.wav,0,1,1439,,,,,3,0.3,85.79520644,0.76195837
ZJY,99,1,2024-06-13T06:11:37.684Z,english_304.wav,0,1,1439,,,,,4,0.32341667,-29.32737886,0.20991234
ZJY,100,2,2024-06-13T06:11:37.684Z,english_246.wav,0,1,2078,,,,,0,0,-62.23082525,0.02615808
ZJY,100,2,2024-06-13T06:11:37.684Z,english_246.wav,0,1,2078,,,,,1,0.1,59.67623932,1.52596932
ZJY,100,2,2024-06-13T06:11:37.684Z,english_246.wav,0,1,2078,,,,,2,0.2,-63.30715513,1.87080553
ZJY,100,2,2024-06-13T06:11:37.684Z,english_246.wav,0,1,2078,,,,,3,0.3,15.41118057,0.81226596
ZJY,100,2,2024-06-13T06:11:37.684Z,english_246.wav,0,1,2078,,,,,4,0.32341667,90.60814582,0.64975072
ZJY,101,2,2024-06-13T06:11:37.684Z,english_64.wav,0,0,15777,,,,,0,0,-77.75081389,0.01503168
ZJY,101,2,2024-06-13T06:11:37.684Z,english_64.wav,0,0,15777,,,,,1,0.1,47.79712302,0.51971923
ZJY,101,2,2024-06-13T06:11:37.684Z,english_64.wav,0,0,15777,,,,,2,0.2,-98.04646937,1.01128345
ZJY,101,2,2024-06-13T06:11:37.684Z,english_64.wav,0,0,15777,,,,,3,0.3,-20.17707595,0.69563875
ZJY,101,2,2024-06-13T06:11:37.684Z,english_64.wav,0,0,15777,,,,,4,0.32341667,53.05828969,1.51814807
ZJY,102,2,2024-06-13T06:11:37.684Z,english_845.wav,0,0,1736,,,,,0,0,-39.21264236,0.82761504
ZJY,102,2,2024-06-13T06:11:37.684Z,english_845.wav,0,0,1736,,,,,1,0.1,99.78041888,0.53375751
ZJY,102,2,2024-06-13T06:11:37.684Z,english_845.wav,0,0,1736,,,,,2,0.2,-59.29104422,1.24236426
ZJY,102,2,2024-06-13T06:11:37.684Z,english_845.wav,0,0,1736,,,,,3,0.3,57.0409613,1.27736464
ZJY,102,2,2024-06-13T06:11:37.684Z,english_845.wav,0,0,1736,,,,,4,0.32341667,-93.6361214,0.79024728
ZJY,103,2,2024-06-13T06:11:37.684Z,english_173.wav,0,1,1206,,,,,0,0,11.1251521,0.60172576
ZJY,103,2,2024-06-13T06:11:37.684Z,english_173.wav,0,1,1206,,,,,1,0.1,94.22411188,0.44802145
ZJY,103,2,2024-06-13T06:11:37.684Z,english_173.wav,0,1,1206,,,,,2,0.2,89.44753043,1.27552997
ZJY,103,2,2024-06-13T06:11:37.684Z,english_173.wav,0,1,1206,,,,,3,0.3,74.30769895,1.09756939
ZJY,103,2,2024-06-13T06:11:37.684Z,english_173.wav,0,1,1206,,,,,4,0.32341667,-37.47679669,0.7907315
ZJY,104,2,2024-06-13T06:11:37.684Z,english_566.wav,0,0,301,,,,,0,0,70.56000247,1.04698608
ZJY,104,2,2024-06-13T06:11:37.684Z,english_566.wav,0,0,301,,,,,1,0.1,-0.18246418,1.13826263
ZJY,104,2,2024-06-13T06:11:37.684Z,english_566.wav,0,0,301,,,,,2,0.2,-23.7188651,1.91259561
ZJY,104,2,2024-06-13T06:11:37.684Z,english_566.wav,0,0,301,,,,,3,0.3,12.5469797,1.08561121
ZJY,104,2,2024-06-13T06:11:37.684Z,english_566.wav,0,0,301,,,,,4,0.32341667,-84.37997634,1.98926692
ZJY,105,2,2024-06-13T06:11:37.684Z,english_85.wav,0,0,644,,,,,0,0,69.91092253,1.07696769
ZJY,105,2,2024-06-13T06:11:37.684Z,english_85.wav,0,0,644,,,,,1,0.1,90.04885235,1.65675227
ZJY,105,2,2024-06-13T06:11:37.684Z,english_85.wav,0,0,644,,,,,2,0.2,-54.471964,1.18566865
ZJY,105,2,2024-06-13T06:11:37.684Z,english_85.wav,0,0,644,,,,,3,0.3,-32.42862041,0.43131811
ZJY,105,2,2024-06-13T06:11:37.684Z,english_85.wav,0,0,644,,,,,4,0.32341667,-26.25094384,1.88641509
ZJY,106,2,2024-06-13T06:11:37.684Z,english_128.wav,0,1,1306,,,,,0,0,-84.07301703,0.96445051
ZJY,106,2,2024-06-13T06:11:37.684Z,english_128.wav,0,1,1306,,,,,1,0.1,0.2051398,0.77165422
ZJY,106,2,2024-06-13T06:11:37.684Z,english_128.wav,0,1,1306,,,,,2,0.2,50.77588291,0.60279997
ZJY,106,2,2024-06-13T06:11:37.684Z,english_128.wav,0,1,1306,,,,,3,0.3,3.27834455,0.59915485
ZJY,106,2,2024-06-13T06:11:37.684Z,english_128.wav,0,1,1306,,,,,4,0.32341667,59.5943459,0.43521132
ZJY,107,2,2024-06-13T06:11:37.684Z,english_543.wav,0,1,1121,,,,,0,0,13.74009622,0.63900578
ZJY,107,2,2024-06-13T06:11:37.684Z,english_543.wav,0,1,1121,,,,,1,0.1,51.80972721,1.6206981
ZJY,107,2,2024-06-13T06:11:37.684Z,english_543.wav,0,1,1121,,,,,2,0.2,86.3964352,0.03304675
ZJY,107,2,2024-06-13T06:11:37.684Z,english_543.wav,0,1,1121,,,,,3,0.3,-66.39783761,1.7049324
ZJY,107,2,2024-06-13T06:11:37.684Z,english_543.wav,0,1,1121,,,,,4,0.32341667,31.11863834,1.46507556
ZJY,108,2,2024-06-13T06:11:37.684Z,english_204.wav,0,0,1268,,,,,0,0,67.46317025,1.58701212
ZJY,108,2,2024-06-13T06:11:37.684Z,english_204.wav,0,0,1268,,,,,1,0.1,38.91463365,1.82178317
ZJY,108,2,2024-06-13T06:11:37.684Z,english_204.wav,0,0,1268,,,,,2,0.2,-85.28377865,1.60361911
ZJY,108,2,2024-06-13T06:11:37.684Z,english_204.wav,0,0,1268,,,,,3,0.3,55.65505401,0.21823774
ZJY,108,2,2024-06-13T06:11:37.684Z,english_204.wav,0,0,1268,,,,,4,0.32341667,56.32983288,0.04661671
ZJY,109,2,2024-06-13T06:11:37.684Z,english_909.wav,0,0,644,,,,,0,0,-19.4205152,0.17681169
ZJY,109,2,2024-06-13T06:11:37.684Z,english_909.wav,0,0,644,,,,,1,0.1,-31.830868,1.02014656
ZJY,109,2,2024-06-13T06:11:37.684Z,english_909.wav,0,0,644,,,,,2,0.2,71.05598051,1.59945112
ZJY,109,2,2024-06-13T06:11:37.684Z,english_909.wav,0,0,644,,,,,3,0.3,-13.09259164,1.33685121
ZJY,109,2,2024-06-13T06:11:37.684Z,english_909.wav,0,0,644,,,,,4,0.32341667,-99.47743822,0.41114962
ZJY,110,2,2024-06-13T06:11:37.684Z,english_197.wav,0,0,276,,,,,0,0,-60.72223742,1.8449777
ZJY,110,2,2024-06-13T06:11:37.684Z,english_197.wav,0,0,276,,,,,1,0.1,-88.93421142,1.74693134
ZJY,110,2,2024-06-13T06:11:37.684Z,english_197.wav,0,0,276,,,,,2,0.2,51.43827126,1.11057597
ZJY,110,2,2024-06-13T06:11:37.684Z,english_197.wav,0,0,276,,,,,3,0.3,7.80125839,1.67371275
ZJY,110,2,2024-06-13T06:11:37.684Z,english_197.wav,0,0,276,,,,,4,0.32341667,-53.06876459,1.16077516
ZJY,111,2,2024-06-13T06:11:37.684Z,english_752.wav,0,0,1159,,,,,0,0,-89.50526135,1.26833375
ZJY,111,2,2024-06-13T06:11:37.684Z,english_752.wav,0,0,1159,,,,,1,0.1,16.42916277,1.25445964
ZJY,111,2,2024-06-13T06:11:37.684Z,english_752.wav,0,0,1159,,,,,2,0.2,-62.11724863,1.84048801
ZJY,111,2,2024-06-13T06:11:37.684Z,english_752.wav,0,0,1159,,,,,3,0.3,-22.7839786,0.96813738
ZJY,111,2,2024-06-13T06:11:37.684Z,english_752.wav,0,0,1159,,,,,4,0.32341667,21.77934146,1.95604557
ZJY,112,2,2024-06-13T06:11:37.684Z,english_998.wav,0,1,2731,,,,,0,0,-57.03196796,0.0179282
ZJY,112,2,2024-06-13T06:11:37.684Z,english_998.wav,0,1,2731,,,,,1,0.1,-12.93623633,1.72217412
ZJY,112,2,2024-06-13T06:11:37.684Z,english_998.wav,0,1,2731,,,,,2,0.2,-24.63186366,0.91011795
ZJY,112,2,2024-06-13T06:11:37.684Z,english_998.wav,0,1,2731,,,,,3,0.3,-10.49750637,1.24282972
ZJY,112,2,2024-06-13T06:11:37.684Z,english_998.wav,0,1,2731,,,,,4,0.32341667,22.76793653,0.40520665
ZJY,113,2,2024-06-13T06:11:37.684Z,english_431.wav,0,0,3746,,,,,0,0,-28.91437381,1.3282391
ZJY,113,2,2024-06-13T06:11:37.684Z,english_431.wav,0,0,3746,,,,,1,0.1,30.6479342,1.9405757
ZJY,113,2,2024-06-13T06:11:37.684Z,english_431.wav,0,0,3746,,,,,2,0.2,41.25713347,1.67607787
ZJY,113,2,2024-06-13T06:11:37.684Z,english_431.wav,0,0,3746,,,,,3,0.3,9.19018397,0.62213613
ZJY,113,2,2024-06-13T06:11:37.684Z,english_431.wav,0,0,3746,,,,,4,0.32341667,-61.77590044,0.50881411
ZJY,114,2,2024-06-13T06:11:37.684Z,english_928.wav,0,1,938,,,,,0,0,55.07207497,1.22706758
ZJY,114,2,2024-06-13T06:11:37.684Z,english_928.wav,0,1,938,,,,,1,0.1,83.71672672,0.97206042
ZJY,114,2,2024-06-13T06:11:37.684Z,english_928.wav,0,1,938,,,,,2,0.2,-43.28929986,0.16969859
ZJY,114,2,2024-06-13T06:11:37.684Z,english_928.wav,0,1,938,,,,,3,0.3,-17.1692271,0.90092586
ZJY,114,2,2024-06-13T06:11:37.684Z,english_928.wav,0,1,938,,,,,4,0.32341667,-36.644272,0.43024518
ZJY,115,2,2024-06-13T06:11:37.684Z,english_575.wav,0,1,1052,,,,,0,0,61.73461998,1.8510319
ZJY,115,2,2024-06-13T06:11:37.684Z,english_575.wav,0,1,1052,,,,,1,0.1,-88.57549656,1.54102878
ZJY,115,2,2024-06-13T06:11:37.684Z,english_575.wav,0,1,1052,,,,,2,0.2,-30.88461278,1.19801244
ZJY,115,2,2024-06-13T06:11:37.684Z,english_575.wav,0,1,1052,,,,,3,0.3,-63.73327026,1.20026237
ZJY,115,2,2024-06-13T06:11:37.684Z,english_575.wav,0,1,1052,,,,,4,0.32341667,-0.55806298,1.04112184
ZJY,116,2,2024-06-13T06:11:37.684Z,english_556.wav,0,1,1242,,,,,0,0,35.62658416,1.88481821
ZJY,116,2,2024-06-13T06:11:37.684Z,english_556.wav,0,1,1242,,,,,1,0.1,28.75181601,0.4023528
ZJY,116,2,2024-06-13T06:11:37.684Z,english_556.wav,0,1,1242,,,,,2,0.2,-2.62389444,1.49364055
ZJY,116,2,2024-06-13T06:11:37.684Z,english_556.wav,0,1,1242,,,,,3,0.3,64.03572584,1.54190039
ZJY,116,2,2024-06-13T06:11:37.684Z,english_556.wav,0,1,1242,,,,,4,0.32341667,72.79696002,0.53435232
ZJY,117,2,2024-06-13T06:11:37.684Z,english_913.wav,0,0,740,,,,,0,0,27.9375346,0.72243167
ZJY,117,2,2024-06-13T06:11:37.684Z,english_913.wav,0,0,740,,,,,1,0.1,41.67879689,1.59129257
ZJY,117,2,2024-06-13T06:11:37.684Z,english_913.wav,0,0,740,,,,,2,0.2,-50.96955224,1.19382874
ZJY,117,2,2024-06-13T06:11:37.684Z,english_913.wav,0,0,740,,,,,3,0.3,93.1868058,0.86840853
ZJY,117,2,2024-06-13T06:11:37.684Z,english_913.wav,0,0,740,,,,,4,0.32341667,83.79752677,0.21021697
ZJY,118,2,2024-06-13T06:11:37.684Z,english_440.wav,0,1,576,,,,,0,0,44.70308901,1.51497438
ZJY,118,2,2024-06-13T06:11:37.684Z,english_440.wav,0,1,576,,,,,1,0.1,-88.0257567,1.05972447
ZJY,118,2,2024-06-13T06:11:37.684Z,english_440.wav,0,1,576,,,,,2,0.2,1.19893433,0.590820378
ZJY,118,2,2024-06-13T06:11:37.684Z,english_440.wav,0,1,576,,,,,3,0.3,19.45485395,0.680586803
ZJY,118,2,2024-06-13T06:11:37.684Z,english_440.wav,0,1,576,,,,,4,0.32341667,13.00088222,0.000618341324
ZJY,119,2,2024-06-13T06:11:37.684Z,english_732.wav,0,1,898,,,,,0,0,-12.49530298,1.28394154
ZJY,119,2,2024-06-13T06:11:37.684Z,english_732.wav,0,1,898,,,,,1,0.1,77.35683448,1.95772399
ZJY,119,2,2024-06-13T06:11:37.684Z,english_732.wav,0,1,898,,,,,2,0.2,46.14200593,1.14408971
ZJY,119,2,2024-06-13T06:11:37.684Z,english_732.wav,0,1,898,,,,,3,0.3,-17.19403126,0.21034957
ZJY,119,2,2024-06-13T06:11:37.684Z,english_732.wav,0,1,898,,,,,4,0.32341667,-81.60069167,0.50538316
ZJY,120,2,2024-06-13T06:11:37.684Z,english_641.wav,0,1,1009,,,,,0,0,-90.88934322,1.28926835
ZJY,120,2,2024-06-13T06:11:37.684Z,english_641.wav,0,1,1009,,,,,1,0.1,13.36673253,0.02464493
ZJY,120,2,2024-06-13T06:11:37.684Z,english_641.wav,0,1,1009,,,,,2,0.2,-36.70414591,0.5505433
ZJY,120,2,2024-06-13T06:11:37.684Z,english_641.wav,0,1,1009,,,,,3,0.3,-4.62417375,0.52188675
ZJY,120,2,2024-06-13T06:11:37.684Z,english_641.wav,0,1,1009,,,,,4,0.32341667,15.34366305,0.01360039
ZJY,121,2,2024-06-13T06:11:37.684Z,english_168.wav,0,1,380,,,,,0,0,-69.10300998,1.14537751
ZJY,121,2,2024-06-13T06:11:37.684Z,english_168.wav,0,1,380,,,,,1,0.1,-24.44784794,1.06854972
ZJY,121,2,2024-06-13T06:11:37.684Z,english_168.wav,0,1,380,,,,,2,0.2,35.31321785,0.45192262
ZJY,121,2,2024-06-13T06:11:37.684Z,english_168.wav,0,1,380,,,,,3,0.3,-41.77498511,0.2846318
ZJY,121,2,2024-06-13T06:11:37.684Z,english_168.wav,0,1,380,,,,,4,0.32341667,19.92389913,0.9853942
ZJY,122,2,2024-06-13T06:11:37.684Z,english_434.wav,0,1,1509,,,,,0,0,-4.12787863,0.96421208
ZJY,122,2,2024-06-13T06:11:37.684Z,english_434.wav,0,1,1509,,,,,1,0.1,-30.19441281,1.08561731
ZJY,122,2,2024-06-13T06:11:37.684Z,english_434.wav,0,1,1509,,,,,2,0.2,41.04377471,1.46356301
ZJY,122,2,2024-06-13T06:11:37.684Z,english_434.wav,0,1,1509,,,,,3,0.3,-32.43591961,0.25116585
ZJY,122,2,2024-06-13T06:11:37.684Z,english_434.wav,0,1,1509,,,,,4,0.32341667,61.53108406,0.73120458
ZJY,123,2,2024-06-13T06:11:37.684Z,english_594.wav,0,1,2359,,,,,0,0,-85.15725243,1.49995106
ZJY,123,2,2024-06-13T06:11:37.684Z,english_594.wav,0,1,2359,,,,,1,0.1,18.57908242,1.36683942
ZJY,123,2,2024-06-13T06:11:37.684Z,english_594.wav,0,1,2359,,,,,2,0.2,-52.1381203,1.31792707
ZJY,123,2,2024-06-13T06:11:37.684Z,english_594.wav,0,1,2359,,,,,3,0.3,77.56862162,0.76119001
ZJY,123,2,2024-06-13T06:11:37.684Z,english_594.wav,0,1,2359,,,,,4,0.32341667,89.7133381,1.77084997
ZJY,124,2,2024-06-13T06:11:37.684Z,english_553.wav,0,1,1268,,,,,0,0,-18.85071283,1.30647824
ZJY,124,2,2024-06-13T06:11:37.684Z,english_553.wav,0,1,1268,,,,,1,0.1,56.72439372,1.55205535
ZJY,124,2,2024-06-13T06:11:37.684Z,english_553.wav,0,1,1268,,,,,2,0.2,-32.51510613,1.79127341
ZJY,124,2,2024-06-13T06:11:37.684Z,english_553.wav,0,1,1268,,,,,3,0.3,-81.56708954,0.1795284
ZJY,124,2,2024-06-13T06:11:37.684Z,english_553.wav,0,1,1268,,,,,4,0.32341667,42.80590219,0.48805839
ZJY,125,2,2024-06-13T06:11:37.684Z,english_148.wav,0,1,1221,,,,,0,0,-15.87588743,0.13468567
ZJY,125,2,2024-06-13T06:11:37.684Z,english_148.wav,0,1,1221,,,,,1,0.1,66.05332506,1.11017862
ZJY,125,2,2024-06-13T06:11:37.684Z,english_148.wav,0,1,1221,,,,,2,0.2,50.59551539,0.42983488
ZJY,125,2,2024-06-13T06:11:37.684Z,english_148.wav,0,1,1221,,,,,3,0.3,-59.45276716,0.2729575
ZJY,125,2,2024-06-13T06:11:37.684Z,english_148.wav,0,1,1221,,,,,4,0.32341667,58.4155276,0.65396017
ZJY,126,2,2024-06-13T06:11:37.684Z,english_869.wav,0,1,1146,,,,,0,0,31.82870938,0.91730192
ZJY,126,2,2024-06-13T06:11:37.684Z,english_869.wav,0,1,1146,,,,,1,0.1,55.69153841,1.54634356
ZJY,126,2,2024-06-13T06:11:37.684Z,english_869.wav,0,1,1146,,,,,2,0.2,44.83997999,0.32401745
ZJY,126,2,2024-06-13T06:11:37.684Z,english_869.wav,0,1,1146,,,,,3,0.3,-64.6596515,1.34292926
ZJY,126,2,2024-06-13T06:11:37.684Z,english_869.wav,0,1,1146,,,,,4,0.32341667,-51.58434075,0.99771643
ZJY,127,2,2024-06-13T06:11:37.684Z,english_822.wav,0,1,1134,,,,,0,0,22.19463519,1.34957498
ZJY,127,2,2024-06-13T06:11:37.684Z,english_822.wav,0,1,1134,,,,,1,0.1,46.02970585,1.18534363
ZJY,127,2,2024-06-13T06:11:37.684Z,english_822.wav,0,1,1134,,,,,2,0.2,44.31281831,0.88966115
ZJY,127,2,2024-06-13T06:11:37.684Z,english_822.wav,0,1,1134,,,,,3,0.3,27.24156044,1.22476657
ZJY,127,2,2024-06-13T06:11:37.684Z,english_822.wav,0,1,1134,,,,,4,0.32341667,41.58842879,0.51847317
ZJY,128,2,2024-06-13T06:11:37.684Z,english_459.wav,0,0,1294,,,,,0,0,30.23503988,1.42205963
ZJY,128,2,2024-06-13T06:11:37.684Z,english_459.wav,0,0,1294,,,,,1,0.1,-58.09525271,0.13069666
ZJY,128,2,2024-06-13T06:11:37.684Z,english_459.wav,0,0,1294,,,,,2,0.2,22.03715272,0.55220733
ZJY,128,2,2024-06-13T06:11:37.684Z,english_459.wav,0,0,1294,,,,,3,0.3,-33.09468511,0.48840502
ZJY,128,2,2024-06-13T06:11:37.684Z,english_459.wav,0,0,1294,,,,,4,0.32341667,-9.46836848,1.08918734
ZJY,129,2,2024-06-13T06:11:37.684Z,english_794.wav,0,1,314,,,,,0,0,5.57967757,1.6157291
ZJY,129,2,2024-06-13T06:11:37.684Z,english_794.wav,0,1,314,,,,,1,0.1,-3.8737546,0.80008436
ZJY,129,2,2024-06-13T06:11:37.684Z,english_794.wav,0,1,314,,,,,2,0.2,-24.29943164,0.69881068
ZJY,129,2,2024-06-13T06:11:37.684Z,english_794.wav,0,1,314,,,,,3,0.3,3.56417137,1.55658335
ZJY,129,2,2024-06-13T06:11:37.684Z,english_794.wav,0,1,314,,,,,4,0.32341667,-13.30357118,1.787412
ZJY,130,2,2024-06-13T06:11:37.684Z,english_251.wav,0,1,1127,,,,,0,0,-35.26640223,1.59441442
ZJY,130,2,2024-06-13T06:11:37.684Z,english_251.wav,0,1,1127,,,,,1,0.1,-82.14936791,1.21410308
ZJY,130,2,2024-06-13T06:11:37.684Z,english_251.wav,0,1,1127,,,,,2,0.2,39.53587687,0.89125894
ZJY,130,2,2024-06-13T06:11:37.684Z,english_251.wav,0,1,1127,,,,,3,0.3,-75.44024907,0.14763688
ZJY,130,2,2024-06-13T06:11:37.684Z,english_251.wav,0,1,1127,,,,,4,0.32341667,26.94148116,1.71797298
ZJY,131,2,2024-06-13T06:11:37.684Z,english_215.wav,0,1,1438,,,,,0,0,-93.71362427,1.31176069
ZJY,131,2,2024-06-13T06:11:37.684Z,english_215.wav,0,1,1438,,,,,1,0.1,20.4696733,1.25536714
ZJY,131,2,2024-06-13T06:11:37.684Z,english_215.wav,0,1,1438,,,,,2,0.2,-66.57352715,1.5696385
ZJY,131,2,2024-06-13T06:11:37.684Z,english_215.wav,0,1,1438,,,,,3,0.3,-0.6079782,0.03144419
ZJY,131,2,2024-06-13T06:11:37.684Z,english_215.wav,0,1,1438,,,,,4,0.32341667,-5.73921948,0.79048669
ZJY,132,2,2024-06-13T06:11:37.684Z,english_374.wav,0,1,2825,,,,,0,0,-43.98521466,1.11607514
ZJY,132,2,2024-06-13T06:11:37.684Z,english_374.wav,0,1,2825,,,,,1,0.1,-24.87181663,0.38249505
ZJY,132,2,2024-06-13T06:11:37.684Z,english_374.wav,0,1,2825,,,,,2,0.2,-29.31566683,1.56774755
ZJY,132,2,2024-06-13T06:11:37.684Z,english_374.wav,0,1,2825,,,,,3,0.3,-43.36019392,1.33837662
ZJY,132,2,2024-06-13T06:11:37.684Z,english_374.wav,0,1,2825,,,,,4,0.32341667,-35.5175379,0.68793086
ZJY,133,2,2024-06-13T06:11:37.684Z,english_522.wav,0,0,1501,,,,,0,0,11.68148217,0.44643579
ZJY,133,2,2024-06-13T06:11:37.684Z,english_522.wav,0,0,1501,,,,,1,0.1,-74.55265788,0.16885459
ZJY,133,2,2024-06-13T06:11:37.684Z,english_522.wav,0,0,1501,,,,,2,0.2,95.15954448,1.67161326
ZJY,133,2,2024-06-13T06:11:37.684Z,english_522.wav,0,0,1501,,,,,3,0.3,-17.14209769,0.53349848
ZJY,133,2,2024-06-13T06:11:37.684Z,english_522.wav,0,0,1501,,,,,4,0.32341667,-35.38302731,0.4645726
ZJY,134,2,2024-06-13T06:11:37.684Z,english_659.wav,0,0,736,,,,,0,0,-86.13080632,0.77157019
ZJY,134,2,2024-06-13T06:11:37.684Z,english_659.wav,0,0,736,,,,,1,0.1,39.51927718,1.34569204
ZJY,134,2,2024-06-13T06:11:37.684Z,english_659.wav,0,0,736,,,,,2,0.2,-6.22185106,0.71695874
ZJY,134,2,2024-06-13T06:11:37.684Z,english_659.wav,0,0,736,,,,,3,0.3,5.64287294,1.04110125
ZJY,134,2,2024-06-13T06:11:37.684Z,english_659.wav,0,0,736,,,,,4,0.32341667,47.08694279,1.84115141
ZJY,135,2,2024-06-13T06:11:37.684Z,english_167.wav,0,1,1551,,,,,0,0,57.26975159,0.44729063
ZJY,135,2,2024-06-13T06:11:37.684Z,english_167.wav,0,1,1551,,,,,1,0.1,54.31010869,1.623568
ZJY,135,2,2024-06-13T06:11:37.684Z,english_167.wav,0,1,1551,,,,,2,0.2,99.57020207,0.28743218
ZJY,135,2,2024-06-13T06:11:37.684Z,english_167.wav,0,1,1551,,,,,3,0.3,27.92735821,0.71837494
ZJY,135,2,2024-06-13T06:11:37.684Z,english_167.wav,0,1,1551,,,,,4,0.32341667,73.13424206,1.35815305
ZJY,136,2,2024-06-13T06:11:37.684Z,english_39.wav,0,0,2270,,,,,0,0,28.0167149,1.3269735
ZJY,136,2,2024-06-13T06:11:37.684Z,english_39.wav,0,0,2270,,,,,1,0.1,0.73047565,0.59121622
ZJY,136,2,2024-06-13T06:11:37.684Z,english_39.wav,0,0,2270,,,,,2,0.2,-55.83763262,0.32613901
ZJY,136,2,2024-06-13T06:11:37.684Z,english_39.wav,0,0,2270,,,,,3,0.3,-59.78026112,1.39661139
ZJY,136,2,2024-06-13T06:11:37.684Z,english_39.wav,0,0,2270,,,,,4,0.32341667,81.1603589,0.76065887
ZJY,137,2,2024-06-13T06:11:37.684Z,english_414.wav,0,0,1222,,,,,0,0,19.47839865,0.9434816
ZJY,137,2,2024-06-13T06:11:37.684Z,english_414.wav,0,0,1222,,,,,1,0.1,59.9490877,1.1146936
ZJY,137,2,2024-06-13T06:11:37.684Z,english_414.wav,0,0,1222,,,,,2,0.2,22.33981162,0.48476454
ZJY,137,2,2024-06-13T06:11:37.684Z,english_414.wav,0,0,1222,,,,,3,0.3,18.97426154,0.23554241
ZJY,137,2,2024-06-13T06:11:37.684Z,english_414.wav,0,0,1222,,,,,4,0.32341667,15.16306506,1.13007685
ZJY,138,2,2024-06-13T06:11:37.684Z,english_27.wav,0,1,1482,,,,,0,0,-6.18374659,1.89085405
ZJY,138,2,2024-06-13T06:11:37.684Z,english_27.wav,0,1,1482,,,,,1,0.1,32.21095844,0.80138328
ZJY,138,2,2024-06-13T06:11:37.684Z,english_27.wav,0,1,1482,,,,,2,0.2,21.02729748,1.01248602
ZJY,138,2,2024-06-13T06:11:37.684Z,english_27.wav,0,1,1482,,,,,3,0.3,4.79829383,1.67412938
ZJY,138,2,2024-06-13T06:11:37.684Z,english_27.wav,0,1,1482,,,,,4,0.32341667,-70.7577659,0.3387802
ZJY,139,2,2024-06-13T06:11:37.684Z,english_542.wav,0,1,1513,,,,,0,0,-75.53633957,0.40538048
ZJY,139,2,2024-06-13T06:11:37.684Z,english_542.wav,0,1,1513,,,,,1,0.1,-65.83593262,1.98560632
ZJY,139,2,2024-06-13T06:11:37.684Z,english_542.wav,0,1,1513,,,,,2,0.2,-66.8010443,1.18970355
ZJY,139,2,2024-06-13T06:11:37.684Z,english_542.wav,0,1,1513,,,,,3,0.3,89.94318033,1.00543009
ZJY,139,2,2024-06-13T06:11:37.684Z,english_542.wav,0,1,1513,,,,,4,0.32341667,-28.80984484,1.15995836
ZJY,140,2,2024-06-13T06:11:37.684Z,english_683.wav,0,1,925,,,,,0,0,-73.37543508,1.70409633
ZJY,140,2,2024-06-13T06:11:37.684Z,english_683.wav,0,1,925,,,,,1,0.1,66.4080647,1.25556383
ZJY,140,2,2024-06-13T06:11:37.684Z,english_683.wav,0,1,925,,,,,2,0.2,46.46812351,0.87554738
ZJY,140,2,2024-06-13T06:11:37.684Z,english_683.wav,0,1,925,,,,,3,0.3,71.67755016,1.32863005
ZJY,140,2,2024-06-13T06:11:37.684Z,english_683.wav,0,1,925,,,,,4,0.32341667,2.86253031,0.20364682
ZJY,141,2,2024-06-13T06:11:37.684Z,english_492.wav,0,1,1391,,,,,0,0,-66.2832746,0.52930651
ZJY,141,2,2024-06-13T06:11:37.684Z,english_492.wav,0,1,1391,,,,,1,0.1,-19.36008054,1.11739795
ZJY,141,2,2024-06-13T06:11:37.684Z,english_492.wav,0,1,1391,,,,,2,0.2,95.25769545,1.86018292
ZJY,141,2,2024-06-13T06:11:37.684Z,english_492.wav,0,1,1391,,,,,3,0.3,-42.69351484,0.07313262
ZJY,141,2,2024-06-13T06:11:37.684Z,english_492.wav,0,1,1391,,,,,4,0.32341667,48.13359561,0.30480454
ZJY,142,2,2024-06-13T06:11:37.684Z,english_832.wav,0,0,1951,,,,,0,0,-21.62855277,1.31372842
ZJY,142,2,2024-06-13T06:11:37.684Z,english_832.wav,0,0,1951,,,,,1,0.1,-35.3834786,1.55258378
ZJY,142,2,2024-06-13T06:11:37.684Z,english_832.wav,0,0,1951,,,,,2,0.2,52.65867494,1.50567803
ZJY,142,2,2024-06-13T06:11:37.684Z,english_832.wav,0,0,1951,,,,,3,0.3,62.52082964,1.2163301
ZJY,142,2,2024-06-13T06:11:37.684Z,english_832.wav,0,0,1951,,,,,4,0.32341667,46.66062952,1.20100353
ZJY,143,2,2024-06-13T06:11:37.684Z,english_48.wav,0,1,1001,,,,,0,0,73.79399561,0.74385981
ZJY,143,2,2024-06-13T06:11:37.684Z,english_48.wav,0,1,1001,,,,,1,0.1,-6.33056249,1.05457567
ZJY,143,2,2024-06-13T06:11:37.684Z,english_48.wav,0,1,1001,,,,,2,0.2,-25.55346814,0.45493163
ZJY,143,2,2024-06-13T06:11:37.684Z,english_48.wav,0,1,1001,,,,,3,0.3,46.43305776,0.06513279
ZJY,143,2,2024-06-13T06:11:37.684Z,english_48.wav,0,1,1001,,,,,4,0.32341667,-46.56414761,0.46755714
ZJY,144,2,2024-06-13T06:11:37.684Z,english_475.wav,0,1,341,,,,,0,0,-68.25626322,0.40988158
ZJY,144,2,2024-06-13T06:11:37.684Z,english_475.wav,0,1,341,,,,,1,0.1,-56.46648788,1.90107213
ZJY,144,2,2024-06-13T06:11:37.684Z,english_475.wav,0,1,341,,,,,2,0.2,49.77560279,0.54721615
ZJY,144,2,2024-06-13T06:11:37.684Z,english_475.wav,0,1,341,,,,,3,0.3,-41.74178488,1.80730726
ZJY,144,2,2024-06-13T06:11:37.684Z,english_475.wav,0,1,341,,,,,4,0.32341667,-60.3255454,0.11427958
ZJY,145,2,2024-06-13T06:11:37.684Z,english_834.wav,0,1,573,,,,,0,0,-64.94927172,0.98752234
ZJY,145,2,2024-06-13T06:11:37.684Z,english_834.wav,0,1,573,,,,,1,0.1,49.61052881,1.31122352
ZJY,145,2,2024-06-13T06:11:37.684Z,english_834.wav,0,1,573,,,,,2,0.2,-25.04715585,0.09065599
ZJY,145,2,2024-06-13T06:11:37.684Z,english_834.wav,0,1,573,,,,,3,0.3,95.09819394,1.07854905
ZJY,145,2,2024-06-13T06:11:37.684Z,english_834.wav,0,1,573,,,,,4,0.32341667,84.16953653,1.76453498
ZJY,146,2,2024-06-13T06:11:37.684Z,english_327.wav,0,1,607,,,,,0,0,-65.34261839,0.94624792
ZJY,146,2,2024-06-13T06:11:37.684Z,english_327.wav,0,1,607,,,,,1,0.1,-88.88296173,0.88463276
ZJY,146,2,2024-06-13T06:11:37.684Z,english_327.wav,0,1,607,,,,,2,0.2,-52.48624316,0.8064175
ZJY,146,2,2024-06-13T06:11:37.684Z,english_327.wav,0,1,607,,,,,3,0.3,35.3894457,1.08656597
ZJY,146,2,2024-06-13T06:11:37.684Z,english_327.wav,0,1,607,,,,,4,0.32341667,-31.26503482,0.95323019
ZJY,147,2,2024-06-13T06:11:37.684Z,english_142.wav,0,1,411,,,,,0,0,-46.59943425,0.40064358
ZJY,147,2,2024-06-13T06:11:37.684Z,english_142.wav,0,1,411,,,,,1,0.1,63.17145436,0.61162855
ZJY,147,2,2024-06-13T06:11:37.684Z,english_142.wav,0,1,411,,,,,2,0.2,73.87775976,0.23189939
ZJY,147,2,2024-06-13T06:11:37.684Z,english_142.wav,0,1,411,,,,,3,0.3,-84.55157756,1.54635995
ZJY,147,2,2024-06-13T06:11:37.684Z,english_142.wav,0,1,411,,,,,4,0.32341667,20.35536038,1.86221744
ZJY,148,2,2024-06-13T06:11:37.684Z,english_919.wav,0,1,2110,,,,,0,0,-78.03270024,1.18744007
ZJY,148,2,2024-06-13T06:11:37.684Z,english_919.wav,0,1,2110,,,,,1,0.1,24.9634274,0.32639994
ZJY,148,2,2024-06-13T06:11:37.684Z,english_919.wav,0,1,2110,,,,,2,0.2,-36.24618286,1.14830442
ZJY,148,2,2024-06-13T06:11:37.684Z,english_919.wav,0,1,2110,,,,,3,0.3,-67.38261266,0.75322619
ZJY,148,2,2024-06-13T06:11:37.684Z,english_919.wav,0,1,2110,,,,,4,0.32341667,86.21803917,0.69239757
ZJY,149,2,2024-06-13T06:11:37.684Z,english_415.wav,0,1,1274,,,,,0,0,36.00223879,1.49199547
ZJY,149,2,2024-06-13T06:11:37.684Z,english_415.wav,0,1,1274,,,,,1,0.1,-82.63332374,1.79959711
ZJY,149,2,2024-06-13T06:11:37.684Z,english_415.wav,0,1,1274,,,,,2,0.2,57.55038703,0.64689267
ZJY,149,2,2024-06-13T06:11:37.684Z,english_415.wav,0,1,1274,,,,,3,0.3,-9.83064734,0.31881377
ZJY,149,2,2024-06-13T06:11:37.684Z,english_415.wav,0,1,1274,,,,,4,0.32341667,-29.78573939,0.18568486
ZJY,150,3,2024-06-13T06:11:37.684Z,english_686.wav,0,1,2899,,,,,0,0,-30.40223154,0.36787347
ZJY,150,3,2024-06-13T06:11:37.684Z,english_686.wav,0,1,2899,,,,,1,0.1,40.30213926,1.54584144
ZJY,150,3,2024-06-13T06:11:37.684Z,english_686.wav,0,1,2899,,,,,2,0.2,68.68183252,1.54645212
ZJY,150,3,2024-06-13T06:11:37.684Z,english_686.wav,0,1,2899,,,,,3,0.3,82.36920372,1.04035585
ZJY,150,3,2024-06-13T06:11:37.684Z,english_686.wav,0,1,2899,,,,,4,0.32341667,5.8000707,1.51520661
ZJY,151,3,2024-06-13T06:11:37.684Z,english_160.wav,0,1,665,,,,,0,0,2.54964477,0.54357393
ZJY,151,3,2024-06-13T06:11:37.684Z,english_160.wav,0,1,665,,,,,1,0.1,26.84692557,1.29343216
ZJY,151,3,2024-06-13T06:11:37.684Z,english_160.wav,0,1,665,,,,,2,0.2,72.58457191,0.42070854
ZJY,151,3,2024-06-13T06:11:37.684Z,english_160.wav,0,1,665,,,,,3,0.3,-6.94481249,1.04489529
ZJY,151,3,2024-06-13T06:11:37.684Z,english_160.wav,0,1,665,,,,,4,0.32341667,35.80656171,0.26802137
ZJY,152,3,2024-06-13T06:11:37.684Z,english_225.wav,0,1,1330,,,,,0,0,66.72796839,1.97535322
ZJY,152,3,2024-06-13T06:11:37.684Z,english_225.wav,0,1,1330,,,,,1,0.1,3.03768966,1.18784527
ZJY,152,3,2024-06-13T06:11:37.684Z,english_225.wav,0,1,1330,,,,,2,0.2,-45.96345052,1.58393351
ZJY,152,3,2024-06-13T06:11:37.684Z,english_225.wav,0,1,1330,,,,,3,0.3,-88.14676012,1.17885171
ZJY,152,3,2024-06-13T06:11:37.684Z,english_225.wav,0,1,1330,,,,,4,0.32341667,46.76760659,1.387907
ZJY,153,3,2024-06-13T06:11:37.684Z,english_283.wav,0,1,822,,,,,0,0,-27.01977409,1.23470843
ZJY,153,3,2024-06-13T06:11:37.684Z,english_283.wav,0,1,822,,,,,1,0.1,-58.6063919,0.41737987
ZJY,153,3,2024-06-13T06:11:37.684Z,english_283.wav,0,1,822,,,,,2,0.2,36.15867228,0.64455365
ZJY,153,3,2024-06-13T06:11:37.684Z,english_283.wav,0,1,822,,,,,3,0.3,-77.91689069,1.80541824
ZJY,153,3,2024-06-13T06:11:37.684Z,english_283.wav,0,1,822,,,,,4,0.32341667,-77.99680679,1.86024907
ZJY,154,3,2024-06-13T06:11:37.684Z,english_615.wav,0,1,203,,,,,0,0,76.05955912,1.68553334
ZJY,154,3,2024-06-13T06:11:37.684Z,english_615.wav,0,1,203,,,,,1,0.1,54.62950786,1.5058876
ZJY,154,3,2024-06-13T06:11:37.684Z,english_615.wav,0,1,203,,,,,2,0.2,-31.02204933,1.66676809
ZJY,154,3,2024-06-13T06:11:37.684Z,english_615.wav,0,1,203,,,,,3,0.3,-3.27946314,1.09840801
ZJY,154,3,2024-06-13T06:11:37.684Z,english_615.wav,0,1,203,,,,,4,0.32341667,51.350795,0.25314986
ZJY,155,3,2024-06-13T06:11:37.684Z,english_963.wav,0,1,747,,,,,0,0,-60.03327616,0.86711865
ZJY,155,3,2024-06-13T06:11:37.684Z,english_963.wav,0,1,747,,,,,1,0.1,-15.51067414,1.69273621
ZJY,155,3,2024-06-13T06:11:37.684Z,english_963.wav,0,1,747,,,,,2,0.2,59.36715957,0.74157302
ZJY,155,3,2024-06-13T06:11:37.684Z,english_963.wav,0,1,747,,,,,3,0.3,-98.70464219,1.73078555
ZJY,155,3,2024-06-13T06:11:37.684Z,english_963.wav,0,1,747,,,,,4,0.32341667,37.26723218,1.37482324
ZJY,156,3,2024-06-13T06:11:37.684Z,english_404.wav,0,1,314,,,,,0,0,32.93077195,0.80618862
ZJY,156,3,2024-06-13T06:11:37.684Z,english_404.wav,0,1,314,,,,,1,0.1,51.79107477,1.03327995
ZJY,156,3,2024-06-13T06:11:37.684Z,english_404.wav,0,1,314,,,,,2,0.2,-61.91466198,1.39590152
ZJY,156,3,2024-06-13T06:11:37.684Z,english_404.wav,0,1,314,,,,,3,0.3,33.45957754,1.8615638
ZJY,156,3,2024-06-13T06:11:37.684Z,english_404.wav,0,1,314,,,,,4,0.32341667,-82.23793256,0.80137687
ZJY,157,3,2024-06-13T06:11:37.684Z,english_805.wav,0,0,986,,,,,0,0,-11.97504695,0.06029378
ZJY,157,3,2024-06-13T06:11:37.684Z,english_805.wav,0,0,986,,,,,1,0.1,96.82911573,0.81391401
ZJY,157,3,2024-06-13T06:11:37.684Z,english_805.wav,0,0,986,,,,,2,0.2,7.51835152,1.33531055
ZJY,157,3,2024-06-13T06:11:37.684Z,english_805.wav,0,0,986,,,,,3,0.3,2.47378187,1.7608484
ZJY,157,3,2024-06-13T06:11:37.684Z,english_805.wav,0,0,986,,,,,4,0.32341667,-43.26336213,1.4289718
ZJY,158,3,2024-06-13T06:11:37.684Z,english_196.wav,0,0,525,,,,,0,0,-86.38202104,1.63362226
ZJY,158,3,2024-06-13T06:11:37.684Z,english_196.wav,0,0,525,,,,,1,0.1,0.95731439,1.36148231
ZJY,158,3,2024-06-13T06:11:37.684Z,english_196.wav,0,0,525,,,,,2,0.2,-48.4797064,0.68683683
ZJY,158,3,2024-06-13T06:11:37.684Z,english_196.wav,0,0,525,,,,,3,0.3,50.57477866,1.59869277
ZJY,158,3,2024-06-13T06:11:37.684Z,english_196.wav,0,0,525,,,,,4,0.32341667,-52.07184875,0.40963154
ZJY,159,3,2024-06-13T06:11:37.684Z,english_956.wav,0,1,799,,,,,0,0,-98.71257913,1.5828524
ZJY,159,3,2024-06-13T06:11:37.684Z,english_956.wav,0,1,799,,,,,1,0.1,-36.05702295,0.66985857
ZJY,159,3,2024-06-13T06:11:37.684Z,english_956.wav,0,1,799,,,,,2,0.2,-31.95582623,0.13798036
ZJY,159,3,2024-06-13T06:11:37.684Z,english_956.wav,0,1,799,,,,,3,0.3,-81.31295359,0.22663358
ZJY,159,3,2024-06-13T06:11:37.684Z,english_956.wav,0,1,799,,,,,4,0.32341667,45.09425789,0.54862974
ZJY,160,3,2024-06-13T06:11:37.684Z,english_730.wav,0,0,388,,,,,0,0,12.15035978,0.91227818
ZJY,160,3,2024-06-13T06:11:37.684Z,english_730.wav,0,0,388,,,,,1,0.1,-56.22765555,1.17022701
ZJY,160,3,2024-06-13T06:11:37.684Z,english_730.wav,0,0,388,,,,,2,0.2,-53.26534685,0.58034143
ZJY,160,3,2024-06-13T06:11:37.684Z,english_730.wav,0,0,388,,,,,3,0.3,-25.75230742,1.9562998
ZJY,160,3,2024-06-13T06:11:37.684Z,english_730.wav,0,0,388,,,,,4,0.32341667,-73.04726616,1.99538846
ZJY,161,3,2024-06-13T06:11:37.684Z,english_932.wav,0,1,318,,,,,0,0,-3.8848098,1.00949787
ZJY,161,3,2024-06-13T06:11:37.684Z,english_932.wav,0,1,318,,,,,1,0.1,-32.48916274,1.44703087
ZJY,161,3,2024-06-13T06:11:37.684Z,english_932.wav,0,1,318,,,,,2,0.2,81.26251807,0.10808594
ZJY,161,3,2024-06-13T06:11:37.684Z,english_932.wav,0,1,318,,,,,3,0.3,-18.23478105,0.03465182
ZJY,161,3,2024-06-13T06:11:37.684Z,english_932.wav,0,1,318,,,,,4,0.32341667,7.90132089,0.79845554
ZJY,162,3,2024-06-13T06:11:37.684Z,english_394.wav,0,0,300,,,,,0,0,73.08757955,1.29313131
ZJY,162,3,2024-06-13T06:11:37.684Z,english_394.wav,0,0,300,,,,,1,0.1,5.60908311,0.62691873
ZJY,162,3,2024-06-13T06:11:37.684Z,english_394.wav,0,0,300,,,,,2,0.2,76.56705043,1.4938005
ZJY,162,3,2024-06-13T06:11:37.684Z,english_394.wav,0,0,300,,,,,3,0.3,18.85166324,1.2266925
ZJY,162,3,2024-06-13T06:11:37.684Z,english_394.wav,0,0,300,,,,,4,0.32341667,8.45052692,0.67844158
ZJY,163,3,2024-06-13T06:11:37.684Z,english_552.wav,0,1,277,,,,,0,0,-54.22317773,0.14479657
ZJY,163,3,2024-06-13T06:11:37.684Z,english_552.wav,0,1,277,,,,,1,0.1,23.75537749,1.96762023
ZJY,163,3,2024-06-13T06:11:37.684Z,english_552.wav,0,1,277,,,,,2,0.2,-67.43154965,0.75812729
ZJY,163,3,2024-06-13T06:11:37.684Z,english_552.wav,0,1,277,,,,,3,0.3,-83.62242399,0.84420129
ZJY,163,3,2024-06-13T06:11:37.684Z,english_552.wav,0,1,277,,,,,4,0.32341667,64.2322812,0.73382384
ZJY,164,3,2024-06-13T06:11:37.684Z,english_268.wav,0,0,309,,,,,0,0,55.18591224,1.47327052
ZJY,164,3,2024-06-13T06:11:37.684Z,english_268.wav,0,0,309,,,,,1,0.1,47.37483414,0.95932673
ZJY,164,3,2024-06-13T06:11:37.684Z,english_268.wav,0,0,309,,,,,2,0.2,46.97410588,1.80275919
ZJY,164,3,2024-06-13T06:11:37.684Z,english_268.wav,0,0,309,,,,,3,0.3,-64.08979313,1.6474991
ZJY,164,3,2024-06-13T06:11:37.684Z,english_268.wav,0,0,309,,,,,4,0.32341667,35.8590447,1.56533667
ZJY,165,3,2024-06-13T06:11:37.684Z,english_700.wav,0,1,260,,,,,0,0,-76.89056698,0.13963816
ZJY,165,3,2024-06-13T06:11:37.684Z,english_700.wav,0,1,260,,,,,1,0.1,-93.17552037,0.76842729
ZJY,165,3,2024-06-13T06:11:37.684Z,english_700.wav,0,1,260,,,,,2,0.2,51.24439156,0.49149542
ZJY,165,3,2024-06-13T06:11:37.684Z,english_700.wav,0,1,260,,,,,3,0.3,89.4516499,1.08714417
ZJY,165,3,2024-06-13T06:11:37.684Z,english_700.wav,0,1,260,,,,,4,0.32341667,-68.48659069,1.35188588
ZJY,166,3,2024-06-13T06:11:37.684Z,english_186.wav,0,0,69,,,,,0,0,-54.7664391,1.87021502
ZJY,166,3,2024-06-13T06:11:37.684Z,english_186.wav,0,0,69,,,,,1,0.1,-8.4263529,1.36390049
ZJY,166,3,2024-06-13T06:11:37.684Z,english_186.wav,0,0,69,,,,,2,0.2,6.22451559,1.69942617
ZJY,166,3,2024-06-13T06:11:37.684Z,english_186.wav,0,0,69,,,,,3,0.3,-12.35671223,1.8066537
ZJY,166,3,2024-06-13T06:11:37.684Z,english_186.wav,0,0,69,,,,,4,0.32341667,86.21839615,1.2511354
ZJY,167,3,2024-06-13T06:11:37.684Z,english_135.wav,0,1,300,,,,,0,0,92.53632507,0.8813083
ZJY,167,3,2024-06-13T06:11:37.684Z,english_135.wav,0,1,300,,,,,1,0.1,42.68843281,1.60503348
ZJY,167,3,2024-06-13T06:11:37.684Z,english_135.wav,0,1,300,,,,,2,0.2,87.27237188,0.22265806
ZJY,167,3,2024-06-13T06:11:37.684Z,english_135.wav,0,1,300,,,,,3,0.3,-70.62725941,0.4233462
ZJY,167,3,2024-06-13T06:11:37.684Z,english_135.wav,0,1,300,,,,,4,0.32341667,91.37204548,0.99500327
ZJY,168,3,2024-06-13T06:11:37.684Z,english_517.wav,0,0,269,,,,,0,0,11.23661905,0.76208972
ZJY,168,3,2024-06-13T06:11:37.684Z,english_517.wav,0,0,269,,,,,1,0.1,58.81241605,0.18193562
ZJY,168,3,2024-06-13T06:11:37.684Z,english_517.wav,0,0,269,,,,,2,0.2,38.38790279,1.85963831
ZJY,168,3,2024-06-13T06:11:37.684Z,english_517.wav,0,0,269,,,,,3,0.3,-74.61462092,0.20223028
ZJY,168,3,2024-06-13T06:11:37.684Z,english_517.wav,0,0,269,,,,,4,0.32341667,-36.69086471,1.46287498
ZJY,169,3,2024-06-13T06:11:37.684Z,english_619.wav,0,1,72,,,,,0,0,38.53351318,1.25542912
ZJY,169,3,2024-06-13T06:11:37.684Z,english_619.wav,0,1,72,,,,,1,0.1,-11.21157995,0.83005785
ZJY,169,3,2024-06-13T06:11:37.684Z,english_619.wav,0,1,72,,,,,2,0.2,29.79887689,1.51254928
ZJY,169,3,2024-06-13T06:11:37.684Z,english_619.wav,0,1,72,,,,,3,0.3,48.6384615,0.37972577
ZJY,169,3,2024-06-13T06:11:37.684Z,english_619.wav,0,1,72,,,,,4,0.32341667,-66.5905708,0.44889873
ZJY,170,3,2024-06-13T06:11:37.684Z,english_206.wav,0,1,1544,,,,,0,0,29.86029141,0.9413203
ZJY,170,3,2024-06-13T06:11:37.684Z,english_206.wav,0,1,1544,,,,,1,0.1,-65.49550847,1.58501733
ZJY,170,3,2024-06-13T06:11:37.684Z,english_206.wav,0,1,1544,,,,,2,0.2,-8.37849199,1.84833856
ZJY,170,3,2024-06-13T06:11:37.684Z,english_206.wav,0,1,1544,,,,,3,0.3,16.32170521,1.12864021
ZJY,170,3,2024-06-13T06:11:37.684Z,english_206.wav,0,1,1544,,,,,4,0.32341667,-96.55544023,0.85017735
ZJY,171,3,2024-06-13T06:11:37.684Z,english_790.wav,0,1,410,,,,,0,0,51.18493756,0.66657869
ZJY,171,3,2024-06-13T06:11:37.684Z,english_790.wav,0,1,410,,,,,1,0.1,-64.70105349,0.91857876
ZJY,171,3,2024-06-13T06:11:37.684Z,english_790.wav,0,1,410,,,,,2,0.2,-90.57968214,1.26779222
ZJY,171,3,2024-06-13T06:11:37.684Z,english_790.wav,0,1,410,,,,,3,0.3,-94.64625917,1.54144859
ZJY,171,3,2024-06-13T06:11:37.684Z,english_790.wav,0,1,410,,,,,4,0.32341667,-38.85953331,1.32367104
ZJY,172,3,2024-06-13T06:11:37.684Z,english_957.wav,0,1,537,,,,,0,0,-8.34255742,0.77577071
ZJY,172,3,2024-06-13T06:11:37.684Z,english_957.wav,0,1,537,,,,,1,0.1,-36.8236739,1.35435363
ZJY,172,3,2024-06-13T06:11:37.684Z,english_957.wav,0,1,537,,,,,2,0.2,6.68978896,0.94592229
ZJY,172,3,2024-06-13T06:11:37.684Z,english_957.wav,0,1,537,,,,,3,0.3,-85.51463088,0.8988777
ZJY,172,3,2024-06-13T06:11:37.684Z,english_957.wav,0,1,537,,,,,4,0.32341667,-16.82289389,0.34403417
ZJY,173,3,2024-06-13T06:11:37.684Z,english_722.wav,0,1,1728,,,,,0,0,56.33358757,0.09194264
ZJY,173,3,2024-06-13T06:11:37.684Z,english_722.wav,0,1,1728,,,,,1,0.1,-63.11389498,1.89550133
ZJY,173,3,2024-06-13T06:11:37.684Z,english_722.wav,0,1,1728,,,,,2,0.2,65.64746862,0.18403216
ZJY,173,3,2024-06-13T06:11:37.684Z,english_722.wav,0,1,1728,,,,,3,0.3,-93.10605514,1.23223326
ZJY,173,3,2024-06-13T06:11:37.684Z,english_722.wav,0,1,1728,,,,,4,0.32341667,-45.92743551,0.28331892
ZJY,174,3,2024-06-13T06:11:37.684Z,english_674.wav,0,1,366,,,,,0,0,-38.60253285,0.25488683
ZJY,174,3,2024-06-13T06:11:37.684Z,english_674.wav,0,1,366,,,,,1,0.1,46.14948962,1.80679583
ZJY,174,3,2024-06-13T06:11:37.684Z,english_674.wav,0,1,366,,,,,2,0.2,-49.76414787,1.59420413
ZJY,174,3,2024-06-13T06:11:37.684Z,english_674.wav,0,1,366,,,,,3,0.3,-66.16492387,1.25714797
ZJY,174,3,2024-06-13T06:11:37.684Z,english_674.wav,0,1,366,,,,,4,0.32341667,28.37583826,1.20557216
ZJY,175,3,2024-06-13T06:11:37.684Z,english_803.wav,0,0,520,,,,,0,0,8.73756077,1.22190991
ZJY,175,3,2024-06-13T06:11:37.684Z,english_803.wav,0,0,520,,,,,1,0.1,-41.53503623,1.08276728
ZJY,175,3,2024-06-13T06:11:37.684Z,english_803.wav,0,0,520,,,,,2,0.2,-84.76471985,1.59545905
ZJY,175,3,2024-06-13T06:11:37.684Z,english_803.wav,0,0,520,,,,,3,0.3,-27.96408635,1.3875394
ZJY,175,3,2024-06-13T06:11:37.684Z,english_803.wav,0,0,520,,,,,4,0.32341667,72.02290108,0.92287786
ZJY,176,3,2024-06-13T06:11:37.684Z,english_422.wav,0,1,720,,,,,0,0,-79.81150205,1.34332733
ZJY,176,3,2024-06-13T06:11:37.684Z,english_422.wav,0,1,720,,,,,1,0.1,-2.02836706,0.77514932
ZJY,176,3,2024-06-13T06:11:37.684Z,english_422.wav,0,1,720,,,,,2,0.2,-11.18998235,0.33214039
ZJY,176,3,2024-06-13T06:11:37.684Z,english_422.wav,0,1,720,,,,,3,0.3,52.04958687,0.53493982
ZJY,176,3,2024-06-13T06:11:37.684Z,english_422.wav,0,1,720,,,,,4,0.32341667,-63.48776447,0.45685022
ZJY,177,3,2024-06-13T06:11:37.684Z,english_166.wav,0,1,675,,,,,0,0,37.27670025,1.42766663
ZJY,177,3,2024-06-13T06:11:37.684Z,english_166.wav,0,1,675,,,,,1,0.1,34.38847046,0.72731767
ZJY,177,3,2024-06-13T06:11:37.684Z,english_166.wav,0,1,675,,,,,2,0.2,49.91842175,1.80608275
ZJY,177,3,2024-06-13T06:11:37.684Z,english_166.wav,0,1,675,,,,,3,0.3,56.9541748,1.91598421
ZJY,177,3,2024-06-13T06:11:37.684Z,english_166.wav,0,1,675,,,,,4,0.32341667,10.97290623,1.21084105
ZJY,178,3,2024-06-13T06:11:37.684Z,english_429.wav,0,1,1398,,,,,0,0,-70.82827187,0.34305232
ZJY,178,3,2024-06-13T06:11:37.684Z,english_429.wav,0,1,1398,,,,,1,0.1,79.2644825,1.15525787
ZJY,178,3,2024-06-13T06:11:37.684Z,english_429.wav,0,1,1398,,,,,2,0.2,14.29027084,1.85610569
ZJY,178,3,2024-06-13T06:11:37.684Z,english_429.wav,0,1,1398,,,,,3,0.3,-47.65971945,0.19828098
ZJY,178,3,2024-06-13T06:11:37.684Z,english_429.wav,0,1,1398,,,,,4,0.32341667,8.9954872,1.51767034
ZJY,179,3,2024-06-13T06:11:37.684Z,english_331.wav,0,1,468,,,,,0,0,12.66323204,1.93220763
ZJY,179,3,2024-06-13T06:11:37.684Z,english_331.wav,0,1,468,,,,,1,0.1,-81.78605138,1.48237299
ZJY,179,3,2024-06-13T06:11:37.684Z,english_331.wav,0,1,468,,,,,2,0.2,59.07546792,1.15413743
ZJY,179,3,2024-06-13T06:11:37.684Z,english_331.wav,0,1,468,,,,,3,0.3,-83.73170191,1.02182823
ZJY,179,3,2024-06-13T06:11:37.684Z,english_331.wav,0,1,468,,,,,4,0.32341667,3.10587362,0.81670354
ZJY,180,3,2024-06-13T06:11:37.684Z,english_595.wav,0,1,304,,,,,0,0,-39.84727911,1.6526444
ZJY,180,3,2024-06-13T06:11:37.684Z,english_595.wav,0,1,304,,,,,1,0.1,-68.85607622,1.11711065
ZJY,180,3,2024-06-13T06:11:37.684Z,english_595.wav,0,1,304,,,,,2,0.2,23.68364187,1.96516016
ZJY,180,3,2024-06-13T06:11:37.684Z,english_595.wav,0,1,304,,,,,3,0.3,-80.51887658,0.34053421
ZJY,180,3,2024-06-13T06:11:37.684Z,english_595.wav,0,1,304,,,,,4,0.32341667,-94.66311932,1.22603371
ZJY,181,3,2024-06-13T06:11:37.684Z,english_988.wav,0,0,1056,,,,,0,0,23.53561789,0.18772999
ZJY,181,3,2024-06-13T06:11:37.684Z,english_988.wav,0,0,1056,,,,,1,0.1,39.09545525,0.71537172
ZJY,181,3,2024-06-13T06:11:37.684Z,english_988.wav,0,0,1056,,,,,2,0.2,-32.2225044,0.50944864
ZJY,181,3,2024-06-13T06:11:37.684Z,english_988.wav,0,0,1056,,,,,3,0.3,5.54449519,0.59930705
ZJY,181,3,2024-06-13T06:11:37.684Z,english_988.wav,0,0,1056,,,,,4,0.32341667,-94.58480047,1.43881296
ZJY,182,3,2024-06-13T06:11:37.684Z,english_332.wav,0,1,426,,,,,0,0,-51.41680869,1.58782391
ZJY,182,3,2024-06-13T06:11:37.684Z,english_332.wav,0,1,426,,,,,1,0.1,4.985172,0.72138411
ZJY,182,3,2024-06-13T06:11:37.684Z,english_332.wav,0,1,426,,,,,2,0.2,88.20327684,1.12265768
ZJY,182,3,2024-06-13T06:11:37.684Z,english_332.wav,0,1,426,,,,,3,0.3,-58.40734817,0.23569111
ZJY,182,3,2024-06-13T06:11:37.684Z,english_332.wav,0,1,426,,,,,4,0.32341667,68.30800912,1.23583309
ZJY,183,3,2024-06-13T06:11:37.684Z,english_86.wav,0,1,77,,,,,0,0,-48.59393833,1.45450552
ZJY,183,3,2024-06-13T06:11:37.684Z,english_86.wav,0,1,77,,,,,1,0.1,77.37095157,1.8635573
ZJY,183,3,2024-06-13T06:11:37.684Z,english_86.wav,0,1,77,,,,,2,0.2,44.19816726,1.174515
ZJY,183,3,2024-06-13T06:11:37.684Z,english_86.wav,0,1,77,,,,,3,0.3,-99.780271,1.46785746
ZJY,183,3,2024-06-13T06:11:37.684Z,english_86.wav,0,1,77,,,,,4,0.32341667,38.96545556,0.99607158
ZJY,184,3,2024-06-13T06:11:37.684Z,english_411.wav,0,1,265,,,,,0,0,75.357241,0.83773649
ZJY,184,3,2024-06-13T06:11:37.684Z,english_411.wav,0,1,265,,,,,1,0.1,-55.75688593,0.80885485
ZJY,184,3,2024-06-13T06:11:37.684Z,english_411.wav,0,1,265,,,,,2,0.2,61.10111178,0.61144368
ZJY,184,3,2024-06-13T06:11:37.684Z,english_411.wav,0,1,265,,,,,3,0.3,90.25367142,0.73863407
ZJY,184,3,2024-06-13T06:11:37.684Z,english_411.wav,0,1,265,,,,,4,0.32341667,26.85831553,0.4624235
ZJY,185,3,2024-06-13T06:11:37.684Z,english_602.wav,0,1,192,,,,,0,0,-53.18857274,1.95117352
ZJY,185,3,2024-06-13T06:11:37.684Z,english_602.wav,0,1,192,,,,,1,0.1,-52.96167371,1.1427253
ZJY,185,3,2024-06-13T06:11:37.684Z,english_602.wav,0,1,192,,,,,2,0.2,38.20784676,1.10694813
ZJY,185,3,2024-06-13T06:11:37.684Z,english_602.wav,0,1,192,,,,,3,0.3,46.0178344,0.8717932
ZJY,185,3,2024-06-13T06:11:37.684Z,english_602.wav,0,1,192,,,,,4,0.32341667,78.11630752,0.71626065
ZJY,186,3,2024-06-13T06:11:37.684Z,english_219.wav,0,0,1356,,,,,0,0,38.40040381,1.09142553
ZJY,186,3,2024-06-13T06:11:37.684Z,english_219.wav,0,0,1356,,,,,1,0.1,-26.23926727,0.5740428
ZJY,186,3,2024-06-13T06:11:37.684Z,english_219.wav,0,0,1356,,,,,2,0.2,-57.67558578,1.19056911
ZJY,186,3,2024-06-13T06:11:37.684Z,english_219.wav,0,0,1356,,,,,3,0.3,50.56926795,1.87089358
ZJY,186,3,2024-06-13T06:11:37.684Z,english_219.wav,0,0,1356,,,,,4,0.32341667,64.39220397,1.06933149
ZJY,187,3,2024-06-13T06:11:37.684Z,english_611.wav,0,1,337,,,,,0,0,4.04989913,1.48647041
ZJY,187,3,2024-06-13T06:11:37.684Z,english_611.wav,0,1,337,,,,,1,0.1,-26.35519993,0.87297853
ZJY,187,3,2024-06-13T06:11:37.684Z,english_611.wav,0,1,337,,,,,2,0.2,-41.22744209,0.91907267
ZJY,187,3,2024-06-13T06:11:37.684Z,english_611.wav,0,1,337,,,,,3,0.3,-72.41198747,0.12624761
ZJY,187,3,2024-06-13T06:11:37.684Z,english_611.wav,0,1,337,,,,,4,0.32341667,-60.09703168,0.964981
ZJY,188,3,2024-06-13T06:11:37.684Z,english_33.wav,0,0,449,,,,,0,0,13.53683954,1.37746345
ZJY,188,3,2024-06-13T06:11:37.684Z,english_33.wav,0,0,449,,,,,1,0.1,-23.61599557,1.14776292
ZJY,188,3,2024-06-13T06:11:37.684Z,english_33.wav,0,0,449,,,,,2,0.2,60.58241295,1.15899553
ZJY,188,3,2024-06-13T06:11:37.684Z,english_33.wav,0,0,449,,,,,3,0.3,-2.03686091,0.64766031
ZJY,188,3,2024-06-13T06:11:37.684Z,english_33.wav,0,0,449,,,,,4,0.32341667,79.90239576,1.69768968
ZJY,189,3,2024-06-13T06:11:37.684Z,english_541.wav,0,1,237,,,,,0,0,-20.13323906,0.51383156
ZJY,189,3,2024-06-13T06:11:37.684Z,english_541.wav,0,1,237,,,,,1,0.1,2.48768759,0.65082056
ZJY,189,3,2024-06-13T06:11:37.684Z,english_541.wav,0,1,237,,,,,2,0.2,-86.20966861,0.48716137
ZJY,189,3,2024-06-13T06:11:37.684Z,english_541.wav,0,1,237,,,,,3,0.3,59.01445297,0.54905673
ZJY,189,3,2024-06-13T06:11:37.684Z,english_541.wav,0,1,237,,,,,4,0.32341667,61.23853539,1.76268899
ZJY,190,3,2024-06-13T06:11:37.684Z,english_260.wav,0,0,157,,,,,0,0,-45.73422918,1.75247731
ZJY,190,3,2024-06-13T06:11:37.684Z,english_260.wav,0,0,157,,,,,1,0.1,-23.757295,1.29821829
ZJY,190,3,2024-06-13T06:11:37.684Z,english_260.wav,0,0,157,,,,,2,0.2,-1.17180464,0.50372963
ZJY,190,3,2024-06-13T06:11:37.684Z,english_260.wav,0,0,157,,,,,3,0.3,42.98000529,1.19905143
ZJY,190,3,2024-06-13T06:11:37.684Z,english_260.wav,0,0,157,,,,,4,0.32341667,7.49715463,0.66690199
ZJY,191,3,2024-06-13T06:11:37.684Z,english_898.wav,0,1,1250,,,,,0,0,77.23607787,0.41308158
ZJY,191,3,2024-06-13T06:11:37.684Z,english_898.wav,0,1,1250,,,,,1,0.1,-36.99854877,1.59324842
ZJY,191,3,2024-06-13T06:11:37.684Z,english_898.wav,0,1,1250,,,,,2,0.2,16.09723403,1.42339693
ZJY,191,3,2024-06-13T06:11:37.684Z,english_898.wav,0,1,1250,,,,,3,0.3,29.12208023,1.17478291
ZJY,191,3,2024-06-13T06:11:37.684Z,english_898.wav,0,1,1250,,,,,4,0.32341667,-69.45423228,1.88393163
ZJY,192,3,2024-06-13T06:11:37.684Z,english_236.wav,0,0,274,,,,,0,0,14.26564849,0.89253674
ZJY,192,3,2024-06-13T06:11:37.684Z,english_236.wav,0,0,274,,,,,1,0.1,60.97219358,0.38957934
ZJY,192,3,2024-06-13T06:11:37.684Z,english_236.wav,0,0,274,,,,,2,0.2,-12.39626346,1.55558051
ZJY,192,3,2024-06-13T06:11:37.684Z,english_236.wav,0,0,274,,,,,3,0.3,-62.87774076,0.2682718
ZJY,192,3,2024-06-13T06:11:37.684Z,english_236.wav,0,0,274,,,,,4,0.32341667,-75.97684705,1.92182597
ZJY,193,3,2024-06-13T06:11:37.684Z,english_800.wav,0,1,1271,,,,,0,0,-9.91001254,0.13142639
ZJY,193,3,2024-06-13T06:11:37.684Z,english_800.wav,0,1,1271,,,,,1,0.1,-86.79409322,1.71040153
ZJY,193,3,2024-06-13T06:11:37.684Z,english_800.wav,0,1,1271,,,,,2,0.2,-27.39997365,0.18637657
ZJY,193,3,2024-06-13T06:11:37.684Z,english_800.wav,0,1,1271,,,,,3,0.3,13.46737707,1.09766523
ZJY,193,3,2024-06-13T06:11:37.684Z,english_800.wav,0,1,1271,,,,,4,0.32341667,-32.56208711,1.57940615
ZJY,194,3,2024-06-13T06:11:37.684Z,english_625.wav,0,0,570,,,,,0,0,25.70847239,1.1960971
ZJY,194,3,2024-06-13T06:11:37.684Z,english_625.wav,0,0,570,,,,,1,0.1,-37.82303983,0.02795501
ZJY,194,3,2024-06-13T06:11:37.684Z,english_625.wav,0,0,570,,,,,2,0.2,38.52328891,1.10198652
ZJY,194,3,2024-06-13T06:11:37.684Z,english_625.wav,0,0,570,,,,,3,0.3,-23.93667478,0.08852642
ZJY,194,3,2024-06-13T06:11:37.684Z,english_625.wav,0,0,570,,,,,4,0.32341667,-53.98326942,1.59813041
ZJY,195,3,2024-06-13T06:11:37.684Z,english_559.wav,0,1,384,,,,,0,0,72.91796617,0.28347303
ZJY,195,3,2024-06-13T06:11:37.684Z,english_559.wav,0,1,384,,,,,1,0.1,49.0763932,0.33705515
ZJY,195,3,2024-06-13T06:11:37.684Z,english_559.wav,0,1,384,,,,,2,0.2,37.36372944,1.25665906
ZJY,195,3,2024-06-13T06:11:37.684Z,english_559.wav,0,1,384,,,,,3,0.3,62.8744144,0.42135622
ZJY,195,3,2024-06-13T06:11:37.684Z,english_559.wav,0,1,384,,,,,4,0.32341667,-70.24316133,0.44445559
ZJY,196,3,2024-06-13T06:11:37.684Z,english_57.wav,0,0,242,,,,,0,0,-27.39668164,1.97835384
ZJY,196,3,2024-06-13T06:11:37.684Z,english_57.wav,0,0,242,,,,,1,0.1,63.52389761,0.69906452
ZJY,196,3,2024-06-13T06:11:37.684Z,english_57.wav,0,0,242,,,,,2,0.2,-55.42033209,0.75389415
ZJY,196,3,2024-06-13T06:11:37.684Z,english_57.wav,0,0,242,,,,,3,0.3,40.81906742,0.20375649
ZJY,196,3,2024-06-13T06:11:37.684Z,english_57.wav,0,0,242,,,,,4,0.32341667,-12.75543821,1.65585112
ZJY,197,3,2024-06-13T06:11:37.684Z,english_532.wav,0,0,333,,,,,0,0,-19.59321792,1.69826346
ZJY,197,3,2024-06-13T06:11:37.684Z,english_532.wav,0,0,333,,,,,1,0.1,84.44945775,1.19849103
ZJY,197,3,2024-06-13T06:11:37.684Z,english_532.wav,0,0,333,,,,,2,0.2,-5.6477907,0.05164805
ZJY,197,3,2024-06-13T06:11:37.684Z,english_532.wav,0,0,333,,,,,3,0.3,-66.11375502,0.74129516
ZJY,197,3,2024-06-13T06:11:37.684Z,english_532.wav,0,0,333,,,,,4,0.32341667,-46.16722618,0.11393119
ZJY,198,3,2024-06-13T06:11:37.684Z,english_921.wav,0,1,437,,,,,0,0,60.93482672,0.06624465
ZJY,198,3,2024-06-13T06:11:37.684Z,english_921.wav,0,1,437,,,,,1,0.1,-71.63665921,1.88925143
ZJY,198,3,2024-06-13T06:11:37.684Z,english_921.wav,0,1,437,,,,,2,0.2,-30.77028929,0.40013084
ZJY,198,3,2024-06-13T06:11:37.684Z,english_921.wav,0,1,437,,,,,3,0.3,-44.68164597,1.26601564
ZJY,198,3,2024-06-13T06:11:37.684Z,english_921.wav,0,1,437,,,,,4,0.32341667,34.59415858,1.98956357
ZJY,199,3,2024-06-13T06:11:37.684Z,english_400.wav,0,0,96,,,,,0,0,-9.17924521,1.06898792
ZJY,199,3,2024-06-13T06:11:37.684Z,english_400.wav,0,0,96,,,,,1,0.1,-51.0410118,0.05890524
ZJY,199,3,2024-06-13T06:11:37.684Z,english_400.wav,0,0,96,,,,,2,0.2,66.2548805,1.54728483
ZJY,199,3,2024-06-13T06:11:37.684Z,english_400.wav,0,0,96,,,,,3,0.3,92.33374018,1.43953162
ZJY,199,3,2024-06-13T06:11:37.684Z,english_400.wav,0,0,96,,,,,4,0.32341667,-60.80730989,1.12546459
ZJY,200,4,2024-06-13T06:11:37.684Z,english_623.wav,0,0,730,,,,,0,0,-23.54178515,1.91881792
ZJY,200,4,2024-06-13T06:11:37.684Z,english_623.wav,0,0,730,,,,,1,0.1,-47.52772515,0.99675119
ZJY,200,4,2024-06-13T06:11:37.684Z,english_623.wav,0,0,730,,,,,2,0.2,47.20668934,0.26332691
ZJY,200,4,2024-06-13T06:11:37.684Z,english_623.wav,0,0,730,,,,,3,0.3,-98.32001938,1.33317057
ZJY,200,4,2024-06-13T06:11:37.684Z,english_623.wav,0,0,730,,,,,4,0.32341667,-63.09014275,1.04211108
ZJY,201,4,2024-06-13T06:11:37.684Z,english_889.wav,0,1,896,,,,,0,0,-92.0683747,0.69619005
ZJY,201,4,2024-06-13T06:11:37.684Z,english_889.wav,0,1,896,,,,,1,0.1,92.92883541,1.46059979
ZJY,201,4,2024-06-13T06:11:37.684Z,english_889.wav,0,1,896,,,,,2,0.2,-38.78028918,1.13034103
ZJY,201,4,2024-06-13T06:11:37.684Z,english_889.wav,0,1,896,,,,,3,0.3,33.48812202,1.0639125
ZJY,201,4,2024-06-13T06:11:37.684Z,english_889.wav,0,1,896,,,,,4,0.32341667,68.79643169,0.42066581
ZJY,202,4,2024-06-13T06:11:37.684Z,english_244.wav,0,0,64,,,,,0,0,-70.20374383,1.65134166
ZJY,202,4,2024-06-13T06:11:37.684Z,english_244.wav,0,0,64,,,,,1,0.1,67.84882107,1.23738837
ZJY,202,4,2024-06-13T06:11:37.684Z,english_244.wav,0,0,64,,,,,2,0.2,0.61676271,0.90147553
ZJY,202,4,2024-06-13T06:11:37.684Z,english_244.wav,0,0,64,,,,,3,0.3,-96.58934439,1.79293216
ZJY,202,4,2024-06-13T06:11:37.684Z,english_244.wav,0,0,64,,,,,4,0.32341667,-77.46985837,1.15013727
ZJY,203,4,2024-06-13T06:11:37.684Z,english_677.wav,0,1,112,,,,,0,0,74.92499355,0.4070184
ZJY,203,4,2024-06-13T06:11:37.684Z,english_677.wav,0,1,112,,,,,1,0.1,35.44886391,0.82737557
ZJY,203,4,2024-06-13T06:11:37.684Z,english_677.wav,0,1,112,,,,,2,0.2,3.82146975,0.46436239
ZJY,203,4,2024-06-13T06:11:37.684Z,english_677.wav,0,1,112,,,,,3,0.3,10.3543008,1.40426898
ZJY,203,4,2024-06-13T06:11:37.684Z,english_677.wav,0,1,112,,,,,4,0.32341667,-53.94170103,1.42138659
ZJY,204,4,2024-06-13T06:11:37.684Z,english_966.wav,0,0,418,,,,,0,0,23.00954068,1.02848684
ZJY,204,4,2024-06-13T06:11:37.684Z,english_966.wav,0,0,418,,,,,1,0.1,-2.7733657,1.22612364
ZJY,204,4,2024-06-13T06:11:37.684Z,english_966.wav,0,0,418,,,,,2,0.2,-6.00176123,0.03461529
ZJY,204,4,2024-06-13T06:11:37.684Z,english_966.wav,0,0,418,,,,,3,0.3,-64.80320904,0.22357585
ZJY,204,4,2024-06-13T06:11:37.684Z,english_966.wav,0,0,418,,,,,4,0.32341667,94.15296916,0.55383001
ZJY,205,4,2024-06-13T06:11:37.684Z,english_894.wav,0,0,888,,,,,0,0,55.36181915,0.37154348
ZJY,205,4,2024-06-13T06:11:37.684Z,english_894.wav,0,0,888,,,,,1,0.1,1.74798824,0.78809476
ZJY,205,4,2024-06-13T06:11:37.684Z,english_894.wav,0,0,888,,,,,2,0.2,53.5320483,0.08099688
ZJY,205,4,2024-06-13T06:11:37.684Z,english_894.wav,0,0,888,,,,,3,0.3,-10.60196251,1.90254096
ZJY,205,4,2024-06-13T06:11:37.684Z,english_894.wav,0,0,888,,,,,4,0.32341667,46.95013059,0.68783971
ZJY,206,4,2024-06-13T06:11:37.684Z,english_519.wav,0,0,308,,,,,0,0,-8.06946753,0.14231686
ZJY,206,4,2024-06-13T06:11:37.684Z,english_519.wav,0,0,308,,,,,1,0.1,-66.74939098,1.74411569
ZJY,206,4,2024-06-13T06:11:37.684Z,english_519.wav,0,0,308,,,,,2,0.2,-27.98142454,1.42967772
ZJY,206,4,2024-06-13T06:11:37.684Z,english_519.wav,0,0,308,,,,,3,0.3,-72.75033344,0.44774012
ZJY,206,4,2024-06-13T06:11:37.684Z,english_519.wav,0,0,308,,,,,4,0.32341667,-36.15575878,1.4256209
ZJY,207,4,2024-06-13T06:11:37.684Z,english_750.wav,0,0,512,,,,,0,0,54.68497377,0.76623701
ZJY,207,4,2024-06-13T06:11:37.684Z,english_750.wav,0,0,512,,,,,1,0.1,0.91792919,1.58478782
ZJY,207,4,2024-06-13T06:11:37.684Z,english_750.wav,0,0,512,,,,,2,0.2,-67.69423006,0.74884996
ZJY,207,4,2024-06-13T06:11:37.684Z,english_750.wav,0,0,512,,,,,3,0.3,20.92985273,0.15814923
ZJY,207,4,2024-06-13T06:11:37.684Z,english_750.wav,0,0,512,,,,,4,0.32341667,-39.60032316,1.58320499
ZJY,208,4,2024-06-13T06:11:37.684Z,english_736.wav,0,0,240,,,,,0,0,44.94907169,1.40223879
ZJY,208,4,2024-06-13T06:11:37.684Z,english_736.wav,0,0,240,,,,,1,0.1,-89.05982676,1.76358699
ZJY,208,4,2024-06-13T06:11:37.684Z,english_736.wav,0,0,240,,,,,2,0.2,27.88925208,0.99111008
ZJY,208,4,2024-06-13T06:11:37.684Z,english_736.wav,0,0,240,,,,,3,0.3,77.01163693,1.90426439
ZJY,208,4,2024-06-13T06:11:37.684Z,english_736.wav,0,0,240,,,,,4,0.32341667,-28.23601136,1.97036362
ZJY,209,4,2024-06-13T06:11:37.684Z,english_972.wav,0,0,451,,,,,0,0,-87.82800068,1.28286493
ZJY,209,4,2024-06-13T06:11:37.684Z,english_972.wav,0,0,451,,,,,1,0.1,-25.45661385,0.89058027
ZJY,209,4,2024-06-13T06:11:37.684Z,english_972.wav,0,0,451,,,,,2,0.2,2.95853851,1.4716374
ZJY,209,4,2024-06-13T06:11:37.684Z,english_972.wav,0,0,451,,,,,3,0.3,84.61583696,0.6386035
ZJY,209,4,2024-06-13T06:11:37.684Z,english_972.wav,0,0,451,,,,,4,0.32341667,42.95706616,1.51056083
ZJY,210,4,2024-06-13T06:11:37.684Z,english_131.wav,0,1,202,,,,,0,0,-90.65248477,1.67513221
ZJY,210,4,2024-06-13T06:11:37.684Z,english_131.wav,0,1,202,,,,,1,0.1,7.0988446,1.62916956
ZJY,210,4,2024-06-13T06:11:37.684Z,english_131.wav,0,1,202,,,,,2,0.2,-30.94637352,1.4017665
ZJY,210,4,2024-06-13T06:11:37.684Z,english_131.wav,0,1,202,,,,,3,0.3,-31.86179524,1.07276153
ZJY,210,4,2024-06-13T06:11:37.684Z,english_131.wav,0,1,202,,,,,4,0.32341667,1.85809033,1.80109071
ZJY,211,4,2024-06-13T06:11:37.684Z,english_125.wav,0,0,571,,,,,0,0,-5.59692586,0.61478703
ZJY,211,4,2024-06-13T06:11:37.684Z,english_125.wav,0,0,571,,,,,1,0.1,45.61970603,0.5852269
ZJY,211,4,2024-06-13T06:11:37.684Z,english_125.wav,0,0,571,,,,,2,0.2,-80.48713695,1.26290546
ZJY,211,4,2024-06-13T06:11:37.684Z,english_125.wav,0,0,571,,,,,3,0.3,76.65956808,1.54178375
ZJY,211,4,2024-06-13T06:11:37.684Z,english_125.wav,0,0,571,,,,,4,0.32341667,-9.14506838,0.79261171
ZJY,212,4,2024-06-13T06:11:37.684Z,english_933.wav,0,1,510,,,,,0,0,-48.12258855,1.54767366
ZJY,212,4,2024-06-13T06:11:37.684Z,english_933.wav,0,1,510,,,,,1,0.1,27.26905516,0.30219473
ZJY,212,4,2024-06-13T06:11:37.684Z,english_933.wav,0,1,510,,,,,2,0.2,0.35087756,1.50410475
ZJY,212,4,2024-06-13T06:11:37.684Z,english_933.wav,0,1,510,,,,,3,0.3,94.96402149,1.44820406
ZJY,212,4,2024-06-13T06:11:37.684Z,english_933.wav,0,1,510,,,,,4,0.32341667,61.52669097,0.05049928
ZJY,213,4,2024-06-13T06:11:37.684Z,english_54.wav,0,1,744,,,,,0,0,1.86764875,1.47639799
ZJY,213,4,2024-06-13T06:11:37.684Z,english_54.wav,0,1,744,,,,,1,0.1,-1.78672474,1.92944336
ZJY,213,4,2024-06-13T06:11:37.684Z,english_54.wav,0,1,744,,,,,2,0.2,-26.58380414,0.76292987
ZJY,213,4,2024-06-13T06:11:37.684Z,english_54.wav,0,1,744,,,,,3,0.3,-2.56688864,1.78735236
ZJY,213,4,2024-06-13T06:11:37.684Z,english_54.wav,0,1,744,,,,,4,0.32341667,-76.29238916,0.80366269
ZJY,214,4,2024-06-13T06:11:37.684Z,english_947.wav,0,1,515,,,,,0,0,73.13113362,0.1925557
ZJY,214,4,2024-06-13T06:11:37.684Z,english_947.wav,0,1,515,,,,,1,0.1,-55.13077299,1.89478059
ZJY,214,4,2024-06-13T06:11:37.684Z,english_947.wav,0,1,515,,,,,2,0.2,59.32217849,0.99662771
ZJY,214,4,2024-06-13T06:11:37.684Z,english_947.wav,0,1,515,,,,,3,0.3,-71.25946194,0.61263341
