subj,trial,block,date,stim,stim_order,response,rt,age,english,language,sex,param_index,segment,pitch,stretch
FDQ,0,0,2024-06-13T06:18:17.790Z,english_504.wav,0,1,4065,21,4,Chinese,f,0,0,4.11468456,0.75379057
FDQ,0,0,2024-06-13T06:18:17.790Z,english_504.wav,0,1,4065,21,4,Chinese,f,1,0.1,70.56620437,1.18348717
FDQ,0,0,2024-06-13T06:18:17.790Z,english_504.wav,0,1,4065,21,4,Chinese,f,2,0.2,3.26767498,0.25360202
FDQ,0,0,2024-06-13T06:18:17.790Z,english_504.wav,0,1,4065,21,4,Chinese,f,3,0.3,-3.14493553,1.87094491
FDQ,0,0,2024-06-13T06:18:17.790Z,english_504.wav,0,1,4065,21,4,Chinese,f,4,0.32341667,43.57926014,0.110125
FDQ,1,0,2024-06-13T06:18:17.790Z,english_231.wav,0,0,1031,21,4,Chinese,f,0,0,-57.04299033,1.30850831
FDQ,1,0,2024-06-13T06:18:17.790Z,english_231.wav,0,0,1031,21,4,Chinese,f,1,0.1,-61.30294243,1.06317761
FDQ,1,0,2024-06-13T06:18:17.790Z,english_231.wav,0,0,1031,21,4,Chinese,f,2,0.2,11.10207427,1.86768436
FDQ,1,0,2024-06-13T06:18:17.790Z,english_231.wav,0,0,1031,21,4,Chinese,f,3,0.3,-1.38864911,1.42169342
FDQ,1,0,2024-06-13T06:18:17.790Z,english_231.wav,0,0,1031,21,4,Chinese,f,4,0.32341667,-40.37897369,0.58634772
FDQ,2,0,2024-06-13T06:18:17.790Z,english_585.wav,0,0,700,21,4,Chinese,f,0,0,-47.47167609,0.91486293
FDQ,2,0,2024-06-13T06:18:17.790Z,english_585.wav,0,0,700,21,4,Chinese,f,1,0.1,-85.73018253,0.8051019
FDQ,2,0,2024-06-13T06:18:17.790Z,english_585.wav,0,0,700,21,4,Chinese,f,2,0.2,4.69567907,1.25289508
FDQ,2,0,2024-06-13T06:18:17.790Z,english_585.wav,0,0,700,21,4,Chinese,f,3,0.3,51.83381109,0.83258124
FDQ,2,0,2024-06-13T06:18:17.790Z,english_585.wav,0,0,700,21,4,Chinese,f,4,0.32341667,14.12777642,1.43411439
FDQ,3,0,2024-06-13T06:18:17.790Z,english_356.wav,0,0,4763,21,4,Chinese,f,0,0,87.74309864,0.22820547
FDQ,3,0,2024-06-13T06:18:17.790Z,english_356.wav,0,0,4763,21,4,Chinese,f,1,0.1,-4.48264388,1.49009691
FDQ,3,0,2024-06-13T06:18:17.790Z,english_356.wav,0,0,4763,21,4,Chinese,f,2,0.2,90.19031952,1.39023362
FDQ,3,0,2024-06-13T06:18:17.790Z,english_356.wav,0,0,4763,21,4,Chinese,f,3,0.3,-69.40540064,1.78473098
FDQ,3,0,2024-06-13T06:18:17.790Z,english_356.wav,0,0,4763,21,4,Chinese,f,4,0.32341667,65.10278108,0.80628385
FDQ,4,0,2024-06-13T06:18:17.790Z,english_435.wav,0,1,1977,21,4,Chinese,f,0,0,-61.49548479,0.36819492
FDQ,4,0,2024-06-13T06:18:17.790Z,english_435.wav,0,1,1977,21,4,Chinese,f,1,0.1,18.53940612,1.77990606
FDQ,4,0,2024-06-13T06:18:17.790Z,english_435.wav,0,1,1977,21,4,Chinese,f,2,0.2,-39.20879804,1.09377229
FDQ,4,0,2024-06-13T06:18:17.790Z,english_435.wav,0,1,1977,21,4,Chinese,f,3,0.3,-30.66509024,1.98213584
FDQ,4,0,2024-06-13T06:18:17.790Z,english_435.wav,0,1,1977,21,4,Chinese,f,4,0.32341667,7.07056367,0.5936591
FDQ,5,0,2024-06-13T06:18:17.790Z,english_587.wav,0,1,2183,21,4,Chinese,f,0,0,-33.32102811,0.7972352
FDQ,5,0,2024-06-13T06:18:17.790Z,english_587.wav,0,1,2183,21,4,Chinese,f,1,0.1,46.1287001,1.97425238
FDQ,5,0,2024-06-13T06:18:17.790Z,english_587.wav,0,1,2183,21,4,Chinese,f,2,0.2,-62.23894368,0.99609006
FDQ,5,0,2024-06-13T06:18:17.790Z,english_587.wav,0,1,2183,21,4,Chinese,f,3,0.3,36.67711132,1.18577707
FDQ,5,0,2024-06-13T06:18:17.790Z,english_587.wav,0,1,2183,21,4,Chinese,f,4,0.32341667,-11.53320103,1.64089558
FDQ,6,0,2024-06-13T06:18:17.790Z,english_265.wav,0,0,517,21,4,Chinese,f,0,0,-30.2287418,1.31067296
FDQ,6,0,2024-06-13T06:18:17.790Z,english_265.wav,0,0,517,21,4,Chinese,f,1,0.1,86.62283936,0.87427745
FDQ,6,0,2024-06-13T06:18:17.790Z,english_265.wav,0,0,517,21,4,Chinese,f,2,0.2,-21.47577863,1.37620008
FDQ,6,0,2024-06-13T06:18:17.790Z,english_265.wav,0,0,517,21,4,Chinese,f,3,0.3,84.9300577,0.45825557
FDQ,6,0,2024-06-13T06:18:17.790Z,english_265.wav,0,0,517,21,4,Chinese,f,4,0.32341667,59.52250756,1.13518739
FDQ,7,0,2024-06-13T06:18:17.790Z,english_627.wav,0,0,1682,21,4,Chinese,f,0,0,-53.99355102,0.04887222
FDQ,7,0,2024-06-13T06:18:17.790Z,english_627.wav,0,0,1682,21,4,Chinese,f,1,0.1,-3.03417463,0.14119608
FDQ,7,0,2024-06-13T06:18:17.790Z,english_627.wav,0,0,1682,21,4,Chinese,f,2,0.2,83.9257281,0.97350107
FDQ,7,0,2024-06-13T06:18:17.790Z,english_627.wav,0,0,1682,21,4,Chinese,f,3,0.3,52.52073868,0.6697358
FDQ,7,0,2024-06-13T06:18:17.790Z,english_627.wav,0,0,1682,21,4,Chinese,f,4,0.32341667,-13.85481025,0.92660526
FDQ,8,0,2024-06-13T06:18:17.790Z,english_638.wav,0,0,860,21,4,Chinese,f,0,0,6.92468799,1.1702122
FDQ,8,0,2024-06-13T06:18:17.790Z,english_638.wav,0,0,860,21,4,Chinese,f,1,0.1,52.10042521,0.51269982
FDQ,8,0,2024-06-13T06:18:17.790Z,english_638.wav,0,0,860,21,4,Chinese,f,2,0.2,-39.07293948,0.1912204
FDQ,8,0,2024-06-13T06:18:17.790Z,english_638.wav,0,0,860,21,4,Chinese,f,3,0.3,38.46029754,0.91406415
FDQ,8,0,2024-06-13T06:18:17.790Z,english_638.wav,0,0,860,21,4,Chinese,f,4,0.32341667,-16.6630855,1.67689755
FDQ,9,0,2024-06-13T06:18:17.790Z,english_723.wav,0,1,787,21,4,Chinese,f,0,0,-85.17156731,1.02541656
FDQ,9,0,2024-06-13T06:18:17.790Z,english_723.wav,0,1,787,21,4,Chinese,f,1,0.1,92.93654667,0.92088513
FDQ,9,0,2024-06-13T06:18:17.790Z,english_723.wav,0,1,787,21,4,Chinese,f,2,0.2,-28.89042756,0.78256854
FDQ,9,0,2024-06-13T06:18:17.790Z,english_723.wav,0,1,787,21,4,Chinese,f,3,0.3,36.79914563,1.22887413
FDQ,9,0,2024-06-13T06:18:17.790Z,english_723.wav,0,1,787,21,4,Chinese,f,4,0.32341667,6.86426773,1.77193963
FDQ,10,0,2024-06-13T06:18:17.790Z,english_401.wav,0,0,899,21,4,Chinese,f,0,0,-70.37998858,1.11338134
FDQ,10,0,2024-06-13T06:18:17.790Z,english_401.wav,0,0,899,21,4,Chinese,f,1,0.1,49.27188779,1.59691292
FDQ,10,0,2024-06-13T06:18:17.790Z,english_401.wav,0,0,899,21,4,Chinese,f,2,0.2,5.09566389,0.88679935
FDQ,10,0,2024-06-13T06:18:17.790Z,english_401.wav,0,0,899,21,4,Chinese,f,3,0.3,58.42368176,1.89749174
FDQ,10,0,2024-06-13T06:18:17.790Z,english_401.wav,0,0,899,21,4,Chinese,f,4,0.32341667,-43.06407799,1.35831765
FDQ,11,0,2024-06-13T06:18:17.790Z,english_579.wav,0,1,645,21,4,Chinese,f,0,0,78.52989573,1.74799876
FDQ,11,0,2024-06-13T06:18:17.790Z,english_579.wav,0,1,645,21,4,Chinese,f,1,0.1,-26.17758211,0.36264633
FDQ,11,0,2024-06-13T06:18:17.790Z,english_579.wav,0,1,645,21,4,Chinese,f,2,0.2,-65.60231522,1.15645327
FDQ,11,0,2024-06-13T06:18:17.790Z,english_579.wav,0,1,645,21,4,Chinese,f,3,0.3,-66.03357835,1.81639149
FDQ,11,0,2024-06-13T06:18:17.790Z,english_579.wav,0,1,645,21,4,Chinese,f,4,0.32341667,-36.23940811,1.38509752
FDQ,12,0,2024-06-13T06:18:17.790Z,english_221.wav,0,0,764,21,4,Chinese,f,0,0,85.84184869,1.38100565
FDQ,12,0,2024-06-13T06:18:17.790Z,english_221.wav,0,0,764,21,4,Chinese,f,1,0.1,-20.37513589,0.79531516
FDQ,12,0,2024-06-13T06:18:17.790Z,english_221.wav,0,0,764,21,4,Chinese,f,2,0.2,-89.75984637,0.9538446
FDQ,12,0,2024-06-13T06:18:17.790Z,english_221.wav,0,0,764,21,4,Chinese,f,3,0.3,50.66879934,1.56492426
FDQ,12,0,2024-06-13T06:18:17.790Z,english_221.wav,0,0,764,21,4,Chinese,f,4,0.32341667,20.92538743,1.60855456
FDQ,13,0,2024-06-13T06:18:17.790Z,english_434.wav,0,1,1168,21,4,Chinese,f,0,0,-4.12787863,0.96421208
FDQ,13,0,2024-06-13T06:18:17.790Z,english_434.wav,0,1,1168,21,4,Chinese,f,1,0.1,-30.19441281,1.08561731
FDQ,13,0,2024-06-13T06:18:17.790Z,english_434.wav,0,1,1168,21,4,Chinese,f,2,0.2,41.04377471,1.46356301
FDQ,13,0,2024-06-13T06:18:17.790Z,english_434.wav,0,1,1168,21,4,Chinese,f,3,0.3,-32.43591961,0.25116585
FDQ,13,0,2024-06-13T06:18:17.790Z,english_434.wav,0,1,1168,21,4,Chinese,f,4,0.32341667,61.53108406,0.73120458
FDQ,14,0,2024-06-13T06:18:17.790Z,english_721.wav,0,1,856,21,4,Chinese,f,0,0,-1.67193172,0.23966059
FDQ,14,0,2024-06-13T06:18:17.790Z,english_721.wav,0,1,856,21,4,Chinese,f,1,0.1,23.81304459,1.61361986
FDQ,14,0,2024-06-13T06:18:17.790Z,english_721.wav,0,1,856,21,4,Chinese,f,2,0.2,94.27532923,0.58045828
FDQ,14,0,2024-06-13T06:18:17.790Z,english_721.wav,0,1,856,21,4,Chinese,f,3,0.3,10.08520391,1.63757532
FDQ,14,0,2024-06-13T06:18:17.790Z,english_721.wav,0,1,856,21,4,Chinese,f,4,0.32341667,-26.68837018,1.4581473
FDQ,15,0,2024-06-13T06:18:17.790Z,english_939.wav,0,0,562,21,4,Chinese,f,0,0,-23.2558256,0.1774722
FDQ,15,0,2024-06-13T06:18:17.790Z,english_939.wav,0,0,562,21,4,Chinese,f,1,0.1,-16.62065377,0.56271239
FDQ,15,0,2024-06-13T06:18:17.790Z,english_939.wav,0,0,562,21,4,Chinese,f,2,0.2,-49.54734698,1.42782479
FDQ,15,0,2024-06-13T06:18:17.790Z,english_939.wav,0,0,562,21,4,Chinese,f,3,0.3,22.82101289,0.76516147
FDQ,15,0,2024-06-13T06:18:17.790Z,english_939.wav,0,0,562,21,4,Chinese,f,4,0.32341667,28.63490654,1.70219777
FDQ,16,0,2024-06-13T06:18:17.790Z,english_759.wav,0,0,586,21,4,Chinese,f,0,0,22.56482953,0.32974928
FDQ,16,0,2024-06-13T06:18:17.790Z,english_759.wav,0,0,586,21,4,Chinese,f,1,0.1,-26.57515882,0.74944663
FDQ,16,0,2024-06-13T06:18:17.790Z,english_759.wav,0,0,586,21,4,Chinese,f,2,0.2,58.52096087,0.73148935
FDQ,16,0,2024-06-13T06:18:17.790Z,english_759.wav,0,0,586,21,4,Chinese,f,3,0.3,67.88336338,0.69769471
FDQ,16,0,2024-06-13T06:18:17.790Z,english_759.wav,0,0,586,21,4,Chinese,f,4,0.32341667,-98.7178367,1.46371733
FDQ,17,0,2024-06-13T06:18:17.790Z,english_19.wav,0,1,1498,21,4,Chinese,f,0,0,51.84788699,0.3981759
FDQ,17,0,2024-06-13T06:18:17.790Z,english_19.wav,0,1,1498,21,4,Chinese,f,1,0.1,59.68091475,1.61217409
FDQ,17,0,2024-06-13T06:18:17.790Z,english_19.wav,0,1,1498,21,4,Chinese,f,2,0.2,-27.71167756,0.35158216
FDQ,17,0,2024-06-13T06:18:17.790Z,english_19.wav,0,1,1498,21,4,Chinese,f,3,0.3,-29.56443604,0.8770992
FDQ,17,0,2024-06-13T06:18:17.790Z,english_19.wav,0,1,1498,21,4,Chinese,f,4,0.32341667,-58.55228515,0.51670124
FDQ,18,0,2024-06-13T06:18:17.790Z,english_765.wav,0,1,581,21,4,Chinese,f,0,0,-52.71695997,0.24697616
FDQ,18,0,2024-06-13T06:18:17.790Z,english_765.wav,0,1,581,21,4,Chinese,f,1,0.1,-0.72548599,1.34458244
FDQ,18,0,2024-06-13T06:18:17.790Z,english_765.wav,0,1,581,21,4,Chinese,f,2,0.2,-25.46106624,0.2833524
FDQ,18,0,2024-06-13T06:18:17.790Z,english_765.wav,0,1,581,21,4,Chinese,f,3,0.3,-15.36834083,0.99517128
FDQ,18,0,2024-06-13T06:18:17.790Z,english_765.wav,0,1,581,21,4,Chinese,f,4,0.32341667,-34.08212533,0.81265208
FDQ,19,0,2024-06-13T06:18:17.790Z,english_445.wav,0,1,706,21,4,Chinese,f,0,0,88.00598922,1.42174052
FDQ,19,0,2024-06-13T06:18:17.790Z,english_445.wav,0,1,706,21,4,Chinese,f,1,0.1,96.51328737,1.49122509
FDQ,19,0,2024-06-13T06:18:17.790Z,english_445.wav,0,1,706,21,4,Chinese,f,2,0.2,29.11093561,0.62095286
FDQ,19,0,2024-06-13T06:18:17.790Z,english_445.wav,0,1,706,21,4,Chinese,f,3,0.3,69.6076589,1.14630865
FDQ,19,0,2024-06-13T06:18:17.790Z,english_445.wav,0,1,706,21,4,Chinese,f,4,0.32341667,-59.73938179,1.38538671
FDQ,20,0,2024-06-13T06:18:17.790Z,english_430.wav,0,0,3032,21,4,Chinese,f,0,0,72.23510535,0.8682214
FDQ,20,0,2024-06-13T06:18:17.790Z,english_430.wav,0,0,3032,21,4,Chinese,f,1,0.1,-9.56156918,0.26781202
FDQ,20,0,2024-06-13T06:18:17.790Z,english_430.wav,0,0,3032,21,4,Chinese,f,2,0.2,36.71559936,1.38873793
FDQ,20,0,2024-06-13T06:18:17.790Z,english_430.wav,0,0,3032,21,4,Chinese,f,3,0.3,-33.55254317,0.29076709
FDQ,20,0,2024-06-13T06:18:17.790Z,english_430.wav,0,0,3032,21,4,Chinese,f,4,0.32341667,-25.71861109,0.30869259
FDQ,21,0,2024-06-13T06:18:17.790Z,english_34.wav,0,1,897,21,4,Chinese,f,0,0,-48.07924103,1.44836266
FDQ,21,0,2024-06-13T06:18:17.790Z,english_34.wav,0,1,897,21,4,Chinese,f,1,0.1,-64.84739183,1.89580324
FDQ,21,0,2024-06-13T06:18:17.790Z,english_34.wav,0,1,897,21,4,Chinese,f,2,0.2,-20.81716265,0.64308549
FDQ,21,0,2024-06-13T06:18:17.790Z,english_34.wav,0,1,897,21,4,Chinese,f,3,0.3,91.13652067,0.0848332
FDQ,21,0,2024-06-13T06:18:17.790Z,english_34.wav,0,1,897,21,4,Chinese,f,4,0.32341667,-54.46543937,0.8036564
FDQ,22,0,2024-06-13T06:18:17.790Z,english_591.wav,0,0,996,21,4,Chinese,f,0,0,-17.23532002,0.16408748
FDQ,22,0,2024-06-13T06:18:17.790Z,english_591.wav,0,0,996,21,4,Chinese,f,1,0.1,-55.20494434,0.21361432
FDQ,22,0,2024-06-13T06:18:17.790Z,english_591.wav,0,0,996,21,4,Chinese,f,2,0.2,-36.65883109,0.19384467
FDQ,22,0,2024-06-13T06:18:17.790Z,english_591.wav,0,0,996,21,4,Chinese,f,3,0.3,75.34514139,0.82850175
FDQ,22,0,2024-06-13T06:18:17.790Z,english_591.wav,0,0,996,21,4,Chinese,f,4,0.32341667,31.2832342,1.471328
FDQ,23,0,2024-06-13T06:18:17.790Z,english_167.wav,0,1,520,21,4,Chinese,f,0,0,57.26975159,0.44729063
FDQ,23,0,2024-06-13T06:18:17.790Z,english_167.wav,0,1,520,21,4,Chinese,f,1,0.1,54.31010869,1.623568
FDQ,23,0,2024-06-13T06:18:17.790Z,english_167.wav,0,1,520,21,4,Chinese,f,2,0.2,99.57020207,0.28743218
FDQ,23,0,2024-06-13T06:18:17.790Z,english_167.wav,0,1,520,21,4,Chinese,f,3,0.3,27.92735821,0.71837494
FDQ,23,0,2024-06-13T06:18:17.790Z,english_167.wav,0,1,520,21,4,Chinese,f,4,0.32341667,73.13424206,1.35815305
FDQ,24,0,2024-06-13T06:18:17.790Z,english_843.wav,0,1,646,21,4,Chinese,f,0,0,-34.38568909,1.38988397
FDQ,24,0,2024-06-13T06:18:17.790Z,english_843.wav,0,1,646,21,4,Chinese,f,1,0.1,91.48235516,0.61638546
FDQ,24,0,2024-06-13T06:18:17.790Z,english_843.wav,0,1,646,21,4,Chinese,f,2,0.2,45.43581208,1.5800421
FDQ,24,0,2024-06-13T06:18:17.790Z,english_843.wav,0,1,646,21,4,Chinese,f,3,0.3,47.04005582,1.07327256
FDQ,24,0,2024-06-13T06:18:17.790Z,english_843.wav,0,1,646,21,4,Chinese,f,4,0.32341667,30.80916685,0.46994626
FDQ,25,0,2024-06-13T06:18:17.790Z,english_969.wav,0,1,1094,21,4,Chinese,f,0,0,0.27440165,1.49550116
FDQ,25,0,2024-06-13T06:18:17.790Z,english_969.wav,0,1,1094,21,4,Chinese,f,1,0.1,32.90941676,1.08086357
FDQ,25,0,2024-06-13T06:18:17.790Z,english_969.wav,0,1,1094,21,4,Chinese,f,2,0.2,65.54691775,0.25687245
FDQ,25,0,2024-06-13T06:18:17.790Z,english_969.wav,0,1,1094,21,4,Chinese,f,3,0.3,38.11090315,0.33107225
FDQ,25,0,2024-06-13T06:18:17.790Z,english_969.wav,0,1,1094,21,4,Chinese,f,4,0.32341667,-66.49311905,0.72842933
FDQ,26,0,2024-06-13T06:18:17.790Z,english_937.wav,0,1,398,21,4,Chinese,f,0,0,76.77394395,1.55370699
FDQ,26,0,2024-06-13T06:18:17.790Z,english_937.wav,0,1,398,21,4,Chinese,f,1,0.1,49.33576264,1.82028848
FDQ,26,0,2024-06-13T06:18:17.790Z,english_937.wav,0,1,398,21,4,Chinese,f,2,0.2,-87.39935237,1.42487505
FDQ,26,0,2024-06-13T06:18:17.790Z,english_937.wav,0,1,398,21,4,Chinese,f,3,0.3,11.02170053,0.87896062
FDQ,26,0,2024-06-13T06:18:17.790Z,english_937.wav,0,1,398,21,4,Chinese,f,4,0.32341667,91.99381322,0.96516852
FDQ,27,0,2024-06-13T06:18:17.790Z,english_83.wav,0,0,1519,21,4,Chinese,f,0,0,98.86804112,0.82381457
FDQ,27,0,2024-06-13T06:18:17.790Z,english_83.wav,0,0,1519,21,4,Chinese,f,1,0.1,-37.42051535,1.26275754
FDQ,27,0,2024-06-13T06:18:17.790Z,english_83.wav,0,0,1519,21,4,Chinese,f,2,0.2,23.85234946,0.74836396
FDQ,27,0,2024-06-13T06:18:17.790Z,english_83.wav,0,0,1519,21,4,Chinese,f,3,0.3,28.05435803,0.41584898
FDQ,27,0,2024-06-13T06:18:17.790Z,english_83.wav,0,0,1519,21,4,Chinese,f,4,0.32341667,2.44147447,1.88336536
FDQ,28,0,2024-06-13T06:18:17.790Z,english_508.wav,0,1,1404,21,4,Chinese,f,0,0,-21.23116318,1.79614382
FDQ,28,0,2024-06-13T06:18:17.790Z,english_508.wav,0,1,1404,21,4,Chinese,f,1,0.1,-27.56583205,0.60449395
FDQ,28,0,2024-06-13T06:18:17.790Z,english_508.wav,0,1,1404,21,4,Chinese,f,2,0.2,64.21774851,0.56582153
FDQ,28,0,2024-06-13T06:18:17.790Z,english_508.wav,0,1,1404,21,4,Chinese,f,3,0.3,-9.24056951,1.01665474
FDQ,28,0,2024-06-13T06:18:17.790Z,english_508.wav,0,1,1404,21,4,Chinese,f,4,0.32341667,-9.74670904,0.78905044
FDQ,29,0,2024-06-13T06:18:17.790Z,english_474.wav,0,0,1038,21,4,Chinese,f,0,0,42.88606971,0.87351765
FDQ,29,0,2024-06-13T06:18:17.790Z,english_474.wav,0,0,1038,21,4,Chinese,f,1,0.1,6.82691085,1.08551449
FDQ,29,0,2024-06-13T06:18:17.790Z,english_474.wav,0,0,1038,21,4,Chinese,f,2,0.2,-33.80031927,1.99847166
FDQ,29,0,2024-06-13T06:18:17.790Z,english_474.wav,0,0,1038,21,4,Chinese,f,3,0.3,-97.18672796,0.27470298
FDQ,29,0,2024-06-13T06:18:17.790Z,english_474.wav,0,0,1038,21,4,Chinese,f,4,0.32341667,-4.7462475,0.02962094
FDQ,30,0,2024-06-13T06:18:17.790Z,english_524.wav,0,0,734,21,4,Chinese,f,0,0,-67.97449296,0.75247726
FDQ,30,0,2024-06-13T06:18:17.790Z,english_524.wav,0,0,734,21,4,Chinese,f,1,0.1,11.07328714,0.25589602
FDQ,30,0,2024-06-13T06:18:17.790Z,english_524.wav,0,0,734,21,4,Chinese,f,2,0.2,-43.89657964,0.70559599
FDQ,30,0,2024-06-13T06:18:17.790Z,english_524.wav,0,0,734,21,4,Chinese,f,3,0.3,-41.15015074,0.70218971
FDQ,30,0,2024-06-13T06:18:17.790Z,english_524.wav,0,0,734,21,4,Chinese,f,4,0.32341667,-33.76804681,0.11352048
FDQ,31,0,2024-06-13T06:18:17.790Z,english_276.wav,0,1,1107,21,4,Chinese,f,0,0,-87.25523595,1.1918401
FDQ,31,0,2024-06-13T06:18:17.790Z,english_276.wav,0,1,1107,21,4,Chinese,f,1,0.1,16.91650801,0.89399115
FDQ,31,0,2024-06-13T06:18:17.790Z,english_276.wav,0,1,1107,21,4,Chinese,f,2,0.2,-40.09372932,0.89701806
FDQ,31,0,2024-06-13T06:18:17.790Z,english_276.wav,0,1,1107,21,4,Chinese,f,3,0.3,3.19229046,1.98333504
FDQ,31,0,2024-06-13T06:18:17.790Z,english_276.wav,0,1,1107,21,4,Chinese,f,4,0.32341667,18.84785296,1.85350493
FDQ,32,0,2024-06-13T06:18:17.790Z,english_841.wav,0,0,2294,21,4,Chinese,f,0,0,36.57834023,0.37598589
FDQ,32,0,2024-06-13T06:18:17.790Z,english_841.wav,0,0,2294,21,4,Chinese,f,1,0.1,81.12994836,1.18949815
FDQ,32,0,2024-06-13T06:18:17.790Z,english_841.wav,0,0,2294,21,4,Chinese,f,2,0.2,55.4316434,1.24219065
FDQ,32,0,2024-06-13T06:18:17.790Z,english_841.wav,0,0,2294,21,4,Chinese,f,3,0.3,-50.85387517,1.45004046
FDQ,32,0,2024-06-13T06:18:17.790Z,english_841.wav,0,0,2294,21,4,Chinese,f,4,0.32341667,-52.13814436,0.19253582
FDQ,33,0,2024-06-13T06:18:17.790Z,english_803.wav,0,0,1112,21,4,Chinese,f,0,0,8.73756077,1.22190991
FDQ,33,0,2024-06-13T06:18:17.790Z,english_803.wav,0,0,1112,21,4,Chinese,f,1,0.1,-41.53503623,1.08276728
FDQ,33,0,2024-06-13T06:18:17.790Z,english_803.wav,0,0,1112,21,4,Chinese,f,2,0.2,-84.76471985,1.59545905
FDQ,33,0,2024-06-13T06:18:17.790Z,english_803.wav,0,0,1112,21,4,Chinese,f,3,0.3,-27.96408635,1.3875394
FDQ,33,0,2024-06-13T06:18:17.790Z,english_803.wav,0,0,1112,21,4,Chinese,f,4,0.32341667,72.02290108,0.92287786
FDQ,34,0,2024-06-13T06:18:17.790Z,english_6.wav,0,1,2509,21,4,Chinese,f,0,0,-8.2116192,1.24832701
FDQ,34,0,2024-06-13T06:18:17.790Z,english_6.wav,0,1,2509,21,4,Chinese,f,1,0.1,-28.50933877,0.74984456
FDQ,34,0,2024-06-13T06:18:17.790Z,english_6.wav,0,1,2509,21,4,Chinese,f,2,0.2,-90.20174912,1.37568362
FDQ,34,0,2024-06-13T06:18:17.790Z,english_6.wav,0,1,2509,21,4,Chinese,f,3,0.3,-7.18062469,0.47637706
FDQ,34,0,2024-06-13T06:18:17.790Z,english_6.wav,0,1,2509,21,4,Chinese,f,4,0.32341667,-36.83558467,0.68255954
FDQ,35,0,2024-06-13T06:18:17.790Z,english_175.wav,0,0,2493,21,4,Chinese,f,0,0,-88.83902874,0.00773228
FDQ,35,0,2024-06-13T06:18:17.790Z,english_175.wav,0,0,2493,21,4,Chinese,f,1,0.1,8.60564456,1.6431495
FDQ,35,0,2024-06-13T06:18:17.790Z,english_175.wav,0,0,2493,21,4,Chinese,f,2,0.2,7.189218,0.24882977
FDQ,35,0,2024-06-13T06:18:17.790Z,english_175.wav,0,0,2493,21,4,Chinese,f,3,0.3,-2.31675389,1.20663028
FDQ,35,0,2024-06-13T06:18:17.790Z,english_175.wav,0,0,2493,21,4,Chinese,f,4,0.32341667,-21.56803319,0.57172188
FDQ,36,0,2024-06-13T06:18:17.790Z,english_351.wav,0,1,2127,21,4,Chinese,f,0,0,-56.55455818,0.98366365
FDQ,36,0,2024-06-13T06:18:17.790Z,english_351.wav,0,1,2127,21,4,Chinese,f,1,0.1,-81.1333892,1.13800808
FDQ,36,0,2024-06-13T06:18:17.790Z,english_351.wav,0,1,2127,21,4,Chinese,f,2,0.2,70.95296343,1.04915948
FDQ,36,0,2024-06-13T06:18:17.790Z,english_351.wav,0,1,2127,21,4,Chinese,f,3,0.3,-82.79021433,1.70890302
FDQ,36,0,2024-06-13T06:18:17.790Z,english_351.wav,0,1,2127,21,4,Chinese,f,4,0.32341667,-21.34496407,1.83807055
FDQ,37,0,2024-06-13T06:18:17.790Z,english_872.wav,0,0,1369,21,4,Chinese,f,0,0,0.56374655,0.10935802
FDQ,37,0,2024-06-13T06:18:17.790Z,english_872.wav,0,0,1369,21,4,Chinese,f,1,0.1,-70.88107799,0.91778609
FDQ,37,0,2024-06-13T06:18:17.790Z,english_872.wav,0,0,1369,21,4,Chinese,f,2,0.2,6.46677515,1.38740199
FDQ,37,0,2024-06-13T06:18:17.790Z,english_872.wav,0,0,1369,21,4,Chinese,f,3,0.3,-23.51354109,0.12682507
FDQ,37,0,2024-06-13T06:18:17.790Z,english_872.wav,0,0,1369,21,4,Chinese,f,4,0.32341667,81.64578493,0.71067476
FDQ,38,0,2024-06-13T06:18:17.790Z,english_493.wav,0,1,1193,21,4,Chinese,f,0,0,42.62366846,0.72879325
FDQ,38,0,2024-06-13T06:18:17.790Z,english_493.wav,0,1,1193,21,4,Chinese,f,1,0.1,-24.95330968,1.87742997
FDQ,38,0,2024-06-13T06:18:17.790Z,english_493.wav,0,1,1193,21,4,Chinese,f,2,0.2,82.3526737,1.69463318
FDQ,38,0,2024-06-13T06:18:17.790Z,english_493.wav,0,1,1193,21,4,Chinese,f,3,0.3,53.78370402,0.82529142
FDQ,38,0,2024-06-13T06:18:17.790Z,english_493.wav,0,1,1193,21,4,Chinese,f,4,0.32341667,-52.5410085,0.10126548
FDQ,39,0,2024-06-13T06:18:17.790Z,english_974.wav,0,1,2267,21,4,Chinese,f,0,0,29.63575745,0.7371821
FDQ,39,0,2024-06-13T06:18:17.790Z,english_974.wav,0,1,2267,21,4,Chinese,f,1,0.1,-49.63946334,1.15838362
FDQ,39,0,2024-06-13T06:18:17.790Z,english_974.wav,0,1,2267,21,4,Chinese,f,2,0.2,87.75163431,1.66312363
FDQ,39,0,2024-06-13T06:18:17.790Z,english_974.wav,0,1,2267,21,4,Chinese,f,3,0.3,-62.39844007,0.85783748
FDQ,39,0,2024-06-13T06:18:17.790Z,english_974.wav,0,1,2267,21,4,Chinese,f,4,0.32341667,-98.5513891,1.53033297
FDQ,40,0,2024-06-13T06:18:17.790Z,english_981.wav,0,1,1313,21,4,Chinese,f,0,0,-19.49446297,1.96452006
FDQ,40,0,2024-06-13T06:18:17.790Z,english_981.wav,0,1,1313,21,4,Chinese,f,1,0.1,-69.0386812,1.2006287
FDQ,40,0,2024-06-13T06:18:17.790Z,english_981.wav,0,1,1313,21,4,Chinese,f,2,0.2,-25.77088537,0.98600753
FDQ,40,0,2024-06-13T06:18:17.790Z,english_981.wav,0,1,1313,21,4,Chinese,f,3,0.3,65.67633712,0.21362544
FDQ,40,0,2024-06-13T06:18:17.790Z,english_981.wav,0,1,1313,21,4,Chinese,f,4,0.32341667,-6.1640169,0.33780549
FDQ,41,0,2024-06-13T06:18:17.790Z,english_355.wav,0,1,1267,21,4,Chinese,f,0,0,33.6784286,1.28512049
FDQ,41,0,2024-06-13T06:18:17.790Z,english_355.wav,0,1,1267,21,4,Chinese,f,1,0.1,30.74796889,1.04729355
FDQ,41,0,2024-06-13T06:18:17.790Z,english_355.wav,0,1,1267,21,4,Chinese,f,2,0.2,71.39310534,0.74339822
FDQ,41,0,2024-06-13T06:18:17.790Z,english_355.wav,0,1,1267,21,4,Chinese,f,3,0.3,38.16266559,0.86152361
FDQ,41,0,2024-06-13T06:18:17.790Z,english_355.wav,0,1,1267,21,4,Chinese,f,4,0.32341667,-39.8799084,1.83215587
FDQ,42,0,2024-06-13T06:18:17.790Z,english_28.wav,0,0,973,21,4,Chinese,f,0,0,46.68805065,0.37315412
FDQ,42,0,2024-06-13T06:18:17.790Z,english_28.wav,0,0,973,21,4,Chinese,f,1,0.1,-19.91180265,0.08560602
FDQ,42,0,2024-06-13T06:18:17.790Z,english_28.wav,0,0,973,21,4,Chinese,f,2,0.2,30.74929008,0.67724734
FDQ,42,0,2024-06-13T06:18:17.790Z,english_28.wav,0,0,973,21,4,Chinese,f,3,0.3,14.01537548,0.53332652
FDQ,42,0,2024-06-13T06:18:17.790Z,english_28.wav,0,0,973,21,4,Chinese,f,4,0.32341667,-32.95915121,1.33480721
FDQ,43,0,2024-06-13T06:18:17.790Z,english_47.wav,0,1,2096,21,4,Chinese,f,0,0,70.62381491,1.36620222
FDQ,43,0,2024-06-13T06:18:17.790Z,english_47.wav,0,1,2096,21,4,Chinese,f,1,0.1,-43.60565268,0.47559644
FDQ,43,0,2024-06-13T06:18:17.790Z,english_47.wav,0,1,2096,21,4,Chinese,f,2,0.2,29.54670776,0.92078875
FDQ,43,0,2024-06-13T06:18:17.790Z,english_47.wav,0,1,2096,21,4,Chinese,f,3,0.3,95.208653,0.83015506
FDQ,43,0,2024-06-13T06:18:17.790Z,english_47.wav,0,1,2096,21,4,Chinese,f,4,0.32341667,-87.83630424,1.40747595
FDQ,44,0,2024-06-13T06:18:17.790Z,english_239.wav,0,0,1174,21,4,Chinese,f,0,0,87.44943986,1.42022081
FDQ,44,0,2024-06-13T06:18:17.790Z,english_239.wav,0,0,1174,21,4,Chinese,f,1,0.1,50.09814929,0.64261102
FDQ,44,0,2024-06-13T06:18:17.790Z,english_239.wav,0,0,1174,21,4,Chinese,f,2,0.2,-20.91132269,0.17156284
FDQ,44,0,2024-06-13T06:18:17.790Z,english_239.wav,0,0,1174,21,4,Chinese,f,3,0.3,1.56869958,1.89365974
FDQ,44,0,2024-06-13T06:18:17.790Z,english_239.wav,0,0,1174,21,4,Chinese,f,4,0.32341667,15.23790706,1.86939691
FDQ,45,0,2024-06-13T06:18:17.790Z,english_255.wav,0,1,2534,21,4,Chinese,f,0,0,-42.74550593,1.65518669
FDQ,45,0,2024-06-13T06:18:17.790Z,english_255.wav,0,1,2534,21,4,Chinese,f,1,0.1,35.44578771,1.85823386
FDQ,45,0,2024-06-13T06:18:17.790Z,english_255.wav,0,1,2534,21,4,Chinese,f,2,0.2,98.7346041,1.2123315
FDQ,45,0,2024-06-13T06:18:17.790Z,english_255.wav,0,1,2534,21,4,Chinese,f,3,0.3,14.08839822,0.62099519
FDQ,45,0,2024-06-13T06:18:17.790Z,english_255.wav,0,1,2534,21,4,Chinese,f,4,0.32341667,-55.38739786,1.08486436
FDQ,46,0,2024-06-13T06:18:17.790Z,english_854.wav,0,1,1054,21,4,Chinese,f,0,0,-3.2532791,1.78139632
FDQ,46,0,2024-06-13T06:18:17.790Z,english_854.wav,0,1,1054,21,4,Chinese,f,1,0.1,19.40039505,1.50161717
FDQ,46,0,2024-06-13T06:18:17.790Z,english_854.wav,0,1,1054,21,4,Chinese,f,2,0.2,-14.62360686,0.8978804
FDQ,46,0,2024-06-13T06:18:17.790Z,english_854.wav,0,1,1054,21,4,Chinese,f,3,0.3,-63.13820282,1.66267041
FDQ,46,0,2024-06-13T06:18:17.790Z,english_854.wav,0,1,1054,21,4,Chinese,f,4,0.32341667,44.42181264,1.68588082
FDQ,47,0,2024-06-13T06:18:17.790Z,english_443.wav,0,1,728,21,4,Chinese,f,0,0,0.608638,1.06022382
FDQ,47,0,2024-06-13T06:18:17.790Z,english_443.wav,0,1,728,21,4,Chinese,f,1,0.1,15.80398242,1.02694767
FDQ,47,0,2024-06-13T06:18:17.790Z,english_443.wav,0,1,728,21,4,Chinese,f,2,0.2,-53.8454718,0.72801533
FDQ,47,0,2024-06-13T06:18:17.790Z,english_443.wav,0,1,728,21,4,Chinese,f,3,0.3,32.36058062,1.22153209
FDQ,47,0,2024-06-13T06:18:17.790Z,english_443.wav,0,1,728,21,4,Chinese,f,4,0.32341667,41.23353215,0.58841963
FDQ,48,0,2024-06-13T06:18:17.790Z,english_199.wav,0,0,751,21,4,Chinese,f,0,0,-24.89956817,0.07306367
FDQ,48,0,2024-06-13T06:18:17.790Z,english_199.wav,0,0,751,21,4,Chinese,f,1,0.1,-48.49200931,0.10334581
FDQ,48,0,2024-06-13T06:18:17.790Z,english_199.wav,0,0,751,21,4,Chinese,f,2,0.2,-89.66548778,1.49062114
FDQ,48,0,2024-06-13T06:18:17.790Z,english_199.wav,0,0,751,21,4,Chinese,f,3,0.3,29.20785813,0.36717513
FDQ,48,0,2024-06-13T06:18:17.790Z,english_199.wav,0,0,751,21,4,Chinese,f,4,0.32341667,-88.68286362,1.33179809
FDQ,49,0,2024-06-13T06:18:17.790Z,english_59.wav,0,0,2009,21,4,Chinese,f,0,0,30.26604033,1.5973148
FDQ,49,0,2024-06-13T06:18:17.790Z,english_59.wav,0,0,2009,21,4,Chinese,f,1,0.1,25.69112756,0.24758472
FDQ,49,0,2024-06-13T06:18:17.790Z,english_59.wav,0,0,2009,21,4,Chinese,f,2,0.2,-24.85549033,0.1547886
FDQ,49,0,2024-06-13T06:18:17.790Z,english_59.wav,0,0,2009,21,4,Chinese,f,3,0.3,-31.2790444,0.30754036
FDQ,49,0,2024-06-13T06:18:17.790Z,english_59.wav,0,0,2009,21,4,Chinese,f,4,0.32341667,86.30355152,0.40312024
FDQ,50,1,2024-06-13T06:23:10.809Z,english_505.wav,0,0,1093,21,4,Chinese,f,0,0,-14.1569725,0.45361713
FDQ,50,1,2024-06-13T06:23:10.809Z,english_505.wav,0,0,1093,21,4,Chinese,f,1,0.1,55.52926248,0.94516805
FDQ,50,1,2024-06-13T06:23:10.809Z,english_505.wav,0,0,1093,21,4,Chinese,f,2,0.2,53.00334781,0.85342654
FDQ,50,1,2024-06-13T06:23:10.809Z,english_505.wav,0,0,1093,21,4,Chinese,f,3,0.3,75.03788466,1.32942474
FDQ,50,1,2024-06-13T06:23:10.809Z,english_505.wav,0,0,1093,21,4,Chinese,f,4,0.32341667,-7.91266729,0.93790665
FDQ,51,1,2024-06-13T06:23:10.809Z,english_438.wav,0,1,789,21,4,Chinese,f,0,0,31.75305261,1.38451981
FDQ,51,1,2024-06-13T06:23:10.809Z,english_438.wav,0,1,789,21,4,Chinese,f,1,0.1,20.27112767,1.99020027
FDQ,51,1,2024-06-13T06:23:10.809Z,english_438.wav,0,1,789,21,4,Chinese,f,2,0.2,66.65258945,0.15645945
FDQ,51,1,2024-06-13T06:23:10.809Z,english_438.wav,0,1,789,21,4,Chinese,f,3,0.3,70.72003494,1.37678514
FDQ,51,1,2024-06-13T06:23:10.809Z,english_438.wav,0,1,789,21,4,Chinese,f,4,0.32341667,59.11013505,0.82730153
FDQ,52,1,2024-06-13T06:23:10.809Z,english_496.wav,0,0,3195,21,4,Chinese,f,0,0,-50.36729616,1.24588939
FDQ,52,1,2024-06-13T06:23:10.809Z,english_496.wav,0,0,3195,21,4,Chinese,f,1,0.1,43.15166092,1.651593
FDQ,52,1,2024-06-13T06:23:10.809Z,english_496.wav,0,0,3195,21,4,Chinese,f,2,0.2,-89.08132341,0.94120535
FDQ,52,1,2024-06-13T06:23:10.809Z,english_496.wav,0,0,3195,21,4,Chinese,f,3,0.3,-31.93753525,0.55989053
FDQ,52,1,2024-06-13T06:23:10.809Z,english_496.wav,0,0,3195,21,4,Chinese,f,4,0.32341667,-79.66514086,1.95233748
FDQ,53,1,2024-06-13T06:23:10.809Z,english_266.wav,0,1,381,21,4,Chinese,f,0,0,16.70772117,0.81064175
FDQ,53,1,2024-06-13T06:23:10.809Z,english_266.wav,0,1,381,21,4,Chinese,f,1,0.1,-61.82971906,1.48442032
FDQ,53,1,2024-06-13T06:23:10.809Z,english_266.wav,0,1,381,21,4,Chinese,f,2,0.2,-31.41060896,1.39445033
FDQ,53,1,2024-06-13T06:23:10.809Z,english_266.wav,0,1,381,21,4,Chinese,f,3,0.3,-8.94045194,1.01594082
FDQ,53,1,2024-06-13T06:23:10.809Z,english_266.wav,0,1,381,21,4,Chinese,f,4,0.32341667,-27.43066022,0.75934284
FDQ,54,1,2024-06-13T06:23:10.809Z,english_284.wav,0,0,948,21,4,Chinese,f,0,0,-77.15161711,0.74585549
FDQ,54,1,2024-06-13T06:23:10.809Z,english_284.wav,0,0,948,21,4,Chinese,f,1,0.1,80.53955212,0.017077
FDQ,54,1,2024-06-13T06:23:10.809Z,english_284.wav,0,0,948,21,4,Chinese,f,2,0.2,-73.74967403,0.284322
FDQ,54,1,2024-06-13T06:23:10.809Z,english_284.wav,0,0,948,21,4,Chinese,f,3,0.3,-47.67008962,1.04459593
FDQ,54,1,2024-06-13T06:23:10.809Z,english_284.wav,0,0,948,21,4,Chinese,f,4,0.32341667,40.40758666,0.8536958
FDQ,55,1,2024-06-13T06:23:10.809Z,english_127.wav,0,1,890,21,4,Chinese,f,0,0,-69.70750805,0.25070661
FDQ,55,1,2024-06-13T06:23:10.809Z,english_127.wav,0,1,890,21,4,Chinese,f,1,0.1,-23.17484413,1.1475992
FDQ,55,1,2024-06-13T06:23:10.809Z,english_127.wav,0,1,890,21,4,Chinese,f,2,0.2,16.27024862,1.99299371
FDQ,55,1,2024-06-13T06:23:10.809Z,english_127.wav,0,1,890,21,4,Chinese,f,3,0.3,-50.08342814,0.57749513
FDQ,55,1,2024-06-13T06:23:10.809Z,english_127.wav,0,1,890,21,4,Chinese,f,4,0.32341667,22.60332787,1.27832678
FDQ,56,1,2024-06-13T06:23:10.809Z,english_287.wav,0,0,674,21,4,Chinese,f,0,0,-5.71925808,1.04112926
FDQ,56,1,2024-06-13T06:23:10.809Z,english_287.wav,0,0,674,21,4,Chinese,f,1,0.1,-94.78041007,0.35149142
FDQ,56,1,2024-06-13T06:23:10.809Z,english_287.wav,0,0,674,21,4,Chinese,f,2,0.2,8.34641368,0.86781598
FDQ,56,1,2024-06-13T06:23:10.809Z,english_287.wav,0,0,674,21,4,Chinese,f,3,0.3,36.34893025,1.897904
FDQ,56,1,2024-06-13T06:23:10.809Z,english_287.wav,0,0,674,21,4,Chinese,f,4,0.32341667,-22.47689594,0.5607403
FDQ,57,1,2024-06-13T06:23:10.809Z,english_106.wav,0,1,1038,21,4,Chinese,f,0,0,-46.25200282,0.21046793
FDQ,57,1,2024-06-13T06:23:10.809Z,english_106.wav,0,1,1038,21,4,Chinese,f,1,0.1,-83.38564728,1.42142181
FDQ,57,1,2024-06-13T06:23:10.809Z,english_106.wav,0,1,1038,21,4,Chinese,f,2,0.2,68.00501759,0.86156936
FDQ,57,1,2024-06-13T06:23:10.809Z,english_106.wav,0,1,1038,21,4,Chinese,f,3,0.3,49.15199267,0.65348811
FDQ,57,1,2024-06-13T06:23:10.809Z,english_106.wav,0,1,1038,21,4,Chinese,f,4,0.32341667,-5.93966373,0.76273979
FDQ,58,1,2024-06-13T06:23:10.809Z,english_230.wav,0,0,4381,21,4,Chinese,f,0,0,59.01519707,0.66464778
FDQ,58,1,2024-06-13T06:23:10.809Z,english_230.wav,0,0,4381,21,4,Chinese,f,1,0.1,-74.67447784,1.09498554
FDQ,58,1,2024-06-13T06:23:10.809Z,english_230.wav,0,0,4381,21,4,Chinese,f,2,0.2,78.11378701,0.24708562
FDQ,58,1,2024-06-13T06:23:10.809Z,english_230.wav,0,0,4381,21,4,Chinese,f,3,0.3,26.79367619,1.40152246
FDQ,58,1,2024-06-13T06:23:10.809Z,english_230.wav,0,0,4381,21,4,Chinese,f,4,0.32341667,29.92451654,1.02203861
FDQ,59,1,2024-06-13T06:23:10.809Z,english_545.wav,0,0,2050,21,4,Chinese,f,0,0,42.99494118,1.37740168
FDQ,59,1,2024-06-13T06:23:10.809Z,english_545.wav,0,0,2050,21,4,Chinese,f,1,0.1,72.53025652,0.91972232
FDQ,59,1,2024-06-13T06:23:10.809Z,english_545.wav,0,0,2050,21,4,Chinese,f,2,0.2,4.60849844,0.73226975
FDQ,59,1,2024-06-13T06:23:10.809Z,english_545.wav,0,0,2050,21,4,Chinese,f,3,0.3,9.93291538,1.52934768
FDQ,59,1,2024-06-13T06:23:10.809Z,english_545.wav,0,0,2050,21,4,Chinese,f,4,0.32341667,-11.25611892,0.18478607
FDQ,60,1,2024-06-13T06:23:10.809Z,english_111.wav,0,0,439,21,4,Chinese,f,0,0,43.12539807,1.84745579
FDQ,60,1,2024-06-13T06:23:10.809Z,english_111.wav,0,0,439,21,4,Chinese,f,1,0.1,63.99665526,0.92577031
FDQ,60,1,2024-06-13T06:23:10.809Z,english_111.wav,0,0,439,21,4,Chinese,f,2,0.2,86.04570556,0.31264784
FDQ,60,1,2024-06-13T06:23:10.809Z,english_111.wav,0,0,439,21,4,Chinese,f,3,0.3,-25.76798659,0.89352032
FDQ,60,1,2024-06-13T06:23:10.809Z,english_111.wav,0,0,439,21,4,Chinese,f,4,0.32341667,-36.14422463,0.32138535
FDQ,61,1,2024-06-13T06:23:10.809Z,english_122.wav,0,1,345,21,4,Chinese,f,0,0,64.29837997,0.06121643
FDQ,61,1,2024-06-13T06:23:10.809Z,english_122.wav,0,1,345,21,4,Chinese,f,1,0.1,-6.72103776,1.56183773
FDQ,61,1,2024-06-13T06:23:10.809Z,english_122.wav,0,1,345,21,4,Chinese,f,2,0.2,34.67911304,1.3577209
FDQ,61,1,2024-06-13T06:23:10.809Z,english_122.wav,0,1,345,21,4,Chinese,f,3,0.3,25.29178735,0.94012362
FDQ,61,1,2024-06-13T06:23:10.809Z,english_122.wav,0,1,345,21,4,Chinese,f,4,0.32341667,-20.34954259,1.04570986
FDQ,62,1,2024-06-13T06:23:10.809Z,english_478.wav,0,1,1521,21,4,Chinese,f,0,0,-70.9954821,0.91489342
FDQ,62,1,2024-06-13T06:23:10.809Z,english_478.wav,0,1,1521,21,4,Chinese,f,1,0.1,18.763036,1.0325944
FDQ,62,1,2024-06-13T06:23:10.809Z,english_478.wav,0,1,1521,21,4,Chinese,f,2,0.2,84.30682023,1.47139294
FDQ,62,1,2024-06-13T06:23:10.809Z,english_478.wav,0,1,1521,21,4,Chinese,f,3,0.3,96.70790152,0.31719256
FDQ,62,1,2024-06-13T06:23:10.809Z,english_478.wav,0,1,1521,21,4,Chinese,f,4,0.32341667,-65.75430749,1.1469235
FDQ,63,1,2024-06-13T06:23:10.809Z,english_128.wav,0,0,564,21,4,Chinese,f,0,0,-84.07301703,0.96445051
FDQ,63,1,2024-06-13T06:23:10.809Z,english_128.wav,0,0,564,21,4,Chinese,f,1,0.1,0.2051398,0.77165422
FDQ,63,1,2024-06-13T06:23:10.809Z,english_128.wav,0,0,564,21,4,Chinese,f,2,0.2,50.77588291,0.60279997
FDQ,63,1,2024-06-13T06:23:10.809Z,english_128.wav,0,0,564,21,4,Chinese,f,3,0.3,3.27834455,0.59915485
FDQ,63,1,2024-06-13T06:23:10.809Z,english_128.wav,0,0,564,21,4,Chinese,f,4,0.32341667,59.5943459,0.43521132
FDQ,64,1,2024-06-13T06:23:10.809Z,english_512.wav,0,1,534,21,4,Chinese,f,0,0,92.76608442,1.91273189
FDQ,64,1,2024-06-13T06:23:10.809Z,english_512.wav,0,1,534,21,4,Chinese,f,1,0.1,-20.68005196,1.02897077
FDQ,64,1,2024-06-13T06:23:10.809Z,english_512.wav,0,1,534,21,4,Chinese,f,2,0.2,-55.10098951,0.7965214
FDQ,64,1,2024-06-13T06:23:10.809Z,english_512.wav,0,1,534,21,4,Chinese,f,3,0.3,79.8086149,1.98502062
FDQ,64,1,2024-06-13T06:23:10.809Z,english_512.wav,0,1,534,21,4,Chinese,f,4,0.32341667,-91.21136492,0.13323305
FDQ,65,1,2024-06-13T06:23:10.809Z,english_270.wav,0,1,608,21,4,Chinese,f,0,0,-54.89328754,1.02368747
FDQ,65,1,2024-06-13T06:23:10.809Z,english_270.wav,0,1,608,21,4,Chinese,f,1,0.1,-41.12345733,1.74263534
FDQ,65,1,2024-06-13T06:23:10.809Z,english_270.wav,0,1,608,21,4,Chinese,f,2,0.2,79.03328036,0.45342006
FDQ,65,1,2024-06-13T06:23:10.809Z,english_270.wav,0,1,608,21,4,Chinese,f,3,0.3,-87.71335894,1.29911503
FDQ,65,1,2024-06-13T06:23:10.809Z,english_270.wav,0,1,608,21,4,Chinese,f,4,0.32341667,-48.20373708,0.95859349
FDQ,66,1,2024-06-13T06:23:10.809Z,english_300.wav,0,0,750,21,4,Chinese,f,0,0,-57.32903368,1.31106943
FDQ,66,1,2024-06-13T06:23:10.809Z,english_300.wav,0,0,750,21,4,Chinese,f,1,0.1,-14.80176218,1.36432179
FDQ,66,1,2024-06-13T06:23:10.809Z,english_300.wav,0,0,750,21,4,Chinese,f,2,0.2,17.32090115,1.9756976
FDQ,66,1,2024-06-13T06:23:10.809Z,english_300.wav,0,0,750,21,4,Chinese,f,3,0.3,9.38584248,1.38621255
FDQ,66,1,2024-06-13T06:23:10.809Z,english_300.wav,0,0,750,21,4,Chinese,f,4,0.32341667,-54.58865419,1.60203422
FDQ,67,1,2024-06-13T06:23:10.809Z,english_689.wav,0,0,544,21,4,Chinese,f,0,0,42.02822248,1.89069384
FDQ,67,1,2024-06-13T06:23:10.809Z,english_689.wav,0,0,544,21,4,Chinese,f,1,0.1,-61.92185233,0.33123617
FDQ,67,1,2024-06-13T06:23:10.809Z,english_689.wav,0,0,544,21,4,Chinese,f,2,0.2,-8.45156809,0.5478675
FDQ,67,1,2024-06-13T06:23:10.809Z,english_689.wav,0,0,544,21,4,Chinese,f,3,0.3,15.09500637,0.80334133
FDQ,67,1,2024-06-13T06:23:10.809Z,english_689.wav,0,0,544,21,4,Chinese,f,4,0.32341667,8.33163023,1.42024866
FDQ,68,1,2024-06-13T06:23:10.809Z,english_69.wav,0,0,566,21,4,Chinese,f,0,0,-57.18730239,0.11878381
FDQ,68,1,2024-06-13T06:23:10.809Z,english_69.wav,0,0,566,21,4,Chinese,f,1,0.1,16.22212469,1.00797921
FDQ,68,1,2024-06-13T06:23:10.809Z,english_69.wav,0,0,566,21,4,Chinese,f,2,0.2,-44.28071093,0.42082068
FDQ,68,1,2024-06-13T06:23:10.809Z,english_69.wav,0,0,566,21,4,Chinese,f,3,0.3,-70.80378082,0.50205716
FDQ,68,1,2024-06-13T06:23:10.809Z,english_69.wav,0,0,566,21,4,Chinese,f,4,0.32341667,-58.3439892,0.68985838
FDQ,69,1,2024-06-13T06:23:10.809Z,english_753.wav,0,1,771,21,4,Chinese,f,0,0,38.61944715,0.75641923
FDQ,69,1,2024-06-13T06:23:10.809Z,english_753.wav,0,1,771,21,4,Chinese,f,1,0.1,-76.3398938,1.17320485
FDQ,69,1,2024-06-13T06:23:10.809Z,english_753.wav,0,1,771,21,4,Chinese,f,2,0.2,-80.92813522,0.63072958
FDQ,69,1,2024-06-13T06:23:10.809Z,english_753.wav,0,1,771,21,4,Chinese,f,3,0.3,-16.48508052,1.96252246
FDQ,69,1,2024-06-13T06:23:10.809Z,english_753.wav,0,1,771,21,4,Chinese,f,4,0.32341667,16.23487259,1.97125296
FDQ,70,1,2024-06-13T06:23:10.809Z,english_89.wav,0,0,612,21,4,Chinese,f,0,0,-42.28936571,1.68633095
FDQ,70,1,2024-06-13T06:23:10.809Z,english_89.wav,0,0,612,21,4,Chinese,f,1,0.1,12.96738115,0.49078122
FDQ,70,1,2024-06-13T06:23:10.809Z,english_89.wav,0,0,612,21,4,Chinese,f,2,0.2,-0.92476461,0.75584791
FDQ,70,1,2024-06-13T06:23:10.809Z,english_89.wav,0,0,612,21,4,Chinese,f,3,0.3,54.46155283,1.37155139
FDQ,70,1,2024-06-13T06:23:10.809Z,english_89.wav,0,0,612,21,4,Chinese,f,4,0.32341667,-5.27724964,0.6613642
FDQ,71,1,2024-06-13T06:23:10.809Z,english_706.wav,0,0,719,21,4,Chinese,f,0,0,-14.02426606,0.18721001
FDQ,71,1,2024-06-13T06:23:10.809Z,english_706.wav,0,0,719,21,4,Chinese,f,1,0.1,23.81630209,0.48464851
FDQ,71,1,2024-06-13T06:23:10.809Z,english_706.wav,0,0,719,21,4,Chinese,f,2,0.2,94.24266466,1.46456973
FDQ,71,1,2024-06-13T06:23:10.809Z,english_706.wav,0,0,719,21,4,Chinese,f,3,0.3,20.03642156,0.11403632
FDQ,71,1,2024-06-13T06:23:10.809Z,english_706.wav,0,0,719,21,4,Chinese,f,4,0.32341667,57.92570785,0.61389372
FDQ,72,1,2024-06-13T06:23:10.809Z,english_608.wav,0,1,1001,21,4,Chinese,f,0,0,78.8022196,1.54390555
FDQ,72,1,2024-06-13T06:23:10.809Z,english_608.wav,0,1,1001,21,4,Chinese,f,1,0.1,59.03316834,1.36513164
FDQ,72,1,2024-06-13T06:23:10.809Z,english_608.wav,0,1,1001,21,4,Chinese,f,2,0.2,-13.94961152,0.78716897
FDQ,72,1,2024-06-13T06:23:10.809Z,english_608.wav,0,1,1001,21,4,Chinese,f,3,0.3,55.83681575,1.29889886
FDQ,72,1,2024-06-13T06:23:10.809Z,english_608.wav,0,1,1001,21,4,Chinese,f,4,0.32341667,-13.77656228,0.44376749
FDQ,73,1,2024-06-13T06:23:10.809Z,english_403.wav,0,0,1128,21,4,Chinese,f,0,0,-92.65414009,1.93574734
FDQ,73,1,2024-06-13T06:23:10.809Z,english_403.wav,0,0,1128,21,4,Chinese,f,1,0.1,75.99659731,0.36447309
FDQ,73,1,2024-06-13T06:23:10.809Z,english_403.wav,0,0,1128,21,4,Chinese,f,2,0.2,-27.37801557,1.02888701
FDQ,73,1,2024-06-13T06:23:10.809Z,english_403.wav,0,0,1128,21,4,Chinese,f,3,0.3,-80.04540334,0.02385722
FDQ,73,1,2024-06-13T06:23:10.809Z,english_403.wav,0,0,1128,21,4,Chinese,f,4,0.32341667,30.50648557,1.40553938
FDQ,74,1,2024-06-13T06:23:10.809Z,english_692.wav,0,1,918,21,4,Chinese,f,0,0,-29.13306787,0.55849531
FDQ,74,1,2024-06-13T06:23:10.809Z,english_692.wav,0,1,918,21,4,Chinese,f,1,0.1,-41.86406343,1.96517265
FDQ,74,1,2024-06-13T06:23:10.809Z,english_692.wav,0,1,918,21,4,Chinese,f,2,0.2,-94.94051661,0.19953253
FDQ,74,1,2024-06-13T06:23:10.809Z,english_692.wav,0,1,918,21,4,Chinese,f,3,0.3,78.40426091,1.89357941
FDQ,74,1,2024-06-13T06:23:10.809Z,english_692.wav,0,1,918,21,4,Chinese,f,4,0.32341667,-47.11562344,1.37874109
FDQ,75,1,2024-06-13T06:23:10.809Z,english_294.wav,0,0,1574,21,4,Chinese,f,0,0,-92.15775888,0.74816787
FDQ,75,1,2024-06-13T06:23:10.809Z,english_294.wav,0,0,1574,21,4,Chinese,f,1,0.1,71.96645866,1.71916745
FDQ,75,1,2024-06-13T06:23:10.809Z,english_294.wav,0,0,1574,21,4,Chinese,f,2,0.2,-25.46852775,1.7524902
FDQ,75,1,2024-06-13T06:23:10.809Z,english_294.wav,0,0,1574,21,4,Chinese,f,3,0.3,17.21488016,0.9780509
FDQ,75,1,2024-06-13T06:23:10.809Z,english_294.wav,0,0,1574,21,4,Chinese,f,4,0.32341667,-10.41176069,1.21177262
FDQ,76,1,2024-06-13T06:23:10.809Z,english_647.wav,0,1,1821,21,4,Chinese,f,0,0,-8.76796469,1.6238225
FDQ,76,1,2024-06-13T06:23:10.809Z,english_647.wav,0,1,1821,21,4,Chinese,f,1,0.1,-49.13996982,1.56934089
FDQ,76,1,2024-06-13T06:23:10.809Z,english_647.wav,0,1,1821,21,4,Chinese,f,2,0.2,43.79634461,0.78560304
FDQ,76,1,2024-06-13T06:23:10.809Z,english_647.wav,0,1,1821,21,4,Chinese,f,3,0.3,5.5781311,0.61771672
FDQ,76,1,2024-06-13T06:23:10.809Z,english_647.wav,0,1,1821,21,4,Chinese,f,4,0.32341667,17.41251701,1.2404866
FDQ,77,1,2024-06-13T06:23:10.809Z,english_708.wav,0,0,836,21,4,Chinese,f,0,0,-27.19248895,0.74061838
FDQ,77,1,2024-06-13T06:23:10.809Z,english_708.wav,0,0,836,21,4,Chinese,f,1,0.1,84.25795725,1.13599963
FDQ,77,1,2024-06-13T06:23:10.809Z,english_708.wav,0,0,836,21,4,Chinese,f,2,0.2,-19.19551503,1.10086254
FDQ,77,1,2024-06-13T06:23:10.809Z,english_708.wav,0,0,836,21,4,Chinese,f,3,0.3,29.88012033,0.53054382
FDQ,77,1,2024-06-13T06:23:10.809Z,english_708.wav,0,0,836,21,4,Chinese,f,4,0.32341667,46.0858662,1.51974387
FDQ,78,1,2024-06-13T06:23:10.809Z,english_379.wav,0,1,1285,21,4,Chinese,f,0,0,30.14616912,1.43961489
FDQ,78,1,2024-06-13T06:23:10.809Z,english_379.wav,0,1,1285,21,4,Chinese,f,1,0.1,-79.51193423,1.4219763
FDQ,78,1,2024-06-13T06:23:10.809Z,english_379.wav,0,1,1285,21,4,Chinese,f,2,0.2,7.34860539,0.62633101
FDQ,78,1,2024-06-13T06:23:10.809Z,english_379.wav,0,1,1285,21,4,Chinese,f,3,0.3,-43.99342265,1.13621958
FDQ,78,1,2024-06-13T06:23:10.809Z,english_379.wav,0,1,1285,21,4,Chinese,f,4,0.32341667,37.72881761,1.35387794
FDQ,79,1,2024-06-13T06:23:10.809Z,english_788.wav,0,1,901,21,4,Chinese,f,0,0,-93.79628683,0.67330318
FDQ,79,1,2024-06-13T06:23:10.809Z,english_788.wav,0,1,901,21,4,Chinese,f,1,0.1,-45.29703147,1.33385595
FDQ,79,1,2024-06-13T06:23:10.809Z,english_788.wav,0,1,901,21,4,Chinese,f,2,0.2,-46.01001772,1.35248941
FDQ,79,1,2024-06-13T06:23:10.809Z,english_788.wav,0,1,901,21,4,Chinese,f,3,0.3,-56.6729179,1.33220146
FDQ,79,1,2024-06-13T06:23:10.809Z,english_788.wav,0,1,901,21,4,Chinese,f,4,0.32341667,51.29020462,1.32468206
FDQ,80,1,2024-06-13T06:23:10.809Z,english_514.wav,0,0,1119,21,4,Chinese,f,0,0,-61.65105701,1.12509033
FDQ,80,1,2024-06-13T06:23:10.809Z,english_514.wav,0,0,1119,21,4,Chinese,f,1,0.1,49.84264816,0.78701739
FDQ,80,1,2024-06-13T06:23:10.809Z,english_514.wav,0,0,1119,21,4,Chinese,f,2,0.2,14.14440898,0.37052689
FDQ,80,1,2024-06-13T06:23:10.809Z,english_514.wav,0,0,1119,21,4,Chinese,f,3,0.3,-30.10662908,1.42053426
FDQ,80,1,2024-06-13T06:23:10.809Z,english_514.wav,0,0,1119,21,4,Chinese,f,4,0.32341667,90.48337022,1.94621598
FDQ,81,1,2024-06-13T06:23:10.809Z,english_952.wav,0,1,433,21,4,Chinese,f,0,0,64.91746033,1.00586425
FDQ,81,1,2024-06-13T06:23:10.809Z,english_952.wav,0,1,433,21,4,Chinese,f,1,0.1,-25.84234774,1.28790365
FDQ,81,1,2024-06-13T06:23:10.809Z,english_952.wav,0,1,433,21,4,Chinese,f,2,0.2,60.30097417,1.6668124
FDQ,81,1,2024-06-13T06:23:10.809Z,english_952.wav,0,1,433,21,4,Chinese,f,3,0.3,-98.0606555,1.44616756
FDQ,81,1,2024-06-13T06:23:10.809Z,english_952.wav,0,1,433,21,4,Chinese,f,4,0.32341667,-77.98984902,0.15831209
FDQ,82,1,2024-06-13T06:23:10.809Z,english_48.wav,0,0,1107,21,4,Chinese,f,0,0,73.79399561,0.74385981
FDQ,82,1,2024-06-13T06:23:10.809Z,english_48.wav,0,0,1107,21,4,Chinese,f,1,0.1,-6.33056249,1.05457567
FDQ,82,1,2024-06-13T06:23:10.809Z,english_48.wav,0,0,1107,21,4,Chinese,f,2,0.2,-25.55346814,0.45493163
FDQ,82,1,2024-06-13T06:23:10.809Z,english_48.wav,0,0,1107,21,4,Chinese,f,3,0.3,46.43305776,0.06513279
FDQ,82,1,2024-06-13T06:23:10.809Z,english_48.wav,0,0,1107,21,4,Chinese,f,4,0.32341667,-46.56414761,0.46755714
FDQ,83,1,2024-06-13T06:23:10.809Z,english_687.wav,0,0,809,21,4,Chinese,f,0,0,86.90300909,0.475784
FDQ,83,1,2024-06-13T06:23:10.809Z,english_687.wav,0,0,809,21,4,Chinese,f,1,0.1,79.71843279,0.40603367
FDQ,83,1,2024-06-13T06:23:10.809Z,english_687.wav,0,0,809,21,4,Chinese,f,2,0.2,34.94433723,0.97706088
FDQ,83,1,2024-06-13T06:23:10.809Z,english_687.wav,0,0,809,21,4,Chinese,f,3,0.3,-45.53952821,0.65075382
FDQ,83,1,2024-06-13T06:23:10.809Z,english_687.wav,0,0,809,21,4,Chinese,f,4,0.32341667,63.0204093,0.93918167
FDQ,84,1,2024-06-13T06:23:10.809Z,english_610.wav,0,0,1782,21,4,Chinese,f,0,0,-14.96432812,0.5672697
FDQ,84,1,2024-06-13T06:23:10.809Z,english_610.wav,0,0,1782,21,4,Chinese,f,1,0.1,48.51886955,0.75156182
FDQ,84,1,2024-06-13T06:23:10.809Z,english_610.wav,0,0,1782,21,4,Chinese,f,2,0.2,47.07358548,0.38846335
FDQ,84,1,2024-06-13T06:23:10.809Z,english_610.wav,0,0,1782,21,4,Chinese,f,3,0.3,17.30383174,1.52072292
FDQ,84,1,2024-06-13T06:23:10.809Z,english_610.wav,0,0,1782,21,4,Chinese,f,4,0.32341667,1.51764356,1.56024836
FDQ,85,1,2024-06-13T06:23:10.809Z,english_640.wav,0,0,1442,21,4,Chinese,f,0,0,74.95875769,1.81273707
FDQ,85,1,2024-06-13T06:23:10.809Z,english_640.wav,0,0,1442,21,4,Chinese,f,1,0.1,87.73764633,1.50076703
FDQ,85,1,2024-06-13T06:23:10.809Z,english_640.wav,0,0,1442,21,4,Chinese,f,2,0.2,-71.36544648,0.25286143
FDQ,85,1,2024-06-13T06:23:10.809Z,english_640.wav,0,0,1442,21,4,Chinese,f,3,0.3,11.07583082,0.53181051
FDQ,85,1,2024-06-13T06:23:10.809Z,english_640.wav,0,0,1442,21,4,Chinese,f,4,0.32341667,18.32643638,0.76351343
FDQ,86,1,2024-06-13T06:23:10.809Z,english_643.wav,0,1,1544,21,4,Chinese,f,0,0,-40.15003434,1.60262153
FDQ,86,1,2024-06-13T06:23:10.809Z,english_643.wav,0,1,1544,21,4,Chinese,f,1,0.1,-24.12893917,1.7682358
FDQ,86,1,2024-06-13T06:23:10.809Z,english_643.wav,0,1,1544,21,4,Chinese,f,2,0.2,-40.66556796,0.31725537
FDQ,86,1,2024-06-13T06:23:10.809Z,english_643.wav,0,1,1544,21,4,Chinese,f,3,0.3,75.01987067,0.56722121
FDQ,86,1,2024-06-13T06:23:10.809Z,english_643.wav,0,1,1544,21,4,Chinese,f,4,0.32341667,29.71481383,1.87277365
FDQ,87,1,2024-06-13T06:23:10.809Z,english_868.wav,0,0,1223,21,4,Chinese,f,0,0,-32.61379415,0.76599538
FDQ,87,1,2024-06-13T06:23:10.809Z,english_868.wav,0,0,1223,21,4,Chinese,f,1,0.1,-13.61007492,0.34348987
FDQ,87,1,2024-06-13T06:23:10.809Z,english_868.wav,0,0,1223,21,4,Chinese,f,2,0.2,-35.23756027,0.26787397
FDQ,87,1,2024-06-13T06:23:10.809Z,english_868.wav,0,0,1223,21,4,Chinese,f,3,0.3,83.12333319,0.46343078
FDQ,87,1,2024-06-13T06:23:10.809Z,english_868.wav,0,0,1223,21,4,Chinese,f,4,0.32341667,62.80865362,1.59158725
FDQ,88,1,2024-06-13T06:23:10.809Z,english_214.wav,0,1,1665,21,4,Chinese,f,0,0,58.82847816,1.81864401
FDQ,88,1,2024-06-13T06:23:10.809Z,english_214.wav,0,1,1665,21,4,Chinese,f,1,0.1,87.26801489,0.97241975
FDQ,88,1,2024-06-13T06:23:10.809Z,english_214.wav,0,1,1665,21,4,Chinese,f,2,0.2,-28.10234025,1.91423566
FDQ,88,1,2024-06-13T06:23:10.809Z,english_214.wav,0,1,1665,21,4,Chinese,f,3,0.3,-36.12188516,1.71940232
FDQ,88,1,2024-06-13T06:23:10.809Z,english_214.wav,0,1,1665,21,4,Chinese,f,4,0.32341667,-45.93983978,0.68694042
FDQ,89,1,2024-06-13T06:23:10.809Z,english_547.wav,0,1,1042,21,4,Chinese,f,0,0,30.48969685,1.04682874
FDQ,89,1,2024-06-13T06:23:10.809Z,english_547.wav,0,1,1042,21,4,Chinese,f,1,0.1,-38.27442703,0.75017858
FDQ,89,1,2024-06-13T06:23:10.809Z,english_547.wav,0,1,1042,21,4,Chinese,f,2,0.2,29.58442849,0.7996645
FDQ,89,1,2024-06-13T06:23:10.809Z,english_547.wav,0,1,1042,21,4,Chinese,f,3,0.3,-4.27268154,1.92102789
FDQ,89,1,2024-06-13T06:23:10.809Z,english_547.wav,0,1,1042,21,4,Chinese,f,4,0.32341667,58.02076364,1.77056707
FDQ,90,1,2024-06-13T06:23:10.809Z,english_985.wav,0,0,828,21,4,Chinese,f,0,0,31.76144354,0.46805505
FDQ,90,1,2024-06-13T06:23:10.809Z,english_985.wav,0,0,828,21,4,Chinese,f,1,0.1,49.0534069,1.72857245
FDQ,90,1,2024-06-13T06:23:10.809Z,english_985.wav,0,0,828,21,4,Chinese,f,2,0.2,-59.14058353,0.05336254
FDQ,90,1,2024-06-13T06:23:10.809Z,english_985.wav,0,0,828,21,4,Chinese,f,3,0.3,-36.25561351,0.45417652
FDQ,90,1,2024-06-13T06:23:10.809Z,english_985.wav,0,0,828,21,4,Chinese,f,4,0.32341667,-53.50268286,1.33850641
FDQ,91,1,2024-06-13T06:23:10.809Z,english_918.wav,0,1,345,21,4,Chinese,f,0,0,-64.11083249,1.38668504
FDQ,91,1,2024-06-13T06:23:10.809Z,english_918.wav,0,1,345,21,4,Chinese,f,1,0.1,75.84330997,1.4522357
FDQ,91,1,2024-06-13T06:23:10.809Z,english_918.wav,0,1,345,21,4,Chinese,f,2,0.2,-30.10314186,1.37046734
FDQ,91,1,2024-06-13T06:23:10.809Z,english_918.wav,0,1,345,21,4,Chinese,f,3,0.3,91.40385877,0.70209545
FDQ,91,1,2024-06-13T06:23:10.809Z,english_918.wav,0,1,345,21,4,Chinese,f,4,0.32341667,-14.12068895,0.09881605
FDQ,92,1,2024-06-13T06:23:10.809Z,english_390.wav,0,1,2149,21,4,Chinese,f,0,0,-50.40750922,1.41643644
FDQ,92,1,2024-06-13T06:23:10.809Z,english_390.wav,0,1,2149,21,4,Chinese,f,1,0.1,-38.67641955,0.84399933
FDQ,92,1,2024-06-13T06:23:10.809Z,english_390.wav,0,1,2149,21,4,Chinese,f,2,0.2,-37.03459725,1.67796426
FDQ,92,1,2024-06-13T06:23:10.809Z,english_390.wav,0,1,2149,21,4,Chinese,f,3,0.3,-24.07335547,0.43781117
FDQ,92,1,2024-06-13T06:23:10.809Z,english_390.wav,0,1,2149,21,4,Chinese,f,4,0.32341667,75.09366884,0.01225463
FDQ,93,1,2024-06-13T06:23:10.809Z,english_894.wav,0,0,1325,21,4,Chinese,f,0,0,55.36181915,0.37154348
FDQ,93,1,2024-06-13T06:23:10.809Z,english_894.wav,0,0,1325,21,4,Chinese,f,1,0.1,1.74798824,0.78809476
FDQ,93,1,2024-06-13T06:23:10.809Z,english_894.wav,0,0,1325,21,4,Chinese,f,2,0.2,53.5320483,0.08099688
FDQ,93,1,2024-06-13T06:23:10.809Z,english_894.wav,0,0,1325,21,4,Chinese,f,3,0.3,-10.60196251,1.90254096
FDQ,93,1,2024-06-13T06:23:10.809Z,english_894.wav,0,0,1325,21,4,Chinese,f,4,0.32341667,46.95013059,0.68783971
FDQ,94,1,2024-06-13T06:23:10.809Z,english_240.wav,0,1,609,21,4,Chinese,f,0,0,-96.55121617,1.04823872
FDQ,94,1,2024-06-13T06:23:10.809Z,english_240.wav,0,1,609,21,4,Chinese,f,1,0.1,73.99435309,1.11556714
FDQ,94,1,2024-06-13T06:23:10.809Z,english_240.wav,0,1,609,21,4,Chinese,f,2,0.2,-27.17256968,0.68795106
FDQ,94,1,2024-06-13T06:23:10.809Z,english_240.wav,0,1,609,21,4,Chinese,f,3,0.3,-2.05185553,1.30325309
FDQ,94,1,2024-06-13T06:23:10.809Z,english_240.wav,0,1,609,21,4,Chinese,f,4,0.32341667,80.37406519,0.86977317
FDQ,95,1,2024-06-13T06:23:10.809Z,english_452.wav,0,1,1825,21,4,Chinese,f,0,0,-15.91859121,0.16050204
FDQ,95,1,2024-06-13T06:23:10.809Z,english_452.wav,0,1,1825,21,4,Chinese,f,1,0.1,66.54493607,1.05820221
FDQ,95,1,2024-06-13T06:23:10.809Z,english_452.wav,0,1,1825,21,4,Chinese,f,2,0.2,49.2405228,1.42476674
FDQ,95,1,2024-06-13T06:23:10.809Z,english_452.wav,0,1,1825,21,4,Chinese,f,3,0.3,-8.75382859,0.48128336
FDQ,95,1,2024-06-13T06:23:10.809Z,english_452.wav,0,1,1825,21,4,Chinese,f,4,0.32341667,-35.51952716,0.52453318
FDQ,96,1,2024-06-13T06:23:10.809Z,english_203.wav,0,0,651,21,4,Chinese,f,0,0,-22.28277813,1.31475846
FDQ,96,1,2024-06-13T06:23:10.809Z,english_203.wav,0,0,651,21,4,Chinese,f,1,0.1,13.21695477,1.08922412
FDQ,96,1,2024-06-13T06:23:10.809Z,english_203.wav,0,0,651,21,4,Chinese,f,2,0.2,63.23651974,0.55450355
FDQ,96,1,2024-06-13T06:23:10.809Z,english_203.wav,0,0,651,21,4,Chinese,f,3,0.3,-20.14830746,1.72034007
FDQ,96,1,2024-06-13T06:23:10.809Z,english_203.wav,0,0,651,21,4,Chinese,f,4,0.32341667,-78.55276631,0.92481053
FDQ,97,1,2024-06-13T06:23:10.809Z,english_400.wav,0,0,2345,21,4,Chinese,f,0,0,-9.17924521,1.06898792
FDQ,97,1,2024-06-13T06:23:10.809Z,english_400.wav,0,0,2345,21,4,Chinese,f,1,0.1,-51.0410118,0.05890524
FDQ,97,1,2024-06-13T06:23:10.809Z,english_400.wav,0,0,2345,21,4,Chinese,f,2,0.2,66.2548805,1.54728483
FDQ,97,1,2024-06-13T06:23:10.809Z,english_400.wav,0,0,2345,21,4,Chinese,f,3,0.3,92.33374018,1.43953162
FDQ,97,1,2024-06-13T06:23:10.809Z,english_400.wav,0,0,2345,21,4,Chinese,f,4,0.32341667,-60.80730989,1.12546459
FDQ,98,1,2024-06-13T06:23:10.809Z,english_130.wav,0,0,459,21,4,Chinese,f,0,0,-27.4951122,0.83907871
FDQ,98,1,2024-06-13T06:23:10.809Z,english_130.wav,0,0,459,21,4,Chinese,f,1,0.1,-38.07775804,1.38560413
FDQ,98,1,2024-06-13T06:23:10.809Z,english_130.wav,0,0,459,21,4,Chinese,f,2,0.2,-9.69340922,0.50531735
FDQ,98,1,2024-06-13T06:23:10.809Z,english_130.wav,0,0,459,21,4,Chinese,f,3,0.3,-88.09187015,0.53414674
FDQ,98,1,2024-06-13T06:23:10.809Z,english_130.wav,0,0,459,21,4,Chinese,f,4,0.32341667,-47.45461314,1.10107345
FDQ,99,1,2024-06-13T06:23:10.809Z,english_933.wav,0,0,2496,21,4,Chinese,f,0,0,-48.12258855,1.54767366
FDQ,99,1,2024-06-13T06:23:10.809Z,english_933.wav,0,0,2496,21,4,Chinese,f,1,0.1,27.26905516,0.30219473
FDQ,99,1,2024-06-13T06:23:10.809Z,english_933.wav,0,0,2496,21,4,Chinese,f,2,0.2,0.35087756,1.50410475
FDQ,99,1,2024-06-13T06:23:10.809Z,english_933.wav,0,0,2496,21,4,Chinese,f,3,0.3,94.96402149,1.44820406
FDQ,99,1,2024-06-13T06:23:10.809Z,english_933.wav,0,0,2496,21,4,Chinese,f,4,0.32341667,61.52669097,0.05049928
FDQ,100,2,2024-06-13T06:23:10.809Z,english_575.wav,0,1,469,21,4,Chinese,f,0,0,61.73461998,1.8510319
FDQ,100,2,2024-06-13T06:23:10.809Z,english_575.wav,0,1,469,21,4,Chinese,f,1,0.1,-88.57549656,1.54102878
FDQ,100,2,2024-06-13T06:23:10.809Z,english_575.wav,0,1,469,21,4,Chinese,f,2,0.2,-30.88461278,1.19801244
FDQ,100,2,2024-06-13T06:23:10.809Z,english_575.wav,0,1,469,21,4,Chinese,f,3,0.3,-63.73327026,1.20026237
FDQ,100,2,2024-06-13T06:23:10.809Z,english_575.wav,0,1,469,21,4,Chinese,f,4,0.32341667,-0.55806298,1.04112184
FDQ,101,2,2024-06-13T06:23:10.809Z,english_156.wav,0,0,1631,21,4,Chinese,f,0,0,93.86570948,0.27803573
FDQ,101,2,2024-06-13T06:23:10.809Z,english_156.wav,0,0,1631,21,4,Chinese,f,1,0.1,63.74639013,0.76121308
FDQ,101,2,2024-06-13T06:23:10.809Z,english_156.wav,0,0,1631,21,4,Chinese,f,2,0.2,-97.10775444,0.98438609
FDQ,101,2,2024-06-13T06:23:10.809Z,english_156.wav,0,0,1631,21,4,Chinese,f,3,0.3,99.76737427,0.34877861
FDQ,101,2,2024-06-13T06:23:10.809Z,english_156.wav,0,0,1631,21,4,Chinese,f,4,0.32341667,11.29868277,0.58154428
FDQ,102,2,2024-06-13T06:23:10.809Z,english_213.wav,0,0,2310,21,4,Chinese,f,0,0,-29.91874444,1.42031243
FDQ,102,2,2024-06-13T06:23:10.809Z,english_213.wav,0,0,2310,21,4,Chinese,f,1,0.1,41.64704809,0.59218852
FDQ,102,2,2024-06-13T06:23:10.809Z,english_213.wav,0,0,2310,21,4,Chinese,f,2,0.2,-87.11075848,1.10576613
FDQ,102,2,2024-06-13T06:23:10.809Z,english_213.wav,0,0,2310,21,4,Chinese,f,3,0.3,-61.54877495,0.09529021
FDQ,102,2,2024-06-13T06:23:10.809Z,english_213.wav,0,0,2310,21,4,Chinese,f,4,0.32341667,-34.29429643,1.15583312
FDQ,103,2,2024-06-13T06:23:10.809Z,english_486.wav,0,0,9976,21,4,Chinese,f,0,0,31.41997184,1.22599644
FDQ,103,2,2024-06-13T06:23:10.809Z,english_486.wav,0,0,9976,21,4,Chinese,f,1,0.1,58.03480486,1.4547445
FDQ,103,2,2024-06-13T06:23:10.809Z,english_486.wav,0,0,9976,21,4,Chinese,f,2,0.2,-62.84801238,0.27967606
FDQ,103,2,2024-06-13T06:23:10.809Z,english_486.wav,0,0,9976,21,4,Chinese,f,3,0.3,10.62451678,0.02065399
FDQ,103,2,2024-06-13T06:23:10.809Z,english_486.wav,0,0,9976,21,4,Chinese,f,4,0.32341667,10.31835057,0.3128479
FDQ,104,2,2024-06-13T06:23:10.809Z,english_574.wav,0,1,341,21,4,Chinese,f,0,0,53.128433,0.28349694
FDQ,104,2,2024-06-13T06:23:10.809Z,english_574.wav,0,1,341,21,4,Chinese,f,1,0.1,70.24248151,0.66519348
FDQ,104,2,2024-06-13T06:23:10.809Z,english_574.wav,0,1,341,21,4,Chinese,f,2,0.2,47.13290739,1.25768036
FDQ,104,2,2024-06-13T06:23:10.809Z,english_574.wav,0,1,341,21,4,Chinese,f,3,0.3,52.31480293,1.43482954
FDQ,104,2,2024-06-13T06:23:10.809Z,english_574.wav,0,1,341,21,4,Chinese,f,4,0.32341667,-33.06438127,1.23350688
FDQ,105,2,2024-06-13T06:23:10.809Z,english_311.wav,0,0,752,21,4,Chinese,f,0,0,-35.59355899,0.16094856
FDQ,105,2,2024-06-13T06:23:10.809Z,english_311.wav,0,0,752,21,4,Chinese,f,1,0.1,-50.39310557,1.33895436
FDQ,105,2,2024-06-13T06:23:10.809Z,english_311.wav,0,0,752,21,4,Chinese,f,2,0.2,-53.37222601,0.01028283
FDQ,105,2,2024-06-13T06:23:10.809Z,english_311.wav,0,0,752,21,4,Chinese,f,3,0.3,72.25802658,0.48497386
FDQ,105,2,2024-06-13T06:23:10.809Z,english_311.wav,0,0,752,21,4,Chinese,f,4,0.32341667,48.72421008,0.48591183
FDQ,106,2,2024-06-13T06:23:10.809Z,english_82.wav,0,1,1370,21,4,Chinese,f,0,0,-21.02351082,0.76668052
FDQ,106,2,2024-06-13T06:23:10.809Z,english_82.wav,0,1,1370,21,4,Chinese,f,1,0.1,1.53612588,0.94640395
FDQ,106,2,2024-06-13T06:23:10.809Z,english_82.wav,0,1,1370,21,4,Chinese,f,2,0.2,82.9198569,1.02754902
FDQ,106,2,2024-06-13T06:23:10.809Z,english_82.wav,0,1,1370,21,4,Chinese,f,3,0.3,67.34737065,1.57368428
FDQ,106,2,2024-06-13T06:23:10.809Z,english_82.wav,0,1,1370,21,4,Chinese,f,4,0.32341667,-34.9418752,0.67195212
FDQ,107,2,2024-06-13T06:23:10.809Z,english_752.wav,0,1,602,21,4,Chinese,f,0,0,-89.50526135,1.26833375
FDQ,107,2,2024-06-13T06:23:10.809Z,english_752.wav,0,1,602,21,4,Chinese,f,1,0.1,16.42916277,1.25445964
FDQ,107,2,2024-06-13T06:23:10.809Z,english_752.wav,0,1,602,21,4,Chinese,f,2,0.2,-62.11724863,1.84048801
FDQ,107,2,2024-06-13T06:23:10.809Z,english_752.wav,0,1,602,21,4,Chinese,f,3,0.3,-22.7839786,0.96813738
FDQ,107,2,2024-06-13T06:23:10.809Z,english_752.wav,0,1,602,21,4,Chinese,f,4,0.32341667,21.77934146,1.95604557
FDQ,108,2,2024-06-13T06:23:10.809Z,english_113.wav,0,1,214,21,4,Chinese,f,0,0,8.7952765,0.51001639
FDQ,108,2,2024-06-13T06:23:10.809Z,english_113.wav,0,1,214,21,4,Chinese,f,1,0.1,91.94692023,1.45766025
FDQ,108,2,2024-06-13T06:23:10.809Z,english_113.wav,0,1,214,21,4,Chinese,f,2,0.2,-6.68088057,1.25674442
FDQ,108,2,2024-06-13T06:23:10.809Z,english_113.wav,0,1,214,21,4,Chinese,f,3,0.3,38.28142065,1.93213547
FDQ,108,2,2024-06-13T06:23:10.809Z,english_113.wav,0,1,214,21,4,Chinese,f,4,0.32341667,-37.19939988,0.45590133
FDQ,109,2,2024-06-13T06:23:10.809Z,english_675.wav,0,1,119,21,4,Chinese,f,0,0,-31.75128323,1.35198954
FDQ,109,2,2024-06-13T06:23:10.809Z,english_675.wav,0,1,119,21,4,Chinese,f,1,0.1,60.52679753,1.32787853
FDQ,109,2,2024-06-13T06:23:10.809Z,english_675.wav,0,1,119,21,4,Chinese,f,2,0.2,-22.8835824,1.57632911
FDQ,109,2,2024-06-13T06:23:10.809Z,english_675.wav,0,1,119,21,4,Chinese,f,3,0.3,-6.32596177,0.80140737
FDQ,109,2,2024-06-13T06:23:10.809Z,english_675.wav,0,1,119,21,4,Chinese,f,4,0.32341667,-61.06491024,0.99818917
FDQ,110,2,2024-06-13T06:23:10.809Z,english_447.wav,0,0,452,21,4,Chinese,f,0,0,38.77193801,0.52212734
FDQ,110,2,2024-06-13T06:23:10.809Z,english_447.wav,0,0,452,21,4,Chinese,f,1,0.1,-3.53992528,0.58948567
FDQ,110,2,2024-06-13T06:23:10.809Z,english_447.wav,0,0,452,21,4,Chinese,f,2,0.2,54.1888363,0.60662966
FDQ,110,2,2024-06-13T06:23:10.809Z,english_447.wav,0,0,452,21,4,Chinese,f,3,0.3,-95.90180003,0.73195254
FDQ,110,2,2024-06-13T06:23:10.809Z,english_447.wav,0,0,452,21,4,Chinese,f,4,0.32341667,48.32118178,0.21856551
FDQ,111,2,2024-06-13T06:23:10.809Z,english_280.wav,0,1,866,21,4,Chinese,f,0,0,88.60957906,0.0301642
FDQ,111,2,2024-06-13T06:23:10.809Z,english_280.wav,0,1,866,21,4,Chinese,f,1,0.1,84.68226706,1.61205195
FDQ,111,2,2024-06-13T06:23:10.809Z,english_280.wav,0,1,866,21,4,Chinese,f,2,0.2,-77.43679957,1.42137195
FDQ,111,2,2024-06-13T06:23:10.809Z,english_280.wav,0,1,866,21,4,Chinese,f,3,0.3,45.11946934,1.73240953
FDQ,111,2,2024-06-13T06:23:10.809Z,english_280.wav,0,1,866,21,4,Chinese,f,4,0.32341667,-36.96988582,0.09602122
FDQ,112,2,2024-06-13T06:23:10.809Z,english_738.wav,0,1,1288,21,4,Chinese,f,0,0,-37.88087101,1.83397703
FDQ,112,2,2024-06-13T06:23:10.809Z,english_738.wav,0,1,1288,21,4,Chinese,f,1,0.1,-16.85966727,1.52099356
FDQ,112,2,2024-06-13T06:23:10.809Z,english_738.wav,0,1,1288,21,4,Chinese,f,2,0.2,-79.76891938,1.69283951
FDQ,112,2,2024-06-13T06:23:10.809Z,english_738.wav,0,1,1288,21,4,Chinese,f,3,0.3,-82.30918252,1.81957343
FDQ,112,2,2024-06-13T06:23:10.809Z,english_738.wav,0,1,1288,21,4,Chinese,f,4,0.32341667,59.65991076,0.75908376
FDQ,113,2,2024-06-13T06:23:10.809Z,english_777.wav,0,0,552,21,4,Chinese,f,0,0,-69.33808121,1.41371967
FDQ,113,2,2024-06-13T06:23:10.809Z,english_777.wav,0,0,552,21,4,Chinese,f,1,0.1,83.00406244,0.89293833
FDQ,113,2,2024-06-13T06:23:10.809Z,english_777.wav,0,0,552,21,4,Chinese,f,2,0.2,52.8456083,0.52129979
FDQ,113,2,2024-06-13T06:23:10.809Z,english_777.wav,0,0,552,21,4,Chinese,f,3,0.3,-67.57367145,0.31704889
FDQ,113,2,2024-06-13T06:23:10.809Z,english_777.wav,0,0,552,21,4,Chinese,f,4,0.32341667,44.30015735,0.90388625
FDQ,114,2,2024-06-13T06:23:10.809Z,english_178.wav,0,1,396,21,4,Chinese,f,0,0,-14.41838744,0.71193749
FDQ,114,2,2024-06-13T06:23:10.809Z,english_178.wav,0,1,396,21,4,Chinese,f,1,0.1,64.59665955,0.54024543
FDQ,114,2,2024-06-13T06:23:10.809Z,english_178.wav,0,1,396,21,4,Chinese,f,2,0.2,-96.76492712,1.78065704
FDQ,114,2,2024-06-13T06:23:10.809Z,english_178.wav,0,1,396,21,4,Chinese,f,3,0.3,-50.00654232,1.40559917
FDQ,114,2,2024-06-13T06:23:10.809Z,english_178.wav,0,1,396,21,4,Chinese,f,4,0.32341667,42.56426636,0.99785593
FDQ,115,2,2024-06-13T06:23:10.809Z,english_791.wav,0,1,418,21,4,Chinese,f,0,0,65.91759783,1.00744019
FDQ,115,2,2024-06-13T06:23:10.809Z,english_791.wav,0,1,418,21,4,Chinese,f,1,0.1,-36.70731143,0.67929445
FDQ,115,2,2024-06-13T06:23:10.809Z,english_791.wav,0,1,418,21,4,Chinese,f,2,0.2,67.54354156,0.95779159
FDQ,115,2,2024-06-13T06:23:10.809Z,english_791.wav,0,1,418,21,4,Chinese,f,3,0.3,2.89249458,1.93585264
FDQ,115,2,2024-06-13T06:23:10.809Z,english_791.wav,0,1,418,21,4,Chinese,f,4,0.32341667,-55.92630603,0.7587469
FDQ,116,2,2024-06-13T06:23:10.809Z,english_632.wav,0,1,465,21,4,Chinese,f,0,0,-56.22391322,1.21249895
FDQ,116,2,2024-06-13T06:23:10.809Z,english_632.wav,0,1,465,21,4,Chinese,f,1,0.1,-47.59423942,0.39515719
FDQ,116,2,2024-06-13T06:23:10.809Z,english_632.wav,0,1,465,21,4,Chinese,f,2,0.2,91.93727259,1.8528852
FDQ,116,2,2024-06-13T06:23:10.809Z,english_632.wav,0,1,465,21,4,Chinese,f,3,0.3,-33.89646621,1.67254104
FDQ,116,2,2024-06-13T06:23:10.809Z,english_632.wav,0,1,465,21,4,Chinese,f,4,0.32341667,46.88387871,1.21014685
FDQ,117,2,2024-06-13T06:23:10.809Z,english_264.wav,0,1,532,21,4,Chinese,f,0,0,16.10521774,1.02407609
FDQ,117,2,2024-06-13T06:23:10.809Z,english_264.wav,0,1,532,21,4,Chinese,f,1,0.1,-43.55481907,1.4393598
FDQ,117,2,2024-06-13T06:23:10.809Z,english_264.wav,0,1,532,21,4,Chinese,f,2,0.2,-16.87093852,1.31552174
FDQ,117,2,2024-06-13T06:23:10.809Z,english_264.wav,0,1,532,21,4,Chinese,f,3,0.3,-81.41755984,1.17516842
FDQ,117,2,2024-06-13T06:23:10.809Z,english_264.wav,0,1,532,21,4,Chinese,f,4,0.32341667,-76.00277997,0.613195
FDQ,118,2,2024-06-13T06:23:10.809Z,english_873.wav,0,0,831,21,4,Chinese,f,0,0,85.43762199,1.00056931
FDQ,118,2,2024-06-13T06:23:10.809Z,english_873.wav,0,0,831,21,4,Chinese,f,1,0.1,-27.24751419,0.47504393
FDQ,118,2,2024-06-13T06:23:10.809Z,english_873.wav,0,0,831,21,4,Chinese,f,2,0.2,-8.79829555,0.788147
FDQ,118,2,2024-06-13T06:23:10.809Z,english_873.wav,0,0,831,21,4,Chinese,f,3,0.3,-97.88620301,0.64075463
FDQ,118,2,2024-06-13T06:23:10.809Z,english_873.wav,0,0,831,21,4,Chinese,f,4,0.32341667,49.57089273,0.87603086
FDQ,119,2,2024-06-13T06:23:10.809Z,english_951.wav,0,1,282,21,4,Chinese,f,0,0,-0.1209724,0.19208806
FDQ,119,2,2024-06-13T06:23:10.809Z,english_951.wav,0,1,282,21,4,Chinese,f,1,0.1,-14.6507611,1.44795721
FDQ,119,2,2024-06-13T06:23:10.809Z,english_951.wav,0,1,282,21,4,Chinese,f,2,0.2,-2.36153686,0.88209985
FDQ,119,2,2024-06-13T06:23:10.809Z,english_951.wav,0,1,282,21,4,Chinese,f,3,0.3,15.28547447,1.97099669
FDQ,119,2,2024-06-13T06:23:10.809Z,english_951.wav,0,1,282,21,4,Chinese,f,4,0.32341667,-0.16445922,0.158195
FDQ,120,2,2024-06-13T06:23:10.809Z,english_871.wav,0,1,385,21,4,Chinese,f,0,0,84.63625516,0.21643415
FDQ,120,2,2024-06-13T06:23:10.809Z,english_871.wav,0,1,385,21,4,Chinese,f,1,0.1,-19.11058767,1.23538017
FDQ,120,2,2024-06-13T06:23:10.809Z,english_871.wav,0,1,385,21,4,Chinese,f,2,0.2,49.1497137,1.26375285
FDQ,120,2,2024-06-13T06:23:10.809Z,english_871.wav,0,1,385,21,4,Chinese,f,3,0.3,-83.07816512,0.03257235
FDQ,120,2,2024-06-13T06:23:10.809Z,english_871.wav,0,1,385,21,4,Chinese,f,4,0.32341667,11.22002909,1.90703832
FDQ,121,2,2024-06-13T06:23:10.809Z,english_923.wav,0,1,179,21,4,Chinese,f,0,0,-0.59122564,1.19594648
FDQ,121,2,2024-06-13T06:23:10.809Z,english_923.wav,0,1,179,21,4,Chinese,f,1,0.1,-5.70499959,1.05419104
FDQ,121,2,2024-06-13T06:23:10.809Z,english_923.wav,0,1,179,21,4,Chinese,f,2,0.2,-29.88927864,0.73000078
FDQ,121,2,2024-06-13T06:23:10.809Z,english_923.wav,0,1,179,21,4,Chinese,f,3,0.3,-82.02126299,1.36390543
FDQ,121,2,2024-06-13T06:23:10.809Z,english_923.wav,0,1,179,21,4,Chinese,f,4,0.32341667,16.89967319,1.13865732
FDQ,122,2,2024-06-13T06:23:10.809Z,english_232.wav,0,0,629,21,4,Chinese,f,0,0,15.13134779,0.53160298
FDQ,122,2,2024-06-13T06:23:10.809Z,english_232.wav,0,0,629,21,4,Chinese,f,1,0.1,-49.29605083,0.4519978
FDQ,122,2,2024-06-13T06:23:10.809Z,english_232.wav,0,0,629,21,4,Chinese,f,2,0.2,59.10606455,0.39260156
FDQ,122,2,2024-06-13T06:23:10.809Z,english_232.wav,0,0,629,21,4,Chinese,f,3,0.3,48.81708847,0.4692084
FDQ,122,2,2024-06-13T06:23:10.809Z,english_232.wav,0,0,629,21,4,Chinese,f,4,0.32341667,14.83590121,0.46233459
FDQ,123,2,2024-06-13T06:23:10.809Z,english_466.wav,0,1,433,21,4,Chinese,f,0,0,59.64739432,1.91119383
FDQ,123,2,2024-06-13T06:23:10.809Z,english_466.wav,0,1,433,21,4,Chinese,f,1,0.1,-20.63646321,1.29572765
FDQ,123,2,2024-06-13T06:23:10.809Z,english_466.wav,0,1,433,21,4,Chinese,f,2,0.2,62.86141463,0.99944191
FDQ,123,2,2024-06-13T06:23:10.809Z,english_466.wav,0,1,433,21,4,Chinese,f,3,0.3,-65.74461877,1.01221774
FDQ,123,2,2024-06-13T06:23:10.809Z,english_466.wav,0,1,433,21,4,Chinese,f,4,0.32341667,44.70090984,0.89697717
FDQ,124,2,2024-06-13T06:23:10.809Z,english_384.wav,0,0,670,21,4,Chinese,f,0,0,-38.96228733,0.34616893
FDQ,124,2,2024-06-13T06:23:10.809Z,english_384.wav,0,0,670,21,4,Chinese,f,1,0.1,2.386347,0.04115024
FDQ,124,2,2024-06-13T06:23:10.809Z,english_384.wav,0,0,670,21,4,Chinese,f,2,0.2,48.26486793,0.35900131
FDQ,124,2,2024-06-13T06:23:10.809Z,english_384.wav,0,0,670,21,4,Chinese,f,3,0.3,-48.11903655,1.58519606
FDQ,124,2,2024-06-13T06:23:10.809Z,english_384.wav,0,0,670,21,4,Chinese,f,4,0.32341667,19.29531145,0.95531857
FDQ,125,2,2024-06-13T06:23:10.809Z,english_346.wav,0,1,368,21,4,Chinese,f,0,0,29.51078372,1.24489428
FDQ,125,2,2024-06-13T06:23:10.809Z,english_346.wav,0,1,368,21,4,Chinese,f,1,0.1,86.25753287,1.77356048
FDQ,125,2,2024-06-13T06:23:10.809Z,english_346.wav,0,1,368,21,4,Chinese,f,2,0.2,95.6553577,1.30862901
FDQ,125,2,2024-06-13T06:23:10.809Z,english_346.wav,0,1,368,21,4,Chinese,f,3,0.3,-65.97707071,0.68318311
FDQ,125,2,2024-06-13T06:23:10.809Z,english_346.wav,0,1,368,21,4,Chinese,f,4,0.32341667,49.79896228,1.63073528
FDQ,126,2,2024-06-13T06:23:10.809Z,english_797.wav,0,1,358,21,4,Chinese,f,0,0,-10.77604935,1.75152448
FDQ,126,2,2024-06-13T06:23:10.809Z,english_797.wav,0,1,358,21,4,Chinese,f,1,0.1,76.52998448,0.25625033
FDQ,126,2,2024-06-13T06:23:10.809Z,english_797.wav,0,1,358,21,4,Chinese,f,2,0.2,-52.30950648,1.63910521
FDQ,126,2,2024-06-13T06:23:10.809Z,english_797.wav,0,1,358,21,4,Chinese,f,3,0.3,-19.27189704,1.44412191
FDQ,126,2,2024-06-13T06:23:10.809Z,english_797.wav,0,1,358,21,4,Chinese,f,4,0.32341667,-68.52312916,1.41513857
FDQ,127,2,2024-06-13T06:23:10.809Z,english_365.wav,0,1,286,21,4,Chinese,f,0,0,58.11205919,0.53708026
FDQ,127,2,2024-06-13T06:23:10.809Z,english_365.wav,0,1,286,21,4,Chinese,f,1,0.1,-61.04014877,1.10456153
FDQ,127,2,2024-06-13T06:23:10.809Z,english_365.wav,0,1,286,21,4,Chinese,f,2,0.2,12.43042802,1.31731937
FDQ,127,2,2024-06-13T06:23:10.809Z,english_365.wav,0,1,286,21,4,Chinese,f,3,0.3,17.00746388,1.02387946
FDQ,127,2,2024-06-13T06:23:10.809Z,english_365.wav,0,1,286,21,4,Chinese,f,4,0.32341667,-69.10644956,1.31633463
FDQ,128,2,2024-06-13T06:23:10.809Z,english_678.wav,0,1,204,21,4,Chinese,f,0,0,87.86222938,1.6760541
FDQ,128,2,2024-06-13T06:23:10.809Z,english_678.wav,0,1,204,21,4,Chinese,f,1,0.1,-47.14792626,0.22369522
FDQ,128,2,2024-06-13T06:23:10.809Z,english_678.wav,0,1,204,21,4,Chinese,f,2,0.2,-6.84659798,1.1260271
FDQ,128,2,2024-06-13T06:23:10.809Z,english_678.wav,0,1,204,21,4,Chinese,f,3,0.3,87.67045201,1.53941447
FDQ,128,2,2024-06-13T06:23:10.809Z,english_678.wav,0,1,204,21,4,Chinese,f,4,0.32341667,-51.71213936,1.37136581
FDQ,129,2,2024-06-13T06:23:10.809Z,english_944.wav,0,1,492,21,4,Chinese,f,0,0,70.24274457,0.61048125
FDQ,129,2,2024-06-13T06:23:10.809Z,english_944.wav,0,1,492,21,4,Chinese,f,1,0.1,-48.79231442,1.63310511
FDQ,129,2,2024-06-13T06:23:10.809Z,english_944.wav,0,1,492,21,4,Chinese,f,2,0.2,-6.42324239,0.21687347
FDQ,129,2,2024-06-13T06:23:10.809Z,english_944.wav,0,1,492,21,4,Chinese,f,3,0.3,-7.7338836,0.45027042
FDQ,129,2,2024-06-13T06:23:10.809Z,english_944.wav,0,1,492,21,4,Chinese,f,4,0.32341667,69.46240638,0.90306897
FDQ,130,2,2024-06-13T06:23:10.809Z,english_191.wav,0,1,386,21,4,Chinese,f,0,0,5.22709543,0.24693927
FDQ,130,2,2024-06-13T06:23:10.809Z,english_191.wav,0,1,386,21,4,Chinese,f,1,0.1,-51.29785688,1.61528443
FDQ,130,2,2024-06-13T06:23:10.809Z,english_191.wav,0,1,386,21,4,Chinese,f,2,0.2,14.39503603,0.10158113
FDQ,130,2,2024-06-13T06:23:10.809Z,english_191.wav,0,1,386,21,4,Chinese,f,3,0.3,60.50312404,1.02883866
FDQ,130,2,2024-06-13T06:23:10.809Z,english_191.wav,0,1,386,21,4,Chinese,f,4,0.32341667,68.15927452,0.69870432
FDQ,131,2,2024-06-13T06:23:10.809Z,english_126.wav,0,1,400,21,4,Chinese,f,0,0,-71.89060105,0.84485729
FDQ,131,2,2024-06-13T06:23:10.809Z,english_126.wav,0,1,400,21,4,Chinese,f,1,0.1,-54.28004149,1.61340521
FDQ,131,2,2024-06-13T06:23:10.809Z,english_126.wav,0,1,400,21,4,Chinese,f,2,0.2,67.0997098,1.10892805
FDQ,131,2,2024-06-13T06:23:10.809Z,english_126.wav,0,1,400,21,4,Chinese,f,3,0.3,-96.31741745,1.20133652
FDQ,131,2,2024-06-13T06:23:10.809Z,english_126.wav,0,1,400,21,4,Chinese,f,4,0.32341667,22.67293764,0.33470898
FDQ,132,2,2024-06-13T06:23:10.809Z,english_599.wav,0,1,312,21,4,Chinese,f,0,0,-57.09760884,1.03382432
FDQ,132,2,2024-06-13T06:23:10.809Z,english_599.wav,0,1,312,21,4,Chinese,f,1,0.1,31.85682387,1.26885403
FDQ,132,2,2024-06-13T06:23:10.809Z,english_599.wav,0,1,312,21,4,Chinese,f,2,0.2,-6.73425875,1.24717465
FDQ,132,2,2024-06-13T06:23:10.809Z,english_599.wav,0,1,312,21,4,Chinese,f,3,0.3,47.95830633,1.34338376
FDQ,132,2,2024-06-13T06:23:10.809Z,english_599.wav,0,1,312,21,4,Chinese,f,4,0.32341667,-83.8084816,0.34550335
FDQ,133,2,2024-06-13T06:23:10.809Z,english_211.wav,0,1,5556,21,4,Chinese,f,0,0,37.34807541,1.77380832
FDQ,133,2,2024-06-13T06:23:10.809Z,english_211.wav,0,1,5556,21,4,Chinese,f,1,0.1,97.98979508,1.35747523
FDQ,133,2,2024-06-13T06:23:10.809Z,english_211.wav,0,1,5556,21,4,Chinese,f,2,0.2,-20.02981109,1.74013371
FDQ,133,2,2024-06-13T06:23:10.809Z,english_211.wav,0,1,5556,21,4,Chinese,f,3,0.3,-69.8116311,0.94808553
FDQ,133,2,2024-06-13T06:23:10.809Z,english_211.wav,0,1,5556,21,4,Chinese,f,4,0.32341667,35.11126142,0.23094119
FDQ,134,2,2024-06-13T06:23:10.809Z,english_554.wav,0,0,1428,21,4,Chinese,f,0,0,9.57607907,1.93967122
FDQ,134,2,2024-06-13T06:23:10.809Z,english_554.wav,0,0,1428,21,4,Chinese,f,1,0.1,29.37398753,1.74360796
FDQ,134,2,2024-06-13T06:23:10.809Z,english_554.wav,0,0,1428,21,4,Chinese,f,2,0.2,-58.71210794,0.37945994
FDQ,134,2,2024-06-13T06:23:10.809Z,english_554.wav,0,0,1428,21,4,Chinese,f,3,0.3,-10.7927705,1.56347046
FDQ,134,2,2024-06-13T06:23:10.809Z,english_554.wav,0,0,1428,21,4,Chinese,f,4,0.32341667,21.8128915,1.38248676
FDQ,135,2,2024-06-13T06:23:10.809Z,english_86.wav,0,1,265,21,4,Chinese,f,0,0,-48.59393833,1.45450552
FDQ,135,2,2024-06-13T06:23:10.809Z,english_86.wav,0,1,265,21,4,Chinese,f,1,0.1,77.37095157,1.8635573
FDQ,135,2,2024-06-13T06:23:10.809Z,english_86.wav,0,1,265,21,4,Chinese,f,2,0.2,44.19816726,1.174515
FDQ,135,2,2024-06-13T06:23:10.809Z,english_86.wav,0,1,265,21,4,Chinese,f,3,0.3,-99.780271,1.46785746
FDQ,135,2,2024-06-13T06:23:10.809Z,english_86.wav,0,1,265,21,4,Chinese,f,4,0.32341667,38.96545556,0.99607158
FDQ,136,2,2024-06-13T06:23:10.809Z,english_960.wav,0,1,1277,21,4,Chinese,f,0,0,35.80457434,0.79357899
FDQ,136,2,2024-06-13T06:23:10.809Z,english_960.wav,0,1,1277,21,4,Chinese,f,1,0.1,-19.98469691,0.63900775
FDQ,136,2,2024-06-13T06:23:10.809Z,english_960.wav,0,1,1277,21,4,Chinese,f,2,0.2,-8.88025322,1.83966222
FDQ,136,2,2024-06-13T06:23:10.809Z,english_960.wav,0,1,1277,21,4,Chinese,f,3,0.3,6.59365348,1.05168668
FDQ,136,2,2024-06-13T06:23:10.809Z,english_960.wav,0,1,1277,21,4,Chinese,f,4,0.32341667,64.0885905,1.66020449
FDQ,137,2,2024-06-13T06:23:10.809Z,english_115.wav,0,1,1405,21,4,Chinese,f,0,0,-6.4126324,0.37361158
FDQ,137,2,2024-06-13T06:23:10.809Z,english_115.wav,0,1,1405,21,4,Chinese,f,1,0.1,-78.70213007,1.5865766
FDQ,137,2,2024-06-13T06:23:10.809Z,english_115.wav,0,1,1405,21,4,Chinese,f,2,0.2,-0.36204046,1.00360432
FDQ,137,2,2024-06-13T06:23:10.809Z,english_115.wav,0,1,1405,21,4,Chinese,f,3,0.3,-47.97210547,1.3933449
FDQ,137,2,2024-06-13T06:23:10.809Z,english_115.wav,0,1,1405,21,4,Chinese,f,4,0.32341667,3.06964689,1.1205092
FDQ,138,2,2024-06-13T06:23:10.809Z,english_976.wav,0,1,1260,21,4,Chinese,f,0,0,-92.49082032,0.30893725
FDQ,138,2,2024-06-13T06:23:10.809Z,english_976.wav,0,1,1260,21,4,Chinese,f,1,0.1,92.01562452,1.54393752
FDQ,138,2,2024-06-13T06:23:10.809Z,english_976.wav,0,1,1260,21,4,Chinese,f,2,0.2,-80.55764576,1.31466429
FDQ,138,2,2024-06-13T06:23:10.809Z,english_976.wav,0,1,1260,21,4,Chinese,f,3,0.3,-70.09009567,1.88171095
FDQ,138,2,2024-06-13T06:23:10.809Z,english_976.wav,0,1,1260,21,4,Chinese,f,4,0.32341667,-7.5394989,1.71314556
FDQ,139,2,2024-06-13T06:23:10.809Z,english_64.wav,0,0,2791,21,4,Chinese,f,0,0,-77.75081389,0.01503168
FDQ,139,2,2024-06-13T06:23:10.809Z,english_64.wav,0,0,2791,21,4,Chinese,f,1,0.1,47.79712302,0.51971923
FDQ,139,2,2024-06-13T06:23:10.809Z,english_64.wav,0,0,2791,21,4,Chinese,f,2,0.2,-98.04646937,1.01128345
FDQ,139,2,2024-06-13T06:23:10.809Z,english_64.wav,0,0,2791,21,4,Chinese,f,3,0.3,-20.17707595,0.69563875
FDQ,139,2,2024-06-13T06:23:10.809Z,english_64.wav,0,0,2791,21,4,Chinese,f,4,0.32341667,53.05828969,1.51814807
FDQ,140,2,2024-06-13T06:23:10.809Z,english_318.wav,0,0,832,21,4,Chinese,f,0,0,40.16064427,0.11467793
FDQ,140,2,2024-06-13T06:23:10.809Z,english_318.wav,0,0,832,21,4,Chinese,f,1,0.1,-52.58874178,0.6224104
FDQ,140,2,2024-06-13T06:23:10.809Z,english_318.wav,0,0,832,21,4,Chinese,f,2,0.2,46.7653316,0.05328619
FDQ,140,2,2024-06-13T06:23:10.809Z,english_318.wav,0,0,832,21,4,Chinese,f,3,0.3,-41.44559589,0.01138238
FDQ,140,2,2024-06-13T06:23:10.809Z,english_318.wav,0,0,832,21,4,Chinese,f,4,0.32341667,-2.50443948,1.16020285
FDQ,141,2,2024-06-13T06:23:10.809Z,english_24.wav,0,1,568,21,4,Chinese,f,0,0,83.82729659,0.31203725
FDQ,141,2,2024-06-13T06:23:10.809Z,english_24.wav,0,1,568,21,4,Chinese,f,1,0.1,-2.54724082,1.56948954
FDQ,141,2,2024-06-13T06:23:10.809Z,english_24.wav,0,1,568,21,4,Chinese,f,2,0.2,88.70909739,0.87333864
FDQ,141,2,2024-06-13T06:23:10.809Z,english_24.wav,0,1,568,21,4,Chinese,f,3,0.3,48.93770926,0.88535019
FDQ,141,2,2024-06-13T06:23:10.809Z,english_24.wav,0,1,568,21,4,Chinese,f,4,0.32341667,53.25190048,0.66112496
FDQ,142,2,2024-06-13T06:23:10.809Z,english_66.wav,0,0,562,21,4,Chinese,f,0,0,16.07147303,1.75051971
FDQ,142,2,2024-06-13T06:23:10.809Z,english_66.wav,0,0,562,21,4,Chinese,f,1,0.1,50.76577123,0.02971233
FDQ,142,2,2024-06-13T06:23:10.809Z,english_66.wav,0,0,562,21,4,Chinese,f,2,0.2,-29.1595681,0.63583886
FDQ,142,2,2024-06-13T06:23:10.809Z,english_66.wav,0,0,562,21,4,Chinese,f,3,0.3,-80.89120138,1.46734397
FDQ,142,2,2024-06-13T06:23:10.809Z,english_66.wav,0,0,562,21,4,Chinese,f,4,0.32341667,-8.46229461,1.61280944
FDQ,143,2,2024-06-13T06:23:10.809Z,english_217.wav,0,1,1095,21,4,Chinese,f,0,0,-87.44045162,1.20965721
FDQ,143,2,2024-06-13T06:23:10.809Z,english_217.wav,0,1,1095,21,4,Chinese,f,1,0.1,26.67222095,0.05295089
FDQ,143,2,2024-06-13T06:23:10.809Z,english_217.wav,0,1,1095,21,4,Chinese,f,2,0.2,97.90977363,1.23557872
FDQ,143,2,2024-06-13T06:23:10.809Z,english_217.wav,0,1,1095,21,4,Chinese,f,3,0.3,4.49718441,1.80752812
FDQ,143,2,2024-06-13T06:23:10.809Z,english_217.wav,0,1,1095,21,4,Chinese,f,4,0.32341667,13.31384309,1.57586313
FDQ,144,2,2024-06-13T06:23:10.809Z,english_793.wav,0,0,755,21,4,Chinese,f,0,0,-3.59370976,0.95327953
FDQ,144,2,2024-06-13T06:23:10.809Z,english_793.wav,0,0,755,21,4,Chinese,f,1,0.1,-92.44382947,0.8890172
FDQ,144,2,2024-06-13T06:23:10.809Z,english_793.wav,0,0,755,21,4,Chinese,f,2,0.2,-89.84008222,0.47547445
FDQ,144,2,2024-06-13T06:23:10.809Z,english_793.wav,0,0,755,21,4,Chinese,f,3,0.3,96.09352514,1.09208031
FDQ,144,2,2024-06-13T06:23:10.809Z,english_793.wav,0,0,755,21,4,Chinese,f,4,0.32341667,42.94050617,0.63383093
FDQ,145,2,2024-06-13T06:23:10.809Z,english_101.wav,0,0,1373,21,4,Chinese,f,0,0,60.77829508,0.77962125
FDQ,145,2,2024-06-13T06:23:10.809Z,english_101.wav,0,0,1373,21,4,Chinese,f,1,0.1,43.41373716,0.02040908
FDQ,145,2,2024-06-13T06:23:10.809Z,english_101.wav,0,0,1373,21,4,Chinese,f,2,0.2,56.16195873,0.79248433
FDQ,145,2,2024-06-13T06:23:10.809Z,english_101.wav,0,0,1373,21,4,Chinese,f,3,0.3,-99.94719329,1.74003505
FDQ,145,2,2024-06-13T06:23:10.809Z,english_101.wav,0,0,1373,21,4,Chinese,f,4,0.32341667,-1.35074094,1.66206156
FDQ,146,2,2024-06-13T06:23:10.809Z,english_29.wav,0,0,1261,21,4,Chinese,f,0,0,-2.71310826,1.50712016
FDQ,146,2,2024-06-13T06:23:10.809Z,english_29.wav,0,0,1261,21,4,Chinese,f,1,0.1,17.7201972,0.83644439
FDQ,146,2,2024-06-13T06:23:10.809Z,english_29.wav,0,0,1261,21,4,Chinese,f,2,0.2,-20.17501418,0.76078741
FDQ,146,2,2024-06-13T06:23:10.809Z,english_29.wav,0,0,1261,21,4,Chinese,f,3,0.3,12.48271646,0.17009155
FDQ,146,2,2024-06-13T06:23:10.809Z,english_29.wav,0,0,1261,21,4,Chinese,f,4,0.32341667,29.42079391,1.26727983
FDQ,147,2,2024-06-13T06:23:10.809Z,english_962.wav,0,0,697,21,4,Chinese,f,0,0,-55.512918,1.78332996
FDQ,147,2,2024-06-13T06:23:10.809Z,english_962.wav,0,0,697,21,4,Chinese,f,1,0.1,90.34773129,1.25956614
FDQ,147,2,2024-06-13T06:23:10.809Z,english_962.wav,0,0,697,21,4,Chinese,f,2,0.2,-3.10818459,0.72891593
FDQ,147,2,2024-06-13T06:23:10.809Z,english_962.wav,0,0,697,21,4,Chinese,f,3,0.3,50.27619033,1.49954356
FDQ,147,2,2024-06-13T06:23:10.809Z,english_962.wav,0,0,697,21,4,Chinese,f,4,0.32341667,-47.3196173,0.96339983
FDQ,148,2,2024-06-13T06:23:10.809Z,english_842.wav,0,1,1014,21,4,Chinese,f,0,0,-48.5952207,0.12382156
FDQ,148,2,2024-06-13T06:23:10.809Z,english_842.wav,0,1,1014,21,4,Chinese,f,1,0.1,29.19485822,1.75564688
FDQ,148,2,2024-06-13T06:23:10.809Z,english_842.wav,0,1,1014,21,4,Chinese,f,2,0.2,84.54328152,0.24815543
FDQ,148,2,2024-06-13T06:23:10.809Z,english_842.wav,0,1,1014,21,4,Chinese,f,3,0.3,69.99994667,1.2885643
FDQ,148,2,2024-06-13T06:23:10.809Z,english_842.wav,0,1,1014,21,4,Chinese,f,4,0.32341667,56.72069463,0.70518165
FDQ,149,2,2024-06-13T06:23:10.809Z,english_150.wav,0,0,566,21,4,Chinese,f,0,0,-51.77489255,0.6625495
FDQ,149,2,2024-06-13T06:23:10.809Z,english_150.wav,0,0,566,21,4,Chinese,f,1,0.1,16.7322824,1.26353984
FDQ,149,2,2024-06-13T06:23:10.809Z,english_150.wav,0,0,566,21,4,Chinese,f,2,0.2,-56.19561079,0.38378194
FDQ,149,2,2024-06-13T06:23:10.809Z,english_150.wav,0,0,566,21,4,Chinese,f,3,0.3,36.81691324,1.59154348
FDQ,149,2,2024-06-13T06:23:10.809Z,english_150.wav,0,0,566,21,4,Chinese,f,4,0.32341667,-97.11243964,0.94821753
FDQ,150,3,2024-06-13T06:23:10.809Z,english_38.wav,0,1,472,21,4,Chinese,f,0,0,-2.78484508,0.45448836
FDQ,150,3,2024-06-13T06:23:10.809Z,english_38.wav,0,1,472,21,4,Chinese,f,1,0.1,-57.68912839,0.86252605
FDQ,150,3,2024-06-13T06:23:10.809Z,english_38.wav,0,1,472,21,4,Chinese,f,2,0.2,-17.27242754,1.61904865
FDQ,150,3,2024-06-13T06:23:10.809Z,english_38.wav,0,1,472,21,4,Chinese,f,3,0.3,-2.64514482,1.39130822
FDQ,150,3,2024-06-13T06:23:10.809Z,english_38.wav,0,1,472,21,4,Chinese,f,4,0.32341667,55.14373267,1.59066599
FDQ,151,3,2024-06-13T06:23:10.809Z,english_801.wav,0,0,742,21,4,Chinese,f,0,0,66.50571345,0.19311528
FDQ,151,3,2024-06-13T06:23:10.809Z,english_801.wav,0,0,742,21,4,Chinese,f,1,0.1,-53.03260979,0.48683601
FDQ,151,3,2024-06-13T06:23:10.809Z,english_801.wav,0,0,742,21,4,Chinese,f,2,0.2,-3.89459646,1.16293258
FDQ,151,3,2024-06-13T06:23:10.809Z,english_801.wav,0,0,742,21,4,Chinese,f,3,0.3,8.32951864,1.55734707
FDQ,151,3,2024-06-13T06:23:10.809Z,english_801.wav,0,0,742,21,4,Chinese,f,4,0.32341667,-87.46806733,0.63471681
FDQ,152,3,2024-06-13T06:23:10.809Z,english_531.wav,0,0,646,21,4,Chinese,f,0,0,-79.40575395,0.23141906
FDQ,152,3,2024-06-13T06:23:10.809Z,english_531.wav,0,0,646,21,4,Chinese,f,1,0.1,24.69139357,1.34739197
FDQ,152,3,2024-06-13T06:23:10.809Z,english_531.wav,0,0,646,21,4,Chinese,f,2,0.2,31.85465478,0.44473315
FDQ,152,3,2024-06-13T06:23:10.809Z,english_531.wav,0,0,646,21,4,Chinese,f,3,0.3,0.37788074,1.31624907
FDQ,152,3,2024-06-13T06:23:10.809Z,english_531.wav,0,0,646,21,4,Chinese,f,4,0.32341667,-42.85922685,0.82105614
FDQ,153,3,2024-06-13T06:39:37.800Z,english_924.wav,0,0,720,21,4,Chinese,f,0,0,63.64154058,1.83477076
FDQ,153,3,2024-06-13T06:39:37.800Z,english_924.wav,0,0,720,21,4,Chinese,f,1,0.1,-60.55254199,0.21366754
FDQ,153,3,2024-06-13T06:39:37.800Z,english_924.wav,0,0,720,21,4,Chinese,f,2,0.2,-47.94670646,1.07859551
FDQ,153,3,2024-06-13T06:39:37.800Z,english_924.wav,0,0,720,21,4,Chinese,f,3,0.3,-76.50696127,1.9507375
FDQ,153,3,2024-06-13T06:39:37.800Z,english_924.wav,0,0,720,21,4,Chinese,f,4,0.32341667,44.23103111,1.33476666
FDQ,154,3,2024-06-13T06:39:37.800Z,english_631.wav,0,0,440,21,4,Chinese,f,0,0,-74.37700429,0.77307226
FDQ,154,3,2024-06-13T06:39:37.800Z,english_631.wav,0,0,440,21,4,Chinese,f,1,0.1,-18.72790858,0.75923189
FDQ,154,3,2024-06-13T06:39:37.800Z,english_631.wav,0,0,440,21,4,Chinese,f,2,0.2,-40.03216697,1.00825659
FDQ,154,3,2024-06-13T06:39:37.800Z,english_631.wav,0,0,440,21,4,Chinese,f,3,0.3,-98.5967418,1.46579839
FDQ,154,3,2024-06-13T06:39:37.800Z,english_631.wav,0,0,440,21,4,Chinese,f,4,0.32341667,-41.89017921,0.34107994
FDQ,155,3,2024-06-13T06:39:37.800Z,english_651.wav,0,0,455,21,4,Chinese,f,0,0,94.66063372,0.16277223
FDQ,155,3,2024-06-13T06:39:37.800Z,english_651.wav,0,0,455,21,4,Chinese,f,1,0.1,53.93234837,1.71236475
FDQ,155,3,2024-06-13T06:39:37.800Z,english_651.wav,0,0,455,21,4,Chinese,f,2,0.2,-71.35755131,0.37376336
FDQ,155,3,2024-06-13T06:39:37.800Z,english_651.wav,0,0,455,21,4,Chinese,f,3,0.3,50.84025958,0.80998932
FDQ,155,3,2024-06-13T06:39:37.800Z,english_651.wav,0,0,455,21,4,Chinese,f,4,0.32341667,-24.67252949,0.23835763
FDQ,156,3,2024-06-13T06:39:37.800Z,english_425.wav,0,1,1738,21,4,Chinese,f,0,0,52.16022051,1.95369626
FDQ,156,3,2024-06-13T06:39:37.800Z,english_425.wav,0,1,1738,21,4,Chinese,f,1,0.1,-4.0342476,0.01224448
FDQ,156,3,2024-06-13T06:39:37.800Z,english_425.wav,0,1,1738,21,4,Chinese,f,2,0.2,71.82190917,1.45838463
FDQ,156,3,2024-06-13T06:39:37.800Z,english_425.wav,0,1,1738,21,4,Chinese,f,3,0.3,77.8432037,1.1656734
FDQ,156,3,2024-06-13T06:39:37.800Z,english_425.wav,0,1,1738,21,4,Chinese,f,4,0.32341667,29.14791909,1.54078916
FDQ,157,3,2024-06-13T06:39:37.800Z,english_998.wav,0,0,1579,21,4,Chinese,f,0,0,-57.03196796,0.0179282
FDQ,157,3,2024-06-13T06:39:37.800Z,english_998.wav,0,0,1579,21,4,Chinese,f,1,0.1,-12.93623633,1.72217412
FDQ,157,3,2024-06-13T06:39:37.800Z,english_998.wav,0,0,1579,21,4,Chinese,f,2,0.2,-24.63186366,0.91011795
FDQ,157,3,2024-06-13T06:39:37.800Z,english_998.wav,0,0,1579,21,4,Chinese,f,3,0.3,-10.49750637,1.24282972
FDQ,157,3,2024-06-13T06:39:37.800Z,english_998.wav,0,0,1579,21,4,Chinese,f,4,0.32341667,22.76793653,0.40520665
FDQ,158,3,2024-06-13T06:39:37.800Z,english_141.wav,0,1,728,21,4,Chinese,f,0,0,-85.83390244,1.36546316
FDQ,158,3,2024-06-13T06:39:37.800Z,english_141.wav,0,1,728,21,4,Chinese,f,1,0.1,-83.68236309,0.39424104
FDQ,158,3,2024-06-13T06:39:37.800Z,english_141.wav,0,1,728,21,4,Chinese,f,2,0.2,-69.95552588,1.31629396
FDQ,158,3,2024-06-13T06:39:37.800Z,english_141.wav,0,1,728,21,4,Chinese,f,3,0.3,-14.67715053,0.23786768
FDQ,158,3,2024-06-13T06:39:37.800Z,english_141.wav,0,1,728,21,4,Chinese,f,4,0.32341667,73.76142723,0.2069198
FDQ,159,3,2024-06-13T06:39:37.800Z,english_263.wav,0,0,883,21,4,Chinese,f,0,0,4.78285782,1.6410762
FDQ,159,3,2024-06-13T06:39:37.800Z,english_263.wav,0,0,883,21,4,Chinese,f,1,0.1,13.60270601,0.7602565
FDQ,159,3,2024-06-13T06:39:37.800Z,english_263.wav,0,0,883,21,4,Chinese,f,2,0.2,39.50896912,0.2694778
FDQ,159,3,2024-06-13T06:39:37.800Z,english_263.wav,0,0,883,21,4,Chinese,f,3,0.3,22.44107494,1.51649535
FDQ,159,3,2024-06-13T06:39:37.800Z,english_263.wav,0,0,883,21,4,Chinese,f,4,0.32341667,-36.00172497,0.60574629
FDQ,160,3,2024-06-13T06:39:37.800Z,english_21.wav,0,1,473,21,4,Chinese,f,0,0,-21.85116114,1.17417274
FDQ,160,3,2024-06-13T06:39:37.800Z,english_21.wav,0,1,473,21,4,Chinese,f,1,0.1,-94.69976897,0.84289237
FDQ,160,3,2024-06-13T06:39:37.800Z,english_21.wav,0,1,473,21,4,Chinese,f,2,0.2,59.00053046,1.58737119
FDQ,160,3,2024-06-13T06:39:37.800Z,english_21.wav,0,1,473,21,4,Chinese,f,3,0.3,-81.44868512,0.70500889
FDQ,160,3,2024-06-13T06:39:37.800Z,english_21.wav,0,1,473,21,4,Chinese,f,4,0.32341667,-68.72650823,1.41810016
FDQ,161,3,2024-06-13T06:39:37.800Z,english_433.wav,0,0,483,21,4,Chinese,f,0,0,-74.58178472,0.69852952
FDQ,161,3,2024-06-13T06:39:37.800Z,english_433.wav,0,0,483,21,4,Chinese,f,1,0.1,-50.00917691,1.92405883
FDQ,161,3,2024-06-13T06:39:37.800Z,english_433.wav,0,0,483,21,4,Chinese,f,2,0.2,48.18572343,0.3905825
FDQ,161,3,2024-06-13T06:39:37.800Z,english_433.wav,0,0,483,21,4,Chinese,f,3,0.3,-63.95387597,0.31453116
FDQ,161,3,2024-06-13T06:39:37.800Z,english_433.wav,0,0,483,21,4,Chinese,f,4,0.32341667,-68.91859183,1.4953114
FDQ,162,3,2024-06-13T06:39:37.800Z,english_278.wav,0,1,604,21,4,Chinese,f,0,0,-49.55521664,0.96598769
FDQ,162,3,2024-06-13T06:39:37.800Z,english_278.wav,0,1,604,21,4,Chinese,f,1,0.1,60.24292507,1.32709354
FDQ,162,3,2024-06-13T06:39:37.800Z,english_278.wav,0,1,604,21,4,Chinese,f,2,0.2,34.32984246,0.84496159
FDQ,162,3,2024-06-13T06:39:37.800Z,english_278.wav,0,1,604,21,4,Chinese,f,3,0.3,91.69210883,1.50157491
FDQ,162,3,2024-06-13T06:39:37.800Z,english_278.wav,0,1,604,21,4,Chinese,f,4,0.32341667,78.84715657,1.85534648
FDQ,163,3,2024-06-13T06:39:37.800Z,english_684.wav,0,0,1093,21,4,Chinese,f,0,0,0.36394418,1.65924935
FDQ,163,3,2024-06-13T06:39:37.800Z,english_684.wav,0,0,1093,21,4,Chinese,f,1,0.1,28.47964645,1.32149406
FDQ,163,3,2024-06-13T06:39:37.800Z,english_684.wav,0,0,1093,21,4,Chinese,f,2,0.2,60.47995017,0.32417562
FDQ,163,3,2024-06-13T06:39:37.800Z,english_684.wav,0,0,1093,21,4,Chinese,f,3,0.3,-33.43266819,1.42108385
FDQ,163,3,2024-06-13T06:39:37.800Z,english_684.wav,0,0,1093,21,4,Chinese,f,4,0.32341667,-31.86672206,1.29243289
FDQ,164,3,2024-06-13T06:39:37.800Z,english_662.wav,0,0,729,21,4,Chinese,f,0,0,-34.20942979,0.58122658
FDQ,164,3,2024-06-13T06:39:37.800Z,english_662.wav,0,0,729,21,4,Chinese,f,1,0.1,-64.9220759,0.35407044
FDQ,164,3,2024-06-13T06:39:37.800Z,english_662.wav,0,0,729,21,4,Chinese,f,2,0.2,-46.13526655,1.02300599
FDQ,164,3,2024-06-13T06:39:37.800Z,english_662.wav,0,0,729,21,4,Chinese,f,3,0.3,16.61128262,0.09808433
FDQ,164,3,2024-06-13T06:39:37.800Z,english_662.wav,0,0,729,21,4,Chinese,f,4,0.32341667,-72.42442326,0.71975239
FDQ,165,3,2024-06-13T06:39:37.800Z,english_406.wav,0,0,2701,21,4,Chinese,f,0,0,28.09923375,1.43312072
FDQ,165,3,2024-06-13T06:39:37.800Z,english_406.wav,0,0,2701,21,4,Chinese,f,1,0.1,-15.10813675,0.8890381
FDQ,165,3,2024-06-13T06:39:37.800Z,english_406.wav,0,0,2701,21,4,Chinese,f,2,0.2,-12.43931725,0.60560557
FDQ,165,3,2024-06-13T06:39:37.800Z,english_406.wav,0,0,2701,21,4,Chinese,f,3,0.3,-27.33468297,1.13565345
FDQ,165,3,2024-06-13T06:39:37.800Z,english_406.wav,0,0,2701,21,4,Chinese,f,4,0.32341667,-62.66931892,1.8467177
FDQ,166,3,2024-06-13T06:39:37.800Z,english_613.wav,0,0,671,21,4,Chinese,f,0,0,-12.80235787,0.8409713
FDQ,166,3,2024-06-13T06:39:37.800Z,english_613.wav,0,0,671,21,4,Chinese,f,1,0.1,38.67858639,0.30410002
FDQ,166,3,2024-06-13T06:39:37.800Z,english_613.wav,0,0,671,21,4,Chinese,f,2,0.2,21.08834288,0.031636
FDQ,166,3,2024-06-13T06:39:37.800Z,english_613.wav,0,0,671,21,4,Chinese,f,3,0.3,94.81469787,1.79222997
FDQ,166,3,2024-06-13T06:39:37.800Z,english_613.wav,0,0,671,21,4,Chinese,f,4,0.32341667,18.45506868,1.98455664
FDQ,167,3,2024-06-13T06:39:37.800Z,english_718.wav,0,1,677,21,4,Chinese,f,0,0,-62.54470118,0.40124114
FDQ,167,3,2024-06-13T06:39:37.800Z,english_718.wav,0,1,677,21,4,Chinese,f,1,0.1,-40.70811043,0.49945062
FDQ,167,3,2024-06-13T06:39:37.800Z,english_718.wav,0,1,677,21,4,Chinese,f,2,0.2,-11.25435391,1.54880463
FDQ,167,3,2024-06-13T06:39:37.800Z,english_718.wav,0,1,677,21,4,Chinese,f,3,0.3,-68.52161814,0.39118497
FDQ,167,3,2024-06-13T06:39:37.800Z,english_718.wav,0,1,677,21,4,Chinese,f,4,0.32341667,-77.89834334,0.07447668
FDQ,168,3,2024-06-13T06:39:37.800Z,english_236.wav,0,1,657,21,4,Chinese,f,0,0,14.26564849,0.89253674
FDQ,168,3,2024-06-13T06:39:37.800Z,english_236.wav,0,1,657,21,4,Chinese,f,1,0.1,60.97219358,0.38957934
FDQ,168,3,2024-06-13T06:39:37.800Z,english_236.wav,0,1,657,21,4,Chinese,f,2,0.2,-12.39626346,1.55558051
FDQ,168,3,2024-06-13T06:39:37.800Z,english_236.wav,0,1,657,21,4,Chinese,f,3,0.3,-62.87774076,0.2682718
FDQ,168,3,2024-06-13T06:39:37.800Z,english_236.wav,0,1,657,21,4,Chinese,f,4,0.32341667,-75.97684705,1.92182597
FDQ,169,3,2024-06-13T06:39:37.800Z,english_268.wav,0,1,524,21,4,Chinese,f,0,0,55.18591224,1.47327052
FDQ,169,3,2024-06-13T06:39:37.800Z,english_268.wav,0,1,524,21,4,Chinese,f,1,0.1,47.37483414,0.95932673
FDQ,169,3,2024-06-13T06:39:37.800Z,english_268.wav,0,1,524,21,4,Chinese,f,2,0.2,46.97410588,1.80275919
FDQ,169,3,2024-06-13T06:39:37.800Z,english_268.wav,0,1,524,21,4,Chinese,f,3,0.3,-64.08979313,1.6474991
FDQ,169,3,2024-06-13T06:39:37.800Z,english_268.wav,0,1,524,21,4,Chinese,f,4,0.32341667,35.8590447,1.56533667
FDQ,170,3,2024-06-13T06:39:37.800Z,english_204.wav,0,1,138,21,4,Chinese,f,0,0,67.46317025,1.58701212
FDQ,170,3,2024-06-13T06:39:37.800Z,english_204.wav,0,1,138,21,4,Chinese,f,1,0.1,38.91463365,1.82178317
FDQ,170,3,2024-06-13T06:39:37.800Z,english_204.wav,0,1,138,21,4,Chinese,f,2,0.2,-85.28377865,1.60361911
FDQ,170,3,2024-06-13T06:39:37.800Z,english_204.wav,0,1,138,21,4,Chinese,f,3,0.3,55.65505401,0.21823774
FDQ,170,3,2024-06-13T06:39:37.800Z,english_204.wav,0,1,138,21,4,Chinese,f,4,0.32341667,56.32983288,0.04661671
FDQ,171,3,2024-06-13T06:39:37.800Z,english_338.wav,0,1,11,21,4,Chinese,f,0,0,-22.40965878,1.93572195
FDQ,171,3,2024-06-13T06:39:37.800Z,english_338.wav,0,1,11,21,4,Chinese,f,1,0.1,-10.16153496,1.78994992
FDQ,171,3,2024-06-13T06:39:37.800Z,english_338.wav,0,1,11,21,4,Chinese,f,2,0.2,-50.2449588,1.38134059
FDQ,171,3,2024-06-13T06:39:37.800Z,english_338.wav,0,1,11,21,4,Chinese,f,3,0.3,14.05674122,1.78462007
FDQ,171,3,2024-06-13T06:39:37.800Z,english_338.wav,0,1,11,21,4,Chinese,f,4,0.32341667,-78.35339858,1.2607094
FDQ,172,3,2024-06-13T06:39:37.800Z,english_5.wav,0,0,584,21,4,Chinese,f,0,0,-15.92383461,0.27445408
FDQ,172,3,2024-06-13T06:39:37.800Z,english_5.wav,0,0,584,21,4,Chinese,f,1,0.1,-20.01914587,0.54328549
FDQ,172,3,2024-06-13T06:39:37.800Z,english_5.wav,0,0,584,21,4,Chinese,f,2,0.2,40.70457056,0.32172142
FDQ,172,3,2024-06-13T06:39:37.800Z,english_5.wav,0,0,584,21,4,Chinese,f,3,0.3,-94.67131236,1.15903644
FDQ,172,3,2024-06-13T06:39:37.800Z,english_5.wav,0,0,584,21,4,Chinese,f,4,0.32341667,-88.33027294,0.94870148
FDQ,173,3,2024-06-13T06:39:37.800Z,english_56.wav,0,1,408,21,4,Chinese,f,0,0,47.39262259,1.7837475
FDQ,173,3,2024-06-13T06:39:37.800Z,english_56.wav,0,1,408,21,4,Chinese,f,1,0.1,8.89686315,1.39740624
FDQ,173,3,2024-06-13T06:39:37.800Z,english_56.wav,0,1,408,21,4,Chinese,f,2,0.2,-49.65570225,0.11209095
FDQ,173,3,2024-06-13T06:39:37.800Z,english_56.wav,0,1,408,21,4,Chinese,f,3,0.3,44.77904805,1.4946119
FDQ,173,3,2024-06-13T06:39:37.800Z,english_56.wav,0,1,408,21,4,Chinese,f,4,0.32341667,-94.65832844,1.03498606
FDQ,174,3,2024-06-13T06:39:37.800Z,english_475.wav,0,1,200,21,4,Chinese,f,0,0,-68.25626322,0.40988158
FDQ,174,3,2024-06-13T06:39:37.800Z,english_475.wav,0,1,200,21,4,Chinese,f,1,0.1,-56.46648788,1.90107213
FDQ,174,3,2024-06-13T06:39:37.800Z,english_475.wav,0,1,200,21,4,Chinese,f,2,0.2,49.77560279,0.54721615
FDQ,174,3,2024-06-13T06:39:37.800Z,english_475.wav,0,1,200,21,4,Chinese,f,3,0.3,-41.74178488,1.80730726
FDQ,174,3,2024-06-13T06:39:37.800Z,english_475.wav,0,1,200,21,4,Chinese,f,4,0.32341667,-60.3255454,0.11427958
FDQ,175,3,2024-06-13T06:39:37.800Z,english_823.wav,0,0,537,21,4,Chinese,f,0,0,24.6891334,1.19409205
FDQ,175,3,2024-06-13T06:39:37.800Z,english_823.wav,0,0,537,21,4,Chinese,f,1,0.1,86.03794788,0.72053846
FDQ,175,3,2024-06-13T06:39:37.800Z,english_823.wav,0,0,537,21,4,Chinese,f,2,0.2,45.97308045,0.2138623
FDQ,175,3,2024-06-13T06:39:37.800Z,english_823.wav,0,0,537,21,4,Chinese,f,3,0.3,39.11596791,1.56743943
FDQ,175,3,2024-06-13T06:39:37.800Z,english_823.wav,0,0,537,21,4,Chinese,f,4,0.32341667,10.29734006,1.24065623
FDQ,176,3,2024-06-13T06:39:37.800Z,english_816.wav,0,1,235,21,4,Chinese,f,0,0,-5.39935373,0.27372013
FDQ,176,3,2024-06-13T06:39:37.800Z,english_816.wav,0,1,235,21,4,Chinese,f,1,0.1,-58.12348851,1.23542608
FDQ,176,3,2024-06-13T06:39:37.800Z,english_816.wav,0,1,235,21,4,Chinese,f,2,0.2,-97.19740724,1.6956732
FDQ,176,3,2024-06-13T06:39:37.800Z,english_816.wav,0,1,235,21,4,Chinese,f,3,0.3,4.60418864,0.17466083
FDQ,176,3,2024-06-13T06:39:37.800Z,english_816.wav,0,1,235,21,4,Chinese,f,4,0.32341667,57.92285533,0.69657013
FDQ,177,3,2024-06-13T06:39:37.800Z,english_740.wav,0,1,297,21,4,Chinese,f,0,0,17.63845752,0.65519257
FDQ,177,3,2024-06-13T06:39:37.800Z,english_740.wav,0,1,297,21,4,Chinese,f,1,0.1,36.88289119,0.996231
FDQ,177,3,2024-06-13T06:39:37.800Z,english_740.wav,0,1,297,21,4,Chinese,f,2,0.2,-63.85348159,0.85360158
FDQ,177,3,2024-06-13T06:39:37.800Z,english_740.wav,0,1,297,21,4,Chinese,f,3,0.3,-97.96670479,1.42654033
FDQ,177,3,2024-06-13T06:39:37.800Z,english_740.wav,0,1,297,21,4,Chinese,f,4,0.32341667,43.035587,1.01691569
FDQ,178,3,2024-06-13T06:39:37.800Z,english_494.wav,0,0,610,21,4,Chinese,f,0,0,-3.60210196,0.92014098
FDQ,178,3,2024-06-13T06:39:37.800Z,english_494.wav,0,0,610,21,4,Chinese,f,1,0.1,-0.0120609558,1.08763174
FDQ,178,3,2024-06-13T06:39:37.800Z,english_494.wav,0,0,610,21,4,Chinese,f,2,0.2,-75.2550513,0.29239621
FDQ,178,3,2024-06-13T06:39:37.800Z,english_494.wav,0,0,610,21,4,Chinese,f,3,0.3,39.6800445,0.26357805
FDQ,178,3,2024-06-13T06:39:37.800Z,english_494.wav,0,0,610,21,4,Chinese,f,4,0.323416667,78.1977592,1.67878037
FDQ,179,3,2024-06-13T06:39:37.800Z,english_625.wav,0,0,547,21,4,Chinese,f,0,0,25.70847239,1.1960971
FDQ,179,3,2024-06-13T06:39:37.800Z,english_625.wav,0,0,547,21,4,Chinese,f,1,0.1,-37.82303983,0.02795501
FDQ,179,3,2024-06-13T06:39:37.800Z,english_625.wav,0,0,547,21,4,Chinese,f,2,0.2,38.52328891,1.10198652
FDQ,179,3,2024-06-13T06:39:37.800Z,english_625.wav,0,0,547,21,4,Chinese,f,3,0.3,-23.93667478,0.08852642
FDQ,179,3,2024-06-13T06:39:37.800Z,english_625.wav,0,0,547,21,4,Chinese,f,4,0.32341667,-53.98326942,1.59813041
FDQ,180,3,2024-06-13T06:39:37.800Z,english_540.wav,0,0,1329,21,4,Chinese,f,0,0,-46.6752609,1.16352469
FDQ,180,3,2024-06-13T06:39:37.800Z,english_540.wav,0,0,1329,21,4,Chinese,f,1,0.1,-93.20209644,0.0234781
FDQ,180,3,2024-06-13T06:39:37.800Z,english_540.wav,0,0,1329,21,4,Chinese,f,2,0.2,64.96419662,0.05926191
FDQ,180,3,2024-06-13T06:39:37.800Z,english_540.wav,0,0,1329,21,4,Chinese,f,3,0.3,-12.16484387,1.47406284
FDQ,180,3,2024-06-13T06:39:37.800Z,english_540.wav,0,0,1329,21,4,Chinese,f,4,0.32341667,-44.34688232,0.60104864
FDQ,181,3,2024-06-13T06:39:37.800Z,english_326.wav,0,0,293,21,4,Chinese,f,0,0,-13.70476372,1.64570887
FDQ,181,3,2024-06-13T06:39:37.800Z,english_326.wav,0,0,293,21,4,Chinese,f,1,0.1,47.7156259,0.91266102
FDQ,181,3,2024-06-13T06:39:37.800Z,english_326.wav,0,0,293,21,4,Chinese,f,2,0.2,23.24839736,0.36997562
FDQ,181,3,2024-06-13T06:39:37.800Z,english_326.wav,0,0,293,21,4,Chinese,f,3,0.3,67.08212267,1.96258237
FDQ,181,3,2024-06-13T06:39:37.800Z,english_326.wav,0,0,293,21,4,Chinese,f,4,0.32341667,78.79356023,1.01334204
FDQ,182,3,2024-06-13T06:39:37.800Z,english_583.wav,0,1,630,21,4,Chinese,f,0,0,-35.26485382,0.11557093
FDQ,182,3,2024-06-13T06:39:37.800Z,english_583.wav,0,1,630,21,4,Chinese,f,1,0.1,-69.50197994,0.9917357
FDQ,182,3,2024-06-13T06:39:37.800Z,english_583.wav,0,1,630,21,4,Chinese,f,2,0.2,73.6796048,1.33727714
FDQ,182,3,2024-06-13T06:39:37.800Z,english_583.wav,0,1,630,21,4,Chinese,f,3,0.3,-1.04664171,0.97646566
FDQ,182,3,2024-06-13T06:39:37.800Z,english_583.wav,0,1,630,21,4,Chinese,f,4,0.32341667,-55.46924107,1.06585671
FDQ,183,3,2024-06-13T06:39:37.800Z,english_877.wav,0,0,406,21,4,Chinese,f,0,0,49.36401037,1.25510861
FDQ,183,3,2024-06-13T06:39:37.800Z,english_877.wav,0,0,406,21,4,Chinese,f,1,0.1,15.17280231,0.84700305
FDQ,183,3,2024-06-13T06:39:37.800Z,english_877.wav,0,0,406,21,4,Chinese,f,2,0.2,22.36436744,0.32703774
FDQ,183,3,2024-06-13T06:39:37.800Z,english_877.wav,0,0,406,21,4,Chinese,f,3,0.3,-25.51979868,1.72637958
FDQ,183,3,2024-06-13T06:39:37.800Z,english_877.wav,0,0,406,21,4,Chinese,f,4,0.32341667,-55.72443313,0.52117686
FDQ,184,3,2024-06-13T06:39:37.800Z,english_957.wav,0,0,253,21,4,Chinese,f,0,0,-8.34255742,0.77577071
FDQ,184,3,2024-06-13T06:39:37.800Z,english_957.wav,0,0,253,21,4,Chinese,f,1,0.1,-36.8236739,1.35435363
FDQ,184,3,2024-06-13T06:39:37.800Z,english_957.wav,0,0,253,21,4,Chinese,f,2,0.2,6.68978896,0.94592229
FDQ,184,3,2024-06-13T06:39:37.800Z,english_957.wav,0,0,253,21,4,Chinese,f,3,0.3,-85.51463088,0.8988777
FDQ,184,3,2024-06-13T06:39:37.800Z,english_957.wav,0,0,253,21,4,Chinese,f,4,0.32341667,-16.82289389,0.34403417
FDQ,185,3,2024-06-13T06:39:37.800Z,english_857.wav,0,0,174,21,4,Chinese,f,0,0,-33.07031843,1.04325491
FDQ,185,3,2024-06-13T06:39:37.800Z,english_857.wav,0,0,174,21,4,Chinese,f,1,0.1,12.9349985,0.44078978
FDQ,185,3,2024-06-13T06:39:37.800Z,english_857.wav,0,0,174,21,4,Chinese,f,2,0.2,4.33682254,1.36028147
FDQ,185,3,2024-06-13T06:39:37.800Z,english_857.wav,0,0,174,21,4,Chinese,f,3,0.3,90.68056828,1.16905302
FDQ,185,3,2024-06-13T06:39:37.800Z,english_857.wav,0,0,174,21,4,Chinese,f,4,0.32341667,37.69781409,1.24618942
FDQ,186,3,2024-06-13T06:39:37.800Z,english_995.wav,0,0,492,21,4,Chinese,f,0,0,49.33707883,0.89732458
FDQ,186,3,2024-06-13T06:39:37.800Z,english_995.wav,0,0,492,21,4,Chinese,f,1,0.1,54.78730957,0.49662083
FDQ,186,3,2024-06-13T06:39:37.800Z,english_995.wav,0,0,492,21,4,Chinese,f,2,0.2,-5.99414072,0.83265132
FDQ,186,3,2024-06-13T06:39:37.800Z,english_995.wav,0,0,492,21,4,Chinese,f,3,0.3,26.8687238,1.32035917
FDQ,186,3,2024-06-13T06:39:37.800Z,english_995.wav,0,0,492,21,4,Chinese,f,4,0.32341667,38.3348194,1.99869744
FDQ,187,3,2024-06-13T06:39:37.800Z,english_55.wav,0,1,599,21,4,Chinese,f,0,0,71.89255128,0.24931264
FDQ,187,3,2024-06-13T06:39:37.800Z,english_55.wav,0,1,599,21,4,Chinese,f,1,0.1,0.20692224,1.79813092
FDQ,187,3,2024-06-13T06:39:37.800Z,english_55.wav,0,1,599,21,4,Chinese,f,2,0.2,-68.61006599,0.71729895
FDQ,187,3,2024-06-13T06:39:37.800Z,english_55.wav,0,1,599,21,4,Chinese,f,3,0.3,-5.20952515,1.28733782
FDQ,187,3,2024-06-13T06:39:37.800Z,english_55.wav,0,1,599,21,4,Chinese,f,4,0.32341667,28.45991968,1.77061752
FDQ,188,3,2024-06-13T06:39:37.800Z,english_674.wav,0,1,273,21,4,Chinese,f,0,0,-38.60253285,0.25488683
FDQ,188,3,2024-06-13T06:39:37.800Z,english_674.wav,0,1,273,21,4,Chinese,f,1,0.1,46.14948962,1.80679583
FDQ,188,3,2024-06-13T06:39:37.800Z,english_674.wav,0,1,273,21,4,Chinese,f,2,0.2,-49.76414787,1.59420413
FDQ,188,3,2024-06-13T06:39:37.800Z,english_674.wav,0,1,273,21,4,Chinese,f,3,0.3,-66.16492387,1.25714797
FDQ,188,3,2024-06-13T06:39:37.800Z,english_674.wav,0,1,273,21,4,Chinese,f,4,0.32341667,28.37583826,1.20557216
FDQ,189,3,2024-06-13T06:39:37.800Z,english_568.wav,0,0,274,21,4,Chinese,f,0,0,-80.38325009,1.52383372
FDQ,189,3,2024-06-13T06:39:37.800Z,english_568.wav,0,0,274,21,4,Chinese,f,1,0.1,65.28340143,0.37337456
FDQ,189,3,2024-06-13T06:39:37.800Z,english_568.wav,0,0,274,21,4,Chinese,f,2,0.2,22.57833022,0.67023469
FDQ,189,3,2024-06-13T06:39:37.800Z,english_568.wav,0,0,274,21,4,Chinese,f,3,0.3,-55.44872251,1.98652091
FDQ,189,3,2024-06-13T06:39:37.800Z,english_568.wav,0,0,274,21,4,Chinese,f,4,0.32341667,-94.3142815,1.15861726
FDQ,190,3,2024-06-13T06:39:37.800Z,english_562.wav,0,1,428,21,4,Chinese,f,0,0,-40.22672309,0.64031882
FDQ,190,3,2024-06-13T06:39:37.800Z,english_562.wav,0,1,428,21,4,Chinese,f,1,0.1,77.961849,0.7637006
FDQ,190,3,2024-06-13T06:39:37.800Z,english_562.wav,0,1,428,21,4,Chinese,f,2,0.2,25.52463525,0.87632482
FDQ,190,3,2024-06-13T06:39:37.800Z,english_562.wav,0,1,428,21,4,Chinese,f,3,0.3,84.62788358,0.98972612
FDQ,190,3,2024-06-13T06:39:37.800Z,english_562.wav,0,1,428,21,4,Chinese,f,4,0.32341667,-53.67427145,0.74010285
FDQ,191,3,2024-06-13T06:39:37.800Z,english_332.wav,0,0,422,21,4,Chinese,f,0,0,-51.41680869,1.58782391
FDQ,191,3,2024-06-13T06:39:37.800Z,english_332.wav,0,0,422,21,4,Chinese,f,1,0.1,4.985172,0.72138411
FDQ,191,3,2024-06-13T06:39:37.800Z,english_332.wav,0,0,422,21,4,Chinese,f,2,0.2,88.20327684,1.12265768
FDQ,191,3,2024-06-13T06:39:37.800Z,english_332.wav,0,0,422,21,4,Chinese,f,3,0.3,-58.40734817,0.23569111
FDQ,191,3,2024-06-13T06:39:37.800Z,english_332.wav,0,0,422,21,4,Chinese,f,4,0.32341667,68.30800912,1.23583309
FDQ,192,3,2024-06-13T06:39:37.800Z,english_859.wav,0,0,508,21,4,Chinese,f,0,0,71.31858369,0.11764496
FDQ,192,3,2024-06-13T06:39:37.800Z,english_859.wav,0,0,508,21,4,Chinese,f,1,0.1,-33.60875554,0.29827778
