subj,trial,block,date,stim,stim_order,response,rt,age,english,language,sex,param_index,segment,pitch,stretch
ZH,0,0,2024-06-14T08:01:42.018Z,english_801.wav,0,0,4393,20,3,Chinese,f,0,0,66.50571345,0.19311528
ZH,0,0,2024-06-14T08:01:42.018Z,english_801.wav,0,0,4393,20,3,Chinese,f,1,0.1,-53.03260979,0.48683601
ZH,0,0,2024-06-14T08:01:42.018Z,english_801.wav,0,0,4393,20,3,Chinese,f,2,0.2,-3.89459646,1.16293258
ZH,0,0,2024-06-14T08:01:42.018Z,english_801.wav,0,0,4393,20,3,Chinese,f,3,0.3,8.32951864,1.55734707
ZH,0,0,2024-06-14T08:01:42.018Z,english_801.wav,0,0,4393,20,3,Chinese,f,4,0.32341667,-87.46806733,0.63471681
ZH,1,0,2024-06-14T08:01:42.018Z,english_998.wav,0,0,7115,20,3,Chinese,f,0,0,-57.03196796,0.0179282
ZH,1,0,2024-06-14T08:01:42.018Z,english_998.wav,0,0,7115,20,3,Chinese,f,1,0.1,-12.93623633,1.72217412
ZH,1,0,2024-06-14T08:01:42.018Z,english_998.wav,0,0,7115,20,3,Chinese,f,2,0.2,-24.63186366,0.91011795
ZH,1,0,2024-06-14T08:01:42.018Z,english_998.wav,0,0,7115,20,3,Chinese,f,3,0.3,-10.49750637,1.24282972
ZH,1,0,2024-06-14T08:01:42.018Z,english_998.wav,0,0,7115,20,3,Chinese,f,4,0.32341667,22.76793653,0.40520665
ZH,2,0,2024-06-14T08:01:42.018Z,english_52.wav,0,1,3473,20,3,Chinese,f,0,0,54.63859099,0.91426261
ZH,2,0,2024-06-14T08:01:42.018Z,english_52.wav,0,1,3473,20,3,Chinese,f,1,0.1,-85.67195477,1.20728413
ZH,2,0,2024-06-14T08:01:42.018Z,english_52.wav,0,1,3473,20,3,Chinese,f,2,0.2,2.4878885,0.71733995
ZH,2,0,2024-06-14T08:01:42.018Z,english_52.wav,0,1,3473,20,3,Chinese,f,3,0.3,86.13143505,1.54149443
ZH,2,0,2024-06-14T08:01:42.018Z,english_52.wav,0,1,3473,20,3,Chinese,f,4,0.32341667,-53.30399902,1.3376245
ZH,3,0,2024-06-14T08:01:42.018Z,english_677.wav,0,1,1734,20,3,Chinese,f,0,0,74.92499355,0.4070184
ZH,3,0,2024-06-14T08:01:42.018Z,english_677.wav,0,1,1734,20,3,Chinese,f,1,0.1,35.44886391,0.82737557
ZH,3,0,2024-06-14T08:01:42.018Z,english_677.wav,0,1,1734,20,3,Chinese,f,2,0.2,3.82146975,0.46436239
ZH,3,0,2024-06-14T08:01:42.018Z,english_677.wav,0,1,1734,20,3,Chinese,f,3,0.3,10.3543008,1.40426898
ZH,3,0,2024-06-14T08:01:42.018Z,english_677.wav,0,1,1734,20,3,Chinese,f,4,0.32341667,-53.94170103,1.42138659
ZH,4,0,2024-06-14T08:01:42.018Z,english_542.wav,0,1,1398,20,3,Chinese,f,0,0,-75.53633957,0.40538048
ZH,4,0,2024-06-14T08:01:42.018Z,english_542.wav,0,1,1398,20,3,Chinese,f,1,0.1,-65.83593262,1.98560632
ZH,4,0,2024-06-14T08:01:42.018Z,english_542.wav,0,1,1398,20,3,Chinese,f,2,0.2,-66.8010443,1.18970355
ZH,4,0,2024-06-14T08:01:42.018Z,english_542.wav,0,1,1398,20,3,Chinese,f,3,0.3,89.94318033,1.00543009
ZH,4,0,2024-06-14T08:01:42.018Z,english_542.wav,0,1,1398,20,3,Chinese,f,4,0.32341667,-28.80984484,1.15995836
ZH,5,0,2024-06-14T08:01:42.018Z,english_501.wav,0,0,1671,20,3,Chinese,f,0,0,-7.07122187,1.4737248
ZH,5,0,2024-06-14T08:01:42.018Z,english_501.wav,0,0,1671,20,3,Chinese,f,1,0.1,10.00250781,1.10212017
ZH,5,0,2024-06-14T08:01:42.018Z,english_501.wav,0,0,1671,20,3,Chinese,f,2,0.2,-21.98285256,1.65595948
ZH,5,0,2024-06-14T08:01:42.018Z,english_501.wav,0,0,1671,20,3,Chinese,f,3,0.3,46.16062549,0.64757112
ZH,5,0,2024-06-14T08:01:42.018Z,english_501.wav,0,0,1671,20,3,Chinese,f,4,0.32341667,41.01655214,0.36171009
ZH,6,0,2024-06-14T08:01:42.018Z,english_672.wav,0,0,907,20,3,Chinese,f,0,0,30.04022321,0.7872581
ZH,6,0,2024-06-14T08:01:42.018Z,english_672.wav,0,0,907,20,3,Chinese,f,1,0.1,-49.20146972,1.24822874
ZH,6,0,2024-06-14T08:01:42.018Z,english_672.wav,0,0,907,20,3,Chinese,f,2,0.2,68.57510342,1.0921985
ZH,6,0,2024-06-14T08:01:42.018Z,english_672.wav,0,0,907,20,3,Chinese,f,3,0.3,46.99705545,1.42682896
ZH,6,0,2024-06-14T08:01:42.018Z,english_672.wav,0,0,907,20,3,Chinese,f,4,0.32341667,-96.75951233,0.39437363
ZH,7,0,2024-06-14T08:01:42.018Z,english_897.wav,0,1,1453,20,3,Chinese,f,0,0,-6.17515852,1.45954458
ZH,7,0,2024-06-14T08:01:42.018Z,english_897.wav,0,1,1453,20,3,Chinese,f,1,0.1,-25.56252799,1.4662158
ZH,7,0,2024-06-14T08:01:42.018Z,english_897.wav,0,1,1453,20,3,Chinese,f,2,0.2,-51.51756482,1.09304129
ZH,7,0,2024-06-14T08:01:42.018Z,english_897.wav,0,1,1453,20,3,Chinese,f,3,0.3,-57.3776393,1.17713492
ZH,7,0,2024-06-14T08:01:42.018Z,english_897.wav,0,1,1453,20,3,Chinese,f,4,0.32341667,-65.82780913,1.23726335
ZH,8,0,2024-06-14T08:01:42.018Z,english_709.wav,0,0,1937,20,3,Chinese,f,0,0,-57.85840644,1.64294201
ZH,8,0,2024-06-14T08:01:42.018Z,english_709.wav,0,0,1937,20,3,Chinese,f,1,0.1,-9.03046344,1.39808038
ZH,8,0,2024-06-14T08:01:42.018Z,english_709.wav,0,0,1937,20,3,Chinese,f,2,0.2,-83.08592789,1.46645034
ZH,8,0,2024-06-14T08:01:42.018Z,english_709.wav,0,0,1937,20,3,Chinese,f,3,0.3,-30.28779026,1.11724372
ZH,8,0,2024-06-14T08:01:42.018Z,english_709.wav,0,0,1937,20,3,Chinese,f,4,0.32341667,-42.69418167,0.30195694
ZH,9,0,2024-06-14T08:01:42.018Z,english_734.wav,0,0,886,20,3,Chinese,f,0,0,23.12527103,1.15728247
ZH,9,0,2024-06-14T08:01:42.018Z,english_734.wav,0,0,886,20,3,Chinese,f,1,0.1,70.97885261,1.10975856
ZH,9,0,2024-06-14T08:01:42.018Z,english_734.wav,0,0,886,20,3,Chinese,f,2,0.2,-68.62860591,0.41126476
ZH,9,0,2024-06-14T08:01:42.018Z,english_734.wav,0,0,886,20,3,Chinese,f,3,0.3,-14.81239301,1.45213782
ZH,9,0,2024-06-14T08:01:42.018Z,english_734.wav,0,0,886,20,3,Chinese,f,4,0.32341667,-74.40513958,1.98917216
ZH,10,0,2024-06-14T08:01:42.018Z,english_423.wav,0,0,2933,20,3,Chinese,f,0,0,48.83941012,1.35290702
ZH,10,0,2024-06-14T08:01:42.018Z,english_423.wav,0,0,2933,20,3,Chinese,f,1,0.1,26.57948938,1.33919202
ZH,10,0,2024-06-14T08:01:42.018Z,english_423.wav,0,0,2933,20,3,Chinese,f,2,0.2,56.70545245,1.37149513
ZH,10,0,2024-06-14T08:01:42.018Z,english_423.wav,0,0,2933,20,3,Chinese,f,3,0.3,-62.41131033,1.11357765
ZH,10,0,2024-06-14T08:01:42.018Z,english_423.wav,0,0,2933,20,3,Chinese,f,4,0.32341667,78.49803502,1.20699722
ZH,11,0,2024-06-14T08:01:42.018Z,english_960.wav,0,0,844,20,3,Chinese,f,0,0,35.80457434,0.79357899
ZH,11,0,2024-06-14T08:01:42.018Z,english_960.wav,0,0,844,20,3,Chinese,f,1,0.1,-19.98469691,0.63900775
ZH,11,0,2024-06-14T08:01:42.018Z,english_960.wav,0,0,844,20,3,Chinese,f,2,0.2,-8.88025322,1.83966222
ZH,11,0,2024-06-14T08:01:42.018Z,english_960.wav,0,0,844,20,3,Chinese,f,3,0.3,6.59365348,1.05168668
ZH,11,0,2024-06-14T08:01:42.018Z,english_960.wav,0,0,844,20,3,Chinese,f,4,0.32341667,64.0885905,1.66020449
ZH,12,0,2024-06-14T08:01:42.018Z,english_628.wav,0,1,1237,20,3,Chinese,f,0,0,-19.71295886,0.8960583
ZH,12,0,2024-06-14T08:01:42.018Z,english_628.wav,0,1,1237,20,3,Chinese,f,1,0.1,-79.294697,1.61949508
ZH,12,0,2024-06-14T08:01:42.018Z,english_628.wav,0,1,1237,20,3,Chinese,f,2,0.2,-59.93256946,0.65483299
ZH,12,0,2024-06-14T08:01:42.018Z,english_628.wav,0,1,1237,20,3,Chinese,f,3,0.3,-18.46863719,0.12001531
ZH,12,0,2024-06-14T08:01:42.018Z,english_628.wav,0,1,1237,20,3,Chinese,f,4,0.32341667,53.30350975,0.85308449
ZH,13,0,2024-06-14T08:01:42.018Z,english_307.wav,0,0,1154,20,3,Chinese,f,0,0,-38.93106299,1.91951228
ZH,13,0,2024-06-14T08:01:42.018Z,english_307.wav,0,0,1154,20,3,Chinese,f,1,0.1,-30.40144858,0.50419792
ZH,13,0,2024-06-14T08:01:42.018Z,english_307.wav,0,0,1154,20,3,Chinese,f,2,0.2,2.19081651,0.76602689
ZH,13,0,2024-06-14T08:01:42.018Z,english_307.wav,0,0,1154,20,3,Chinese,f,3,0.3,30.82741361,0.59904457
ZH,13,0,2024-06-14T08:01:42.018Z,english_307.wav,0,0,1154,20,3,Chinese,f,4,0.32341667,46.9007513,1.94941235
ZH,14,0,2024-06-14T08:01:42.018Z,english_220.wav,0,1,905,20,3,Chinese,f,0,0,-49.83323752,1.6244524
ZH,14,0,2024-06-14T08:01:42.018Z,english_220.wav,0,1,905,20,3,Chinese,f,1,0.1,49.13629021,0.7812698
ZH,14,0,2024-06-14T08:01:42.018Z,english_220.wav,0,1,905,20,3,Chinese,f,2,0.2,10.673463,1.29736816
ZH,14,0,2024-06-14T08:01:42.018Z,english_220.wav,0,1,905,20,3,Chinese,f,3,0.3,-2.35218347,1.3419496
ZH,14,0,2024-06-14T08:01:42.018Z,english_220.wav,0,1,905,20,3,Chinese,f,4,0.32341667,-2.61587219,1.06575232
ZH,15,0,2024-06-14T08:01:42.018Z,english_788.wav,0,0,709,20,3,Chinese,f,0,0,-93.79628683,0.67330318
ZH,15,0,2024-06-14T08:01:42.018Z,english_788.wav,0,0,709,20,3,Chinese,f,1,0.1,-45.29703147,1.33385595
ZH,15,0,2024-06-14T08:01:42.018Z,english_788.wav,0,0,709,20,3,Chinese,f,2,0.2,-46.01001772,1.35248941
ZH,15,0,2024-06-14T08:01:42.018Z,english_788.wav,0,0,709,20,3,Chinese,f,3,0.3,-56.6729179,1.33220146
ZH,15,0,2024-06-14T08:01:42.018Z,english_788.wav,0,0,709,20,3,Chinese,f,4,0.32341667,51.29020462,1.32468206
ZH,16,0,2024-06-14T08:01:42.018Z,english_144.wav,0,0,974,20,3,Chinese,f,0,0,-68.95587174,0.23806678
ZH,16,0,2024-06-14T08:01:42.018Z,english_144.wav,0,0,974,20,3,Chinese,f,1,0.1,-74.16141139,0.77020267
ZH,16,0,2024-06-14T08:01:42.018Z,english_144.wav,0,0,974,20,3,Chinese,f,2,0.2,-19.31034794,0.33858197
ZH,16,0,2024-06-14T08:01:42.018Z,english_144.wav,0,0,974,20,3,Chinese,f,3,0.3,-77.96768175,1.42512122
ZH,16,0,2024-06-14T08:01:42.018Z,english_144.wav,0,0,974,20,3,Chinese,f,4,0.32341667,3.46911061,0.57629619
ZH,17,0,2024-06-14T08:01:42.018Z,english_412.wav,0,0,965,20,3,Chinese,f,0,0,-82.38375592,0.41347899
ZH,17,0,2024-06-14T08:01:42.018Z,english_412.wav,0,0,965,20,3,Chinese,f,1,0.1,-35.89348303,0.05505218
ZH,17,0,2024-06-14T08:01:42.018Z,english_412.wav,0,0,965,20,3,Chinese,f,2,0.2,-78.50422887,1.28972039
ZH,17,0,2024-06-14T08:01:42.018Z,english_412.wav,0,0,965,20,3,Chinese,f,3,0.3,8.19618882,0.97331843
ZH,17,0,2024-06-14T08:01:42.018Z,english_412.wav,0,0,965,20,3,Chinese,f,4,0.32341667,88.30694734,0.22558246
ZH,18,0,2024-06-14T08:01:42.018Z,english_886.wav,0,1,841,20,3,Chinese,f,0,0,52.0334205,0.43451348
ZH,18,0,2024-06-14T08:01:42.018Z,english_886.wav,0,1,841,20,3,Chinese,f,1,0.1,-34.60142464,1.57387994
ZH,18,0,2024-06-14T08:01:42.018Z,english_886.wav,0,1,841,20,3,Chinese,f,2,0.2,77.69993065,1.05416836
ZH,18,0,2024-06-14T08:01:42.018Z,english_886.wav,0,1,841,20,3,Chinese,f,3,0.3,29.08950905,0.32554246
ZH,18,0,2024-06-14T08:01:42.018Z,english_886.wav,0,1,841,20,3,Chinese,f,4,0.32341667,-98.8324779,1.85669509
ZH,19,0,2024-06-14T08:01:42.018Z,english_885.wav,0,0,875,20,3,Chinese,f,0,0,36.3288655,0.78617108
ZH,19,0,2024-06-14T08:01:42.018Z,english_885.wav,0,0,875,20,3,Chinese,f,1,0.1,-33.4786966,0.96292114
ZH,19,0,2024-06-14T08:01:42.018Z,english_885.wav,0,0,875,20,3,Chinese,f,2,0.2,8.05827153,0.70266535
ZH,19,0,2024-06-14T08:01:42.018Z,english_885.wav,0,0,875,20,3,Chinese,f,3,0.3,84.98004341,0.45613544
ZH,19,0,2024-06-14T08:01:42.018Z,english_885.wav,0,0,875,20,3,Chinese,f,4,0.32341667,-34.65749493,0.81873504
ZH,20,0,2024-06-14T08:01:42.018Z,english_719.wav,0,1,2466,20,3,Chinese,f,0,0,-32.14306232,1.4431753
ZH,20,0,2024-06-14T08:01:42.018Z,english_719.wav,0,1,2466,20,3,Chinese,f,1,0.1,-81.40439332,0.46175707
ZH,20,0,2024-06-14T08:01:42.018Z,english_719.wav,0,1,2466,20,3,Chinese,f,2,0.2,-20.1172293,1.86886769
ZH,20,0,2024-06-14T08:01:42.018Z,english_719.wav,0,1,2466,20,3,Chinese,f,3,0.3,67.63048238,0.67969247
ZH,20,0,2024-06-14T08:01:42.018Z,english_719.wav,0,1,2466,20,3,Chinese,f,4,0.32341667,50.83305788,1.68151983
ZH,21,0,2024-06-14T08:01:42.018Z,english_956.wav,0,0,883,20,3,Chinese,f,0,0,-98.71257913,1.5828524
ZH,21,0,2024-06-14T08:01:42.018Z,english_956.wav,0,0,883,20,3,Chinese,f,1,0.1,-36.05702295,0.66985857
ZH,21,0,2024-06-14T08:01:42.018Z,english_956.wav,0,0,883,20,3,Chinese,f,2,0.2,-31.95582623,0.13798036
ZH,21,0,2024-06-14T08:01:42.018Z,english_956.wav,0,0,883,20,3,Chinese,f,3,0.3,-81.31295359,0.22663358
ZH,21,0,2024-06-14T08:01:42.018Z,english_956.wav,0,0,883,20,3,Chinese,f,4,0.32341667,45.09425789,0.54862974
ZH,22,0,2024-06-14T08:01:42.018Z,english_587.wav,0,1,902,20,3,Chinese,f,0,0,-33.32102811,0.7972352
ZH,22,0,2024-06-14T08:01:42.018Z,english_587.wav,0,1,902,20,3,Chinese,f,1,0.1,46.1287001,1.97425238
ZH,22,0,2024-06-14T08:01:42.018Z,english_587.wav,0,1,902,20,3,Chinese,f,2,0.2,-62.23894368,0.99609006
ZH,22,0,2024-06-14T08:01:42.018Z,english_587.wav,0,1,902,20,3,Chinese,f,3,0.3,36.67711132,1.18577707
ZH,22,0,2024-06-14T08:01:42.018Z,english_587.wav,0,1,902,20,3,Chinese,f,4,0.32341667,-11.53320103,1.64089558
ZH,23,0,2024-06-14T08:01:42.018Z,english_77.wav,0,0,2625,20,3,Chinese,f,0,0,-72.40491727,0.02183184
ZH,23,0,2024-06-14T08:01:42.018Z,english_77.wav,0,0,2625,20,3,Chinese,f,1,0.1,8.82020558,1.36505393
ZH,23,0,2024-06-14T08:01:42.018Z,english_77.wav,0,0,2625,20,3,Chinese,f,2,0.2,89.28229375,1.34112472
ZH,23,0,2024-06-14T08:01:42.018Z,english_77.wav,0,0,2625,20,3,Chinese,f,3,0.3,-14.39120814,0.45737201
ZH,23,0,2024-06-14T08:01:42.018Z,english_77.wav,0,0,2625,20,3,Chinese,f,4,0.32341667,0.18022976,1.1673494
ZH,24,0,2024-06-14T08:01:42.018Z,english_631.wav,0,0,1716,20,3,Chinese,f,0,0,-74.37700429,0.77307226
ZH,24,0,2024-06-14T08:01:42.018Z,english_631.wav,0,0,1716,20,3,Chinese,f,1,0.1,-18.72790858,0.75923189
ZH,24,0,2024-06-14T08:01:42.018Z,english_631.wav,0,0,1716,20,3,Chinese,f,2,0.2,-40.03216697,1.00825659
ZH,24,0,2024-06-14T08:01:42.018Z,english_631.wav,0,0,1716,20,3,Chinese,f,3,0.3,-98.5967418,1.46579839
ZH,24,0,2024-06-14T08:01:42.018Z,english_631.wav,0,0,1716,20,3,Chinese,f,4,0.32341667,-41.89017921,0.34107994
ZH,25,0,2024-06-14T08:01:42.018Z,english_714.wav,0,1,1389,20,3,Chinese,f,0,0,6.62463448,0.98205871
ZH,25,0,2024-06-14T08:01:42.018Z,english_714.wav,0,1,1389,20,3,Chinese,f,1,0.1,-7.37775178,1.90018259
ZH,25,0,2024-06-14T08:01:42.018Z,english_714.wav,0,1,1389,20,3,Chinese,f,2,0.2,-58.74003357,1.33033281
ZH,25,0,2024-06-14T08:01:42.018Z,english_714.wav,0,1,1389,20,3,Chinese,f,3,0.3,-38.84014254,0.20009115
ZH,25,0,2024-06-14T08:01:42.018Z,english_714.wav,0,1,1389,20,3,Chinese,f,4,0.32341667,-23.67047323,0.44650169
ZH,26,0,2024-06-14T08:01:42.018Z,english_651.wav,0,0,846,20,3,Chinese,f,0,0,94.66063372,0.16277223
ZH,26,0,2024-06-14T08:01:42.018Z,english_651.wav,0,0,846,20,3,Chinese,f,1,0.1,53.93234837,1.71236475
ZH,26,0,2024-06-14T08:01:42.018Z,english_651.wav,0,0,846,20,3,Chinese,f,2,0.2,-71.35755131,0.37376336
ZH,26,0,2024-06-14T08:01:42.018Z,english_651.wav,0,0,846,20,3,Chinese,f,3,0.3,50.84025958,0.80998932
ZH,26,0,2024-06-14T08:01:42.018Z,english_651.wav,0,0,846,20,3,Chinese,f,4,0.32341667,-24.67252949,0.23835763
ZH,27,0,2024-06-14T08:01:42.018Z,english_429.wav,0,1,1554,20,3,Chinese,f,0,0,-70.82827187,0.34305232
ZH,27,0,2024-06-14T08:01:42.018Z,english_429.wav,0,1,1554,20,3,Chinese,f,1,0.1,79.2644825,1.15525787
ZH,27,0,2024-06-14T08:01:42.018Z,english_429.wav,0,1,1554,20,3,Chinese,f,2,0.2,14.29027084,1.85610569
ZH,27,0,2024-06-14T08:01:42.018Z,english_429.wav,0,1,1554,20,3,Chinese,f,3,0.3,-47.65971945,0.19828098
ZH,27,0,2024-06-14T08:01:42.018Z,english_429.wav,0,1,1554,20,3,Chinese,f,4,0.32341667,8.9954872,1.51767034
ZH,28,0,2024-06-14T08:01:42.018Z,english_488.wav,0,0,819,20,3,Chinese,f,0,0,7.19120882,0.55609806
ZH,28,0,2024-06-14T08:01:42.018Z,english_488.wav,0,0,819,20,3,Chinese,f,1,0.1,11.64873536,1.36121935
ZH,28,0,2024-06-14T08:01:42.018Z,english_488.wav,0,0,819,20,3,Chinese,f,2,0.2,59.26032861,0.93872915
ZH,28,0,2024-06-14T08:01:42.018Z,english_488.wav,0,0,819,20,3,Chinese,f,3,0.3,-31.0631162,1.52041262
ZH,28,0,2024-06-14T08:01:42.018Z,english_488.wav,0,0,819,20,3,Chinese,f,4,0.32341667,23.8619583,1.83140972
ZH,29,0,2024-06-14T08:01:42.018Z,english_53.wav,0,0,1064,20,3,Chinese,f,0,0,5.97237457,0.42230306
ZH,29,0,2024-06-14T08:01:42.018Z,english_53.wav,0,0,1064,20,3,Chinese,f,1,0.1,-76.12131912,0.60624646
ZH,29,0,2024-06-14T08:01:42.018Z,english_53.wav,0,0,1064,20,3,Chinese,f,2,0.2,55.18337216,0.26369256
ZH,29,0,2024-06-14T08:01:42.018Z,english_53.wav,0,0,1064,20,3,Chinese,f,3,0.3,70.32610425,1.07400525
ZH,29,0,2024-06-14T08:01:42.018Z,english_53.wav,0,0,1064,20,3,Chinese,f,4,0.32341667,26.40450832,0.2721545
ZH,30,0,2024-06-14T08:01:42.018Z,english_260.wav,0,1,864,20,3,Chinese,f,0,0,-45.73422918,1.75247731
ZH,30,0,2024-06-14T08:01:42.018Z,english_260.wav,0,1,864,20,3,Chinese,f,1,0.1,-23.757295,1.29821829
ZH,30,0,2024-06-14T08:01:42.018Z,english_260.wav,0,1,864,20,3,Chinese,f,2,0.2,-1.17180464,0.50372963
ZH,30,0,2024-06-14T08:01:42.018Z,english_260.wav,0,1,864,20,3,Chinese,f,3,0.3,42.98000529,1.19905143
ZH,30,0,2024-06-14T08:01:42.018Z,english_260.wav,0,1,864,20,3,Chinese,f,4,0.32341667,7.49715463,0.66690199
ZH,31,0,2024-06-14T08:01:42.018Z,english_554.wav,0,1,877,20,3,Chinese,f,0,0,9.57607907,1.93967122
ZH,31,0,2024-06-14T08:01:42.018Z,english_554.wav,0,1,877,20,3,Chinese,f,1,0.1,29.37398753,1.74360796
ZH,31,0,2024-06-14T08:01:42.018Z,english_554.wav,0,1,877,20,3,Chinese,f,2,0.2,-58.71210794,0.37945994
ZH,31,0,2024-06-14T08:01:42.018Z,english_554.wav,0,1,877,20,3,Chinese,f,3,0.3,-10.7927705,1.56347046
ZH,31,0,2024-06-14T08:01:42.018Z,english_554.wav,0,1,877,20,3,Chinese,f,4,0.32341667,21.8128915,1.38248676
ZH,32,0,2024-06-14T08:01:42.018Z,english_31.wav,0,0,943,20,3,Chinese,f,0,0,21.28810337,1.2057056
ZH,32,0,2024-06-14T08:01:42.018Z,english_31.wav,0,0,943,20,3,Chinese,f,1,0.1,68.821868,0.99381392
ZH,32,0,2024-06-14T08:01:42.018Z,english_31.wav,0,0,943,20,3,Chinese,f,2,0.2,-73.02143346,0.87600828
ZH,32,0,2024-06-14T08:01:42.018Z,english_31.wav,0,0,943,20,3,Chinese,f,3,0.3,68.60173581,1.15844697
ZH,32,0,2024-06-14T08:01:42.018Z,english_31.wav,0,0,943,20,3,Chinese,f,4,0.32341667,51.47999234,1.3722803
ZH,33,0,2024-06-14T08:01:42.018Z,english_963.wav,0,1,609,20,3,Chinese,f,0,0,-60.03327616,0.86711865
ZH,33,0,2024-06-14T08:01:42.018Z,english_963.wav,0,1,609,20,3,Chinese,f,1,0.1,-15.51067414,1.69273621
ZH,33,0,2024-06-14T08:01:42.018Z,english_963.wav,0,1,609,20,3,Chinese,f,2,0.2,59.36715957,0.74157302
ZH,33,0,2024-06-14T08:01:42.018Z,english_963.wav,0,1,609,20,3,Chinese,f,3,0.3,-98.70464219,1.73078555
ZH,33,0,2024-06-14T08:01:42.018Z,english_963.wav,0,1,609,20,3,Chinese,f,4,0.32341667,37.26723218,1.37482324
ZH,34,0,2024-06-14T08:01:42.018Z,english_13.wav,0,0,675,20,3,Chinese,f,0,0,85.79405153,0.93145275
ZH,34,0,2024-06-14T08:01:42.018Z,english_13.wav,0,0,675,20,3,Chinese,f,1,0.1,-22.00296346,0.69811424
ZH,34,0,2024-06-14T08:01:42.018Z,english_13.wav,0,0,675,20,3,Chinese,f,2,0.2,45.89988476,1.08090206
ZH,34,0,2024-06-14T08:01:42.018Z,english_13.wav,0,0,675,20,3,Chinese,f,3,0.3,-17.47250281,0.35305012
ZH,34,0,2024-06-14T08:01:42.018Z,english_13.wav,0,0,675,20,3,Chinese,f,4,0.32341667,-30.34546067,0.65915907
ZH,35,0,2024-06-14T08:01:42.018Z,english_852.wav,0,1,1141,20,3,Chinese,f,0,0,-59.21906832,1.76087743
ZH,35,0,2024-06-14T08:01:42.018Z,english_852.wav,0,1,1141,20,3,Chinese,f,1,0.1,5.96662808,0.85304022
ZH,35,0,2024-06-14T08:01:42.018Z,english_852.wav,0,1,1141,20,3,Chinese,f,2,0.2,12.29830648,0.5029047
ZH,35,0,2024-06-14T08:01:42.018Z,english_852.wav,0,1,1141,20,3,Chinese,f,3,0.3,-98.20735767,0.66544939
ZH,35,0,2024-06-14T08:01:42.018Z,english_852.wav,0,1,1141,20,3,Chinese,f,4,0.32341667,-0.5186354,0.26669214
ZH,36,0,2024-06-14T08:01:42.018Z,english_275.wav,0,0,1357,20,3,Chinese,f,0,0,-1.14725012,0.71691039
ZH,36,0,2024-06-14T08:01:42.018Z,english_275.wav,0,0,1357,20,3,Chinese,f,1,0.1,-90.43848863,0.74614953
ZH,36,0,2024-06-14T08:01:42.018Z,english_275.wav,0,0,1357,20,3,Chinese,f,2,0.2,-40.03711279,1.94843862
ZH,36,0,2024-06-14T08:01:42.018Z,english_275.wav,0,0,1357,20,3,Chinese,f,3,0.3,-29.12549604,0.32495742
ZH,36,0,2024-06-14T08:01:42.018Z,english_275.wav,0,0,1357,20,3,Chinese,f,4,0.32341667,77.33253221,0.61649877
ZH,37,0,2024-06-14T08:01:42.018Z,english_58.wav,0,0,1111,20,3,Chinese,f,0,0,20.12478601,1.19415515
ZH,37,0,2024-06-14T08:01:42.018Z,english_58.wav,0,0,1111,20,3,Chinese,f,1,0.1,-22.60038942,0.26098942
ZH,37,0,2024-06-14T08:01:42.018Z,english_58.wav,0,0,1111,20,3,Chinese,f,2,0.2,34.38627512,1.99195241
ZH,37,0,2024-06-14T08:01:42.018Z,english_58.wav,0,0,1111,20,3,Chinese,f,3,0.3,30.90369434,0.42925074
ZH,37,0,2024-06-14T08:01:42.018Z,english_58.wav,0,0,1111,20,3,Chinese,f,4,0.32341667,11.39971337,0.50368767
ZH,38,0,2024-06-14T08:01:42.018Z,english_832.wav,0,1,797,20,3,Chinese,f,0,0,-21.62855277,1.31372842
ZH,38,0,2024-06-14T08:01:42.018Z,english_832.wav,0,1,797,20,3,Chinese,f,1,0.1,-35.3834786,1.55258378
ZH,38,0,2024-06-14T08:01:42.018Z,english_832.wav,0,1,797,20,3,Chinese,f,2,0.2,52.65867494,1.50567803
ZH,38,0,2024-06-14T08:01:42.018Z,english_832.wav,0,1,797,20,3,Chinese,f,3,0.3,62.52082964,1.2163301
ZH,38,0,2024-06-14T08:01:42.018Z,english_832.wav,0,1,797,20,3,Chinese,f,4,0.32341667,46.66062952,1.20100353
ZH,39,0,2024-06-14T08:01:42.018Z,english_87.wav,0,0,938,20,3,Chinese,f,0,0,54.83056612,1.56132998
ZH,39,0,2024-06-14T08:01:42.018Z,english_87.wav,0,0,938,20,3,Chinese,f,1,0.1,56.31531505,1.28614089
ZH,39,0,2024-06-14T08:01:42.018Z,english_87.wav,0,0,938,20,3,Chinese,f,2,0.2,-65.55002777,1.44579989
ZH,39,0,2024-06-14T08:01:42.018Z,english_87.wav,0,0,938,20,3,Chinese,f,3,0.3,-25.15788212,0.3607766
ZH,39,0,2024-06-14T08:01:42.018Z,english_87.wav,0,0,938,20,3,Chinese,f,4,0.32341667,22.72349562,0.17745198
ZH,40,0,2024-06-14T08:01:42.018Z,english_692.wav,0,1,1135,20,3,Chinese,f,0,0,-29.13306787,0.55849531
ZH,40,0,2024-06-14T08:01:42.018Z,english_692.wav,0,1,1135,20,3,Chinese,f,1,0.1,-41.86406343,1.96517265
ZH,40,0,2024-06-14T08:01:42.018Z,english_692.wav,0,1,1135,20,3,Chinese,f,2,0.2,-94.94051661,0.19953253
ZH,40,0,2024-06-14T08:01:42.018Z,english_692.wav,0,1,1135,20,3,Chinese,f,3,0.3,78.40426091,1.89357941
ZH,40,0,2024-06-14T08:01:42.018Z,english_692.wav,0,1,1135,20,3,Chinese,f,4,0.32341667,-47.11562344,1.37874109
ZH,41,0,2024-06-14T08:01:42.018Z,english_910.wav,0,0,523,20,3,Chinese,f,0,0,-5.78748479,0.61840584
ZH,41,0,2024-06-14T08:01:42.018Z,english_910.wav,0,0,523,20,3,Chinese,f,1,0.1,25.040103,1.20431928
ZH,41,0,2024-06-14T08:01:42.018Z,english_910.wav,0,0,523,20,3,Chinese,f,2,0.2,-40.66398147,1.66594732
ZH,41,0,2024-06-14T08:01:42.018Z,english_910.wav,0,0,523,20,3,Chinese,f,3,0.3,-99.21011725,0.99007018
ZH,41,0,2024-06-14T08:01:42.018Z,english_910.wav,0,0,523,20,3,Chinese,f,4,0.32341667,30.82754841,0.23705338
ZH,42,0,2024-06-14T08:01:42.018Z,english_549.wav,0,0,888,20,3,Chinese,f,0,0,80.71270499,0.69011393
ZH,42,0,2024-06-14T08:01:42.018Z,english_549.wav,0,0,888,20,3,Chinese,f,1,0.1,-71.31396277,1.1141308
ZH,42,0,2024-06-14T08:01:42.018Z,english_549.wav,0,0,888,20,3,Chinese,f,2,0.2,48.34518996,0.72072674
ZH,42,0,2024-06-14T08:01:42.018Z,english_549.wav,0,0,888,20,3,Chinese,f,3,0.3,-66.07502609,0.60045359
ZH,42,0,2024-06-14T08:01:42.018Z,english_549.wav,0,0,888,20,3,Chinese,f,4,0.32341667,-52.28087662,0.77200176
ZH,43,0,2024-06-14T08:01:42.018Z,english_244.wav,0,1,655,20,3,Chinese,f,0,0,-70.20374383,1.65134166
ZH,43,0,2024-06-14T08:01:42.018Z,english_244.wav,0,1,655,20,3,Chinese,f,1,0.1,67.84882107,1.23738837
ZH,43,0,2024-06-14T08:01:42.018Z,english_244.wav,0,1,655,20,3,Chinese,f,2,0.2,0.61676271,0.90147553
ZH,43,0,2024-06-14T08:01:42.018Z,english_244.wav,0,1,655,20,3,Chinese,f,3,0.3,-96.58934439,1.79293216
ZH,43,0,2024-06-14T08:01:42.018Z,english_244.wav,0,1,655,20,3,Chinese,f,4,0.32341667,-77.46985837,1.15013727
ZH,44,0,2024-06-14T08:01:42.018Z,english_667.wav,0,0,555,20,3,Chinese,f,0,0,-36.96649028,1.3014101
ZH,44,0,2024-06-14T08:01:42.018Z,english_667.wav,0,0,555,20,3,Chinese,f,1,0.1,9.08709827,0.05882523
ZH,44,0,2024-06-14T08:01:42.018Z,english_667.wav,0,0,555,20,3,Chinese,f,2,0.2,85.36553945,1.428997
ZH,44,0,2024-06-14T08:01:42.018Z,english_667.wav,0,0,555,20,3,Chinese,f,3,0.3,-41.19556041,1.2429303
ZH,44,0,2024-06-14T08:01:42.018Z,english_667.wav,0,0,555,20,3,Chinese,f,4,0.32341667,-31.79783786,0.97363261
ZH,45,0,2024-06-14T08:01:42.018Z,english_329.wav,0,0,920,20,3,Chinese,f,0,0,-48.89108629,1.2424848
ZH,45,0,2024-06-14T08:01:42.018Z,english_329.wav,0,0,920,20,3,Chinese,f,1,0.1,55.67852038,1.73811564
ZH,45,0,2024-06-14T08:01:42.018Z,english_329.wav,0,0,920,20,3,Chinese,f,2,0.2,48.16827585,0.4928271
ZH,45,0,2024-06-14T08:01:42.018Z,english_329.wav,0,0,920,20,3,Chinese,f,3,0.3,73.70818564,0.68407289
ZH,45,0,2024-06-14T08:01:42.018Z,english_329.wav,0,0,920,20,3,Chinese,f,4,0.32341667,85.70797026,1.92917435
ZH,46,0,2024-06-14T08:01:42.018Z,english_821.wav,0,0,1326,20,3,Chinese,f,0,0,-4.04234253,1.62928948
ZH,46,0,2024-06-14T08:01:42.018Z,english_821.wav,0,0,1326,20,3,Chinese,f,1,0.1,50.39518932,0.78033958
ZH,46,0,2024-06-14T08:01:42.018Z,english_821.wav,0,0,1326,20,3,Chinese,f,2,0.2,58.18996785,1.56476115
ZH,46,0,2024-06-14T08:01:42.018Z,english_821.wav,0,0,1326,20,3,Chinese,f,3,0.3,-22.07293427,0.56557752
ZH,46,0,2024-06-14T08:01:42.018Z,english_821.wav,0,0,1326,20,3,Chinese,f,4,0.32341667,56.43229939,0.93389964
ZH,47,0,2024-06-14T08:01:42.018Z,english_889.wav,0,1,865,20,3,Chinese,f,0,0,-92.0683747,0.69619005
ZH,47,0,2024-06-14T08:01:42.018Z,english_889.wav,0,1,865,20,3,Chinese,f,1,0.1,92.92883541,1.46059979
ZH,47,0,2024-06-14T08:01:42.018Z,english_889.wav,0,1,865,20,3,Chinese,f,2,0.2,-38.78028918,1.13034103
ZH,47,0,2024-06-14T08:01:42.018Z,english_889.wav,0,1,865,20,3,Chinese,f,3,0.3,33.48812202,1.0639125
ZH,47,0,2024-06-14T08:01:42.018Z,english_889.wav,0,1,865,20,3,Chinese,f,4,0.32341667,68.79643169,0.42066581
ZH,48,0,2024-06-14T08:01:42.018Z,english_301.wav,0,1,887,20,3,Chinese,f,0,0,-78.18927369,1.31935747
ZH,48,0,2024-06-14T08:01:42.018Z,english_301.wav,0,1,887,20,3,Chinese,f,1,0.1,-3.52439177,1.41636911
ZH,48,0,2024-06-14T08:01:42.018Z,english_301.wav,0,1,887,20,3,Chinese,f,2,0.2,-23.22473782,1.38842862
ZH,48,0,2024-06-14T08:01:42.018Z,english_301.wav,0,1,887,20,3,Chinese,f,3,0.3,-11.7220967,1.25169603
ZH,48,0,2024-06-14T08:01:42.018Z,english_301.wav,0,1,887,20,3,Chinese,f,4,0.32341667,-5.78047748,1.38740104
ZH,49,0,2024-06-14T08:01:42.018Z,english_822.wav,0,1,2523,20,3,Chinese,f,0,0,22.19463519,1.34957498
ZH,49,0,2024-06-14T08:01:42.018Z,english_822.wav,0,1,2523,20,3,Chinese,f,1,0.1,46.02970585,1.18534363
ZH,49,0,2024-06-14T08:01:42.018Z,english_822.wav,0,1,2523,20,3,Chinese,f,2,0.2,44.31281831,0.88966115
ZH,49,0,2024-06-14T08:01:42.018Z,english_822.wav,0,1,2523,20,3,Chinese,f,3,0.3,27.24156044,1.22476657
ZH,49,0,2024-06-14T08:01:42.018Z,english_822.wav,0,1,2523,20,3,Chinese,f,4,0.32341667,41.58842879,0.51847317
ZH,50,1,2024-06-14T08:01:42.018Z,english_328.wav,0,1,1048,20,3,Chinese,f,0,0,-24.96515822,0.68772771
ZH,50,1,2024-06-14T08:01:42.018Z,english_328.wav,0,1,1048,20,3,Chinese,f,1,0.1,36.64267249,0.30369637
ZH,50,1,2024-06-14T08:01:42.018Z,english_328.wav,0,1,1048,20,3,Chinese,f,2,0.2,-93.60804347,1.16330199
ZH,50,1,2024-06-14T08:01:42.018Z,english_328.wav,0,1,1048,20,3,Chinese,f,3,0.3,9.86556644,0.69001341
ZH,50,1,2024-06-14T08:01:42.018Z,english_328.wav,0,1,1048,20,3,Chinese,f,4,0.32341667,-17.13685423,0.54642887
ZH,51,1,2024-06-14T08:01:42.018Z,english_806.wav,0,1,2536,20,3,Chinese,f,0,0,17.38837614,1.03842349
ZH,51,1,2024-06-14T08:01:42.018Z,english_806.wav,0,1,2536,20,3,Chinese,f,1,0.1,50.31160736,1.08461549
ZH,51,1,2024-06-14T08:01:42.018Z,english_806.wav,0,1,2536,20,3,Chinese,f,2,0.2,74.21499327,1.8436814
ZH,51,1,2024-06-14T08:01:42.018Z,english_806.wav,0,1,2536,20,3,Chinese,f,3,0.3,16.647622,1.85846725
ZH,51,1,2024-06-14T08:01:42.018Z,english_806.wav,0,1,2536,20,3,Chinese,f,4,0.32341667,27.12519974,1.15820289
ZH,52,1,2024-06-14T08:01:42.018Z,english_364.wav,0,1,664,20,3,Chinese,f,0,0,19.50953027,1.75500584
ZH,52,1,2024-06-14T08:01:42.018Z,english_364.wav,0,1,664,20,3,Chinese,f,1,0.1,48.44847612,1.3553812
ZH,52,1,2024-06-14T08:01:42.018Z,english_364.wav,0,1,664,20,3,Chinese,f,2,0.2,-85.20645473,0.86672295
ZH,52,1,2024-06-14T08:01:42.018Z,english_364.wav,0,1,664,20,3,Chinese,f,3,0.3,97.47454191,1.42489128
ZH,52,1,2024-06-14T08:01:42.018Z,english_364.wav,0,1,664,20,3,Chinese,f,4,0.32341667,-45.42958463,1.19673805
ZH,53,1,2024-06-14T08:01:42.018Z,english_26.wav,0,1,684,20,3,Chinese,f,0,0,54.38966875,1.86679487
ZH,53,1,2024-06-14T08:01:42.018Z,english_26.wav,0,1,684,20,3,Chinese,f,1,0.1,0.3460174,0.79762949
ZH,53,1,2024-06-14T08:01:42.018Z,english_26.wav,0,1,684,20,3,Chinese,f,2,0.2,-72.33258957,0.93682052
ZH,53,1,2024-06-14T08:01:42.018Z,english_26.wav,0,1,684,20,3,Chinese,f,3,0.3,67.09142092,1.42469209
ZH,53,1,2024-06-14T08:01:42.018Z,english_26.wav,0,1,684,20,3,Chinese,f,4,0.32341667,16.00565239,1.17807545
ZH,54,1,2024-06-14T08:01:42.018Z,english_964.wav,0,1,1602,20,3,Chinese,f,0,0,11.04708611,0.74384055
ZH,54,1,2024-06-14T08:01:42.018Z,english_964.wav,0,1,1602,20,3,Chinese,f,1,0.1,-10.67848967,0.46038505
ZH,54,1,2024-06-14T08:01:42.018Z,english_964.wav,0,1,1602,20,3,Chinese,f,2,0.2,64.95328634,0.80934661
ZH,54,1,2024-06-14T08:01:42.018Z,english_964.wav,0,1,1602,20,3,Chinese,f,3,0.3,-78.10341524,1.94282647
ZH,54,1,2024-06-14T08:01:42.018Z,english_964.wav,0,1,1602,20,3,Chinese,f,4,0.32341667,-48.61651995,1.99482071
ZH,55,1,2024-06-14T08:01:42.018Z,english_731.wav,0,0,1235,20,3,Chinese,f,0,0,91.74609406,0.2840719
ZH,55,1,2024-06-14T08:01:42.018Z,english_731.wav,0,0,1235,20,3,Chinese,f,1,0.1,96.5637085,1.75324284
ZH,55,1,2024-06-14T08:01:42.018Z,english_731.wav,0,0,1235,20,3,Chinese,f,2,0.2,-58.02596537,1.43086201
ZH,55,1,2024-06-14T08:01:42.018Z,english_731.wav,0,0,1235,20,3,Chinese,f,3,0.3,21.59328018,1.68336342
ZH,55,1,2024-06-14T08:01:42.018Z,english_731.wav,0,0,1235,20,3,Chinese,f,4,0.32341667,13.26044458,0.60031718
ZH,56,1,2024-06-14T08:01:42.018Z,english_470.wav,0,0,997,20,3,Chinese,f,0,0,-20.39789813,1.83124966
ZH,56,1,2024-06-14T08:01:42.018Z,english_470.wav,0,0,997,20,3,Chinese,f,1,0.1,20.62750989,0.41787925
ZH,56,1,2024-06-14T08:01:42.018Z,english_470.wav,0,0,997,20,3,Chinese,f,2,0.2,-59.78251605,1.85790598
ZH,56,1,2024-06-14T08:01:42.018Z,english_470.wav,0,0,997,20,3,Chinese,f,3,0.3,-88.74051682,0.99710793
ZH,56,1,2024-06-14T08:01:42.018Z,english_470.wav,0,0,997,20,3,Chinese,f,4,0.32341667,8.31634628,0.56985764
ZH,57,1,2024-06-14T08:01:42.018Z,english_448.wav,0,1,1856,20,3,Chinese,f,0,0,0.37188167,1.15390094
ZH,57,1,2024-06-14T08:01:42.018Z,english_448.wav,0,1,1856,20,3,Chinese,f,1,0.1,-67.82723624,1.58767458
ZH,57,1,2024-06-14T08:01:42.018Z,english_448.wav,0,1,1856,20,3,Chinese,f,2,0.2,65.77705469,1.13313853
ZH,57,1,2024-06-14T08:01:42.018Z,english_448.wav,0,1,1856,20,3,Chinese,f,3,0.3,83.31626383,0.27075507
ZH,57,1,2024-06-14T08:01:42.018Z,english_448.wav,0,1,1856,20,3,Chinese,f,4,0.32341667,-27.56829045,1.20964916
ZH,58,1,2024-06-14T08:01:42.018Z,english_689.wav,0,0,867,20,3,Chinese,f,0,0,42.02822248,1.89069384
ZH,58,1,2024-06-14T08:01:42.018Z,english_689.wav,0,0,867,20,3,Chinese,f,1,0.1,-61.92185233,0.33123617
ZH,58,1,2024-06-14T08:01:42.018Z,english_689.wav,0,0,867,20,3,Chinese,f,2,0.2,-8.45156809,0.5478675
ZH,58,1,2024-06-14T08:01:42.018Z,english_689.wav,0,0,867,20,3,Chinese,f,3,0.3,15.09500637,0.80334133
ZH,58,1,2024-06-14T08:01:42.018Z,english_689.wav,0,0,867,20,3,Chinese,f,4,0.32341667,8.33163023,1.42024866
ZH,59,1,2024-06-14T08:01:42.018Z,english_987.wav,0,0,1711,20,3,Chinese,f,0,0,91.33137772,1.82656395
ZH,59,1,2024-06-14T08:01:42.018Z,english_987.wav,0,0,1711,20,3,Chinese,f,1,0.1,-39.20299527,1.12122948
ZH,59,1,2024-06-14T08:01:42.018Z,english_987.wav,0,0,1711,20,3,Chinese,f,2,0.2,78.9852337,1.12025045
ZH,59,1,2024-06-14T08:01:42.018Z,english_987.wav,0,0,1711,20,3,Chinese,f,3,0.3,-94.66209845,1.02557261
ZH,59,1,2024-06-14T08:01:42.018Z,english_987.wav,0,0,1711,20,3,Chinese,f,4,0.32341667,-71.76730894,1.06580695
ZH,60,1,2024-06-14T08:01:42.018Z,english_984.wav,0,0,940,20,3,Chinese,f,0,0,-4.00148485,1.68596177
ZH,60,1,2024-06-14T08:01:42.018Z,english_984.wav,0,0,940,20,3,Chinese,f,1,0.1,26.28173365,0.06678014
ZH,60,1,2024-06-14T08:01:42.018Z,english_984.wav,0,0,940,20,3,Chinese,f,2,0.2,80.79042683,0.65490985
ZH,60,1,2024-06-14T08:01:42.018Z,english_984.wav,0,0,940,20,3,Chinese,f,3,0.3,94.69131331,0.57269921
ZH,60,1,2024-06-14T08:01:42.018Z,english_984.wav,0,0,940,20,3,Chinese,f,4,0.32341667,75.17511154,0.71264295
ZH,61,1,2024-06-14T08:01:42.018Z,english_547.wav,0,0,627,20,3,Chinese,f,0,0,30.48969685,1.04682874
ZH,61,1,2024-06-14T08:01:42.018Z,english_547.wav,0,0,627,20,3,Chinese,f,1,0.1,-38.27442703,0.75017858
ZH,61,1,2024-06-14T08:01:42.018Z,english_547.wav,0,0,627,20,3,Chinese,f,2,0.2,29.58442849,0.7996645
ZH,61,1,2024-06-14T08:01:42.018Z,english_547.wav,0,0,627,20,3,Chinese,f,3,0.3,-4.27268154,1.92102789
ZH,61,1,2024-06-14T08:01:42.018Z,english_547.wav,0,0,627,20,3,Chinese,f,4,0.32341667,58.02076364,1.77056707
ZH,62,1,2024-06-14T08:01:42.018Z,english_705.wav,0,1,743,20,3,Chinese,f,0,0,3.76426423,0.9500377
ZH,62,1,2024-06-14T08:01:42.018Z,english_705.wav,0,1,743,20,3,Chinese,f,1,0.1,90.96696755,0.74173997
ZH,62,1,2024-06-14T08:01:42.018Z,english_705.wav,0,1,743,20,3,Chinese,f,2,0.2,-32.86898574,1.78776637
ZH,62,1,2024-06-14T08:01:42.018Z,english_705.wav,0,1,743,20,3,Chinese,f,3,0.3,-21.12550784,0.8178788
ZH,62,1,2024-06-14T08:01:42.018Z,english_705.wav,0,1,743,20,3,Chinese,f,4,0.32341667,39.74077299,1.54913024
ZH,63,1,2024-06-14T08:01:42.018Z,english_790.wav,0,1,1074,20,3,Chinese,f,0,0,51.18493756,0.66657869
ZH,63,1,2024-06-14T08:01:42.018Z,english_790.wav,0,1,1074,20,3,Chinese,f,1,0.1,-64.70105349,0.91857876
ZH,63,1,2024-06-14T08:01:42.018Z,english_790.wav,0,1,1074,20,3,Chinese,f,2,0.2,-90.57968214,1.26779222
ZH,63,1,2024-06-14T08:01:42.018Z,english_790.wav,0,1,1074,20,3,Chinese,f,3,0.3,-94.64625917,1.54144859
ZH,63,1,2024-06-14T08:01:42.018Z,english_790.wav,0,1,1074,20,3,Chinese,f,4,0.32341667,-38.85953331,1.32367104
ZH,64,1,2024-06-14T08:01:42.018Z,english_359.wav,0,1,1318,20,3,Chinese,f,0,0,95.13315851,1.5844105
ZH,64,1,2024-06-14T08:01:42.018Z,english_359.wav,0,1,1318,20,3,Chinese,f,1,0.1,95.71495863,0.46491803
ZH,64,1,2024-06-14T08:01:42.018Z,english_359.wav,0,1,1318,20,3,Chinese,f,2,0.2,4.56295435,1.17107987
ZH,64,1,2024-06-14T08:01:42.018Z,english_359.wav,0,1,1318,20,3,Chinese,f,3,0.3,-11.93773809,0.63485582
ZH,64,1,2024-06-14T08:01:42.018Z,english_359.wav,0,1,1318,20,3,Chinese,f,4,0.32341667,-75.72789111,0.10666132
ZH,65,1,2024-06-14T08:01:42.018Z,english_670.wav,0,0,1464,20,3,Chinese,f,0,0,64.75672565,1.5535903
ZH,65,1,2024-06-14T08:01:42.018Z,english_670.wav,0,0,1464,20,3,Chinese,f,1,0.1,85.95156369,0.12522594
ZH,65,1,2024-06-14T08:01:42.018Z,english_670.wav,0,0,1464,20,3,Chinese,f,2,0.2,-44.32949438,0.22842632
ZH,65,1,2024-06-14T08:01:42.018Z,english_670.wav,0,0,1464,20,3,Chinese,f,3,0.3,22.57192219,0.17636502
ZH,65,1,2024-06-14T08:01:42.018Z,english_670.wav,0,0,1464,20,3,Chinese,f,4,0.32341667,34.74005277,0.16208776
ZH,66,1,2024-06-14T08:01:42.018Z,english_106.wav,0,1,2346,20,3,Chinese,f,0,0,-46.25200282,0.21046793
ZH,66,1,2024-06-14T08:01:42.018Z,english_106.wav,0,1,2346,20,3,Chinese,f,1,0.1,-83.38564728,1.42142181
ZH,66,1,2024-06-14T08:01:42.018Z,english_106.wav,0,1,2346,20,3,Chinese,f,2,0.2,68.00501759,0.86156936
ZH,66,1,2024-06-14T08:01:42.018Z,english_106.wav,0,1,2346,20,3,Chinese,f,3,0.3,49.15199267,0.65348811
ZH,66,1,2024-06-14T08:01:42.018Z,english_106.wav,0,1,2346,20,3,Chinese,f,4,0.32341667,-5.93966373,0.76273979
ZH,67,1,2024-06-14T08:01:42.018Z,english_89.wav,0,0,662,20,3,Chinese,f,0,0,-42.28936571,1.68633095
ZH,67,1,2024-06-14T08:01:42.018Z,english_89.wav,0,0,662,20,3,Chinese,f,1,0.1,12.96738115,0.49078122
ZH,67,1,2024-06-14T08:01:42.018Z,english_89.wav,0,0,662,20,3,Chinese,f,2,0.2,-0.92476461,0.75584791
ZH,67,1,2024-06-14T08:01:42.018Z,english_89.wav,0,0,662,20,3,Chinese,f,3,0.3,54.46155283,1.37155139
ZH,67,1,2024-06-14T08:01:42.018Z,english_89.wav,0,0,662,20,3,Chinese,f,4,0.32341667,-5.27724964,0.6613642
ZH,68,1,2024-06-14T08:01:42.018Z,english_580.wav,0,0,1764,20,3,Chinese,f,0,0,92.13406767,1.93694744
ZH,68,1,2024-06-14T08:01:42.018Z,english_580.wav,0,0,1764,20,3,Chinese,f,1,0.1,-85.58685866,0.28773753
ZH,68,1,2024-06-14T08:01:42.018Z,english_580.wav,0,0,1764,20,3,Chinese,f,2,0.2,57.10945482,0.86433335
ZH,68,1,2024-06-14T08:01:42.018Z,english_580.wav,0,0,1764,20,3,Chinese,f,3,0.3,32.92004132,0.96651265
ZH,68,1,2024-06-14T08:01:42.018Z,english_580.wav,0,0,1764,20,3,Chinese,f,4,0.32341667,52.08708517,1.25003658
ZH,69,1,2024-06-14T08:01:42.018Z,english_659.wav,0,1,971,20,3,Chinese,f,0,0,-86.13080632,0.77157019
ZH,69,1,2024-06-14T08:01:42.018Z,english_659.wav,0,1,971,20,3,Chinese,f,1,0.1,39.51927718,1.34569204
ZH,69,1,2024-06-14T08:01:42.018Z,english_659.wav,0,1,971,20,3,Chinese,f,2,0.2,-6.22185106,0.71695874
ZH,69,1,2024-06-14T08:01:42.018Z,english_659.wav,0,1,971,20,3,Chinese,f,3,0.3,5.64287294,1.04110125
ZH,69,1,2024-06-14T08:01:42.018Z,english_659.wav,0,1,971,20,3,Chinese,f,4,0.32341667,47.08694279,1.84115141
ZH,70,1,2024-06-14T08:01:42.018Z,english_206.wav,0,0,1380,20,3,Chinese,f,0,0,29.86029141,0.9413203
ZH,70,1,2024-06-14T08:01:42.018Z,english_206.wav,0,0,1380,20,3,Chinese,f,1,0.1,-65.49550847,1.58501733
ZH,70,1,2024-06-14T08:01:42.018Z,english_206.wav,0,0,1380,20,3,Chinese,f,2,0.2,-8.37849199,1.84833856
ZH,70,1,2024-06-14T08:01:42.018Z,english_206.wav,0,0,1380,20,3,Chinese,f,3,0.3,16.32170521,1.12864021
ZH,70,1,2024-06-14T08:01:42.018Z,english_206.wav,0,0,1380,20,3,Chinese,f,4,0.32341667,-96.55544023,0.85017735
ZH,71,1,2024-06-14T08:01:42.018Z,english_181.wav,0,0,1102,20,3,Chinese,f,0,0,-20.89133039,0.39550568
ZH,71,1,2024-06-14T08:01:42.018Z,english_181.wav,0,0,1102,20,3,Chinese,f,1,0.1,-68.36112581,0.87114476
ZH,71,1,2024-06-14T08:01:42.018Z,english_181.wav,0,0,1102,20,3,Chinese,f,2,0.2,-21.7912093,0.0214418
ZH,71,1,2024-06-14T08:01:42.018Z,english_181.wav,0,0,1102,20,3,Chinese,f,3,0.3,7.62752627,1.98777716
ZH,71,1,2024-06-14T08:01:42.018Z,english_181.wav,0,0,1102,20,3,Chinese,f,4,0.32341667,53.94324841,0.40706026
ZH,72,1,2024-06-14T08:01:42.018Z,english_184.wav,0,1,517,20,3,Chinese,f,0,0,29.65201825,1.69567788
ZH,72,1,2024-06-14T08:01:42.018Z,english_184.wav,0,1,517,20,3,Chinese,f,1,0.1,16.48348791,1.26735627
ZH,72,1,2024-06-14T08:01:42.018Z,english_184.wav,0,1,517,20,3,Chinese,f,2,0.2,3.77448983,0.95352895
ZH,72,1,2024-06-14T08:01:42.018Z,english_184.wav,0,1,517,20,3,Chinese,f,3,0.3,62.87502431,1.7991474
ZH,72,1,2024-06-14T08:01:42.018Z,english_184.wav,0,1,517,20,3,Chinese,f,4,0.32341667,-8.82418577,0.98992659
ZH,73,1,2024-06-14T08:01:42.018Z,english_231.wav,0,1,930,20,3,Chinese,f,0,0,-57.04299033,1.30850831
ZH,73,1,2024-06-14T08:01:42.018Z,english_231.wav,0,1,930,20,3,Chinese,f,1,0.1,-61.30294243,1.06317761
ZH,73,1,2024-06-14T08:01:42.018Z,english_231.wav,0,1,930,20,3,Chinese,f,2,0.2,11.10207427,1.86768436
ZH,73,1,2024-06-14T08:01:42.018Z,english_231.wav,0,1,930,20,3,Chinese,f,3,0.3,-1.38864911,1.42169342
ZH,73,1,2024-06-14T08:01:42.018Z,english_231.wav,0,1,930,20,3,Chinese,f,4,0.32341667,-40.37897369,0.58634772
ZH,74,1,2024-06-14T08:01:42.018Z,english_967.wav,0,0,1072,20,3,Chinese,f,0,0,-33.19777689,0.76720641
ZH,74,1,2024-06-14T08:01:42.018Z,english_967.wav,0,0,1072,20,3,Chinese,f,1,0.1,83.84847924,1.4094361
ZH,74,1,2024-06-14T08:01:42.018Z,english_967.wav,0,0,1072,20,3,Chinese,f,2,0.2,81.27362124,0.74435637
ZH,74,1,2024-06-14T08:01:42.018Z,english_967.wav,0,0,1072,20,3,Chinese,f,3,0.3,22.78466805,0.29904584
ZH,74,1,2024-06-14T08:01:42.018Z,english_967.wav,0,0,1072,20,3,Chinese,f,4,0.32341667,16.56894366,0.47687807
ZH,75,1,2024-06-14T08:01:42.018Z,english_958.wav,0,0,1144,20,3,Chinese,f,0,0,17.32592779,0.33109802
ZH,75,1,2024-06-14T08:01:42.018Z,english_958.wav,0,0,1144,20,3,Chinese,f,1,0.1,89.03376041,1.83345348
ZH,75,1,2024-06-14T08:01:42.018Z,english_958.wav,0,0,1144,20,3,Chinese,f,2,0.2,-24.89219777,1.95859429
ZH,75,1,2024-06-14T08:01:42.018Z,english_958.wav,0,0,1144,20,3,Chinese,f,3,0.3,-92.10798137,1.50296341
ZH,75,1,2024-06-14T08:01:42.018Z,english_958.wav,0,0,1144,20,3,Chinese,f,4,0.32341667,3.27828718,0.1474067
ZH,76,1,2024-06-14T08:01:42.018Z,english_936.wav,0,0,1761,20,3,Chinese,f,0,0,48.39129511,0.54114143
ZH,76,1,2024-06-14T08:01:42.018Z,english_936.wav,0,0,1761,20,3,Chinese,f,1,0.1,-60.21618585,1.68728974
ZH,76,1,2024-06-14T08:01:42.018Z,english_936.wav,0,0,1761,20,3,Chinese,f,2,0.2,21.92845445,1.39155326
ZH,76,1,2024-06-14T08:01:42.018Z,english_936.wav,0,0,1761,20,3,Chinese,f,3,0.3,72.85258749,0.90488419
ZH,76,1,2024-06-14T08:01:42.018Z,english_936.wav,0,0,1761,20,3,Chinese,f,4,0.32341667,60.11152814,1.20326098
ZH,77,1,2024-06-14T08:01:42.018Z,english_803.wav,0,1,1386,20,3,Chinese,f,0,0,8.73756077,1.22190991
ZH,77,1,2024-06-14T08:01:42.018Z,english_803.wav,0,1,1386,20,3,Chinese,f,1,0.1,-41.53503623,1.08276728
ZH,77,1,2024-06-14T08:01:42.018Z,english_803.wav,0,1,1386,20,3,Chinese,f,2,0.2,-84.76471985,1.59545905
ZH,77,1,2024-06-14T08:01:42.018Z,english_803.wav,0,1,1386,20,3,Chinese,f,3,0.3,-27.96408635,1.3875394
ZH,77,1,2024-06-14T08:01:42.018Z,english_803.wav,0,1,1386,20,3,Chinese,f,4,0.32341667,72.02290108,0.92287786
ZH,78,1,2024-06-14T08:01:42.018Z,english_85.wav,0,0,1975,20,3,Chinese,f,0,0,69.91092253,1.07696769
ZH,78,1,2024-06-14T08:01:42.018Z,english_85.wav,0,0,1975,20,3,Chinese,f,1,0.1,90.04885235,1.65675227
ZH,78,1,2024-06-14T08:01:42.018Z,english_85.wav,0,0,1975,20,3,Chinese,f,2,0.2,-54.471964,1.18566865
ZH,78,1,2024-06-14T08:01:42.018Z,english_85.wav,0,0,1975,20,3,Chinese,f,3,0.3,-32.42862041,0.43131811
ZH,78,1,2024-06-14T08:01:42.018Z,english_85.wav,0,0,1975,20,3,Chinese,f,4,0.32341667,-26.25094384,1.88641509
ZH,79,1,2024-06-14T08:01:42.018Z,english_221.wav,0,0,1631,20,3,Chinese,f,0,0,85.84184869,1.38100565
ZH,79,1,2024-06-14T08:01:42.018Z,english_221.wav,0,0,1631,20,3,Chinese,f,1,0.1,-20.37513589,0.79531516
ZH,79,1,2024-06-14T08:01:42.018Z,english_221.wav,0,0,1631,20,3,Chinese,f,2,0.2,-89.75984637,0.9538446
ZH,79,1,2024-06-14T08:01:42.018Z,english_221.wav,0,0,1631,20,3,Chinese,f,3,0.3,50.66879934,1.56492426
ZH,79,1,2024-06-14T08:01:42.018Z,english_221.wav,0,0,1631,20,3,Chinese,f,4,0.32341667,20.92538743,1.60855456
ZH,80,1,2024-06-14T08:01:42.018Z,english_570.wav,0,1,687,20,3,Chinese,f,0,0,79.72420881,1.67561776
ZH,80,1,2024-06-14T08:01:42.018Z,english_570.wav,0,1,687,20,3,Chinese,f,1,0.1,-10.34227762,1.50139893
ZH,80,1,2024-06-14T08:01:42.018Z,english_570.wav,0,1,687,20,3,Chinese,f,2,0.2,18.32754659,1.41834695
ZH,80,1,2024-06-14T08:01:42.018Z,english_570.wav,0,1,687,20,3,Chinese,f,3,0.3,15.23919529,1.12876239
ZH,80,1,2024-06-14T08:01:42.018Z,english_570.wav,0,1,687,20,3,Chinese,f,4,0.32341667,-28.05357781,0.72546523
ZH,81,1,2024-06-14T08:01:42.018Z,english_464.wav,0,0,600,20,3,Chinese,f,0,0,53.08614354,0.76512863
ZH,81,1,2024-06-14T08:01:42.018Z,english_464.wav,0,0,600,20,3,Chinese,f,1,0.1,30.21863436,1.75958979
ZH,81,1,2024-06-14T08:01:42.018Z,english_464.wav,0,0,600,20,3,Chinese,f,2,0.2,-72.79337117,0.91412587
ZH,81,1,2024-06-14T08:01:42.018Z,english_464.wav,0,0,600,20,3,Chinese,f,3,0.3,91.0452741,1.02089091
ZH,81,1,2024-06-14T08:01:42.018Z,english_464.wav,0,0,600,20,3,Chinese,f,4,0.32341667,-31.40181873,1.37846458
ZH,82,1,2024-06-14T08:01:42.018Z,english_629.wav,0,0,985,20,3,Chinese,f,0,0,76.68747977,0.56482572
ZH,82,1,2024-06-14T08:01:42.018Z,english_629.wav,0,0,985,20,3,Chinese,f,1,0.1,72.0676039,0.14075004
ZH,82,1,2024-06-14T08:01:42.018Z,english_629.wav,0,0,985,20,3,Chinese,f,2,0.2,-3.42071834,0.80885654
ZH,82,1,2024-06-14T08:01:42.018Z,english_629.wav,0,0,985,20,3,Chinese,f,3,0.3,-75.36993348,1.43133267
ZH,82,1,2024-06-14T08:01:42.018Z,english_629.wav,0,0,985,20,3,Chinese,f,4,0.32341667,-15.4233884,0.14234351
ZH,83,1,2024-06-14T08:01:42.018Z,english_159.wav,0,0,757,20,3,Chinese,f,0,0,-83.7072706,0.09138871
ZH,83,1,2024-06-14T08:01:42.018Z,english_159.wav,0,0,757,20,3,Chinese,f,1,0.1,-62.69238784,0.63335487
ZH,83,1,2024-06-14T08:01:42.018Z,english_159.wav,0,0,757,20,3,Chinese,f,2,0.2,22.09248507,1.23550763
ZH,83,1,2024-06-14T08:01:42.018Z,english_159.wav,0,0,757,20,3,Chinese,f,3,0.3,-80.94681782,1.83356136
ZH,83,1,2024-06-14T08:01:42.018Z,english_159.wav,0,0,757,20,3,Chinese,f,4,0.32341667,-55.76861956,0.76796393
ZH,84,1,2024-06-14T08:01:42.018Z,english_174.wav,0,0,873,20,3,Chinese,f,0,0,-14.93169449,0.27768215
ZH,84,1,2024-06-14T08:01:42.018Z,english_174.wav,0,0,873,20,3,Chinese,f,1,0.1,-60.50222611,0.13809097
ZH,84,1,2024-06-14T08:01:42.018Z,english_174.wav,0,0,873,20,3,Chinese,f,2,0.2,-88.67347191,0.18584848
ZH,84,1,2024-06-14T08:01:42.018Z,english_174.wav,0,0,873,20,3,Chinese,f,3,0.3,-20.58504224,1.46718454
ZH,84,1,2024-06-14T08:01:42.018Z,english_174.wav,0,0,873,20,3,Chinese,f,4,0.32341667,-52.28073567,0.17567705
ZH,85,1,2024-06-14T08:01:42.018Z,english_887.wav,0,1,721,20,3,Chinese,f,0,0,21.36154006,0.58574694
ZH,85,1,2024-06-14T08:01:42.018Z,english_887.wav,0,1,721,20,3,Chinese,f,1,0.1,-21.46213737,0.48413962
ZH,85,1,2024-06-14T08:01:42.018Z,english_887.wav,0,1,721,20,3,Chinese,f,2,0.2,-45.53850124,1.16923549
ZH,85,1,2024-06-14T08:01:42.018Z,english_887.wav,0,1,721,20,3,Chinese,f,3,0.3,-75.36110743,1.46190157
ZH,85,1,2024-06-14T08:01:42.018Z,english_887.wav,0,1,721,20,3,Chinese,f,4,0.32341667,-96.67184991,0.00789239
ZH,86,1,2024-06-14T08:01:42.018Z,english_273.wav,0,1,542,20,3,Chinese,f,0,0,-44.98289573,1.94838534
ZH,86,1,2024-06-14T08:01:42.018Z,english_273.wav,0,1,542,20,3,Chinese,f,1,0.1,24.32546199,0.68888608
ZH,86,1,2024-06-14T08:01:42.018Z,english_273.wav,0,1,542,20,3,Chinese,f,2,0.2,61.84573583,1.95265796
ZH,86,1,2024-06-14T08:01:42.018Z,english_273.wav,0,1,542,20,3,Chinese,f,3,0.3,-1.88803465,1.62060328
ZH,86,1,2024-06-14T08:01:42.018Z,english_273.wav,0,1,542,20,3,Chinese,f,4,0.32341667,57.02125087,0.94638053
ZH,87,1,2024-06-14T08:01:42.018Z,english_600.wav,0,0,936,20,3,Chinese,f,0,0,37.30285492,1.23507691
ZH,87,1,2024-06-14T08:01:42.018Z,english_600.wav,0,0,936,20,3,Chinese,f,1,0.1,57.58729363,0.65453179
ZH,87,1,2024-06-14T08:01:42.018Z,english_600.wav,0,0,936,20,3,Chinese,f,2,0.2,-74.33256695,1.70226061
ZH,87,1,2024-06-14T08:01:42.018Z,english_600.wav,0,0,936,20,3,Chinese,f,3,0.3,-35.711252,0.4723836
ZH,87,1,2024-06-14T08:01:42.018Z,english_600.wav,0,0,936,20,3,Chinese,f,4,0.32341667,3.54782198,0.49080622
ZH,88,1,2024-06-14T08:01:42.018Z,english_131.wav,0,1,713,20,3,Chinese,f,0,0,-90.65248477,1.67513221
ZH,88,1,2024-06-14T08:01:42.018Z,english_131.wav,0,1,713,20,3,Chinese,f,1,0.1,7.0988446,1.62916956
ZH,88,1,2024-06-14T08:01:42.018Z,english_131.wav,0,1,713,20,3,Chinese,f,2,0.2,-30.94637352,1.4017665
ZH,88,1,2024-06-14T08:01:42.018Z,english_131.wav,0,1,713,20,3,Chinese,f,3,0.3,-31.86179524,1.07276153
ZH,88,1,2024-06-14T08:01:42.018Z,english_131.wav,0,1,713,20,3,Chinese,f,4,0.32341667,1.85809033,1.80109071
ZH,89,1,2024-06-14T08:01:42.018Z,english_795.wav,0,0,743,20,3,Chinese,f,0,0,39.36518311,1.47453336
ZH,89,1,2024-06-14T08:01:42.018Z,english_795.wav,0,0,743,20,3,Chinese,f,1,0.1,16.50141431,0.29075574
ZH,89,1,2024-06-14T08:01:42.018Z,english_795.wav,0,0,743,20,3,Chinese,f,2,0.2,54.87860026,1.88174141
ZH,89,1,2024-06-14T08:01:42.018Z,english_795.wav,0,0,743,20,3,Chinese,f,3,0.3,61.09971909,0.27471403
ZH,89,1,2024-06-14T08:01:42.018Z,english_795.wav,0,0,743,20,3,Chinese,f,4,0.32341667,4.28490532,0.11399574
ZH,90,1,2024-06-14T08:01:42.018Z,english_439.wav,0,0,1211,20,3,Chinese,f,0,0,-34.98153375,0.51703437
ZH,90,1,2024-06-14T08:01:42.018Z,english_439.wav,0,0,1211,20,3,Chinese,f,1,0.1,58.81829455,0.92552513
ZH,90,1,2024-06-14T08:01:42.018Z,english_439.wav,0,0,1211,20,3,Chinese,f,2,0.2,-39.64168408,1.94754337
ZH,90,1,2024-06-14T08:01:42.018Z,english_439.wav,0,0,1211,20,3,Chinese,f,3,0.3,-65.89684329,0.19153473
ZH,90,1,2024-06-14T08:01:42.018Z,english_439.wav,0,0,1211,20,3,Chinese,f,4,0.32341667,-18.09409032,1.29438445
ZH,91,1,2024-06-14T08:01:42.018Z,english_703.wav,0,1,647,20,3,Chinese,f,0,0,21.25560127,1.22587136
ZH,91,1,2024-06-14T08:01:42.018Z,english_703.wav,0,1,647,20,3,Chinese,f,1,0.1,-5.61566417,1.28752652
ZH,91,1,2024-06-14T08:01:42.018Z,english_703.wav,0,1,647,20,3,Chinese,f,2,0.2,-88.15973778,1.61643937
ZH,91,1,2024-06-14T08:01:42.018Z,english_703.wav,0,1,647,20,3,Chinese,f,3,0.3,39.86499493,1.32560109
ZH,91,1,2024-06-14T08:01:42.018Z,english_703.wav,0,1,647,20,3,Chinese,f,4,0.32341667,64.67338156,0.74206522
ZH,92,1,2024-06-14T08:01:42.018Z,english_871.wav,0,0,706,20,3,Chinese,f,0,0,84.63625516,0.21643415
ZH,92,1,2024-06-14T08:01:42.018Z,english_871.wav,0,0,706,20,3,Chinese,f,1,0.1,-19.11058767,1.23538017
ZH,92,1,2024-06-14T08:01:42.018Z,english_871.wav,0,0,706,20,3,Chinese,f,2,0.2,49.1497137,1.26375285
ZH,92,1,2024-06-14T08:01:42.018Z,english_871.wav,0,0,706,20,3,Chinese,f,3,0.3,-83.07816512,0.03257235
ZH,92,1,2024-06-14T08:01:42.018Z,english_871.wav,0,0,706,20,3,Chinese,f,4,0.32341667,11.22002909,1.90703832
ZH,93,1,2024-06-14T08:01:42.018Z,english_462.wav,0,1,586,20,3,Chinese,f,0,0,-35.73318704,1.53267708
ZH,93,1,2024-06-14T08:01:42.018Z,english_462.wav,0,1,586,20,3,Chinese,f,1,0.1,-5.65949109,1.98369384
ZH,93,1,2024-06-14T08:01:42.018Z,english_462.wav,0,1,586,20,3,Chinese,f,2,0.2,-49.47542688,1.31270994
ZH,93,1,2024-06-14T08:01:42.018Z,english_462.wav,0,1,586,20,3,Chinese,f,3,0.3,-98.18570674,1.26289606
ZH,93,1,2024-06-14T08:01:42.018Z,english_462.wav,0,1,586,20,3,Chinese,f,4,0.32341667,-16.34927785,1.36496903
ZH,94,1,2024-06-14T08:01:42.018Z,english_521.wav,0,0,857,20,3,Chinese,f,0,0,-39.78859965,1.84590666
ZH,94,1,2024-06-14T08:01:42.018Z,english_521.wav,0,0,857,20,3,Chinese,f,1,0.1,94.65680132,0.33665341
ZH,94,1,2024-06-14T08:01:42.018Z,english_521.wav,0,0,857,20,3,Chinese,f,2,0.2,-68.68225016,1.01474729
ZH,94,1,2024-06-14T08:01:42.018Z,english_521.wav,0,0,857,20,3,Chinese,f,3,0.3,19.56493677,0.73624599
ZH,94,1,2024-06-14T08:01:42.018Z,english_521.wav,0,0,857,20,3,Chinese,f,4,0.32341667,69.42990376,1.4391639
ZH,95,1,2024-06-14T08:01:42.018Z,english_404.wav,0,1,1211,20,3,Chinese,f,0,0,32.93077195,0.80618862
ZH,95,1,2024-06-14T08:01:42.018Z,english_404.wav,0,1,1211,20,3,Chinese,f,1,0.1,51.79107477,1.03327995
ZH,95,1,2024-06-14T08:01:42.018Z,english_404.wav,0,1,1211,20,3,Chinese,f,2,0.2,-61.91466198,1.39590152
ZH,95,1,2024-06-14T08:01:42.018Z,english_404.wav,0,1,1211,20,3,Chinese,f,3,0.3,33.45957754,1.8615638
ZH,95,1,2024-06-14T08:01:42.018Z,english_404.wav,0,1,1211,20,3,Chinese,f,4,0.32341667,-82.23793256,0.80137687
ZH,96,1,2024-06-14T08:01:42.018Z,english_976.wav,0,0,1193,20,3,Chinese,f,0,0,-92.49082032,0.30893725
ZH,96,1,2024-06-14T08:01:42.018Z,english_976.wav,0,0,1193,20,3,Chinese,f,1,0.1,92.01562452,1.54393752
ZH,96,1,2024-06-14T08:01:42.018Z,english_976.wav,0,0,1193,20,3,Chinese,f,2,0.2,-80.55764576,1.31466429
ZH,96,1,2024-06-14T08:01:42.018Z,english_976.wav,0,0,1193,20,3,Chinese,f,3,0.3,-70.09009567,1.88171095
ZH,96,1,2024-06-14T08:01:42.018Z,english_976.wav,0,0,1193,20,3,Chinese,f,4,0.32341667,-7.5394989,1.71314556
ZH,97,1,2024-06-14T08:01:42.018Z,english_289.wav,0,1,1712,20,3,Chinese,f,0,0,-55.97739865,0.95213243
ZH,97,1,2024-06-14T08:01:42.018Z,english_289.wav,0,1,1712,20,3,Chinese,f,1,0.1,-97.9801122,0.81858491
ZH,97,1,2024-06-14T08:01:42.018Z,english_289.wav,0,1,1712,20,3,Chinese,f,2,0.2,44.28679287,1.16094748
ZH,97,1,2024-06-14T08:01:42.018Z,english_289.wav,0,1,1712,20,3,Chinese,f,3,0.3,-74.0895039,0.92969459
ZH,97,1,2024-06-14T08:01:42.018Z,english_289.wav,0,1,1712,20,3,Chinese,f,4,0.32341667,-44.25845537,0.41504245
ZH,98,1,2024-06-14T08:01:42.018Z,english_965.wav,0,1,1048,20,3,Chinese,f,0,0,-19.49526798,1.71910172
ZH,98,1,2024-06-14T08:01:42.018Z,english_965.wav,0,1,1048,20,3,Chinese,f,1,0.1,-33.46093545,1.16323176
ZH,98,1,2024-06-14T08:01:42.018Z,english_965.wav,0,1,1048,20,3,Chinese,f,2,0.2,95.24809114,0.56514201
ZH,98,1,2024-06-14T08:01:42.018Z,english_965.wav,0,1,1048,20,3,Chinese,f,3,0.3,26.23968625,1.82539978
ZH,98,1,2024-06-14T08:01:42.018Z,english_965.wav,0,1,1048,20,3,Chinese,f,4,0.32341667,15.70217089,1.7659451
ZH,99,1,2024-06-14T08:01:42.018Z,english_510.wav,0,0,849,20,3,Chinese,f,0,0,-39.77235695,0.97080384
ZH,99,1,2024-06-14T08:01:42.018Z,english_510.wav,0,0,849,20,3,Chinese,f,1,0.1,-55.9025784,0.1022914
ZH,99,1,2024-06-14T08:01:42.018Z,english_510.wav,0,0,849,20,3,Chinese,f,2,0.2,42.12378864,1.56878682
ZH,99,1,2024-06-14T08:01:42.018Z,english_510.wav,0,0,849,20,3,Chinese,f,3,0.3,-5.9333084,1.19302163
ZH,99,1,2024-06-14T08:01:42.018Z,english_510.wav,0,0,849,20,3,Chinese,f,4,0.32341667,84.8199861,1.45606517
ZH,100,2,2024-06-14T08:01:42.018Z,english_894.wav,0,0,677,20,3,Chinese,f,0,0,55.36181915,0.37154348
ZH,100,2,2024-06-14T08:01:42.018Z,english_894.wav,0,0,677,20,3,Chinese,f,1,0.1,1.74798824,0.78809476
ZH,100,2,2024-06-14T08:01:42.018Z,english_894.wav,0,0,677,20,3,Chinese,f,2,0.2,53.5320483,0.08099688
ZH,100,2,2024-06-14T08:01:42.018Z,english_894.wav,0,0,677,20,3,Chinese,f,3,0.3,-10.60196251,1.90254096
ZH,100,2,2024-06-14T08:01:42.018Z,english_894.wav,0,0,677,20,3,Chinese,f,4,0.32341667,46.95013059,0.68783971
ZH,101,2,2024-06-14T08:01:42.018Z,english_253.wav,0,1,732,20,3,Chinese,f,0,0,12.9108365,0.20464585
ZH,101,2,2024-06-14T08:01:42.018Z,english_253.wav,0,1,732,20,3,Chinese,f,1,0.1,-70.83420593,1.97412558
ZH,101,2,2024-06-14T08:01:42.018Z,english_253.wav,0,1,732,20,3,Chinese,f,2,0.2,-6.13796162,1.12401504
ZH,101,2,2024-06-14T08:01:42.018Z,english_253.wav,0,1,732,20,3,Chinese,f,3,0.3,38.03543053,1.75851492
ZH,101,2,2024-06-14T08:01:42.018Z,english_253.wav,0,1,732,20,3,Chinese,f,4,0.32341667,-61.21147917,0.77953826
ZH,102,2,2024-06-14T08:01:42.018Z,english_43.wav,0,0,616,20,3,Chinese,f,0,0,22.40064366,1.74132857
ZH,102,2,2024-06-14T08:01:42.018Z,english_43.wav,0,0,616,20,3,Chinese,f,1,0.1,-68.20152198,0.12763156
ZH,102,2,2024-06-14T08:01:42.018Z,english_43.wav,0,0,616,20,3,Chinese,f,2,0.2,62.56231291,0.31420738
ZH,102,2,2024-06-14T08:01:42.018Z,english_43.wav,0,0,616,20,3,Chinese,f,3,0.3,45.0736378,0.98572154
ZH,102,2,2024-06-14T08:01:42.018Z,english_43.wav,0,0,616,20,3,Chinese,f,4,0.32341667,-36.46791656,0.91325677
ZH,103,2,2024-06-14T08:01:42.018Z,english_217.wav,0,0,604,20,3,Chinese,f,0,0,-87.44045162,1.20965721
ZH,103,2,2024-06-14T08:01:42.018Z,english_217.wav,0,0,604,20,3,Chinese,f,1,0.1,26.67222095,0.05295089
ZH,103,2,2024-06-14T08:01:42.018Z,english_217.wav,0,0,604,20,3,Chinese,f,2,0.2,97.90977363,1.23557872
ZH,103,2,2024-06-14T08:01:42.018Z,english_217.wav,0,0,604,20,3,Chinese,f,3,0.3,4.49718441,1.80752812
ZH,103,2,2024-06-14T08:01:42.018Z,english_217.wav,0,0,604,20,3,Chinese,f,4,0.32341667,13.31384309,1.57586313
ZH,104,2,2024-06-14T08:01:42.018Z,english_610.wav,0,0,768,20,3,Chinese,f,0,0,-14.96432812,0.5672697
ZH,104,2,2024-06-14T08:01:42.018Z,english_610.wav,0,0,768,20,3,Chinese,f,1,0.1,48.51886955,0.75156182
ZH,104,2,2024-06-14T08:01:42.018Z,english_610.wav,0,0,768,20,3,Chinese,f,2,0.2,47.07358548,0.38846335
ZH,104,2,2024-06-14T08:01:42.018Z,english_610.wav,0,0,768,20,3,Chinese,f,3,0.3,17.30383174,1.52072292
ZH,104,2,2024-06-14T08:01:42.018Z,english_610.wav,0,0,768,20,3,Chinese,f,4,0.32341667,1.51764356,1.56024836
ZH,105,2,2024-06-14T08:01:42.018Z,english_141.wav,0,0,1703,20,3,Chinese,f,0,0,-85.83390244,1.36546316
ZH,105,2,2024-06-14T08:01:42.018Z,english_141.wav,0,0,1703,20,3,Chinese,f,1,0.1,-83.68236309,0.39424104
ZH,105,2,2024-06-14T08:01:42.018Z,english_141.wav,0,0,1703,20,3,Chinese,f,2,0.2,-69.95552588,1.31629396
ZH,105,2,2024-06-14T08:01:42.018Z,english_141.wav,0,0,1703,20,3,Chinese,f,3,0.3,-14.67715053,0.23786768
ZH,105,2,2024-06-14T08:01:42.018Z,english_141.wav,0,0,1703,20,3,Chinese,f,4,0.32341667,73.76142723,0.2069198
ZH,106,2,2024-06-14T08:01:42.018Z,english_577.wav,0,0,1312,20,3,Chinese,f,0,0,0.60742169,1.18439754
ZH,106,2,2024-06-14T08:01:42.018Z,english_577.wav,0,0,1312,20,3,Chinese,f,1,0.1,-16.75441018,1.17258894
ZH,106,2,2024-06-14T08:01:42.018Z,english_577.wav,0,0,1312,20,3,Chinese,f,2,0.2,32.29278586,0.00832478
ZH,106,2,2024-06-14T08:01:42.018Z,english_577.wav,0,0,1312,20,3,Chinese,f,3,0.3,94.63733595,1.24529525
ZH,106,2,2024-06-14T08:01:42.018Z,english_577.wav,0,0,1312,20,3,Chinese,f,4,0.32341667,-75.78119055,0.24980342
ZH,107,2,2024-06-14T08:01:42.018Z,english_476.wav,0,1,661,20,3,Chinese,f,0,0,67.27413703,1.71507594
ZH,107,2,2024-06-14T08:01:42.018Z,english_476.wav,0,1,661,20,3,Chinese,f,1,0.1,-35.99891676,1.5691203
ZH,107,2,2024-06-14T08:01:42.018Z,english_476.wav,0,1,661,20,3,Chinese,f,2,0.2,53.1347651,0.1869461
ZH,107,2,2024-06-14T08:01:42.018Z,english_476.wav,0,1,661,20,3,Chinese,f,3,0.3,-27.53585108,0.94822926
ZH,107,2,2024-06-14T08:01:42.018Z,english_476.wav,0,1,661,20,3,Chinese,f,4,0.32341667,13.88563074,1.63186757
ZH,108,2,2024-06-14T08:01:42.018Z,english_558.wav,0,1,906,20,3,Chinese,f,0,0,-73.38624366,1.58797859
ZH,108,2,2024-06-14T08:01:42.018Z,english_558.wav,0,1,906,20,3,Chinese,f,1,0.1,-42.42633216,1.10525313
ZH,108,2,2024-06-14T08:01:42.018Z,english_558.wav,0,1,906,20,3,Chinese,f,2,0.2,15.99713578,0.42598769
ZH,108,2,2024-06-14T08:01:42.018Z,english_558.wav,0,1,906,20,3,Chinese,f,3,0.3,-33.12568725,0.25629603
ZH,108,2,2024-06-14T08:01:42.018Z,english_558.wav,0,1,906,20,3,Chinese,f,4,0.32341667,44.00446366,1.81995896
ZH,109,2,2024-06-14T08:01:42.018Z,english_443.wav,0,0,881,20,3,Chinese,f,0,0,0.608638,1.06022382
ZH,109,2,2024-06-14T08:01:42.018Z,english_443.wav,0,0,881,20,3,Chinese,f,1,0.1,15.80398242,1.02694767
ZH,109,2,2024-06-14T08:01:42.018Z,english_443.wav,0,0,881,20,3,Chinese,f,2,0.2,-53.8454718,0.72801533
ZH,109,2,2024-06-14T08:01:42.018Z,english_443.wav,0,0,881,20,3,Chinese,f,3,0.3,32.36058062,1.22153209
ZH,109,2,2024-06-14T08:01:42.018Z,english_443.wav,0,0,881,20,3,Chinese,f,4,0.32341667,41.23353215,0.58841963
ZH,110,2,2024-06-14T08:01:42.018Z,english_682.wav,0,1,571,20,3,Chinese,f,0,0,-19.80167737,1.6131825
ZH,110,2,2024-06-14T08:01:42.018Z,english_682.wav,0,1,571,20,3,Chinese,f,1,0.1,-30.98220326,1.03205672
ZH,110,2,2024-06-14T08:01:42.018Z,english_682.wav,0,1,571,20,3,Chinese,f,2,0.2,26.07010201,1.08357256
ZH,110,2,2024-06-14T08:01:42.018Z,english_682.wav,0,1,571,20,3,Chinese,f,3,0.3,-7.79776739,1.70642947
ZH,110,2,2024-06-14T08:01:42.018Z,english_682.wav,0,1,571,20,3,Chinese,f,4,0.32341667,-10.9148898,0.86858281
ZH,111,2,2024-06-14T08:01:42.018Z,english_486.wav,0,0,881,20,3,Chinese,f,0,0,31.41997184,1.22599644
ZH,111,2,2024-06-14T08:01:42.018Z,english_486.wav,0,0,881,20,3,Chinese,f,1,0.1,58.03480486,1.4547445
ZH,111,2,2024-06-14T08:01:42.018Z,english_486.wav,0,0,881,20,3,Chinese,f,2,0.2,-62.84801238,0.27967606
ZH,111,2,2024-06-14T08:01:42.018Z,english_486.wav,0,0,881,20,3,Chinese,f,3,0.3,10.62451678,0.02065399
ZH,111,2,2024-06-14T08:01:42.018Z,english_486.wav,0,0,881,20,3,Chinese,f,4,0.32341667,10.31835057,0.3128479
ZH,112,2,2024-06-14T08:01:42.018Z,english_579.wav,0,1,974,20,3,Chinese,f,0,0,78.52989573,1.74799876
ZH,112,2,2024-06-14T08:01:42.018Z,english_579.wav,0,1,974,20,3,Chinese,f,1,0.1,-26.17758211,0.36264633
ZH,112,2,2024-06-14T08:01:42.018Z,english_579.wav,0,1,974,20,3,Chinese,f,2,0.2,-65.60231522,1.15645327
ZH,112,2,2024-06-14T08:01:42.018Z,english_579.wav,0,1,974,20,3,Chinese,f,3,0.3,-66.03357835,1.81639149
ZH,112,2,2024-06-14T08:01:42.018Z,english_579.wav,0,1,974,20,3,Chinese,f,4,0.32341667,-36.23940811,1.38509752
ZH,113,2,2024-06-14T08:01:42.018Z,english_41.wav,0,0,559,20,3,Chinese,f,0,0,42.21237724,0.98996482
ZH,113,2,2024-06-14T08:01:42.018Z,english_41.wav,0,0,559,20,3,Chinese,f,1,0.1,33.8271633,0.77076848
ZH,113,2,2024-06-14T08:01:42.018Z,english_41.wav,0,0,559,20,3,Chinese,f,2,0.2,20.96644351,0.37402384
ZH,113,2,2024-06-14T08:01:42.018Z,english_41.wav,0,0,559,20,3,Chinese,f,3,0.3,-53.61985723,1.98545705
ZH,113,2,2024-06-14T08:01:42.018Z,english_41.wav,0,0,559,20,3,Chinese,f,4,0.32341667,-55.68725705,1.53352273
ZH,114,2,2024-06-14T08:01:42.018Z,english_50.wav,0,1,1013,20,3,Chinese,f,0,0,-72.72872807,1.68140442
ZH,114,2,2024-06-14T08:01:42.018Z,english_50.wav,0,1,1013,20,3,Chinese,f,1,0.1,-88.33626222,1.82728433
ZH,114,2,2024-06-14T08:01:42.018Z,english_50.wav,0,1,1013,20,3,Chinese,f,2,0.2,-2.18882928,0.80476824
ZH,114,2,2024-06-14T08:01:42.018Z,english_50.wav,0,1,1013,20,3,Chinese,f,3,0.3,60.61456424,0.21215651
ZH,114,2,2024-06-14T08:01:42.018Z,english_50.wav,0,1,1013,20,3,Chinese,f,4,0.32341667,95.28335061,1.87644163
ZH,115,2,2024-06-14T08:01:42.018Z,english_632.wav,0,0,732,20,3,Chinese,f,0,0,-56.22391322,1.21249895
ZH,115,2,2024-06-14T08:01:42.018Z,english_632.wav,0,0,732,20,3,Chinese,f,1,0.1,-47.59423942,0.39515719
ZH,115,2,2024-06-14T08:01:42.018Z,english_632.wav,0,0,732,20,3,Chinese,f,2,0.2,91.93727259,1.8528852
ZH,115,2,2024-06-14T08:01:42.018Z,english_632.wav,0,0,732,20,3,Chinese,f,3,0.3,-33.89646621,1.67254104
ZH,115,2,2024-06-14T08:01:42.018Z,english_632.wav,0,0,732,20,3,Chinese,f,4,0.32341667,46.88387871,1.21014685
ZH,116,2,2024-06-14T08:01:42.018Z,english_751.wav,0,0,652,20,3,Chinese,f,0,0,45.03630887,0.43450625
ZH,116,2,2024-06-14T08:01:42.018Z,english_751.wav,0,0,652,20,3,Chinese,f,1,0.1,46.59103402,1.30072592
ZH,116,2,2024-06-14T08:01:42.018Z,english_751.wav,0,0,652,20,3,Chinese,f,2,0.2,-30.90440374,1.20093797
ZH,116,2,2024-06-14T08:01:42.018Z,english_751.wav,0,0,652,20,3,Chinese,f,3,0.3,-61.26470289,0.81911259
ZH,116,2,2024-06-14T08:01:42.018Z,english_751.wav,0,0,652,20,3,Chinese,f,4,0.32341667,34.91384756,0.19140491
ZH,117,2,2024-06-14T08:01:42.018Z,english_46.wav,0,1,1285,20,3,Chinese,f,0,0,-29.32250151,0.64118776
ZH,117,2,2024-06-14T08:01:42.018Z,english_46.wav,0,1,1285,20,3,Chinese,f,1,0.1,-3.06808063,0.73649566
ZH,117,2,2024-06-14T08:01:42.018Z,english_46.wav,0,1,1285,20,3,Chinese,f,2,0.2,90.97923358,1.88790792
ZH,117,2,2024-06-14T08:01:42.018Z,english_46.wav,0,1,1285,20,3,Chinese,f,3,0.3,10.7462216,0.26788582
ZH,117,2,2024-06-14T08:01:42.018Z,english_46.wav,0,1,1285,20,3,Chinese,f,4,0.32341667,-76.74347892,0.543593
ZH,118,2,2024-06-14T08:01:42.018Z,english_540.wav,0,0,816,20,3,Chinese,f,0,0,-46.6752609,1.16352469
ZH,118,2,2024-06-14T08:01:42.018Z,english_540.wav,0,0,816,20,3,Chinese,f,1,0.1,-93.20209644,0.0234781
ZH,118,2,2024-06-14T08:01:42.018Z,english_540.wav,0,0,816,20,3,Chinese,f,2,0.2,64.96419662,0.05926191
ZH,118,2,2024-06-14T08:01:42.018Z,english_540.wav,0,0,816,20,3,Chinese,f,3,0.3,-12.16484387,1.47406284
ZH,118,2,2024-06-14T08:01:42.018Z,english_540.wav,0,0,816,20,3,Chinese,f,4,0.32341667,-44.34688232,0.60104864
ZH,119,2,2024-06-14T08:01:42.018Z,english_590.wav,0,0,759,20,3,Chinese,f,0,0,-36.198224,1.58650853
ZH,119,2,2024-06-14T08:01:42.018Z,english_590.wav,0,0,759,20,3,Chinese,f,1,0.1,-81.6019347,0.24081988
ZH,119,2,2024-06-14T08:01:42.018Z,english_590.wav,0,0,759,20,3,Chinese,f,2,0.2,23.00860846,0.40073912
ZH,119,2,2024-06-14T08:01:42.018Z,english_590.wav,0,0,759,20,3,Chinese,f,3,0.3,-40.72667736,0.83686248
ZH,119,2,2024-06-14T08:01:42.018Z,english_590.wav,0,0,759,20,3,Chinese,f,4,0.32341667,31.06175796,1.43958247
ZH,120,2,2024-06-14T08:01:42.018Z,english_333.wav,0,1,675,20,3,Chinese,f,0,0,61.26933292,0.50090252
ZH,120,2,2024-06-14T08:01:42.018Z,english_333.wav,0,1,675,20,3,Chinese,f,1,0.1,38.65533839,1.61630161
ZH,120,2,2024-06-14T08:01:42.018Z,english_333.wav,0,1,675,20,3,Chinese,f,2,0.2,-27.91605269,1.73322278
ZH,120,2,2024-06-14T08:01:42.018Z,english_333.wav,0,1,675,20,3,Chinese,f,3,0.3,36.00101096,0.67742762
ZH,120,2,2024-06-14T08:01:42.018Z,english_333.wav,0,1,675,20,3,Chinese,f,4,0.32341667,-78.35943708,0.46993908
ZH,121,2,2024-06-14T08:01:42.018Z,english_19.wav,0,1,867,20,3,Chinese,f,0,0,51.84788699,0.3981759
ZH,121,2,2024-06-14T08:01:42.018Z,english_19.wav,0,1,867,20,3,Chinese,f,1,0.1,59.68091475,1.61217409
ZH,121,2,2024-06-14T08:01:42.018Z,english_19.wav,0,1,867,20,3,Chinese,f,2,0.2,-27.71167756,0.35158216
ZH,121,2,2024-06-14T08:01:42.018Z,english_19.wav,0,1,867,20,3,Chinese,f,3,0.3,-29.56443604,0.8770992
ZH,121,2,2024-06-14T08:01:42.018Z,english_19.wav,0,1,867,20,3,Chinese,f,4,0.32341667,-58.55228515,0.51670124
ZH,122,2,2024-06-14T08:01:42.018Z,english_513.wav,0,1,3279,20,3,Chinese,f,0,0,76.78578212,0.02403043
ZH,122,2,2024-06-14T08:01:42.018Z,english_513.wav,0,1,3279,20,3,Chinese,f,1,0.1,20.42124481,0.85164369
ZH,122,2,2024-06-14T08:01:42.018Z,english_513.wav,0,1,3279,20,3,Chinese,f,2,0.2,83.32251122,1.08658436
ZH,122,2,2024-06-14T08:01:42.018Z,english_513.wav,0,1,3279,20,3,Chinese,f,3,0.3,47.28432413,0.40639055
ZH,122,2,2024-06-14T08:01:42.018Z,english_513.wav,0,1,3279,20,3,Chinese,f,4,0.32341667,-50.64117466,1.29336046
ZH,123,2,2024-06-14T08:01:42.018Z,english_627.wav,0,0,930,20,3,Chinese,f,0,0,-53.99355102,0.04887222
ZH,123,2,2024-06-14T08:01:42.018Z,english_627.wav,0,0,930,20,3,Chinese,f,1,0.1,-3.03417463,0.14119608
ZH,123,2,2024-06-14T08:01:42.018Z,english_627.wav,0,0,930,20,3,Chinese,f,2,0.2,83.9257281,0.97350107
ZH,123,2,2024-06-14T08:01:42.018Z,english_627.wav,0,0,930,20,3,Chinese,f,3,0.3,52.52073868,0.6697358
ZH,123,2,2024-06-14T08:01:42.018Z,english_627.wav,0,0,930,20,3,Chinese,f,4,0.32341667,-13.85481025,0.92660526
ZH,124,2,2024-06-14T08:01:42.018Z,english_232.wav,0,0,879,20,3,Chinese,f,0,0,15.13134779,0.53160298
ZH,124,2,2024-06-14T08:01:42.018Z,english_232.wav,0,0,879,20,3,Chinese,f,1,0.1,-49.29605083,0.4519978
ZH,124,2,2024-06-14T08:01:42.018Z,english_232.wav,0,0,879,20,3,Chinese,f,2,0.2,59.10606455,0.39260156
ZH,124,2,2024-06-14T08:01:42.018Z,english_232.wav,0,0,879,20,3,Chinese,f,3,0.3,48.81708847,0.4692084
ZH,124,2,2024-06-14T08:01:42.018Z,english_232.wav,0,0,879,20,3,Chinese,f,4,0.32341667,14.83590121,0.46233459
ZH,125,2,2024-06-14T08:01:42.018Z,english_211.wav,0,1,592,20,3,Chinese,f,0,0,37.34807541,1.77380832
ZH,125,2,2024-06-14T08:01:42.018Z,english_211.wav,0,1,592,20,3,Chinese,f,1,0.1,97.98979508,1.35747523
ZH,125,2,2024-06-14T08:01:42.018Z,english_211.wav,0,1,592,20,3,Chinese,f,2,0.2,-20.02981109,1.74013371
ZH,125,2,2024-06-14T08:01:42.018Z,english_211.wav,0,1,592,20,3,Chinese,f,3,0.3,-69.8116311,0.94808553
ZH,125,2,2024-06-14T08:01:42.018Z,english_211.wav,0,1,592,20,3,Chinese,f,4,0.32341667,35.11126142,0.23094119
ZH,126,2,2024-06-14T08:01:42.018Z,english_715.wav,0,0,788,20,3,Chinese,f,0,0,-64.21420564,1.80154013
ZH,126,2,2024-06-14T08:01:42.018Z,english_715.wav,0,0,788,20,3,Chinese,f,1,0.1,77.40813629,0.51096517
ZH,126,2,2024-06-14T08:01:42.018Z,english_715.wav,0,0,788,20,3,Chinese,f,2,0.2,-98.26791609,0.49870215
ZH,126,2,2024-06-14T08:01:42.018Z,english_715.wav,0,0,788,20,3,Chinese,f,3,0.3,-32.66334796,0.64344691
ZH,126,2,2024-06-14T08:01:42.018Z,english_715.wav,0,0,788,20,3,Chinese,f,4,0.32341667,93.12500574,1.17662216
ZH,127,2,2024-06-14T08:01:42.018Z,english_24.wav,0,1,1107,20,3,Chinese,f,0,0,83.82729659,0.31203725
ZH,127,2,2024-06-14T08:01:42.018Z,english_24.wav,0,1,1107,20,3,Chinese,f,1,0.1,-2.54724082,1.56948954
ZH,127,2,2024-06-14T08:01:42.018Z,english_24.wav,0,1,1107,20,3,Chinese,f,2,0.2,88.70909739,0.87333864
ZH,127,2,2024-06-14T08:01:42.018Z,english_24.wav,0,1,1107,20,3,Chinese,f,3,0.3,48.93770926,0.88535019
ZH,127,2,2024-06-14T08:01:42.018Z,english_24.wav,0,1,1107,20,3,Chinese,f,4,0.32341667,53.25190048,0.66112496
ZH,128,2,2024-06-14T08:01:42.018Z,english_6.wav,0,1,1533,20,3,Chinese,f,0,0,-8.2116192,1.24832701
ZH,128,2,2024-06-14T08:01:42.018Z,english_6.wav,0,1,1533,20,3,Chinese,f,1,0.1,-28.50933877,0.74984456
ZH,128,2,2024-06-14T08:01:42.018Z,english_6.wav,0,1,1533,20,3,Chinese,f,2,0.2,-90.20174912,1.37568362
ZH,128,2,2024-06-14T08:01:42.018Z,english_6.wav,0,1,1533,20,3,Chinese,f,3,0.3,-7.18062469,0.47637706
ZH,128,2,2024-06-14T08:01:42.018Z,english_6.wav,0,1,1533,20,3,Chinese,f,4,0.32341667,-36.83558467,0.68255954
ZH,129,2,2024-06-14T08:01:42.018Z,english_4.wav,0,1,654,20,3,Chinese,f,0,0,97.57442054,1.3122383
ZH,129,2,2024-06-14T08:01:42.018Z,english_4.wav,0,1,654,20,3,Chinese,f,1,0.1,57.41970729,1.27661748
ZH,129,2,2024-06-14T08:01:42.018Z,english_4.wav,0,1,654,20,3,Chinese,f,2,0.2,32.67065062,1.16138222
ZH,129,2,2024-06-14T08:01:42.018Z,english_4.wav,0,1,654,20,3,Chinese,f,3,0.3,34.06011343,0.34510216
ZH,129,2,2024-06-14T08:01:42.018Z,english_4.wav,0,1,654,20,3,Chinese,f,4,0.32341667,83.59797788,1.84938224
ZH,130,2,2024-06-14T08:01:42.018Z,english_598.wav,0,0,1197,20,3,Chinese,f,0,0,4.26365523,0.04069017
ZH,130,2,2024-06-14T08:01:42.018Z,english_598.wav,0,0,1197,20,3,Chinese,f,1,0.1,-29.634957,1.27980102
ZH,130,2,2024-06-14T08:01:42.018Z,english_598.wav,0,0,1197,20,3,Chinese,f,2,0.2,-17.49120793,0.98781586
ZH,130,2,2024-06-14T08:01:42.018Z,english_598.wav,0,0,1197,20,3,Chinese,f,3,0.3,-34.93876912,1.55939702
ZH,130,2,2024-06-14T08:01:42.018Z,english_598.wav,0,0,1197,20,3,Chinese,f,4,0.32341667,49.49845506,1.74128412
ZH,131,2,2024-06-14T08:01:42.018Z,english_582.wav,0,0,1115,20,3,Chinese,f,0,0,-29.81423477,0.27230029
ZH,131,2,2024-06-14T08:01:42.018Z,english_582.wav,0,0,1115,20,3,Chinese,f,1,0.1,37.42565533,0.84765039
ZH,131,2,2024-06-14T08:01:42.018Z,english_582.wav,0,0,1115,20,3,Chinese,f,2,0.2,79.58894888,1.99526631
ZH,131,2,2024-06-14T08:01:42.018Z,english_582.wav,0,0,1115,20,3,Chinese,f,3,0.3,49.55779855,1.55519667
ZH,131,2,2024-06-14T08:01:42.018Z,english_582.wav,0,0,1115,20,3,Chinese,f,4,0.32341667,54.00509918,1.66653349
ZH,132,2,2024-06-14T08:01:42.018Z,english_167.wav,0,0,2010,20,3,Chinese,f,0,0,57.26975159,0.44729063
ZH,132,2,2024-06-14T08:01:42.018Z,english_167.wav,0,0,2010,20,3,Chinese,f,1,0.1,54.31010869,1.623568
ZH,132,2,2024-06-14T08:01:42.018Z,english_167.wav,0,0,2010,20,3,Chinese,f,2,0.2,99.57020207,0.28743218
ZH,132,2,2024-06-14T08:01:42.018Z,english_167.wav,0,0,2010,20,3,Chinese,f,3,0.3,27.92735821,0.71837494
ZH,132,2,2024-06-14T08:01:42.018Z,english_167.wav,0,0,2010,20,3,Chinese,f,4,0.32341667,73.13424206,1.35815305
ZH,133,2,2024-06-14T08:01:42.018Z,english_773.wav,0,1,1547,20,3,Chinese,f,0,0,-97.46951928,0.54003315
ZH,133,2,2024-06-14T08:01:42.018Z,english_773.wav,0,1,1547,20,3,Chinese,f,1,0.1,85.58858853,1.35505424
ZH,133,2,2024-06-14T08:01:42.018Z,english_773.wav,0,1,1547,20,3,Chinese,f,2,0.2,-54.69649905,1.09283168
ZH,133,2,2024-06-14T08:01:42.018Z,english_773.wav,0,1,1547,20,3,Chinese,f,3,0.3,-97.24656559,1.42526307
ZH,133,2,2024-06-14T08:01:42.018Z,english_773.wav,0,1,1547,20,3,Chinese,f,4,0.32341667,40.28006613,0.69844725
ZH,134,2,2024-06-14T08:01:42.018Z,english_755.wav,0,0,1670,20,3,Chinese,f,0,0,-15.85533995,0.06987403
ZH,134,2,2024-06-14T08:01:42.018Z,english_755.wav,0,0,1670,20,3,Chinese,f,1,0.1,-97.95934782,0.83204773
ZH,134,2,2024-06-14T08:01:42.018Z,english_755.wav,0,0,1670,20,3,Chinese,f,2,0.2,-5.14559719,1.06816443
ZH,134,2,2024-06-14T08:01:42.018Z,english_755.wav,0,0,1670,20,3,Chinese,f,3,0.3,32.74087849,1.42856986
ZH,134,2,2024-06-14T08:01:42.018Z,english_755.wav,0,0,1670,20,3,Chinese,f,4,0.32341667,-56.93437429,0.58130438
ZH,135,2,2024-06-14T08:01:42.018Z,english_228.wav,0,1,567,20,3,Chinese,f,0,0,10.35680964,1.81276751
ZH,135,2,2024-06-14T08:01:42.018Z,english_228.wav,0,1,567,20,3,Chinese,f,1,0.1,-84.53961792,0.9819477
ZH,135,2,2024-06-14T08:01:42.018Z,english_228.wav,0,1,567,20,3,Chinese,f,2,0.2,38.41788342,1.68506606
ZH,135,2,2024-06-14T08:01:42.018Z,english_228.wav,0,1,567,20,3,Chinese,f,3,0.3,-9.18015311,0.19219142
ZH,135,2,2024-06-14T08:01:42.018Z,english_228.wav,0,1,567,20,3,Chinese,f,4,0.32341667,-12.25744947,1.99636764
ZH,136,2,2024-06-14T08:01:42.018Z,english_255.wav,0,1,832,20,3,Chinese,f,0,0,-42.74550593,1.65518669
ZH,136,2,2024-06-14T08:01:42.018Z,english_255.wav,0,1,832,20,3,Chinese,f,1,0.1,35.44578771,1.85823386
ZH,136,2,2024-06-14T08:01:42.018Z,english_255.wav,0,1,832,20,3,Chinese,f,2,0.2,98.7346041,1.2123315
ZH,136,2,2024-06-14T08:01:42.018Z,english_255.wav,0,1,832,20,3,Chinese,f,3,0.3,14.08839822,0.62099519
ZH,136,2,2024-06-14T08:01:42.018Z,english_255.wav,0,1,832,20,3,Chinese,f,4,0.32341667,-55.38739786,1.08486436
ZH,137,2,2024-06-14T08:01:42.018Z,english_483.wav,0,0,649,20,3,Chinese,f,0,0,-5.76716701,0.46419013
ZH,137,2,2024-06-14T08:01:42.018Z,english_483.wav,0,0,649,20,3,Chinese,f,1,0.1,70.49761143,1.51640771
ZH,137,2,2024-06-14T08:01:42.018Z,english_483.wav,0,0,649,20,3,Chinese,f,2,0.2,-45.60331281,0.16811565
ZH,137,2,2024-06-14T08:01:42.018Z,english_483.wav,0,0,649,20,3,Chinese,f,3,0.3,83.6717315,0.53401791
ZH,137,2,2024-06-14T08:01:42.018Z,english_483.wav,0,0,649,20,3,Chinese,f,4,0.32341667,-49.24362833,1.0404632
ZH,138,2,2024-06-14T08:01:42.018Z,english_396.wav,0,1,967,20,3,Chinese,f,0,0,2.39126912,1.48231007
ZH,138,2,2024-06-14T08:01:42.018Z,english_396.wav,0,1,967,20,3,Chinese,f,1,0.1,-38.95035948,0.85829723
ZH,138,2,2024-06-14T08:01:42.018Z,english_396.wav,0,1,967,20,3,Chinese,f,2,0.2,78.31320688,1.16655306
ZH,138,2,2024-06-14T08:01:42.018Z,english_396.wav,0,1,967,20,3,Chinese,f,3,0.3,16.98024706,0.51680164
ZH,138,2,2024-06-14T08:01:42.018Z,english_396.wav,0,1,967,20,3,Chinese,f,4,0.32341667,44.66397079,1.5133775
ZH,139,2,2024-06-14T08:01:42.018Z,english_726.wav,0,1,571,20,3,Chinese,f,0,0,76.65318619,0.71374833
ZH,139,2,2024-06-14T08:01:42.018Z,english_726.wav,0,1,571,20,3,Chinese,f,1,0.1,62.97746083,1.94407191
ZH,139,2,2024-06-14T08:01:42.018Z,english_726.wav,0,1,571,20,3,Chinese,f,2,0.2,-20.72245964,0.55951675
ZH,139,2,2024-06-14T08:01:42.018Z,english_726.wav,0,1,571,20,3,Chinese,f,3,0.3,42.64953343,0.7826891
ZH,139,2,2024-06-14T08:01:42.018Z,english_726.wav,0,1,571,20,3,Chinese,f,4,0.32341667,23.5514061,0.11592549
ZH,140,2,2024-06-14T08:01:42.018Z,english_829.wav,0,0,484,20,3,Chinese,f,0,0,60.30417439,0.94286345
ZH,140,2,2024-06-14T08:01:42.018Z,english_829.wav,0,0,484,20,3,Chinese,f,1,0.1,-26.87459656,0.76756767
ZH,140,2,2024-06-14T08:01:42.018Z,english_829.wav,0,0,484,20,3,Chinese,f,2,0.2,59.05286014,1.50609211
ZH,140,2,2024-06-14T08:01:42.018Z,english_829.wav,0,0,484,20,3,Chinese,f,3,0.3,-38.64739237,0.33518122
ZH,140,2,2024-06-14T08:01:42.018Z,english_829.wav,0,0,484,20,3,Chinese,f,4,0.32341667,68.61732932,1.40687349
ZH,141,2,2024-06-14T08:01:42.018Z,english_992.wav,0,0,747,20,3,Chinese,f,0,0,-6.68189934,0.46848529
ZH,141,2,2024-06-14T08:01:42.018Z,english_992.wav,0,0,747,20,3,Chinese,f,1,0.1,78.76679047,0.9874556
ZH,141,2,2024-06-14T08:01:42.018Z,english_992.wav,0,0,747,20,3,Chinese,f,2,0.2,-58.5917679,0.57881803
ZH,141,2,2024-06-14T08:01:42.018Z,english_992.wav,0,0,747,20,3,Chinese,f,3,0.3,-98.64651588,0.88425299
ZH,141,2,2024-06-14T08:01:42.018Z,english_992.wav,0,0,747,20,3,Chinese,f,4,0.32341667,73.76402904,0.6994588
ZH,142,2,2024-06-14T08:01:42.018Z,english_919.wav,0,0,751,20,3,Chinese,f,0,0,-78.03270024,1.18744007
ZH,142,2,2024-06-14T08:01:42.018Z,english_919.wav,0,0,751,20,3,Chinese,f,1,0.1,24.9634274,0.32639994
ZH,142,2,2024-06-14T08:01:42.018Z,english_919.wav,0,0,751,20,3,Chinese,f,2,0.2,-36.24618286,1.14830442
ZH,142,2,2024-06-14T08:01:42.018Z,english_919.wav,0,0,751,20,3,Chinese,f,3,0.3,-67.38261266,0.75322619
ZH,142,2,2024-06-14T08:01:42.018Z,english_919.wav,0,0,751,20,3,Chinese,f,4,0.32341667,86.21803917,0.69239757
ZH,143,2,2024-06-14T08:01:42.018Z,english_916.wav,0,1,747,20,3,Chinese,f,0,0,-50.62314768,0.5519299
ZH,143,2,2024-06-14T08:01:42.018Z,english_916.wav,0,1,747,20,3,Chinese,f,1,0.1,-52.55300278,1.16723516
ZH,143,2,2024-06-14T08:01:42.018Z,english_916.wav,0,1,747,20,3,Chinese,f,2,0.2,54.298582,1.72376738
ZH,143,2,2024-06-14T08:01:42.018Z,english_916.wav,0,1,747,20,3,Chinese,f,3,0.3,-23.99088857,0.41493786
ZH,143,2,2024-06-14T08:01:42.018Z,english_916.wav,0,1,747,20,3,Chinese,f,4,0.32341667,4.88948607,1.97918138
ZH,144,2,2024-06-14T08:01:42.018Z,english_514.wav,0,0,711,20,3,Chinese,f,0,0,-61.65105701,1.12509033
ZH,144,2,2024-06-14T08:01:42.018Z,english_514.wav,0,0,711,20,3,Chinese,f,1,0.1,49.84264816,0.78701739
ZH,144,2,2024-06-14T08:01:42.018Z,english_514.wav,0,0,711,20,3,Chinese,f,2,0.2,14.14440898,0.37052689
ZH,144,2,2024-06-14T08:01:42.018Z,english_514.wav,0,0,711,20,3,Chinese,f,3,0.3,-30.10662908,1.42053426
ZH,144,2,2024-06-14T08:01:42.018Z,english_514.wav,0,0,711,20,3,Chinese,f,4,0.32341667,90.48337022,1.94621598
ZH,145,2,2024-06-14T08:01:42.018Z,english_166.wav,0,1,1077,20,3,Chinese,f,0,0,37.27670025,1.42766663
ZH,145,2,2024-06-14T08:01:42.018Z,english_166.wav,0,1,1077,20,3,Chinese,f,1,0.1,34.38847046,0.72731767
ZH,145,2,2024-06-14T08:01:42.018Z,english_166.wav,0,1,1077,20,3,Chinese,f,2,0.2,49.91842175,1.80608275
ZH,145,2,2024-06-14T08:01:42.018Z,english_166.wav,0,1,1077,20,3,Chinese,f,3,0.3,56.9541748,1.91598421
ZH,145,2,2024-06-14T08:01:42.018Z,english_166.wav,0,1,1077,20,3,Chinese,f,4,0.32341667,10.97290623,1.21084105
ZH,146,2,2024-06-14T08:01:42.018Z,english_97.wav,0,1,738,20,3,Chinese,f,0,0,57.21139396,1.63402743
ZH,146,2,2024-06-14T08:01:42.018Z,english_97.wav,0,1,738,20,3,Chinese,f,1,0.1,-7.40408397,0.54734888
ZH,146,2,2024-06-14T08:01:42.018Z,english_97.wav,0,1,738,20,3,Chinese,f,2,0.2,77.7995227,1.5228594
ZH,146,2,2024-06-14T08:01:42.018Z,english_97.wav,0,1,738,20,3,Chinese,f,3,0.3,-51.1747528,1.13050105
ZH,146,2,2024-06-14T08:01:42.018Z,english_97.wav,0,1,738,20,3,Chinese,f,4,0.32341667,77.11982253,0.82586999
ZH,147,2,2024-06-14T08:01:42.018Z,english_776.wav,0,0,947,20,3,Chinese,f,0,0,29.86548478,0.57139857
ZH,147,2,2024-06-14T08:01:42.018Z,english_776.wav,0,0,947,20,3,Chinese,f,1,0.1,2.8025705,1.94435619
ZH,147,2,2024-06-14T08:01:42.018Z,english_776.wav,0,0,947,20,3,Chinese,f,2,0.2,-38.4768188,0.3951066
ZH,147,2,2024-06-14T08:01:42.018Z,english_776.wav,0,0,947,20,3,Chinese,f,3,0.3,-89.49838949,0.29859462
ZH,147,2,2024-06-14T08:01:42.018Z,english_776.wav,0,0,947,20,3,Chinese,f,4,0.32341667,30.18488016,1.93939037
ZH,148,2,2024-06-14T08:01:42.018Z,english_252.wav,0,0,789,20,3,Chinese,f,0,0,79.75601627,0.77799761
ZH,148,2,2024-06-14T08:01:42.018Z,english_252.wav,0,0,789,20,3,Chinese,f,1,0.1,17.00183399,1.07711339
ZH,148,2,2024-06-14T08:01:42.018Z,english_252.wav,0,0,789,20,3,Chinese,f,2,0.2,-25.42800597,0.7917181
ZH,148,2,2024-06-14T08:01:42.018Z,english_252.wav,0,0,789,20,3,Chinese,f,3,0.3,-47.65138194,1.47632881
ZH,148,2,2024-06-14T08:01:42.018Z,english_252.wav,0,0,789,20,3,Chinese,f,4,0.32341667,35.10652067,1.65919103
ZH,149,2,2024-06-14T08:01:42.018Z,english_729.wav,0,0,801,20,3,Chinese,f,0,0,31.16849918,1.30127688
ZH,149,2,2024-06-14T08:01:42.018Z,english_729.wav,0,0,801,20,3,Chinese,f,1,0.1,-74.04657477,1.28998605
ZH,149,2,2024-06-14T08:01:42.018Z,english_729.wav,0,0,801,20,3,Chinese,f,2,0.2,98.28479208,0.71365363
ZH,149,2,2024-06-14T08:01:42.018Z,english_729.wav,0,0,801,20,3,Chinese,f,3,0.3,45.68234461,0.61436371
ZH,149,2,2024-06-14T08:01:42.018Z,english_729.wav,0,0,801,20,3,Chinese,f,4,0.32341667,-23.12232547,0.96520681
ZH,150,3,2024-06-14T08:01:42.018Z,english_775.wav,0,1,1046,20,3,Chinese,f,0,0,58.00753923,1.75560269
ZH,150,3,2024-06-14T08:01:42.018Z,english_775.wav,0,1,1046,20,3,Chinese,f,1,0.1,88.61433734,0.86519841
ZH,150,3,2024-06-14T08:01:42.018Z,english_775.wav,0,1,1046,20,3,Chinese,f,2,0.2,97.9031651,0.93867241
ZH,150,3,2024-06-14T08:01:42.018Z,english_775.wav,0,1,1046,20,3,Chinese,f,3,0.3,14.61974867,1.86901891
ZH,150,3,2024-06-14T08:01:42.018Z,english_775.wav,0,1,1046,20,3,Chinese,f,4,0.32341667,-5.44703254,0.0946911
ZH,151,3,2024-06-14T08:01:42.018Z,english_663.wav,0,0,596,20,3,Chinese,f,0,0,55.84438863,1.29444713
ZH,151,3,2024-06-14T08:01:42.018Z,english_663.wav,0,0,596,20,3,Chinese,f,1,0.1,-89.02249371,0.90215198
ZH,151,3,2024-06-14T08:01:42.018Z,english_663.wav,0,0,596,20,3,Chinese,f,2,0.2,-13.61345685,1.61104603
ZH,151,3,2024-06-14T08:01:42.018Z,english_663.wav,0,0,596,20,3,Chinese,f,3,0.3,14.50375693,0.31375715
ZH,151,3,2024-06-14T08:01:42.018Z,english_663.wav,0,0,596,20,3,Chinese,f,4,0.32341667,80.63633164,1.01784406
ZH,152,3,2024-06-14T08:01:42.018Z,english_658.wav,0,0,802,20,3,Chinese,f,0,0,-80.21976745,0.49170119
ZH,152,3,2024-06-14T08:01:42.018Z,english_658.wav,0,0,802,20,3,Chinese,f,1,0.1,11.23314836,0.6994793
ZH,152,3,2024-06-14T08:01:42.018Z,english_658.wav,0,0,802,20,3,Chinese,f,2,0.2,8.94946791,1.18458539
ZH,152,3,2024-06-14T08:01:42.018Z,english_658.wav,0,0,802,20,3,Chinese,f,3,0.3,17.22411688,0.7091276
ZH,152,3,2024-06-14T08:01:42.018Z,english_658.wav,0,0,802,20,3,Chinese,f,4,0.32341667,10.67081381,1.7453453
ZH,153,3,2024-06-14T08:01:42.018Z,english_546.wav,0,0,1202,20,3,Chinese,f,0,0,81.21590514,1.56657823
ZH,153,3,2024-06-14T08:01:42.018Z,english_546.wav,0,0,1202,20,3,Chinese,f,1,0.1,75.01018689,0.84038259
ZH,153,3,2024-06-14T08:01:42.018Z,english_546.wav,0,0,1202,20,3,Chinese,f,2,0.2,15.56226302,0.00684501
ZH,153,3,2024-06-14T08:01:42.018Z,english_546.wav,0,0,1202,20,3,Chinese,f,3,0.3,48.30886192,1.68157273
ZH,153,3,2024-06-14T08:01:42.018Z,english_546.wav,0,0,1202,20,3,Chinese,f,4,0.32341667,18.80923499,1.09409739
ZH,154,3,2024-06-14T08:01:42.018Z,english_683.wav,0,1,901,20,3,Chinese,f,0,0,-73.37543508,1.70409633
ZH,154,3,2024-06-14T08:01:42.018Z,english_683.wav,0,1,901,20,3,Chinese,f,1,0.1,66.4080647,1.25556383
ZH,154,3,2024-06-14T08:01:42.018Z,english_683.wav,0,1,901,20,3,Chinese,f,2,0.2,46.46812351,0.87554738
ZH,154,3,2024-06-14T08:01:42.018Z,english_683.wav,0,1,901,20,3,Chinese,f,3,0.3,71.67755016,1.32863005
ZH,154,3,2024-06-14T08:01:42.018Z,english_683.wav,0,1,901,20,3,Chinese,f,4,0.32341667,2.86253031,0.20364682
ZH,155,3,2024-06-14T08:01:42.018Z,english_596.wav,0,0,767,20,3,Chinese,f,0,0,90.29147433,0.88361056
ZH,155,3,2024-06-14T08:01:42.018Z,english_596.wav,0,0,767,20,3,Chinese,f,1,0.1,12.52853873,0.63799557
ZH,155,3,2024-06-14T08:01:42.018Z,english_596.wav,0,0,767,20,3,Chinese,f,2,0.2,50.53853174,0.09787331
ZH,155,3,2024-06-14T08:01:42.018Z,english_596.wav,0,0,767,20,3,Chinese,f,3,0.3,-77.3590695,1.15168959
ZH,155,3,2024-06-14T08:01:42.018Z,english_596.wav,0,0,767,20,3,Chinese,f,4,0.32341667,-1.65440801,0.06773829
ZH,156,3,2024-06-14T08:01:42.018Z,english_427.wav,0,0,621,20,3,Chinese,f,0,0,38.10585738,0.62221409
ZH,156,3,2024-06-14T08:01:42.018Z,english_427.wav,0,0,621,20,3,Chinese,f,1,0.1,75.26959407,1.20145201
ZH,156,3,2024-06-14T08:01:42.018Z,english_427.wav,0,0,621,20,3,Chinese,f,2,0.2,-92.48152235,0.18894815
ZH,156,3,2024-06-14T08:01:42.018Z,english_427.wav,0,0,621,20,3,Chinese,f,3,0.3,-38.24940669,0.36527681
ZH,156,3,2024-06-14T08:01:42.018Z,english_427.wav,0,0,621,20,3,Chinese,f,4,0.32341667,-41.67637111,0.02898627
ZH,157,3,2024-06-14T08:01:42.018Z,english_939.wav,0,0,470,20,3,Chinese,f,0,0,-23.2558256,0.1774722
ZH,157,3,2024-06-14T08:01:42.018Z,english_939.wav,0,0,470,20,3,Chinese,f,1,0.1,-16.62065377,0.56271239
ZH,157,3,2024-06-14T08:01:42.018Z,english_939.wav,0,0,470,20,3,Chinese,f,2,0.2,-49.54734698,1.42782479
ZH,157,3,2024-06-14T08:01:42.018Z,english_939.wav,0,0,470,20,3,Chinese,f,3,0.3,22.82101289,0.76516147
ZH,157,3,2024-06-14T08:01:42.018Z,english_939.wav,0,0,470,20,3,Chinese,f,4,0.32341667,28.63490654,1.70219777
ZH,158,3,2024-06-14T08:01:42.018Z,english_344.wav,0,1,938,20,3,Chinese,f,0,0,-81.18103124,1.80730522
ZH,158,3,2024-06-14T08:01:42.018Z,english_344.wav,0,1,938,20,3,Chinese,f,1,0.1,-15.12635331,1.30606229
ZH,158,3,2024-06-14T08:01:42.018Z,english_344.wav,0,1,938,20,3,Chinese,f,2,0.2,92.11407185,0.89739403
ZH,158,3,2024-06-14T08:01:42.018Z,english_344.wav,0,1,938,20,3,Chinese,f,3,0.3,-26.28325028,0.17834637
ZH,158,3,2024-06-14T08:01:42.018Z,english_344.wav,0,1,938,20,3,Chinese,f,4,0.32341667,-10.89648072,0.48618419
ZH,159,3,2024-06-14T08:01:42.018Z,english_137.wav,0,1,982,20,3,Chinese,f,0,0,-81.54177422,0.16940048
ZH,159,3,2024-06-14T08:01:42.018Z,english_137.wav,0,1,982,20,3,Chinese,f,1,0.1,48.50229113,1.33204053
ZH,159,3,2024-06-14T08:01:42.018Z,english_137.wav,0,1,982,20,3,Chinese,f,2,0.2,-43.40912925,1.8593258
ZH,159,3,2024-06-14T08:01:42.018Z,english_137.wav,0,1,982,20,3,Chinese,f,3,0.3,54.89578869,1.77805515
ZH,159,3,2024-06-14T08:01:42.018Z,english_137.wav,0,1,982,20,3,Chinese,f,4,0.32341667,90.09778797,1.80981769
ZH,160,3,2024-06-14T08:01:42.018Z,english_223.wav,0,1,983,20,3,Chinese,f,0,0,-51.58222533,0.62889348
ZH,160,3,2024-06-14T08:01:42.018Z,english_223.wav,0,1,983,20,3,Chinese,f,1,0.1,-36.02700064,1.73736573
ZH,160,3,2024-06-14T08:01:42.018Z,english_223.wav,0,1,983,20,3,Chinese,f,2,0.2,-35.4915315,1.20130681
ZH,160,3,2024-06-14T08:01:42.018Z,english_223.wav,0,1,983,20,3,Chinese,f,3,0.3,1.26892628,0.53176439
ZH,160,3,2024-06-14T08:01:42.018Z,english_223.wav,0,1,983,20,3,Chinese,f,4,0.32341667,72.37143842,1.24562253
ZH,161,3,2024-06-14T08:01:42.018Z,english_585.wav,0,0,918,20,3,Chinese,f,0,0,-47.47167609,0.91486293
ZH,161,3,2024-06-14T08:01:42.018Z,english_585.wav,0,0,918,20,3,Chinese,f,1,0.1,-85.73018253,0.8051019
ZH,161,3,2024-06-14T08:01:42.018Z,english_585.wav,0,0,918,20,3,Chinese,f,2,0.2,4.69567907,1.25289508
ZH,161,3,2024-06-14T08:01:42.018Z,english_585.wav,0,0,918,20,3,Chinese,f,3,0.3,51.83381109,0.83258124
ZH,161,3,2024-06-14T08:01:42.018Z,english_585.wav,0,0,918,20,3,Chinese,f,4,0.32341667,14.12777642,1.43411439
ZH,162,3,2024-06-14T08:01:42.018Z,english_617.wav,0,1,799,20,3,Chinese,f,0,0,-99.94195333,1.17597353
ZH,162,3,2024-06-14T08:01:42.018Z,english_617.wav,0,1,799,20,3,Chinese,f,1,0.1,-27.54289523,0.72595777
ZH,162,3,2024-06-14T08:01:42.018Z,english_617.wav,0,1,799,20,3,Chinese,f,2,0.2,-31.48016085,0.94648609
ZH,162,3,2024-06-14T08:01:42.018Z,english_617.wav,0,1,799,20,3,Chinese,f,3,0.3,-72.28967102,1.67485207
ZH,162,3,2024-06-14T08:01:42.018Z,english_617.wav,0,1,799,20,3,Chinese,f,4,0.32341667,-18.83127656,0.94146903
ZH,163,3,2024-06-14T08:01:42.018Z,english_193.wav,0,1,762,20,3,Chinese,f,0,0,98.63199606,1.10219899
ZH,163,3,2024-06-14T08:01:42.018Z,english_193.wav,0,1,762,20,3,Chinese,f,1,0.1,38.06859183,1.75752318
ZH,163,3,2024-06-14T08:01:42.018Z,english_193.wav,0,1,762,20,3,Chinese,f,2,0.2,58.19309996,1.8701857
ZH,163,3,2024-06-14T08:01:42.018Z,english_193.wav,0,1,762,20,3,Chinese,f,3,0.3,70.68425501,1.90449871
ZH,163,3,2024-06-14T08:01:42.018Z,english_193.wav,0,1,762,20,3,Chinese,f,4,0.32341667,89.06926868,1.70479661
ZH,164,3,2024-06-14T08:01:42.018Z,english_865.wav,0,0,745,20,3,Chinese,f,0,0,57.45647421,1.64387024
ZH,164,3,2024-06-14T08:01:42.018Z,english_865.wav,0,0,745,20,3,Chinese,f,1,0.1,-62.30549211,0.05749027
ZH,164,3,2024-06-14T08:01:42.018Z,english_865.wav,0,0,745,20,3,Chinese,f,2,0.2,-35.85649312,0.09554773
ZH,164,3,2024-06-14T08:01:42.018Z,english_865.wav,0,0,745,20,3,Chinese,f,3,0.3,55.00701181,1.62598434
ZH,164,3,2024-06-14T08:01:42.018Z,english_865.wav,0,0,745,20,3,Chinese,f,4,0.32341667,-39.97662747,0.71232625
ZH,165,3,2024-06-14T08:01:42.018Z,english_379.wav,0,1,549,20,3,Chinese,f,0,0,30.14616912,1.43961489
ZH,165,3,2024-06-14T08:01:42.018Z,english_379.wav,0,1,549,20,3,Chinese,f,1,0.1,-79.51193423,1.4219763
ZH,165,3,2024-06-14T08:01:42.018Z,english_379.wav,0,1,549,20,3,Chinese,f,2,0.2,7.34860539,0.62633101
ZH,165,3,2024-06-14T08:01:42.018Z,english_379.wav,0,1,549,20,3,Chinese,f,3,0.3,-43.99342265,1.13621958
ZH,165,3,2024-06-14T08:01:42.018Z,english_379.wav,0,1,549,20,3,Chinese,f,4,0.32341667,37.72881761,1.35387794
ZH,166,3,2024-06-14T08:01:42.018Z,english_188.wav,0,0,981,20,3,Chinese,f,0,0,-13.13088252,0.29227292
ZH,166,3,2024-06-14T08:01:42.018Z,english_188.wav,0,0,981,20,3,Chinese,f,1,0.1,51.13663316,1.25360943
ZH,166,3,2024-06-14T08:01:42.018Z,english_188.wav,0,0,981,20,3,Chinese,f,2,0.2,-80.18048506,1.7916357
ZH,166,3,2024-06-14T08:01:42.018Z,english_188.wav,0,0,981,20,3,Chinese,f,3,0.3,-47.89773773,0.58346705
ZH,166,3,2024-06-14T08:01:42.018Z,english_188.wav,0,0,981,20,3,Chinese,f,4,0.32341667,-7.0568118,1.77612328
ZH,167,3,2024-06-14T08:01:42.018Z,english_336.wav,0,1,1278,20,3,Chinese,f,0,0,29.43389708,1.05594545
ZH,167,3,2024-06-14T08:01:42.018Z,english_336.wav,0,1,1278,20,3,Chinese,f,1,0.1,-98.82505887,1.57774783
ZH,167,3,2024-06-14T08:01:42.018Z,english_336.wav,0,1,1278,20,3,Chinese,f,2,0.2,33.95949266,1.35373128
ZH,167,3,2024-06-14T08:01:42.018Z,english_336.wav,0,1,1278,20,3,Chinese,f,3,0.3,-57.79711044,1.04960404
ZH,167,3,2024-06-14T08:01:42.018Z,english_336.wav,0,1,1278,20,3,Chinese,f,4,0.32341667,81.65015026,0.39151968
ZH,168,3,2024-06-14T08:01:42.018Z,english_371.wav,0,0,552,20,3,Chinese,f,0,0,44.65928585,0.25571852
ZH,168,3,2024-06-14T08:01:42.018Z,english_371.wav,0,0,552,20,3,Chinese,f,1,0.1,2.85031152,1.3562861
ZH,168,3,2024-06-14T08:01:42.018Z,english_371.wav,0,0,552,20,3,Chinese,f,2,0.2,-57.71166213,1.30905236
ZH,168,3,2024-06-14T08:01:42.018Z,english_371.wav,0,0,552,20,3,Chinese,f,3,0.3,-66.93032782,1.33160076
ZH,168,3,2024-06-14T08:01:42.018Z,english_371.wav,0,0,552,20,3,Chinese,f,4,0.32341667,13.43806553,0.62192137
ZH,169,3,2024-06-14T08:01:42.018Z,english_358.wav,0,1,820,20,3,Chinese,f,0,0,-24.40280242,0.64702298
ZH,169,3,2024-06-14T08:01:42.018Z,english_358.wav,0,1,820,20,3,Chinese,f,1,0.1,62.18566088,0.86836285
ZH,169,3,2024-06-14T08:01:42.018Z,english_358.wav,0,1,820,20,3,Chinese,f,2,0.2,5.26675109,1.05826104
ZH,169,3,2024-06-14T08:01:42.018Z,english_358.wav,0,1,820,20,3,Chinese,f,3,0.3,-31.91571391,1.98011631
ZH,169,3,2024-06-14T08:01:42.018Z,english_358.wav,0,1,820,20,3,Chinese,f,4,0.32341667,27.35112364,0.35058307
ZH,170,3,2024-06-14T08:01:42.018Z,english_416.wav,0,0,732,20,3,Chinese,f,0,0,26.92040942,0.66708871
ZH,170,3,2024-06-14T08:01:42.018Z,english_416.wav,0,0,732,20,3,Chinese,f,1,0.1,32.98463782,0.46140785
ZH,170,3,2024-06-14T08:01:42.018Z,english_416.wav,0,0,732,20,3,Chinese,f,2,0.2,94.30298269,0.4311344
ZH,170,3,2024-06-14T08:01:42.018Z,english_416.wav,0,0,732,20,3,Chinese,f,3,0.3,71.4008894,0.4522554
ZH,170,3,2024-06-14T08:01:42.018Z,english_416.wav,0,0,732,20,3,Chinese,f,4,0.32341667,-13.61584313,0.23817019
ZH,171,3,2024-06-14T08:01:42.018Z,english_467.wav,0,1,516,20,3,Chinese,f,0,0,-0.54983343,1.824027
ZH,171,3,2024-06-14T08:01:42.018Z,english_467.wav,0,1,516,20,3,Chinese,f,1,0.1,-84.54516502,1.06295632
ZH,171,3,2024-06-14T08:01:42.018Z,english_467.wav,0,1,516,20,3,Chinese,f,2,0.2,54.30123894,1.09976952
ZH,171,3,2024-06-14T08:01:42.018Z,english_467.wav,0,1,516,20,3,Chinese,f,3,0.3,-82.00368026,1.11766566
ZH,171,3,2024-06-14T08:01:42.018Z,english_467.wav,0,1,516,20,3,Chinese,f,4,0.32341667,-54.10816942,0.44824559
ZH,172,3,2024-06-14T08:01:42.018Z,english_551.wav,0,0,695,20,3,Chinese,f,0,0,51.69986033,0.0331047
ZH,172,3,2024-06-14T08:01:42.018Z,english_551.wav,0,0,695,20,3,Chinese,f,1,0.1,-91.31948841,0.51079487
ZH,172,3,2024-06-14T08:01:42.018Z,english_551.wav,0,0,695,20,3,Chinese,f,2,0.2,12.24586311,1.83581854
ZH,172,3,2024-06-14T08:01:42.018Z,english_551.wav,0,0,695,20,3,Chinese,f,3,0.3,-52.90680215,0.12201236
ZH,172,3,2024-06-14T08:01:42.018Z,english_551.wav,0,0,695,20,3,Chinese,f,4,0.32341667,-27.23325687,1.55189277
ZH,173,3,2024-06-14T08:01:42.018Z,english_850.wav,0,0,783,20,3,Chinese,f,0,0,79.79173837,1.46721922
ZH,173,3,2024-06-14T08:01:42.018Z,english_850.wav,0,0,783,20,3,Chinese,f,1,0.1,-44.24877139,0.57242606
ZH,173,3,2024-06-14T08:01:42.018Z,english_850.wav,0,0,783,20,3,Chinese,f,2,0.2,74.77623955,0.15597525
ZH,173,3,2024-06-14T08:01:42.018Z,english_850.wav,0,0,783,20,3,Chinese,f,3,0.3,-86.32612653,1.3358867
ZH,173,3,2024-06-14T08:01:42.018Z,english_850.wav,0,0,783,20,3,Chinese,f,4,0.32341667,-11.10230867,1.14618682
ZH,174,3,2024-06-14T08:01:42.018Z,english_875.wav,0,1,1273,20,3,Chinese,f,0,0,-72.29566874,0.47412948
ZH,174,3,2024-06-14T08:01:42.018Z,english_875.wav,0,1,1273,20,3,Chinese,f,1,0.1,40.49821439,0.97105678
ZH,174,3,2024-06-14T08:01:42.018Z,english_875.wav,0,1,1273,20,3,Chinese,f,2,0.2,61.66936014,1.31175081
ZH,174,3,2024-06-14T08:01:42.018Z,english_875.wav,0,1,1273,20,3,Chinese,f,3,0.3,36.92950197,0.55015514
ZH,174,3,2024-06-14T08:01:42.018Z,english_875.wav,0,1,1273,20,3,Chinese,f,4,0.32341667,61.03530789,1.23529794
ZH,175,3,2024-06-14T08:01:42.018Z,english_841.wav,0,1,2055,20,3,Chinese,f,0,0,36.57834023,0.37598589
ZH,175,3,2024-06-14T08:01:42.018Z,english_841.wav,0,1,2055,20,3,Chinese,f,1,0.1,81.12994836,1.18949815
ZH,175,3,2024-06-14T08:01:42.018Z,english_841.wav,0,1,2055,20,3,Chinese,f,2,0.2,55.4316434,1.24219065
ZH,175,3,2024-06-14T08:01:42.018Z,english_841.wav,0,1,2055,20,3,Chinese,f,3,0.3,-50.85387517,1.45004046
ZH,175,3,2024-06-14T08:01:42.018Z,english_841.wav,0,1,2055,20,3,Chinese,f,4,0.32341667,-52.13814436,0.19253582
ZH,176,3,2024-06-14T08:01:42.018Z,english_39.wav,0,0,768,20,3,Chinese,f,0,0,28.0167149,1.3269735
ZH,176,3,2024-06-14T08:01:42.018Z,english_39.wav,0,0,768,20,3,Chinese,f,1,0.1,0.73047565,0.59121622
ZH,176,3,2024-06-14T08:01:42.018Z,english_39.wav,0,0,768,20,3,Chinese,f,2,0.2,-55.83763262,0.32613901
ZH,176,3,2024-06-14T08:01:42.018Z,english_39.wav,0,0,768,20,3,Chinese,f,3,0.3,-59.78026112,1.39661139
ZH,176,3,2024-06-14T08:01:42.018Z,english_39.wav,0,0,768,20,3,Chinese,f,4,0.32341667,81.1603589,0.76065887
ZH,177,3,2024-06-14T08:01:42.018Z,english_766.wav,0,1,575,20,3,Chinese,f,0,0,-86.57417509,1.21737292
ZH,177,3,2024-06-14T08:01:42.018Z,english_766.wav,0,1,575,20,3,Chinese,f,1,0.1,-67.75686223,1.61484435
ZH,177,3,2024-06-14T08:01:42.018Z,english_766.wav,0,1,575,20,3,Chinese,f,2,0.2,74.21258041,1.47872362
ZH,177,3,2024-06-14T08:01:42.018Z,english_766.wav,0,1,575,20,3,Chinese,f,3,0.3,65.20164426,1.81064247
ZH,177,3,2024-06-14T08:01:42.018Z,english_766.wav,0,1,575,20,3,Chinese,f,4,0.32341667,-26.41371036,1.37776493
ZH,178,3,2024-06-14T08:01:42.018Z,english_895.wav,0,1,1132,20,3,Chinese,f,0,0,-36.05432491,1.57991636
ZH,178,3,2024-06-14T08:01:42.018Z,english_895.wav,0,1,1132,20,3,Chinese,f,1,0.1,0.27991529,1.29141926
ZH,178,3,2024-06-14T08:01:42.018Z,english_895.wav,0,1,1132,20,3,Chinese,f,2,0.2,-68.50060493,0.78617821
ZH,178,3,2024-06-14T08:01:42.018Z,english_895.wav,0,1,1132,20,3,Chinese,f,3,0.3,-65.34452755,0.53071912
ZH,178,3,2024-06-14T08:01:42.018Z,english_895.wav,0,1,1132,20,3,Chinese,f,4,0.32341667,44.30205494,1.44568828
ZH,179,3,2024-06-14T08:01:42.018Z,english_48.wav,0,0,931,20,3,Chinese,f,0,0,73.79399561,0.74385981
ZH,179,3,2024-06-14T08:01:42.018Z,english_48.wav,0,0,931,20,3,Chinese,f,1,0.1,-6.33056249,1.05457567
ZH,179,3,2024-06-14T08:01:42.018Z,english_48.wav,0,0,931,20,3,Chinese,f,2,0.2,-25.55346814,0.45493163
ZH,179,3,2024-06-14T08:01:42.018Z,english_48.wav,0,0,931,20,3,Chinese,f,3,0.3,46.43305776,0.06513279
ZH,179,3,2024-06-14T08:01:42.018Z,english_48.wav,0,0,931,20,3,Chinese,f,4,0.32341667,-46.56414761,0.46755714
ZH,180,3,2024-06-14T08:01:42.018Z,english_100.wav,0,0,1173,20,3,Chinese,f,0,0,-66.86198445,0.79522553
ZH,180,3,2024-06-14T08:01:42.018Z,english_100.wav,0,0,1173,20,3,Chinese,f,1,0.1,32.23990363,0.27784591
ZH,180,3,2024-06-14T08:01:42.018Z,english_100.wav,0,0,1173,20,3,Chinese,f,2,0.2,-63.31896149,1.76330212
ZH,180,3,2024-06-14T08:01:42.018Z,english_100.wav,0,0,1173,20,3,Chinese,f,3,0.3,-73.00038049,0.60946618
ZH,180,3,2024-06-14T08:01:42.018Z,english_100.wav,0,0,1173,20,3,Chinese,f,4,0.32341667,32.15710315,0.42695433
ZH,181,3,2024-06-14T08:01:42.018Z,english_962.wav,0,1,1759,20,3,Chinese,f,0,0,-55.512918,1.78332996
ZH,181,3,2024-06-14T08:01:42.018Z,english_962.wav,0,1,1759,20,3,Chinese,f,1,0.1,90.34773129,1.25956614
ZH,181,3,2024-06-14T08:01:42.018Z,english_962.wav,0,1,1759,20,3,Chinese,f,2,0.2,-3.10818459,0.72891593
ZH,181,3,2024-06-14T08:01:42.018Z,english_962.wav,0,1,1759,20,3,Chinese,f,3,0.3,50.27619033,1.49954356
ZH,181,3,2024-06-14T08:01:42.018Z,english_962.wav,0,1,1759,20,3,Chinese,f,4,0.32341667,-47.3196173,0.96339983
ZH,182,3,2024-06-14T08:01:42.018Z,english_14.wav,0,0,852,20,3,Chinese,f,0,0,98.00979643,0.92494293
ZH,182,3,2024-06-14T08:01:42.018Z,english_14.wav,0,0,852,20,3,Chinese,f,1,0.1,-39.90204919,0.80403915
ZH,182,3,2024-06-14T08:01:42.018Z,english_14.wav,0,0,852,20,3,Chinese,f,2,0.2,51.0517473,0.29426005
ZH,182,3,2024-06-14T08:01:42.018Z,english_14.wav,0,0,852,20,3,Chinese,f,3,0.3,-8.39716694,0.14957292
ZH,182,3,2024-06-14T08:01:42.018Z,english_14.wav,0,0,852,20,3,Chinese,f,4,0.32341667,82.54419716,0.1717279
ZH,183,3,2024-06-14T08:01:42.018Z,english_148.wav,0,0,580,20,3,Chinese,f,0,0,-15.87588743,0.13468567
ZH,183,3,2024-06-14T08:01:42.018Z,english_148.wav,0,0,580,20,3,Chinese,f,1,0.1,66.05332506,1.11017862
ZH,183,3,2024-06-14T08:01:42.018Z,english_148.wav,0,0,580,20,3,Chinese,f,2,0.2,50.59551539,0.42983488
ZH,183,3,2024-06-14T08:01:42.018Z,english_148.wav,0,0,580,20,3,Chinese,f,3,0.3,-59.45276716,0.2729575
ZH,183,3,2024-06-14T08:01:42.018Z,english_148.wav,0,0,580,20,3,Chinese,f,4,0.32341667,58.4155276,0.65396017
ZH,184,3,2024-06-14T08:01:42.018Z,english_906.wav,0,1,480,20,3,Chinese,f,0,0,-40.48589107,1.22436898
ZH,184,3,2024-06-14T08:01:42.018Z,english_906.wav,0,1,480,20,3,Chinese,f,1,0.1,47.48995475,1.54823641
ZH,184,3,2024-06-14T08:01:42.018Z,english_906.wav,0,1,480,20,3,Chinese,f,2,0.2,-46.73743802,1.02590908
ZH,184,3,2024-06-14T08:01:42.018Z,english_906.wav,0,1,480,20,3,Chinese,f,3,0.3,-97.96557374,1.74877791
ZH,184,3,2024-06-14T08:01:42.018Z,english_906.wav,0,1,480,20,3,Chinese,f,4,0.32341667,18.48293991,0.76585735
ZH,185,3,2024-06-14T08:01:42.018Z,english_225.wav,0,1,887,20,3,Chinese,f,0,0,66.72796839,1.97535322
ZH,185,3,2024-06-14T08:01:42.018Z,english_225.wav,0,1,887,20,3,Chinese,f,1,0.1,3.03768966,1.18784527
ZH,185,3,2024-06-14T08:01:42.018Z,english_225.wav,0,1,887,20,3,Chinese,f,2,0.2,-45.96345052,1.58393351
ZH,185,3,2024-06-14T08:01:42.018Z,english_225.wav,0,1,887,20,3,Chinese,f,3,0.3,-88.14676012,1.17885171
ZH,185,3,2024-06-14T08:01:42.018Z,english_225.wav,0,1,887,20,3,Chinese,f,4,0.32341667,46.76760659,1.387907
ZH,186,3,2024-06-14T08:01:42.018Z,english_218.wav,0,1,646,20,3,Chinese,f,0,0,87.3373499,1.94084006
ZH,186,3,2024-06-14T08:01:42.018Z,english_218.wav,0,1,646,20,3,Chinese,f,1,0.1,-14.87903436,0.13305972
ZH,186,3,2024-06-14T08:01:42.018Z,english_218.wav,0,1,646,20,3,Chinese,f,2,0.2,-31.97943339,1.11441312
ZH,186,3,2024-06-14T08:01:42.018Z,english_218.wav,0,1,646,20,3,Chinese,f,3,0.3,-60.49311609,1.83933377
ZH,186,3,2024-06-14T08:01:42.018Z,english_218.wav,0,1,646,20,3,Chinese,f,4,0.32341667,-63.68242647,1.41053301
ZH,187,3,2024-06-14T08:01:42.018Z,english_536.wav,0,1,1068,20,3,Chinese,f,0,0,19.16157828,1.0914138
ZH,187,3,2024-06-14T08:01:42.018Z,english_536.wav,0,1,1068,20,3,Chinese,f,1,0.1,-70.44875328,1.55996729
ZH,187,3,2024-06-14T08:01:42.018Z,english_536.wav,0,1,1068,20,3,Chinese,f,2,0.2,9.3844651,1.22014226
ZH,187,3,2024-06-14T08:01:42.018Z,english_536.wav,0,1,1068,20,3,Chinese,f,3,0.3,54.79833109,0.24268308
ZH,187,3,2024-06-14T08:01:42.018Z,english_536.wav,0,1,1068,20,3,Chinese,f,4,0.32341667,-43.58683919,1.12643869
ZH,188,3,2024-06-14T08:01:42.018Z,english_607.wav,0,0,1079,20,3,Chinese,f,0,0,46.6865757,1.30575186
ZH,188,3,2024-06-14T08:01:42.018Z,english_607.wav,0,0,1079,20,3,Chinese,f,1,0.1,39.2269946,1.04660061
ZH,188,3,2024-06-14T08:01:42.018Z,english_607.wav,0,0,1079,20,3,Chinese,f,2,0.2,9.54774619,0.88274406
ZH,188,3,2024-06-14T08:01:42.018Z,english_607.wav,0,0,1079,20,3,Chinese,f,3,0.3,16.02187378,1.5824547
ZH,188,3,2024-06-14T08:01:42.018Z,english_607.wav,0,0,1079,20,3,Chinese,f,4,0.32341667,75.62266759,0.67660632
ZH,189,3,2024-06-14T08:01:42.018Z,english_996.wav,0,0,544,20,3,Chinese,f,0,0,-71.70531914,1.36459419
ZH,189,3,2024-06-14T08:01:42.018Z,english_996.wav,0,0,544,20,3,Chinese,f,1,0.1,-47.61419544,0.5051745
ZH,189,3,2024-06-14T08:01:42.018Z,english_996.wav,0,0,544,20,3,Chinese,f,2,0.2,48.0330823,1.09957376
ZH,189,3,2024-06-14T08:01:42.018Z,english_996.wav,0,0,544,20,3,Chinese,f,3,0.3,34.27821317,0.27950682
ZH,189,3,2024-06-14T08:01:42.018Z,english_996.wav,0,0,544,20,3,Chinese,f,4,0.32341667,-72.4662587,0.22836241
ZH,190,3,2024-06-14T08:01:42.018Z,english_691.wav,0,0,755,20,3,Chinese,f,0,0,28.79078449,1.07683297
ZH,190,3,2024-06-14T08:01:42.018Z,english_691.wav,0,0,755,20,3,Chinese,f,1,0.1,99.1184909,1.07376069
ZH,190,3,2024-06-14T08:01:42.018Z,english_691.wav,0,0,755,20,3,Chinese,f,2,0.2,-54.13985733,0.28522735
ZH,190,3,2024-06-14T08:01:42.018Z,english_691.wav,0,0,755,20,3,Chinese,f,3,0.3,-85.36319246,0.85701066
ZH,190,3,2024-06-14T08:01:42.018Z,english_691.wav,0,0,755,20,3,Chinese,f,4,0.32341667,-73.61621094,1.71165398
ZH,191,3,2024-06-14T08:01:42.018Z,english_537.wav,0,0,579,20,3,Chinese,f,0,0,70.8709352,0.55947112
ZH,191,3,2024-06-14T08:01:42.018Z,english_537.wav,0,0,579,20,3,Chinese,f,1,0.1,32.34369018,1.10627241
ZH,191,3,2024-06-14T08:01:42.018Z,english_537.wav,0,0,579,20,3,Chinese,f,2,0.2,-92.9302278,1.10842043
ZH,191,3,2024-06-14T08:01:42.018Z,english_537.wav,0,0,579,20,3,Chinese,f,3,0.3,14.89115364,0.86800797
ZH,191,3,2024-06-14T08:01:42.018Z,english_537.wav,0,0,579,20,3,Chinese,f,4,0.32341667,-67.12260703,1.7659473
ZH,192,3,2024-06-14T08:01:42.018Z,english_236.wav,0,0,720,20,3,Chinese,f,0,0,14.26564849,0.89253674
ZH,192,3,2024-06-14T08:01:42.018Z,english_236.wav,0,0,720,20,3,Chinese,f,1,0.1,60.97219358,0.38957934
ZH,192,3,2024-06-14T08:01:42.018Z,english_236.wav,0,0,720,20,3,Chinese,f,2,0.2,-12.39626346,1.55558051
ZH,192,3,2024-06-14T08:01:42.018Z,english_236.wav,0,0,720,20,3,Chinese,f,3,0.3,-62.87774076,0.2682718
ZH,192,3,2024-06-14T08:01:42.018Z,english_236.wav,0,0,720,20,3,Chinese,f,4,0.32341667,-75.97684705,1.92182597
ZH,193,3,2024-06-14T08:01:42.018Z,english_504.wav,0,1,952,20,3,Chinese,f,0,0,4.11468456,0.75379057
ZH,193,3,2024-06-14T08:01:42.018Z,english_504.wav,0,1,952,20,3,Chinese,f,1,0.1,70.56620437,1.18348717
ZH,193,3,2024-06-14T08:01:42.018Z,english_504.wav,0,1,952,20,3,Chinese,f,2,0.2,3.26767498,0.25360202
ZH,193,3,2024-06-14T08:01:42.018Z,english_504.wav,0,1,952,20,3,Chinese,f,3,0.3,-3.14493553,1.87094491
ZH,193,3,2024-06-14T08:01:42.018Z,english_504.wav,0,1,952,20,3,Chinese,f,4,0.32341667,43.57926014,0.110125
ZH,194,3,2024-06-14T08:01:42.018Z,english_676.wav,0,1,505,20,3,Chinese,f,0,0,3.93099148,1.7716209
