subj,trial,block,date,stim,stim_order,response,rt,age,english,language,sex,param_index,segment,pitch,stretch
QMH,0,0,2024-06-14T15:01:49.875Z,english_598.wav,0,0,3294,20,3,Chinese,f,0,0,4.26365523,0.04069017
QMH,0,0,2024-06-14T15:01:49.875Z,english_598.wav,0,0,3294,20,3,Chinese,f,1,0.1,-29.634957,1.27980102
QMH,0,0,2024-06-14T15:01:49.875Z,english_598.wav,0,0,3294,20,3,Chinese,f,2,0.2,-17.49120793,0.98781586
QMH,0,0,2024-06-14T15:01:49.875Z,english_598.wav,0,0,3294,20,3,Chinese,f,3,0.3,-34.93876912,1.55939702
QMH,0,0,2024-06-14T15:01:49.875Z,english_598.wav,0,0,3294,20,3,Chinese,f,4,0.32341667,49.49845506,1.74128412
QMH,1,0,2024-06-14T15:01:49.875Z,english_665.wav,0,1,3994,20,3,Chinese,f,0,0,-25.08423312,1.80265724
QMH,1,0,2024-06-14T15:01:49.875Z,english_665.wav,0,1,3994,20,3,Chinese,f,1,0.1,-88.66042782,0.10063576
QMH,1,0,2024-06-14T15:01:49.875Z,english_665.wav,0,1,3994,20,3,Chinese,f,2,0.2,-73.67467666,0.92910111
QMH,1,0,2024-06-14T15:01:49.875Z,english_665.wav,0,1,3994,20,3,Chinese,f,3,0.3,66.53606028,0.83814709
QMH,1,0,2024-06-14T15:01:49.875Z,english_665.wav,0,1,3994,20,3,Chinese,f,4,0.32341667,-75.03630793,0.77033789
QMH,2,0,2024-06-14T15:01:49.875Z,english_400.wav,0,0,4550,20,3,Chinese,f,0,0,-9.17924521,1.06898792
QMH,2,0,2024-06-14T15:01:49.875Z,english_400.wav,0,0,4550,20,3,Chinese,f,1,0.1,-51.0410118,0.05890524
QMH,2,0,2024-06-14T15:01:49.875Z,english_400.wav,0,0,4550,20,3,Chinese,f,2,0.2,66.2548805,1.54728483
QMH,2,0,2024-06-14T15:01:49.875Z,english_400.wav,0,0,4550,20,3,Chinese,f,3,0.3,92.33374018,1.43953162
QMH,2,0,2024-06-14T15:01:49.875Z,english_400.wav,0,0,4550,20,3,Chinese,f,4,0.32341667,-60.80730989,1.12546459
QMH,3,0,2024-06-14T15:01:49.875Z,english_358.wav,0,1,3538,20,3,Chinese,f,0,0,-24.40280242,0.64702298
QMH,3,0,2024-06-14T15:01:49.875Z,english_358.wav,0,1,3538,20,3,Chinese,f,1,0.1,62.18566088,0.86836285
QMH,3,0,2024-06-14T15:01:49.875Z,english_358.wav,0,1,3538,20,3,Chinese,f,2,0.2,5.26675109,1.05826104
QMH,3,0,2024-06-14T15:01:49.875Z,english_358.wav,0,1,3538,20,3,Chinese,f,3,0.3,-31.91571391,1.98011631
QMH,3,0,2024-06-14T15:01:49.875Z,english_358.wav,0,1,3538,20,3,Chinese,f,4,0.32341667,27.35112364,0.35058307
QMH,4,0,2024-06-14T15:01:49.875Z,english_959.wav,0,1,2328,20,3,Chinese,f,0,0,-78.42285057,1.71892855
QMH,4,0,2024-06-14T15:01:49.875Z,english_959.wav,0,1,2328,20,3,Chinese,f,1,0.1,6.44734251,1.96402951
QMH,4,0,2024-06-14T15:01:49.875Z,english_959.wav,0,1,2328,20,3,Chinese,f,2,0.2,20.74966326,0.26247596
QMH,4,0,2024-06-14T15:01:49.875Z,english_959.wav,0,1,2328,20,3,Chinese,f,3,0.3,-29.69680039,1.29464598
QMH,4,0,2024-06-14T15:01:49.875Z,english_959.wav,0,1,2328,20,3,Chinese,f,4,0.32341667,34.2282551,1.77868038
QMH,5,0,2024-06-14T15:01:49.875Z,english_874.wav,0,1,728,20,3,Chinese,f,0,0,32.94582558,0.77720789
QMH,5,0,2024-06-14T15:01:49.875Z,english_874.wav,0,1,728,20,3,Chinese,f,1,0.1,73.76521909,1.44852608
QMH,5,0,2024-06-14T15:01:49.875Z,english_874.wav,0,1,728,20,3,Chinese,f,2,0.2,-83.94992572,1.18086928
QMH,5,0,2024-06-14T15:01:49.875Z,english_874.wav,0,1,728,20,3,Chinese,f,3,0.3,-61.86791133,0.75042975
QMH,5,0,2024-06-14T15:01:49.875Z,english_874.wav,0,1,728,20,3,Chinese,f,4,0.32341667,-94.71312943,1.11461748
QMH,6,0,2024-06-14T15:01:49.875Z,english_576.wav,0,0,1269,20,3,Chinese,f,0,0,70.71636046,1.40655209
QMH,6,0,2024-06-14T15:01:49.875Z,english_576.wav,0,0,1269,20,3,Chinese,f,1,0.1,-53.10414049,0.7609351
QMH,6,0,2024-06-14T15:01:49.875Z,english_576.wav,0,0,1269,20,3,Chinese,f,2,0.2,34.4374047,1.0155723
QMH,6,0,2024-06-14T15:01:49.875Z,english_576.wav,0,0,1269,20,3,Chinese,f,3,0.3,19.64113521,1.45906276
QMH,6,0,2024-06-14T15:01:49.875Z,english_576.wav,0,0,1269,20,3,Chinese,f,4,0.32341667,36.63265498,1.49724695
QMH,7,0,2024-06-14T15:01:49.875Z,english_486.wav,0,0,2352,20,3,Chinese,f,0,0,31.41997184,1.22599644
QMH,7,0,2024-06-14T15:01:49.875Z,english_486.wav,0,0,2352,20,3,Chinese,f,1,0.1,58.03480486,1.4547445
QMH,7,0,2024-06-14T15:01:49.875Z,english_486.wav,0,0,2352,20,3,Chinese,f,2,0.2,-62.84801238,0.27967606
QMH,7,0,2024-06-14T15:01:49.875Z,english_486.wav,0,0,2352,20,3,Chinese,f,3,0.3,10.62451678,0.02065399
QMH,7,0,2024-06-14T15:01:49.875Z,english_486.wav,0,0,2352,20,3,Chinese,f,4,0.32341667,10.31835057,0.3128479
QMH,8,0,2024-06-14T15:01:49.875Z,english_956.wav,0,0,5591,20,3,Chinese,f,0,0,-98.71257913,1.5828524
QMH,8,0,2024-06-14T15:01:49.875Z,english_956.wav,0,0,5591,20,3,Chinese,f,1,0.1,-36.05702295,0.66985857
QMH,8,0,2024-06-14T15:01:49.875Z,english_956.wav,0,0,5591,20,3,Chinese,f,2,0.2,-31.95582623,0.13798036
QMH,8,0,2024-06-14T15:01:49.875Z,english_956.wav,0,0,5591,20,3,Chinese,f,3,0.3,-81.31295359,0.22663358
QMH,8,0,2024-06-14T15:01:49.875Z,english_956.wav,0,0,5591,20,3,Chinese,f,4,0.32341667,45.09425789,0.54862974
QMH,9,0,2024-06-14T15:01:49.875Z,english_507.wav,0,1,1339,20,3,Chinese,f,0,0,-61.1842488,1.97653192
QMH,9,0,2024-06-14T15:01:49.875Z,english_507.wav,0,1,1339,20,3,Chinese,f,1,0.1,-67.40048172,1.52355847
QMH,9,0,2024-06-14T15:01:49.875Z,english_507.wav,0,1,1339,20,3,Chinese,f,2,0.2,12.41471853,0.98006415
QMH,9,0,2024-06-14T15:01:49.875Z,english_507.wav,0,1,1339,20,3,Chinese,f,3,0.3,-23.82579329,0.44372312
QMH,9,0,2024-06-14T15:01:49.875Z,english_507.wav,0,1,1339,20,3,Chinese,f,4,0.32341667,9.53005369,0.65281453
QMH,10,0,2024-06-14T15:01:49.875Z,english_678.wav,0,0,606,20,3,Chinese,f,0,0,87.86222938,1.6760541
QMH,10,0,2024-06-14T15:01:49.875Z,english_678.wav,0,0,606,20,3,Chinese,f,1,0.1,-47.14792626,0.22369522
QMH,10,0,2024-06-14T15:01:49.875Z,english_678.wav,0,0,606,20,3,Chinese,f,2,0.2,-6.84659798,1.1260271
QMH,10,0,2024-06-14T15:01:49.875Z,english_678.wav,0,0,606,20,3,Chinese,f,3,0.3,87.67045201,1.53941447
QMH,10,0,2024-06-14T15:01:49.875Z,english_678.wav,0,0,606,20,3,Chinese,f,4,0.32341667,-51.71213936,1.37136581
QMH,11,0,2024-06-14T15:01:49.875Z,english_779.wav,0,1,984,20,3,Chinese,f,0,0,-66.48303018,1.22216448
QMH,11,0,2024-06-14T15:01:49.875Z,english_779.wav,0,1,984,20,3,Chinese,f,1,0.1,55.33592885,1.30288261
QMH,11,0,2024-06-14T15:01:49.875Z,english_779.wav,0,1,984,20,3,Chinese,f,2,0.2,67.38671669,0.25409759
QMH,11,0,2024-06-14T15:01:49.875Z,english_779.wav,0,1,984,20,3,Chinese,f,3,0.3,65.49052189,1.76174581
QMH,11,0,2024-06-14T15:01:49.875Z,english_779.wav,0,1,984,20,3,Chinese,f,4,0.32341667,-12.12955258,0.12280057
QMH,12,0,2024-06-14T15:01:49.875Z,english_892.wav,0,0,1401,20,3,Chinese,f,0,0,38.63128374,0.97893944
QMH,12,0,2024-06-14T15:01:49.875Z,english_892.wav,0,0,1401,20,3,Chinese,f,1,0.1,22.49899687,0.66551001
QMH,12,0,2024-06-14T15:01:49.875Z,english_892.wav,0,0,1401,20,3,Chinese,f,2,0.2,28.84135264,0.36795179
QMH,12,0,2024-06-14T15:01:49.875Z,english_892.wav,0,0,1401,20,3,Chinese,f,3,0.3,81.19740532,1.0840826
QMH,12,0,2024-06-14T15:01:49.875Z,english_892.wav,0,0,1401,20,3,Chinese,f,4,0.32341667,22.37782167,0.83637256
QMH,13,0,2024-06-14T15:01:49.875Z,english_430.wav,0,0,838,20,3,Chinese,f,0,0,72.23510535,0.8682214
QMH,13,0,2024-06-14T15:01:49.875Z,english_430.wav,0,0,838,20,3,Chinese,f,1,0.1,-9.56156918,0.26781202
QMH,13,0,2024-06-14T15:01:49.875Z,english_430.wav,0,0,838,20,3,Chinese,f,2,0.2,36.71559936,1.38873793
QMH,13,0,2024-06-14T15:01:49.875Z,english_430.wav,0,0,838,20,3,Chinese,f,3,0.3,-33.55254317,0.29076709
QMH,13,0,2024-06-14T15:01:49.875Z,english_430.wav,0,0,838,20,3,Chinese,f,4,0.32341667,-25.71861109,0.30869259
QMH,14,0,2024-06-14T15:01:49.875Z,english_412.wav,0,0,1089,20,3,Chinese,f,0,0,-82.38375592,0.41347899
QMH,14,0,2024-06-14T15:01:49.875Z,english_412.wav,0,0,1089,20,3,Chinese,f,1,0.1,-35.89348303,0.05505218
QMH,14,0,2024-06-14T15:01:49.875Z,english_412.wav,0,0,1089,20,3,Chinese,f,2,0.2,-78.50422887,1.28972039
QMH,14,0,2024-06-14T15:01:49.875Z,english_412.wav,0,0,1089,20,3,Chinese,f,3,0.3,8.19618882,0.97331843
QMH,14,0,2024-06-14T15:01:49.875Z,english_412.wav,0,0,1089,20,3,Chinese,f,4,0.32341667,88.30694734,0.22558246
QMH,15,0,2024-06-14T15:01:49.875Z,english_895.wav,0,0,2880,20,3,Chinese,f,0,0,-36.05432491,1.57991636
QMH,15,0,2024-06-14T15:01:49.875Z,english_895.wav,0,0,2880,20,3,Chinese,f,1,0.1,0.27991529,1.29141926
QMH,15,0,2024-06-14T15:01:49.875Z,english_895.wav,0,0,2880,20,3,Chinese,f,2,0.2,-68.50060493,0.78617821
QMH,15,0,2024-06-14T15:01:49.875Z,english_895.wav,0,0,2880,20,3,Chinese,f,3,0.3,-65.34452755,0.53071912
QMH,15,0,2024-06-14T15:01:49.875Z,english_895.wav,0,0,2880,20,3,Chinese,f,4,0.32341667,44.30205494,1.44568828
QMH,16,0,2024-06-14T15:01:49.875Z,english_301.wav,0,1,993,20,3,Chinese,f,0,0,-78.18927369,1.31935747
QMH,16,0,2024-06-14T15:01:49.875Z,english_301.wav,0,1,993,20,3,Chinese,f,1,0.1,-3.52439177,1.41636911
QMH,16,0,2024-06-14T15:01:49.875Z,english_301.wav,0,1,993,20,3,Chinese,f,2,0.2,-23.22473782,1.38842862
QMH,16,0,2024-06-14T15:01:49.875Z,english_301.wav,0,1,993,20,3,Chinese,f,3,0.3,-11.7220967,1.25169603
QMH,16,0,2024-06-14T15:01:49.875Z,english_301.wav,0,1,993,20,3,Chinese,f,4,0.32341667,-5.78047748,1.38740104
QMH,17,0,2024-06-14T15:01:49.875Z,english_389.wav,0,1,611,20,3,Chinese,f,0,0,36.16487693,1.25286497
QMH,17,0,2024-06-14T15:01:49.875Z,english_389.wav,0,1,611,20,3,Chinese,f,1,0.1,-97.36259769,1.31396789
QMH,17,0,2024-06-14T15:01:49.875Z,english_389.wav,0,1,611,20,3,Chinese,f,2,0.2,24.50411951,1.84060757
QMH,17,0,2024-06-14T15:01:49.875Z,english_389.wav,0,1,611,20,3,Chinese,f,3,0.3,43.1395046,0.64046023
QMH,17,0,2024-06-14T15:01:49.875Z,english_389.wav,0,1,611,20,3,Chinese,f,4,0.32341667,85.14605982,1.47992762
QMH,18,0,2024-06-14T15:01:49.875Z,english_251.wav,0,1,567,20,3,Chinese,f,0,0,-35.26640223,1.59441442
QMH,18,0,2024-06-14T15:01:49.875Z,english_251.wav,0,1,567,20,3,Chinese,f,1,0.1,-82.14936791,1.21410308
QMH,18,0,2024-06-14T15:01:49.875Z,english_251.wav,0,1,567,20,3,Chinese,f,2,0.2,39.53587687,0.89125894
QMH,18,0,2024-06-14T15:01:49.875Z,english_251.wav,0,1,567,20,3,Chinese,f,3,0.3,-75.44024907,0.14763688
QMH,18,0,2024-06-14T15:01:49.875Z,english_251.wav,0,1,567,20,3,Chinese,f,4,0.32341667,26.94148116,1.71797298
QMH,19,0,2024-06-14T15:01:49.875Z,english_157.wav,0,1,405,20,3,Chinese,f,0,0,-74.01864956,1.10168906
QMH,19,0,2024-06-14T15:01:49.875Z,english_157.wav,0,1,405,20,3,Chinese,f,1,0.1,1.44529667,1.71225259
QMH,19,0,2024-06-14T15:01:49.875Z,english_157.wav,0,1,405,20,3,Chinese,f,2,0.2,-42.76251303,1.71884561
QMH,19,0,2024-06-14T15:01:49.875Z,english_157.wav,0,1,405,20,3,Chinese,f,3,0.3,-49.01483239,1.47822148
QMH,19,0,2024-06-14T15:01:49.875Z,english_157.wav,0,1,405,20,3,Chinese,f,4,0.32341667,-96.85595697,1.36273156
QMH,20,0,2024-06-14T15:01:49.875Z,english_503.wav,0,1,1125,20,3,Chinese,f,0,0,-62.81458057,1.15988152
QMH,20,0,2024-06-14T15:01:49.875Z,english_503.wav,0,1,1125,20,3,Chinese,f,1,0.1,17.97702429,0.58853345
QMH,20,0,2024-06-14T15:01:49.875Z,english_503.wav,0,1,1125,20,3,Chinese,f,2,0.2,-8.2980926,1.29983279
QMH,20,0,2024-06-14T15:01:49.875Z,english_503.wav,0,1,1125,20,3,Chinese,f,3,0.3,-62.4217389,1.42406205
QMH,20,0,2024-06-14T15:01:49.875Z,english_503.wav,0,1,1125,20,3,Chinese,f,4,0.32341667,18.11027086,0.84018378
QMH,21,0,2024-06-14T15:01:49.875Z,english_191.wav,0,0,909,20,3,Chinese,f,0,0,5.22709543,0.24693927
QMH,21,0,2024-06-14T15:01:49.875Z,english_191.wav,0,0,909,20,3,Chinese,f,1,0.1,-51.29785688,1.61528443
QMH,21,0,2024-06-14T15:01:49.875Z,english_191.wav,0,0,909,20,3,Chinese,f,2,0.2,14.39503603,0.10158113
QMH,21,0,2024-06-14T15:01:49.875Z,english_191.wav,0,0,909,20,3,Chinese,f,3,0.3,60.50312404,1.02883866
QMH,21,0,2024-06-14T15:01:49.875Z,english_191.wav,0,0,909,20,3,Chinese,f,4,0.32341667,68.15927452,0.69870432
QMH,22,0,2024-06-14T15:01:49.875Z,english_207.wav,0,1,4293,20,3,Chinese,f,0,0,-64.55688296,1.06406661
QMH,22,0,2024-06-14T15:01:49.875Z,english_207.wav,0,1,4293,20,3,Chinese,f,1,0.1,98.33987034,1.58122859
QMH,22,0,2024-06-14T15:01:49.875Z,english_207.wav,0,1,4293,20,3,Chinese,f,2,0.2,-40.48281934,1.31381917
QMH,22,0,2024-06-14T15:01:49.875Z,english_207.wav,0,1,4293,20,3,Chinese,f,3,0.3,-36.48143513,0.83233835
QMH,22,0,2024-06-14T15:01:49.875Z,english_207.wav,0,1,4293,20,3,Chinese,f,4,0.32341667,-87.11188062,0.12663517
QMH,23,0,2024-06-14T15:01:49.875Z,english_345.wav,0,1,865,20,3,Chinese,f,0,0,-46.00579497,1.58751342
QMH,23,0,2024-06-14T15:01:49.875Z,english_345.wav,0,1,865,20,3,Chinese,f,1,0.1,-45.5805492,1.0202646
QMH,23,0,2024-06-14T15:01:49.875Z,english_345.wav,0,1,865,20,3,Chinese,f,2,0.2,-14.04378539,0.61561299
QMH,23,0,2024-06-14T15:01:49.875Z,english_345.wav,0,1,865,20,3,Chinese,f,3,0.3,63.72413351,1.21547564
QMH,23,0,2024-06-14T15:01:49.875Z,english_345.wav,0,1,865,20,3,Chinese,f,4,0.32341667,18.03717792,1.47127253
QMH,24,0,2024-06-14T15:01:49.875Z,english_407.wav,0,0,470,20,3,Chinese,f,0,0,-13.68776922,0.77658743
QMH,24,0,2024-06-14T15:01:49.875Z,english_407.wav,0,0,470,20,3,Chinese,f,1,0.1,-57.11899702,1.53398674
QMH,24,0,2024-06-14T15:01:49.875Z,english_407.wav,0,0,470,20,3,Chinese,f,2,0.2,62.94325807,0.70379875
QMH,24,0,2024-06-14T15:01:49.875Z,english_407.wav,0,0,470,20,3,Chinese,f,3,0.3,-27.77030003,0.72470084
QMH,24,0,2024-06-14T15:01:49.875Z,english_407.wav,0,0,470,20,3,Chinese,f,4,0.32341667,-61.90605897,0.771678
QMH,25,0,2024-06-14T15:01:49.875Z,english_88.wav,0,0,955,20,3,Chinese,f,0,0,26.55889683,1.3027014
QMH,25,0,2024-06-14T15:01:49.875Z,english_88.wav,0,0,955,20,3,Chinese,f,1,0.1,31.00356365,0.67122251
QMH,25,0,2024-06-14T15:01:49.875Z,english_88.wav,0,0,955,20,3,Chinese,f,2,0.2,-60.56468942,0.59704477
QMH,25,0,2024-06-14T15:01:49.875Z,english_88.wav,0,0,955,20,3,Chinese,f,3,0.3,-56.53017227,1.68194373
QMH,25,0,2024-06-14T15:01:49.875Z,english_88.wav,0,0,955,20,3,Chinese,f,4,0.32341667,-78.90279024,0.42277005
QMH,26,0,2024-06-14T15:01:49.875Z,english_739.wav,0,0,357,20,3,Chinese,f,0,0,-30.44662447,1.4086692
QMH,26,0,2024-06-14T15:01:49.875Z,english_739.wav,0,0,357,20,3,Chinese,f,1,0.1,-27.69908881,0.95518545
QMH,26,0,2024-06-14T15:01:49.875Z,english_739.wav,0,0,357,20,3,Chinese,f,2,0.2,25.08576745,1.0815723
QMH,26,0,2024-06-14T15:01:49.875Z,english_739.wav,0,0,357,20,3,Chinese,f,3,0.3,-20.92476775,0.08724184
QMH,26,0,2024-06-14T15:01:49.875Z,english_739.wav,0,0,357,20,3,Chinese,f,4,0.32341667,-46.92266257,1.12979104
QMH,27,0,2024-06-14T15:01:49.875Z,english_857.wav,0,0,472,20,3,Chinese,f,0,0,-33.07031843,1.04325491
QMH,27,0,2024-06-14T15:01:49.875Z,english_857.wav,0,0,472,20,3,Chinese,f,1,0.1,12.9349985,0.44078978
QMH,27,0,2024-06-14T15:01:49.875Z,english_857.wav,0,0,472,20,3,Chinese,f,2,0.2,4.33682254,1.36028147
QMH,27,0,2024-06-14T15:01:49.875Z,english_857.wav,0,0,472,20,3,Chinese,f,3,0.3,90.68056828,1.16905302
QMH,27,0,2024-06-14T15:01:49.875Z,english_857.wav,0,0,472,20,3,Chinese,f,4,0.32341667,37.69781409,1.24618942
QMH,28,0,2024-06-14T15:01:49.875Z,english_187.wav,0,1,950,20,3,Chinese,f,0,0,-18.35695568,0.61755768
QMH,28,0,2024-06-14T15:01:49.875Z,english_187.wav,0,1,950,20,3,Chinese,f,1,0.1,10.21632188,1.6626445
QMH,28,0,2024-06-14T15:01:49.875Z,english_187.wav,0,1,950,20,3,Chinese,f,2,0.2,0.69047377,0.70950015
QMH,28,0,2024-06-14T15:01:49.875Z,english_187.wav,0,1,950,20,3,Chinese,f,3,0.3,67.68385624,0.8856252
QMH,28,0,2024-06-14T15:01:49.875Z,english_187.wav,0,1,950,20,3,Chinese,f,4,0.32341667,48.15291114,1.92627472
QMH,29,0,2024-06-14T15:01:49.875Z,english_379.wav,0,1,452,20,3,Chinese,f,0,0,30.14616912,1.43961489
QMH,29,0,2024-06-14T15:01:49.875Z,english_379.wav,0,1,452,20,3,Chinese,f,1,0.1,-79.51193423,1.4219763
QMH,29,0,2024-06-14T15:01:49.875Z,english_379.wav,0,1,452,20,3,Chinese,f,2,0.2,7.34860539,0.62633101
QMH,29,0,2024-06-14T15:01:49.875Z,english_379.wav,0,1,452,20,3,Chinese,f,3,0.3,-43.99342265,1.13621958
QMH,29,0,2024-06-14T15:01:49.875Z,english_379.wav,0,1,452,20,3,Chinese,f,4,0.32341667,37.72881761,1.35387794
QMH,30,0,2024-06-14T15:01:49.875Z,english_986.wav,0,1,1310,20,3,Chinese,f,0,0,36.93997263,1.7539978
QMH,30,0,2024-06-14T15:01:49.875Z,english_986.wav,0,1,1310,20,3,Chinese,f,1,0.1,-76.80061303,1.40735445
QMH,30,0,2024-06-14T15:01:49.875Z,english_986.wav,0,1,1310,20,3,Chinese,f,2,0.2,60.8418497,0.62226098
QMH,30,0,2024-06-14T15:01:49.875Z,english_986.wav,0,1,1310,20,3,Chinese,f,3,0.3,-27.90828951,0.48175931
QMH,30,0,2024-06-14T15:01:49.875Z,english_986.wav,0,1,1310,20,3,Chinese,f,4,0.32341667,99.51838141,1.5918282
QMH,31,0,2024-06-14T15:01:49.875Z,english_520.wav,0,1,1747,20,3,Chinese,f,0,0,86.3711843,1.94117834
QMH,31,0,2024-06-14T15:01:49.875Z,english_520.wav,0,1,1747,20,3,Chinese,f,1,0.1,30.73905166,1.71866566
QMH,31,0,2024-06-14T15:01:49.875Z,english_520.wav,0,1,1747,20,3,Chinese,f,2,0.2,6.06230503,1.15295637
QMH,31,0,2024-06-14T15:01:49.875Z,english_520.wav,0,1,1747,20,3,Chinese,f,3,0.3,-72.93527416,0.80072648
QMH,31,0,2024-06-14T15:01:49.875Z,english_520.wav,0,1,1747,20,3,Chinese,f,4,0.32341667,40.17700679,1.71054199
QMH,32,0,2024-06-14T15:01:49.875Z,english_646.wav,0,1,360,20,3,Chinese,f,0,0,65.65927644,1.85038449
QMH,32,0,2024-06-14T15:01:49.875Z,english_646.wav,0,1,360,20,3,Chinese,f,1,0.1,-31.23211399,1.10748568
QMH,32,0,2024-06-14T15:01:49.875Z,english_646.wav,0,1,360,20,3,Chinese,f,2,0.2,62.59110385,1.14052106
QMH,32,0,2024-06-14T15:01:49.875Z,english_646.wav,0,1,360,20,3,Chinese,f,3,0.3,-86.43369357,1.38971404
QMH,32,0,2024-06-14T15:01:49.875Z,english_646.wav,0,1,360,20,3,Chinese,f,4,0.32341667,41.84315348,0.49971738
QMH,33,0,2024-06-14T15:01:49.875Z,english_571.wav,0,0,1155,20,3,Chinese,f,0,0,-42.92588422,0.65590276
QMH,33,0,2024-06-14T15:01:49.875Z,english_571.wav,0,0,1155,20,3,Chinese,f,1,0.1,-87.39276897,1.8306878
QMH,33,0,2024-06-14T15:01:49.875Z,english_571.wav,0,0,1155,20,3,Chinese,f,2,0.2,19.06282168,0.06889765
QMH,33,0,2024-06-14T15:01:49.875Z,english_571.wav,0,0,1155,20,3,Chinese,f,3,0.3,-99.30459792,0.29364209
QMH,33,0,2024-06-14T15:01:49.875Z,english_571.wav,0,0,1155,20,3,Chinese,f,4,0.32341667,41.25263337,1.388798
QMH,34,0,2024-06-14T15:01:49.875Z,english_144.wav,0,0,801,20,3,Chinese,f,0,0,-68.95587174,0.23806678
QMH,34,0,2024-06-14T15:01:49.875Z,english_144.wav,0,0,801,20,3,Chinese,f,1,0.1,-74.16141139,0.77020267
QMH,34,0,2024-06-14T15:01:49.875Z,english_144.wav,0,0,801,20,3,Chinese,f,2,0.2,-19.31034794,0.33858197
QMH,34,0,2024-06-14T15:01:49.875Z,english_144.wav,0,0,801,20,3,Chinese,f,3,0.3,-77.96768175,1.42512122
QMH,34,0,2024-06-14T15:01:49.875Z,english_144.wav,0,0,801,20,3,Chinese,f,4,0.32341667,3.46911061,0.57629619
QMH,35,0,2024-06-14T15:01:49.875Z,english_666.wav,0,0,372,20,3,Chinese,f,0,0,-6.63307831,0.44221414
QMH,35,0,2024-06-14T15:01:49.875Z,english_666.wav,0,0,372,20,3,Chinese,f,1,0.1,-47.66524373,1.62559692
QMH,35,0,2024-06-14T15:01:49.875Z,english_666.wav,0,0,372,20,3,Chinese,f,2,0.2,66.93817534,0.27313334
QMH,35,0,2024-06-14T15:01:49.875Z,english_666.wav,0,0,372,20,3,Chinese,f,3,0.3,-1.338646,0.46846925
QMH,35,0,2024-06-14T15:01:49.875Z,english_666.wav,0,0,372,20,3,Chinese,f,4,0.32341667,-14.31927765,1.08883823
QMH,36,0,2024-06-14T15:01:49.875Z,english_532.wav,0,0,598,20,3,Chinese,f,0,0,-19.59321792,1.69826346
QMH,36,0,2024-06-14T15:01:49.875Z,english_532.wav,0,0,598,20,3,Chinese,f,1,0.1,84.44945775,1.19849103
QMH,36,0,2024-06-14T15:01:49.875Z,english_532.wav,0,0,598,20,3,Chinese,f,2,0.2,-5.6477907,0.05164805
QMH,36,0,2024-06-14T15:01:49.875Z,english_532.wav,0,0,598,20,3,Chinese,f,3,0.3,-66.11375502,0.74129516
QMH,36,0,2024-06-14T15:01:49.875Z,english_532.wav,0,0,598,20,3,Chinese,f,4,0.32341667,-46.16722618,0.11393119
QMH,37,0,2024-06-14T15:01:49.875Z,english_446.wav,0,0,336,20,3,Chinese,f,0,0,-50.90487531,0.84721497
QMH,37,0,2024-06-14T15:01:49.875Z,english_446.wav,0,0,336,20,3,Chinese,f,1,0.1,77.9515464,0.90863808
QMH,37,0,2024-06-14T15:01:49.875Z,english_446.wav,0,0,336,20,3,Chinese,f,2,0.2,12.96913102,0.45582271
QMH,37,0,2024-06-14T15:01:49.875Z,english_446.wav,0,0,336,20,3,Chinese,f,3,0.3,31.20275809,0.65529325
QMH,37,0,2024-06-14T15:01:49.875Z,english_446.wav,0,0,336,20,3,Chinese,f,4,0.32341667,-30.39700356,0.08422993
QMH,38,0,2024-06-14T15:01:49.875Z,english_28.wav,0,0,787,20,3,Chinese,f,0,0,46.68805065,0.37315412
QMH,38,0,2024-06-14T15:01:49.875Z,english_28.wav,0,0,787,20,3,Chinese,f,1,0.1,-19.91180265,0.08560602
QMH,38,0,2024-06-14T15:01:49.875Z,english_28.wav,0,0,787,20,3,Chinese,f,2,0.2,30.74929008,0.67724734
QMH,38,0,2024-06-14T15:01:49.875Z,english_28.wav,0,0,787,20,3,Chinese,f,3,0.3,14.01537548,0.53332652
QMH,38,0,2024-06-14T15:01:49.875Z,english_28.wav,0,0,787,20,3,Chinese,f,4,0.32341667,-32.95915121,1.33480721
QMH,39,0,2024-06-14T15:01:49.875Z,english_987.wav,0,1,820,20,3,Chinese,f,0,0,91.33137772,1.82656395
QMH,39,0,2024-06-14T15:01:49.875Z,english_987.wav,0,1,820,20,3,Chinese,f,1,0.1,-39.20299527,1.12122948
QMH,39,0,2024-06-14T15:01:49.875Z,english_987.wav,0,1,820,20,3,Chinese,f,2,0.2,78.9852337,1.12025045
QMH,39,0,2024-06-14T15:01:49.875Z,english_987.wav,0,1,820,20,3,Chinese,f,3,0.3,-94.66209845,1.02557261
QMH,39,0,2024-06-14T15:01:49.875Z,english_987.wav,0,1,820,20,3,Chinese,f,4,0.32341667,-71.76730894,1.06580695
QMH,40,0,2024-06-14T15:01:49.875Z,english_406.wav,0,0,15526,20,3,Chinese,f,0,0,28.09923375,1.43312072
QMH,40,0,2024-06-14T15:01:49.875Z,english_406.wav,0,0,15526,20,3,Chinese,f,1,0.1,-15.10813675,0.8890381
QMH,40,0,2024-06-14T15:01:49.875Z,english_406.wav,0,0,15526,20,3,Chinese,f,2,0.2,-12.43931725,0.60560557
QMH,40,0,2024-06-14T15:01:49.875Z,english_406.wav,0,0,15526,20,3,Chinese,f,3,0.3,-27.33468297,1.13565345
QMH,40,0,2024-06-14T15:01:49.875Z,english_406.wav,0,0,15526,20,3,Chinese,f,4,0.32341667,-62.66931892,1.8467177
QMH,41,0,2024-06-14T15:01:49.875Z,english_736.wav,0,1,890,20,3,Chinese,f,0,0,44.94907169,1.40223879
QMH,41,0,2024-06-14T15:01:49.875Z,english_736.wav,0,1,890,20,3,Chinese,f,1,0.1,-89.05982676,1.76358699
QMH,41,0,2024-06-14T15:01:49.875Z,english_736.wav,0,1,890,20,3,Chinese,f,2,0.2,27.88925208,0.99111008
QMH,41,0,2024-06-14T15:01:49.875Z,english_736.wav,0,1,890,20,3,Chinese,f,3,0.3,77.01163693,1.90426439
QMH,41,0,2024-06-14T15:01:49.875Z,english_736.wav,0,1,890,20,3,Chinese,f,4,0.32341667,-28.23601136,1.97036362
QMH,42,0,2024-06-14T15:01:49.875Z,english_474.wav,0,1,726,20,3,Chinese,f,0,0,42.88606971,0.87351765
QMH,42,0,2024-06-14T15:01:49.875Z,english_474.wav,0,1,726,20,3,Chinese,f,1,0.1,6.82691085,1.08551449
QMH,42,0,2024-06-14T15:01:49.875Z,english_474.wav,0,1,726,20,3,Chinese,f,2,0.2,-33.80031927,1.99847166
QMH,42,0,2024-06-14T15:01:49.875Z,english_474.wav,0,1,726,20,3,Chinese,f,3,0.3,-97.18672796,0.27470298
QMH,42,0,2024-06-14T15:01:49.875Z,english_474.wav,0,1,726,20,3,Chinese,f,4,0.32341667,-4.7462475,0.02962094
QMH,43,0,2024-06-14T15:01:49.875Z,english_533.wav,0,1,1807,20,3,Chinese,f,0,0,-10.36570298,0.10013008
QMH,43,0,2024-06-14T15:01:49.875Z,english_533.wav,0,1,1807,20,3,Chinese,f,1,0.1,-67.04420928,1.73583104
QMH,43,0,2024-06-14T15:01:49.875Z,english_533.wav,0,1,1807,20,3,Chinese,f,2,0.2,-31.24691396,1.00550506
QMH,43,0,2024-06-14T15:01:49.875Z,english_533.wav,0,1,1807,20,3,Chinese,f,3,0.3,-22.73912087,1.21009828
QMH,43,0,2024-06-14T15:01:49.875Z,english_533.wav,0,1,1807,20,3,Chinese,f,4,0.32341667,-4.63915005,1.69946188
QMH,44,0,2024-06-14T15:01:49.875Z,english_15.wav,0,0,780,20,3,Chinese,f,0,0,-84.2209614,0.31323186
QMH,44,0,2024-06-14T15:01:49.875Z,english_15.wav,0,0,780,20,3,Chinese,f,1,0.1,62.09656714,0.60538609
QMH,44,0,2024-06-14T15:01:49.875Z,english_15.wav,0,0,780,20,3,Chinese,f,2,0.2,55.13992629,0.21165259
QMH,44,0,2024-06-14T15:01:49.875Z,english_15.wav,0,0,780,20,3,Chinese,f,3,0.3,-55.71077558,0.62501131
QMH,44,0,2024-06-14T15:01:49.875Z,english_15.wav,0,0,780,20,3,Chinese,f,4,0.32341667,77.6678018,0.97290752
QMH,45,0,2024-06-14T15:01:49.875Z,english_884.wav,0,1,491,20,3,Chinese,f,0,0,77.1498115,1.83268558
QMH,45,0,2024-06-14T15:01:49.875Z,english_884.wav,0,1,491,20,3,Chinese,f,1,0.1,10.32602389,0.76817862
QMH,45,0,2024-06-14T15:01:49.875Z,english_884.wav,0,1,491,20,3,Chinese,f,2,0.2,4.15464736,1.59331573
QMH,45,0,2024-06-14T15:01:49.875Z,english_884.wav,0,1,491,20,3,Chinese,f,3,0.3,21.19252889,0.58913169
QMH,45,0,2024-06-14T15:01:49.875Z,english_884.wav,0,1,491,20,3,Chinese,f,4,0.32341667,-7.11336122,0.81393531
QMH,46,0,2024-06-14T15:01:49.875Z,english_465.wav,0,1,1089,20,3,Chinese,f,0,0,40.04056426,1.33778995
QMH,46,0,2024-06-14T15:01:49.875Z,english_465.wav,0,1,1089,20,3,Chinese,f,1,0.1,-97.28817369,0.1899685
QMH,46,0,2024-06-14T15:01:49.875Z,english_465.wav,0,1,1089,20,3,Chinese,f,2,0.2,-58.72937184,1.35609136
QMH,46,0,2024-06-14T15:01:49.875Z,english_465.wav,0,1,1089,20,3,Chinese,f,3,0.3,82.2448524,1.94032164
QMH,46,0,2024-06-14T15:01:49.875Z,english_465.wav,0,1,1089,20,3,Chinese,f,4,0.32341667,-29.20233879,0.27858753
QMH,47,0,2024-06-14T15:01:49.875Z,english_190.wav,0,0,826,20,3,Chinese,f,0,0,81.66607819,0.126715216
QMH,47,0,2024-06-14T15:01:49.875Z,english_190.wav,0,0,826,20,3,Chinese,f,1,0.1,-14.16938067,0.000178349903
QMH,47,0,2024-06-14T15:01:49.875Z,english_190.wav,0,0,826,20,3,Chinese,f,2,0.2,15.7443745,1.35192229
QMH,47,0,2024-06-14T15:01:49.875Z,english_190.wav,0,0,826,20,3,Chinese,f,3,0.3,85.77694093,1.08905811
QMH,47,0,2024-06-14T15:01:49.875Z,english_190.wav,0,0,826,20,3,Chinese,f,4,0.32341667,33.21115004,1.75580408
QMH,48,0,2024-06-14T15:01:49.875Z,english_405.wav,0,1,509,20,3,Chinese,f,0,0,-94.88566807,1.97726842
QMH,48,0,2024-06-14T15:01:49.875Z,english_405.wav,0,1,509,20,3,Chinese,f,1,0.1,45.39575719,1.2658567
QMH,48,0,2024-06-14T15:01:49.875Z,english_405.wav,0,1,509,20,3,Chinese,f,2,0.2,-94.78509898,0.10443365
QMH,48,0,2024-06-14T15:01:49.875Z,english_405.wav,0,1,509,20,3,Chinese,f,3,0.3,54.14618135,0.24635614
QMH,48,0,2024-06-14T15:01:49.875Z,english_405.wav,0,1,509,20,3,Chinese,f,4,0.32341667,-20.18916124,0.76836832
QMH,49,0,2024-06-14T15:01:49.875Z,english_654.wav,0,1,620,20,3,Chinese,f,0,0,-97.13147194,0.91673578
QMH,49,0,2024-06-14T15:01:49.875Z,english_654.wav,0,1,620,20,3,Chinese,f,1,0.1,-81.37819023,1.23280851
QMH,49,0,2024-06-14T15:01:49.875Z,english_654.wav,0,1,620,20,3,Chinese,f,2,0.2,51.48571278,1.64688363
QMH,49,0,2024-06-14T15:01:49.875Z,english_654.wav,0,1,620,20,3,Chinese,f,3,0.3,54.00949099,1.75994168
QMH,49,0,2024-06-14T15:01:49.875Z,english_654.wav,0,1,620,20,3,Chinese,f,4,0.32341667,-95.1633683,0.20104411
QMH,50,1,2024-06-14T15:01:49.875Z,english_209.wav,0,1,553,20,3,Chinese,f,0,0,14.15361396,1.44232267
QMH,50,1,2024-06-14T15:01:49.875Z,english_209.wav,0,1,553,20,3,Chinese,f,1,0.1,85.95109622,1.49291498
QMH,50,1,2024-06-14T15:01:49.875Z,english_209.wav,0,1,553,20,3,Chinese,f,2,0.2,18.04804687,1.19611731
QMH,50,1,2024-06-14T15:01:49.875Z,english_209.wav,0,1,553,20,3,Chinese,f,3,0.3,28.2522976,1.49647535
QMH,50,1,2024-06-14T15:01:49.875Z,english_209.wav,0,1,553,20,3,Chinese,f,4,0.32341667,5.36776296,0.30324849
QMH,51,1,2024-06-14T15:01:49.875Z,english_847.wav,0,0,722,20,3,Chinese,f,0,0,76.45550118,0.38890762
QMH,51,1,2024-06-14T15:01:49.875Z,english_847.wav,0,0,722,20,3,Chinese,f,1,0.1,-18.38123868,1.01718805
QMH,51,1,2024-06-14T15:01:49.875Z,english_847.wav,0,0,722,20,3,Chinese,f,2,0.2,18.403778,1.24872656
QMH,51,1,2024-06-14T15:01:49.875Z,english_847.wav,0,0,722,20,3,Chinese,f,3,0.3,57.196546,0.81951257
QMH,51,1,2024-06-14T15:01:49.875Z,english_847.wav,0,0,722,20,3,Chinese,f,4,0.32341667,32.99763753,0.74194876
QMH,52,1,2024-06-14T15:01:49.875Z,english_326.wav,0,1,493,20,3,Chinese,f,0,0,-13.70476372,1.64570887
QMH,52,1,2024-06-14T15:01:49.875Z,english_326.wav,0,1,493,20,3,Chinese,f,1,0.1,47.7156259,0.91266102
QMH,52,1,2024-06-14T15:01:49.875Z,english_326.wav,0,1,493,20,3,Chinese,f,2,0.2,23.24839736,0.36997562
QMH,52,1,2024-06-14T15:01:49.875Z,english_326.wav,0,1,493,20,3,Chinese,f,3,0.3,67.08212267,1.96258237
QMH,52,1,2024-06-14T15:01:49.875Z,english_326.wav,0,1,493,20,3,Chinese,f,4,0.32341667,78.79356023,1.01334204
QMH,53,1,2024-06-14T15:01:49.875Z,english_348.wav,0,0,787,20,3,Chinese,f,0,0,21.35215111,0.19799702
QMH,53,1,2024-06-14T15:01:49.875Z,english_348.wav,0,0,787,20,3,Chinese,f,1,0.1,14.79849269,0.60931017
QMH,53,1,2024-06-14T15:01:49.875Z,english_348.wav,0,0,787,20,3,Chinese,f,2,0.2,53.1788992,0.16102666
QMH,53,1,2024-06-14T15:01:49.875Z,english_348.wav,0,0,787,20,3,Chinese,f,3,0.3,-95.85723561,1.54818605
QMH,53,1,2024-06-14T15:01:49.875Z,english_348.wav,0,0,787,20,3,Chinese,f,4,0.32341667,5.27283499,0.26552753
QMH,54,1,2024-06-14T15:01:49.875Z,english_556.wav,0,1,389,20,3,Chinese,f,0,0,35.62658416,1.88481821
QMH,54,1,2024-06-14T15:01:49.875Z,english_556.wav,0,1,389,20,3,Chinese,f,1,0.1,28.75181601,0.4023528
QMH,54,1,2024-06-14T15:01:49.875Z,english_556.wav,0,1,389,20,3,Chinese,f,2,0.2,-2.62389444,1.49364055
QMH,54,1,2024-06-14T15:01:49.875Z,english_556.wav,0,1,389,20,3,Chinese,f,3,0.3,64.03572584,1.54190039
QMH,54,1,2024-06-14T15:01:49.875Z,english_556.wav,0,1,389,20,3,Chinese,f,4,0.32341667,72.79696002,0.53435232
QMH,55,1,2024-06-14T15:01:49.875Z,english_472.wav,0,1,932,20,3,Chinese,f,0,0,-33.48324222,1.19367533
QMH,55,1,2024-06-14T15:01:49.875Z,english_472.wav,0,1,932,20,3,Chinese,f,1,0.1,-52.47175565,0.64788551
QMH,55,1,2024-06-14T15:01:49.875Z,english_472.wav,0,1,932,20,3,Chinese,f,2,0.2,-13.12063744,0.92970714
QMH,55,1,2024-06-14T15:01:49.875Z,english_472.wav,0,1,932,20,3,Chinese,f,3,0.3,83.57117959,0.61503547
QMH,55,1,2024-06-14T15:01:49.875Z,english_472.wav,0,1,932,20,3,Chinese,f,4,0.32341667,95.60610647,0.52013695
QMH,56,1,2024-06-14T15:01:49.875Z,english_119.wav,0,0,456,20,3,Chinese,f,0,0,-72.13623542,1.33116293
QMH,56,1,2024-06-14T15:01:49.875Z,english_119.wav,0,0,456,20,3,Chinese,f,1,0.1,-47.93500709,0.14257244
QMH,56,1,2024-06-14T15:01:49.875Z,english_119.wav,0,0,456,20,3,Chinese,f,2,0.2,91.39212861,1.10285667
QMH,56,1,2024-06-14T15:01:49.875Z,english_119.wav,0,0,456,20,3,Chinese,f,3,0.3,-4.62561099,0.57572872
QMH,56,1,2024-06-14T15:01:49.875Z,english_119.wav,0,0,456,20,3,Chinese,f,4,0.32341667,-33.86599352,1.36512269
QMH,57,1,2024-06-14T15:01:49.875Z,english_640.wav,0,1,375,20,3,Chinese,f,0,0,74.95875769,1.81273707
QMH,57,1,2024-06-14T15:01:49.875Z,english_640.wav,0,1,375,20,3,Chinese,f,1,0.1,87.73764633,1.50076703
QMH,57,1,2024-06-14T15:01:49.875Z,english_640.wav,0,1,375,20,3,Chinese,f,2,0.2,-71.36544648,0.25286143
QMH,57,1,2024-06-14T15:01:49.875Z,english_640.wav,0,1,375,20,3,Chinese,f,3,0.3,11.07583082,0.53181051
QMH,57,1,2024-06-14T15:01:49.875Z,english_640.wav,0,1,375,20,3,Chinese,f,4,0.32341667,18.32643638,0.76351343
QMH,58,1,2024-06-14T15:01:49.875Z,english_473.wav,0,1,312,20,3,Chinese,f,0,0,2.94536382,1.14273616
QMH,58,1,2024-06-14T15:01:49.875Z,english_473.wav,0,1,312,20,3,Chinese,f,1,0.1,67.15962,0.71228689
QMH,58,1,2024-06-14T15:01:49.875Z,english_473.wav,0,1,312,20,3,Chinese,f,2,0.2,-20.48190634,1.20280034
QMH,58,1,2024-06-14T15:01:49.875Z,english_473.wav,0,1,312,20,3,Chinese,f,3,0.3,20.58811131,0.94325649
QMH,58,1,2024-06-14T15:01:49.875Z,english_473.wav,0,1,312,20,3,Chinese,f,4,0.32341667,-71.10919795,1.82149668
QMH,59,1,2024-06-14T15:01:49.875Z,english_261.wav,0,1,382,20,3,Chinese,f,0,0,-19.34212076,1.20182597
QMH,59,1,2024-06-14T15:01:49.875Z,english_261.wav,0,1,382,20,3,Chinese,f,1,0.1,-90.49371254,0.701642
QMH,59,1,2024-06-14T15:01:49.875Z,english_261.wav,0,1,382,20,3,Chinese,f,2,0.2,-2.84874079,0.72931556
QMH,59,1,2024-06-14T15:01:49.875Z,english_261.wav,0,1,382,20,3,Chinese,f,3,0.3,26.59732755,0.86687176
QMH,59,1,2024-06-14T15:01:49.875Z,english_261.wav,0,1,382,20,3,Chinese,f,4,0.32341667,39.97770901,1.42617677
QMH,60,1,2024-06-14T15:01:49.875Z,english_509.wav,0,1,401,20,3,Chinese,f,0,0,58.37136146,0.93627824
QMH,60,1,2024-06-14T15:01:49.875Z,english_509.wav,0,1,401,20,3,Chinese,f,1,0.1,-30.59588084,1.268957
QMH,60,1,2024-06-14T15:01:49.875Z,english_509.wav,0,1,401,20,3,Chinese,f,2,0.2,-42.62400689,0.87018438
QMH,60,1,2024-06-14T15:01:49.875Z,english_509.wav,0,1,401,20,3,Chinese,f,3,0.3,58.46483968,1.67134466
QMH,60,1,2024-06-14T15:01:49.875Z,english_509.wav,0,1,401,20,3,Chinese,f,4,0.32341667,44.09610342,1.96584472
QMH,61,1,2024-06-14T15:01:49.875Z,english_679.wav,0,0,632,20,3,Chinese,f,0,0,37.61966445,0.05085037
QMH,61,1,2024-06-14T15:01:49.875Z,english_679.wav,0,0,632,20,3,Chinese,f,1,0.1,51.99791738,0.83446012
QMH,61,1,2024-06-14T15:01:49.875Z,english_679.wav,0,0,632,20,3,Chinese,f,2,0.2,47.28862711,0.17034906
QMH,61,1,2024-06-14T15:01:49.875Z,english_679.wav,0,0,632,20,3,Chinese,f,3,0.3,96.96405016,1.15010704
QMH,61,1,2024-06-14T15:01:49.875Z,english_679.wav,0,0,632,20,3,Chinese,f,4,0.32341667,17.22990972,1.32170415
QMH,62,1,2024-06-14T15:01:49.875Z,english_399.wav,0,1,789,20,3,Chinese,f,0,0,77.00947727,0.99570417
QMH,62,1,2024-06-14T15:01:49.875Z,english_399.wav,0,1,789,20,3,Chinese,f,1,0.1,68.68212777,1.08385584
QMH,62,1,2024-06-14T15:01:49.875Z,english_399.wav,0,1,789,20,3,Chinese,f,2,0.2,29.89909441,0.2210854
QMH,62,1,2024-06-14T15:01:49.875Z,english_399.wav,0,1,789,20,3,Chinese,f,3,0.3,-37.60275897,0.41623588
QMH,62,1,2024-06-14T15:01:49.875Z,english_399.wav,0,1,789,20,3,Chinese,f,4,0.32341667,-61.49193386,0.38461981
QMH,63,1,2024-06-14T15:01:49.875Z,english_385.wav,0,1,285,20,3,Chinese,f,0,0,-55.07910634,1.75648555
QMH,63,1,2024-06-14T15:01:49.875Z,english_385.wav,0,1,285,20,3,Chinese,f,1,0.1,-94.47680079,1.20856462
QMH,63,1,2024-06-14T15:01:49.875Z,english_385.wav,0,1,285,20,3,Chinese,f,2,0.2,38.70414457,0.98103352
QMH,63,1,2024-06-14T15:01:49.875Z,english_385.wav,0,1,285,20,3,Chinese,f,3,0.3,-46.17691,1.45745263
QMH,63,1,2024-06-14T15:01:49.875Z,english_385.wav,0,1,285,20,3,Chinese,f,4,0.32341667,2.5941508,0.88353815
QMH,64,1,2024-06-14T15:01:49.875Z,english_755.wav,0,1,1731,20,3,Chinese,f,0,0,-15.85533995,0.06987403
QMH,64,1,2024-06-14T15:01:49.875Z,english_755.wav,0,1,1731,20,3,Chinese,f,1,0.1,-97.95934782,0.83204773
QMH,64,1,2024-06-14T15:01:49.875Z,english_755.wav,0,1,1731,20,3,Chinese,f,2,0.2,-5.14559719,1.06816443
QMH,64,1,2024-06-14T15:01:49.875Z,english_755.wav,0,1,1731,20,3,Chinese,f,3,0.3,32.74087849,1.42856986
QMH,64,1,2024-06-14T15:01:49.875Z,english_755.wav,0,1,1731,20,3,Chinese,f,4,0.32341667,-56.93437429,0.58130438
QMH,65,1,2024-06-14T15:01:49.875Z,english_613.wav,0,0,630,20,3,Chinese,f,0,0,-12.80235787,0.8409713
QMH,65,1,2024-06-14T15:01:49.875Z,english_613.wav,0,0,630,20,3,Chinese,f,1,0.1,38.67858639,0.30410002
QMH,65,1,2024-06-14T15:01:49.875Z,english_613.wav,0,0,630,20,3,Chinese,f,2,0.2,21.08834288,0.031636
QMH,65,1,2024-06-14T15:01:49.875Z,english_613.wav,0,0,630,20,3,Chinese,f,3,0.3,94.81469787,1.79222997
QMH,65,1,2024-06-14T15:01:49.875Z,english_613.wav,0,0,630,20,3,Chinese,f,4,0.32341667,18.45506868,1.98455664
QMH,66,1,2024-06-14T15:01:49.875Z,english_49.wav,0,1,478,20,3,Chinese,f,0,0,-6.08822071,0.36436507
QMH,66,1,2024-06-14T15:01:49.875Z,english_49.wav,0,1,478,20,3,Chinese,f,1,0.1,-56.0367764,1.66948988
QMH,66,1,2024-06-14T15:01:49.875Z,english_49.wav,0,1,478,20,3,Chinese,f,2,0.2,-51.95657584,1.20554654
QMH,66,1,2024-06-14T15:01:49.875Z,english_49.wav,0,1,478,20,3,Chinese,f,3,0.3,-59.93208112,0.31084089
QMH,66,1,2024-06-14T15:01:49.875Z,english_49.wav,0,1,478,20,3,Chinese,f,4,0.32341667,-7.85847813,0.44223059
QMH,67,1,2024-06-14T15:01:49.875Z,english_188.wav,0,1,734,20,3,Chinese,f,0,0,-13.13088252,0.29227292
QMH,67,1,2024-06-14T15:01:49.875Z,english_188.wav,0,1,734,20,3,Chinese,f,1,0.1,51.13663316,1.25360943
QMH,67,1,2024-06-14T15:01:49.875Z,english_188.wav,0,1,734,20,3,Chinese,f,2,0.2,-80.18048506,1.7916357
QMH,67,1,2024-06-14T15:01:49.875Z,english_188.wav,0,1,734,20,3,Chinese,f,3,0.3,-47.89773773,0.58346705
QMH,67,1,2024-06-14T15:01:49.875Z,english_188.wav,0,1,734,20,3,Chinese,f,4,0.32341667,-7.0568118,1.77612328
QMH,68,1,2024-06-14T15:01:49.875Z,english_40.wav,0,0,1413,20,3,Chinese,f,0,0,20.98315678,0.33544846
QMH,68,1,2024-06-14T15:01:49.875Z,english_40.wav,0,0,1413,20,3,Chinese,f,1,0.1,80.64974175,0.81764939
QMH,68,1,2024-06-14T15:01:49.875Z,english_40.wav,0,0,1413,20,3,Chinese,f,2,0.2,5.38930518,0.17548883
QMH,68,1,2024-06-14T15:01:49.875Z,english_40.wav,0,0,1413,20,3,Chinese,f,3,0.3,18.83593916,0.83674413
QMH,68,1,2024-06-14T15:01:49.875Z,english_40.wav,0,0,1413,20,3,Chinese,f,4,0.32341667,-14.62145671,0.80890384
QMH,69,1,2024-06-14T15:01:49.875Z,english_43.wav,0,1,41304,20,3,Chinese,f,0,0,22.40064366,1.74132857
QMH,69,1,2024-06-14T15:01:49.875Z,english_43.wav,0,1,41304,20,3,Chinese,f,1,0.1,-68.20152198,0.12763156
QMH,69,1,2024-06-14T15:01:49.875Z,english_43.wav,0,1,41304,20,3,Chinese,f,2,0.2,62.56231291,0.31420738
QMH,69,1,2024-06-14T15:01:49.875Z,english_43.wav,0,1,41304,20,3,Chinese,f,3,0.3,45.0736378,0.98572154
QMH,69,1,2024-06-14T15:01:49.875Z,english_43.wav,0,1,41304,20,3,Chinese,f,4,0.32341667,-36.46791656,0.91325677
QMH,70,1,2024-06-14T15:01:49.875Z,english_109.wav,0,1,314,20,3,Chinese,f,0,0,44.56131593,1.07349586
QMH,70,1,2024-06-14T15:01:49.875Z,english_109.wav,0,1,314,20,3,Chinese,f,1,0.1,-35.23159756,1.27535987
QMH,70,1,2024-06-14T15:01:49.875Z,english_109.wav,0,1,314,20,3,Chinese,f,2,0.2,-19.62269282,1.28483541
QMH,70,1,2024-06-14T15:01:49.875Z,english_109.wav,0,1,314,20,3,Chinese,f,3,0.3,38.10372837,1.04109326
QMH,70,1,2024-06-14T15:01:49.875Z,english_109.wav,0,1,314,20,3,Chinese,f,4,0.32341667,-20.09605057,0.10213448
QMH,71,1,2024-06-14T15:01:49.875Z,english_605.wav,0,1,411,20,3,Chinese,f,0,0,-82.65591545,0.90945233
QMH,71,1,2024-06-14T15:01:49.875Z,english_605.wav,0,1,411,20,3,Chinese,f,1,0.1,35.78886654,1.65178877
QMH,71,1,2024-06-14T15:01:49.875Z,english_605.wav,0,1,411,20,3,Chinese,f,2,0.2,-36.80716754,0.21181898
QMH,71,1,2024-06-14T15:01:49.875Z,english_605.wav,0,1,411,20,3,Chinese,f,3,0.3,-4.39131435,1.21754483
QMH,71,1,2024-06-14T15:01:49.875Z,english_605.wav,0,1,411,20,3,Chinese,f,4,0.32341667,-17.17702763,1.60493484
QMH,72,1,2024-06-14T15:01:49.875Z,english_240.wav,0,1,661,20,3,Chinese,f,0,0,-96.55121617,1.04823872
QMH,72,1,2024-06-14T15:01:49.875Z,english_240.wav,0,1,661,20,3,Chinese,f,1,0.1,73.99435309,1.11556714
QMH,72,1,2024-06-14T15:01:49.875Z,english_240.wav,0,1,661,20,3,Chinese,f,2,0.2,-27.17256968,0.68795106
QMH,72,1,2024-06-14T15:01:49.875Z,english_240.wav,0,1,661,20,3,Chinese,f,3,0.3,-2.05185553,1.30325309
QMH,72,1,2024-06-14T15:01:49.875Z,english_240.wav,0,1,661,20,3,Chinese,f,4,0.32341667,80.37406519,0.86977317
QMH,73,1,2024-06-14T15:01:49.875Z,english_881.wav,0,1,621,20,3,Chinese,f,0,0,7.28069095,1.60234882
QMH,73,1,2024-06-14T15:01:49.875Z,english_881.wav,0,1,621,20,3,Chinese,f,1,0.1,-64.28928902,0.93497238
QMH,73,1,2024-06-14T15:01:49.875Z,english_881.wav,0,1,621,20,3,Chinese,f,2,0.2,-2.07432692,0.58107235
QMH,73,1,2024-06-14T15:01:49.875Z,english_881.wav,0,1,621,20,3,Chinese,f,3,0.3,51.5536886,1.34691236
QMH,73,1,2024-06-14T15:01:49.875Z,english_881.wav,0,1,621,20,3,Chinese,f,4,0.32341667,65.74991707,0.85842561
QMH,74,1,2024-06-14T15:01:49.875Z,english_58.wav,0,1,717,20,3,Chinese,f,0,0,20.12478601,1.19415515
QMH,74,1,2024-06-14T15:01:49.875Z,english_58.wav,0,1,717,20,3,Chinese,f,1,0.1,-22.60038942,0.26098942
QMH,74,1,2024-06-14T15:01:49.875Z,english_58.wav,0,1,717,20,3,Chinese,f,2,0.2,34.38627512,1.99195241
QMH,74,1,2024-06-14T15:01:49.875Z,english_58.wav,0,1,717,20,3,Chinese,f,3,0.3,30.90369434,0.42925074
QMH,74,1,2024-06-14T15:01:49.875Z,english_58.wav,0,1,717,20,3,Chinese,f,4,0.32341667,11.39971337,0.50368767
QMH,75,1,2024-06-14T15:01:49.875Z,english_298.wav,0,0,866,20,3,Chinese,f,0,0,-71.75530507,0.91890611
QMH,75,1,2024-06-14T15:01:49.875Z,english_298.wav,0,0,866,20,3,Chinese,f,1,0.1,76.25876358,0.7322353
QMH,75,1,2024-06-14T15:01:49.875Z,english_298.wav,0,0,866,20,3,Chinese,f,2,0.2,11.95102224,0.50601445
QMH,75,1,2024-06-14T15:01:49.875Z,english_298.wav,0,0,866,20,3,Chinese,f,3,0.3,79.91037795,0.41160049
QMH,75,1,2024-06-14T15:01:49.875Z,english_298.wav,0,0,866,20,3,Chinese,f,4,0.32341667,30.12462174,0.81223035
QMH,76,1,2024-06-14T15:01:49.875Z,english_221.wav,0,1,1016,20,3,Chinese,f,0,0,85.84184869,1.38100565
QMH,76,1,2024-06-14T15:01:49.875Z,english_221.wav,0,1,1016,20,3,Chinese,f,1,0.1,-20.37513589,0.79531516
QMH,76,1,2024-06-14T15:01:49.875Z,english_221.wav,0,1,1016,20,3,Chinese,f,2,0.2,-89.75984637,0.9538446
QMH,76,1,2024-06-14T15:01:49.875Z,english_221.wav,0,1,1016,20,3,Chinese,f,3,0.3,50.66879934,1.56492426
QMH,76,1,2024-06-14T15:01:49.875Z,english_221.wav,0,1,1016,20,3,Chinese,f,4,0.32341667,20.92538743,1.60855456
QMH,77,1,2024-06-14T15:01:49.875Z,english_216.wav,0,1,1069,20,3,Chinese,f,0,0,-62.2888105,1.07577895
QMH,77,1,2024-06-14T15:01:49.875Z,english_216.wav,0,1,1069,20,3,Chinese,f,1,0.1,-52.19325919,1.07125686
QMH,77,1,2024-06-14T15:01:49.875Z,english_216.wav,0,1,1069,20,3,Chinese,f,2,0.2,-77.81566322,1.51342084
QMH,77,1,2024-06-14T15:01:49.875Z,english_216.wav,0,1,1069,20,3,Chinese,f,3,0.3,73.5246301,1.37714716
QMH,77,1,2024-06-14T15:01:49.875Z,english_216.wav,0,1,1069,20,3,Chinese,f,4,0.32341667,73.4409389,1.55456291
QMH,78,1,2024-06-14T15:01:49.875Z,english_353.wav,0,0,780,20,3,Chinese,f,0,0,51.44050484,0.16518243
QMH,78,1,2024-06-14T15:01:49.875Z,english_353.wav,0,0,780,20,3,Chinese,f,1,0.1,-8.32491594,1.32533476
QMH,78,1,2024-06-14T15:01:49.875Z,english_353.wav,0,0,780,20,3,Chinese,f,2,0.2,-53.32966552,0.41923861
QMH,78,1,2024-06-14T15:01:49.875Z,english_353.wav,0,0,780,20,3,Chinese,f,3,0.3,68.29246543,1.87374553
QMH,78,1,2024-06-14T15:01:49.875Z,english_353.wav,0,0,780,20,3,Chinese,f,4,0.32341667,-32.22441747,1.13071195
QMH,79,1,2024-06-14T15:01:49.875Z,english_939.wav,0,0,623,20,3,Chinese,f,0,0,-23.2558256,0.1774722
QMH,79,1,2024-06-14T15:01:49.875Z,english_939.wav,0,0,623,20,3,Chinese,f,1,0.1,-16.62065377,0.56271239
QMH,79,1,2024-06-14T15:01:49.875Z,english_939.wav,0,0,623,20,3,Chinese,f,2,0.2,-49.54734698,1.42782479
QMH,79,1,2024-06-14T15:01:49.875Z,english_939.wav,0,0,623,20,3,Chinese,f,3,0.3,22.82101289,0.76516147
QMH,79,1,2024-06-14T15:01:49.875Z,english_939.wav,0,0,623,20,3,Chinese,f,4,0.32341667,28.63490654,1.70219777
QMH,80,1,2024-06-14T15:01:49.875Z,english_774.wav,0,1,519,20,3,Chinese,f,0,0,-13.3479616,1.45409172
QMH,80,1,2024-06-14T15:01:49.875Z,english_774.wav,0,1,519,20,3,Chinese,f,1,0.1,-18.75352159,1.07775337
QMH,80,1,2024-06-14T15:01:49.875Z,english_774.wav,0,1,519,20,3,Chinese,f,2,0.2,-41.83192829,0.61872946
QMH,80,1,2024-06-14T15:01:49.875Z,english_774.wav,0,1,519,20,3,Chinese,f,3,0.3,14.77986843,1.87871381
QMH,80,1,2024-06-14T15:01:49.875Z,english_774.wav,0,1,519,20,3,Chinese,f,4,0.32341667,45.85609187,1.0399825
QMH,81,1,2024-06-14T15:01:49.875Z,english_423.wav,0,1,610,20,3,Chinese,f,0,0,48.83941012,1.35290702
QMH,81,1,2024-06-14T15:01:49.875Z,english_423.wav,0,1,610,20,3,Chinese,f,1,0.1,26.57948938,1.33919202
QMH,81,1,2024-06-14T15:01:49.875Z,english_423.wav,0,1,610,20,3,Chinese,f,2,0.2,56.70545245,1.37149513
QMH,81,1,2024-06-14T15:01:49.875Z,english_423.wav,0,1,610,20,3,Chinese,f,3,0.3,-62.41131033,1.11357765
QMH,81,1,2024-06-14T15:01:49.875Z,english_423.wav,0,1,610,20,3,Chinese,f,4,0.32341667,78.49803502,1.20699722
QMH,82,1,2024-06-14T15:01:49.875Z,english_925.wav,0,1,507,20,3,Chinese,f,0,0,-23.38055082,1.07708889
QMH,82,1,2024-06-14T15:01:49.875Z,english_925.wav,0,1,507,20,3,Chinese,f,1,0.1,12.69502826,1.65606803
QMH,82,1,2024-06-14T15:01:49.875Z,english_925.wav,0,1,507,20,3,Chinese,f,2,0.2,77.53463838,0.48648737
QMH,82,1,2024-06-14T15:01:49.875Z,english_925.wav,0,1,507,20,3,Chinese,f,3,0.3,58.05299948,0.8939016
QMH,82,1,2024-06-14T15:01:49.875Z,english_925.wav,0,1,507,20,3,Chinese,f,4,0.32341667,54.12197927,0.72199492
QMH,83,1,2024-06-14T15:01:49.875Z,english_844.wav,0,1,1008,20,3,Chinese,f,0,0,-84.59865618,1.95225136
QMH,83,1,2024-06-14T15:01:49.875Z,english_844.wav,0,1,1008,20,3,Chinese,f,1,0.1,2.74576488,1.66072701
QMH,83,1,2024-06-14T15:01:49.875Z,english_844.wav,0,1,1008,20,3,Chinese,f,2,0.2,-31.14414819,0.05165652
QMH,83,1,2024-06-14T15:01:49.875Z,english_844.wav,0,1,1008,20,3,Chinese,f,3,0.3,59.06244098,0.5878804
QMH,83,1,2024-06-14T15:01:49.875Z,english_844.wav,0,1,1008,20,3,Chinese,f,4,0.32341667,67.61674881,0.72232709
QMH,84,1,2024-06-14T15:01:49.875Z,english_213.wav,0,0,588,20,3,Chinese,f,0,0,-29.91874444,1.42031243
QMH,84,1,2024-06-14T15:01:49.875Z,english_213.wav,0,0,588,20,3,Chinese,f,1,0.1,41.64704809,0.59218852
QMH,84,1,2024-06-14T15:01:49.875Z,english_213.wav,0,0,588,20,3,Chinese,f,2,0.2,-87.11075848,1.10576613
QMH,84,1,2024-06-14T15:01:49.875Z,english_213.wav,0,0,588,20,3,Chinese,f,3,0.3,-61.54877495,0.09529021
QMH,84,1,2024-06-14T15:01:49.875Z,english_213.wav,0,0,588,20,3,Chinese,f,4,0.32341667,-34.29429643,1.15583312
QMH,85,1,2024-06-14T15:01:49.875Z,english_547.wav,0,1,1072,20,3,Chinese,f,0,0,30.48969685,1.04682874
QMH,85,1,2024-06-14T15:01:49.875Z,english_547.wav,0,1,1072,20,3,Chinese,f,1,0.1,-38.27442703,0.75017858
QMH,85,1,2024-06-14T15:01:49.875Z,english_547.wav,0,1,1072,20,3,Chinese,f,2,0.2,29.58442849,0.7996645
QMH,85,1,2024-06-14T15:01:49.875Z,english_547.wav,0,1,1072,20,3,Chinese,f,3,0.3,-4.27268154,1.92102789
QMH,85,1,2024-06-14T15:01:49.875Z,english_547.wav,0,1,1072,20,3,Chinese,f,4,0.32341667,58.02076364,1.77056707
QMH,86,1,2024-06-14T15:01:49.875Z,english_694.wav,0,0,689,20,3,Chinese,f,0,0,-79.88370205,0.99496101
QMH,86,1,2024-06-14T15:01:49.875Z,english_694.wav,0,0,689,20,3,Chinese,f,1,0.1,-58.02841319,0.06406007
QMH,86,1,2024-06-14T15:01:49.875Z,english_694.wav,0,0,689,20,3,Chinese,f,2,0.2,-50.54988317,0.5055253
QMH,86,1,2024-06-14T15:01:49.875Z,english_694.wav,0,0,689,20,3,Chinese,f,3,0.3,-20.79864769,0.19498426
QMH,86,1,2024-06-14T15:01:49.875Z,english_694.wav,0,0,689,20,3,Chinese,f,4,0.32341667,-73.64916114,0.36410653
QMH,87,1,2024-06-14T15:01:49.875Z,english_333.wav,0,1,523,20,3,Chinese,f,0,0,61.26933292,0.50090252
QMH,87,1,2024-06-14T15:01:49.875Z,english_333.wav,0,1,523,20,3,Chinese,f,1,0.1,38.65533839,1.61630161
QMH,87,1,2024-06-14T15:01:49.875Z,english_333.wav,0,1,523,20,3,Chinese,f,2,0.2,-27.91605269,1.73322278
QMH,87,1,2024-06-14T15:01:49.875Z,english_333.wav,0,1,523,20,3,Chinese,f,3,0.3,36.00101096,0.67742762
QMH,87,1,2024-06-14T15:01:49.875Z,english_333.wav,0,1,523,20,3,Chinese,f,4,0.32341667,-78.35943708,0.46993908
QMH,88,1,2024-06-14T15:01:49.875Z,english_260.wav,0,1,1056,20,3,Chinese,f,0,0,-45.73422918,1.75247731
QMH,88,1,2024-06-14T15:01:49.875Z,english_260.wav,0,1,1056,20,3,Chinese,f,1,0.1,-23.757295,1.29821829
QMH,88,1,2024-06-14T15:01:49.875Z,english_260.wav,0,1,1056,20,3,Chinese,f,2,0.2,-1.17180464,0.50372963
QMH,88,1,2024-06-14T15:01:49.875Z,english_260.wav,0,1,1056,20,3,Chinese,f,3,0.3,42.98000529,1.19905143
QMH,88,1,2024-06-14T15:01:49.875Z,english_260.wav,0,1,1056,20,3,Chinese,f,4,0.32341667,7.49715463,0.66690199
QMH,89,1,2024-06-14T15:01:49.875Z,english_227.wav,0,1,3420,20,3,Chinese,f,0,0,-56.39318384,1.7541365
QMH,89,1,2024-06-14T15:01:49.875Z,english_227.wav,0,1,3420,20,3,Chinese,f,1,0.1,90.87442764,0.66011804
QMH,89,1,2024-06-14T15:01:49.875Z,english_227.wav,0,1,3420,20,3,Chinese,f,2,0.2,-39.94082392,0.16454365
QMH,89,1,2024-06-14T15:01:49.875Z,english_227.wav,0,1,3420,20,3,Chinese,f,3,0.3,31.5093861,0.63744506
QMH,89,1,2024-06-14T15:01:49.875Z,english_227.wav,0,1,3420,20,3,Chinese,f,4,0.32341667,70.38847456,0.55874538
QMH,90,1,2024-06-14T15:01:49.875Z,english_87.wav,0,1,508,20,3,Chinese,f,0,0,54.83056612,1.56132998
QMH,90,1,2024-06-14T15:01:49.875Z,english_87.wav,0,1,508,20,3,Chinese,f,1,0.1,56.31531505,1.28614089
QMH,90,1,2024-06-14T15:01:49.875Z,english_87.wav,0,1,508,20,3,Chinese,f,2,0.2,-65.55002777,1.44579989
QMH,90,1,2024-06-14T15:01:49.875Z,english_87.wav,0,1,508,20,3,Chinese,f,3,0.3,-25.15788212,0.3607766
QMH,90,1,2024-06-14T15:01:49.875Z,english_87.wav,0,1,508,20,3,Chinese,f,4,0.32341667,22.72349562,0.17745198
QMH,91,1,2024-06-14T15:01:49.875Z,english_718.wav,0,0,2090,20,3,Chinese,f,0,0,-62.54470118,0.40124114
QMH,91,1,2024-06-14T15:01:49.875Z,english_718.wav,0,0,2090,20,3,Chinese,f,1,0.1,-40.70811043,0.49945062
QMH,91,1,2024-06-14T15:01:49.875Z,english_718.wav,0,0,2090,20,3,Chinese,f,2,0.2,-11.25435391,1.54880463
QMH,91,1,2024-06-14T15:01:49.875Z,english_718.wav,0,0,2090,20,3,Chinese,f,3,0.3,-68.52161814,0.39118497
QMH,91,1,2024-06-14T15:01:49.875Z,english_718.wav,0,0,2090,20,3,Chinese,f,4,0.32341667,-77.89834334,0.07447668
QMH,92,1,2024-06-14T15:01:49.875Z,english_586.wav,0,0,616,20,3,Chinese,f,0,0,-62.23642036,1.06144709
QMH,92,1,2024-06-14T15:01:49.875Z,english_586.wav,0,0,616,20,3,Chinese,f,1,0.1,79.13201234,0.54207142
QMH,92,1,2024-06-14T15:01:49.875Z,english_586.wav,0,0,616,20,3,Chinese,f,2,0.2,-89.54923437,0.72134233
QMH,92,1,2024-06-14T15:01:49.875Z,english_586.wav,0,0,616,20,3,Chinese,f,3,0.3,-19.27573078,0.33417878
QMH,92,1,2024-06-14T15:01:49.875Z,english_586.wav,0,0,616,20,3,Chinese,f,4,0.32341667,-62.71214645,1.54129631
QMH,93,1,2024-06-14T15:01:49.875Z,english_283.wav,0,1,872,20,3,Chinese,f,0,0,-27.01977409,1.23470843
QMH,93,1,2024-06-14T15:01:49.875Z,english_283.wav,0,1,872,20,3,Chinese,f,1,0.1,-58.6063919,0.41737987
QMH,93,1,2024-06-14T15:01:49.875Z,english_283.wav,0,1,872,20,3,Chinese,f,2,0.2,36.15867228,0.64455365
QMH,93,1,2024-06-14T15:01:49.875Z,english_283.wav,0,1,872,20,3,Chinese,f,3,0.3,-77.91689069,1.80541824
QMH,93,1,2024-06-14T15:01:49.875Z,english_283.wav,0,1,872,20,3,Chinese,f,4,0.32341667,-77.99680679,1.86024907
QMH,94,1,2024-06-14T15:01:49.875Z,english_422.wav,0,0,710,20,3,Chinese,f,0,0,-79.81150205,1.34332733
QMH,94,1,2024-06-14T15:01:49.875Z,english_422.wav,0,0,710,20,3,Chinese,f,1,0.1,-2.02836706,0.77514932
QMH,94,1,2024-06-14T15:01:49.875Z,english_422.wav,0,0,710,20,3,Chinese,f,2,0.2,-11.18998235,0.33214039
QMH,94,1,2024-06-14T15:01:49.875Z,english_422.wav,0,0,710,20,3,Chinese,f,3,0.3,52.04958687,0.53493982
QMH,94,1,2024-06-14T15:01:49.875Z,english_422.wav,0,0,710,20,3,Chinese,f,4,0.32341667,-63.48776447,0.45685022
QMH,95,1,2024-06-14T15:01:49.875Z,english_238.wav,0,1,1062,20,3,Chinese,f,0,0,87.78466979,1.0750983
QMH,95,1,2024-06-14T15:01:49.875Z,english_238.wav,0,1,1062,20,3,Chinese,f,1,0.1,65.39287108,0.03626896
QMH,95,1,2024-06-14T15:01:49.875Z,english_238.wav,0,1,1062,20,3,Chinese,f,2,0.2,-38.39100082,1.9832234
QMH,95,1,2024-06-14T15:01:49.875Z,english_238.wav,0,1,1062,20,3,Chinese,f,3,0.3,-20.01297649,0.17604691
QMH,95,1,2024-06-14T15:01:49.875Z,english_238.wav,0,1,1062,20,3,Chinese,f,4,0.32341667,78.31880556,1.61383808
QMH,96,1,2024-06-14T15:01:49.875Z,english_169.wav,0,1,2059,20,3,Chinese,f,0,0,21.52556644,0.24747868
QMH,96,1,2024-06-14T15:01:49.875Z,english_169.wav,0,1,2059,20,3,Chinese,f,1,0.1,-62.21960884,0.51530303
QMH,96,1,2024-06-14T15:01:49.875Z,english_169.wav,0,1,2059,20,3,Chinese,f,2,0.2,-58.58818316,1.14352058
QMH,96,1,2024-06-14T15:01:49.875Z,english_169.wav,0,1,2059,20,3,Chinese,f,3,0.3,14.95103608,1.46694059
QMH,96,1,2024-06-14T15:01:49.875Z,english_169.wav,0,1,2059,20,3,Chinese,f,4,0.32341667,21.70814087,1.67980684
QMH,97,1,2024-06-14T15:01:49.875Z,english_200.wav,0,1,710,20,3,Chinese,f,0,0,48.98677304,1.07797747
QMH,97,1,2024-06-14T15:01:49.875Z,english_200.wav,0,1,710,20,3,Chinese,f,1,0.1,13.54292536,1.23698451
QMH,97,1,2024-06-14T15:01:49.875Z,english_200.wav,0,1,710,20,3,Chinese,f,2,0.2,15.98335964,0.85343662
QMH,97,1,2024-06-14T15:01:49.875Z,english_200.wav,0,1,710,20,3,Chinese,f,3,0.3,-46.7743147,1.38707984
QMH,97,1,2024-06-14T15:01:49.875Z,english_200.wav,0,1,710,20,3,Chinese,f,4,0.32341667,-12.18386714,0.65409939
QMH,98,1,2024-06-14T15:01:49.875Z,english_485.wav,0,1,1909,20,3,Chinese,f,0,0,-7.08941798,1.8206563
QMH,98,1,2024-06-14T15:01:49.875Z,english_485.wav,0,1,1909,20,3,Chinese,f,1,0.1,-70.64579204,0.10660577
QMH,98,1,2024-06-14T15:01:49.875Z,english_485.wav,0,1,1909,20,3,Chinese,f,2,0.2,23.79115045,1.92760945
QMH,98,1,2024-06-14T15:01:49.875Z,english_485.wav,0,1,1909,20,3,Chinese,f,3,0.3,0.80487994,0.77499174
QMH,98,1,2024-06-14T15:01:49.875Z,english_485.wav,0,1,1909,20,3,Chinese,f,4,0.32341667,4.72097057,1.20070888
QMH,99,1,2024-06-14T15:01:49.875Z,english_229.wav,0,1,863,20,3,Chinese,f,0,0,51.56916705,1.25898044
QMH,99,1,2024-06-14T15:01:49.875Z,english_229.wav,0,1,863,20,3,Chinese,f,1,0.1,-51.28327497,0.34588319
QMH,99,1,2024-06-14T15:01:49.875Z,english_229.wav,0,1,863,20,3,Chinese,f,2,0.2,97.78221202,1.91985924
QMH,99,1,2024-06-14T15:01:49.875Z,english_229.wav,0,1,863,20,3,Chinese,f,3,0.3,-75.98126047,0.82059623
QMH,99,1,2024-06-14T15:01:49.875Z,english_229.wav,0,1,863,20,3,Chinese,f,4,0.32341667,-44.05308002,1.38191391
QMH,100,2,2024-06-14T15:01:49.875Z,english_597.wav,0,1,796,20,3,Chinese,f,0,0,-83.66792118,0.17389721
QMH,100,2,2024-06-14T15:01:49.875Z,english_597.wav,0,1,796,20,3,Chinese,f,1,0.1,-19.98744657,0.39349672
QMH,100,2,2024-06-14T15:01:49.875Z,english_597.wav,0,1,796,20,3,Chinese,f,2,0.2,-30.38458549,1.97590818
QMH,100,2,2024-06-14T15:01:49.875Z,english_597.wav,0,1,796,20,3,Chinese,f,3,0.3,-63.4406446,1.84988074
QMH,100,2,2024-06-14T15:01:49.875Z,english_597.wav,0,1,796,20,3,Chinese,f,4,0.32341667,25.67812426,1.17620678
QMH,101,2,2024-06-14T15:01:49.875Z,english_964.wav,0,0,589,20,3,Chinese,f,0,0,11.04708611,0.74384055
QMH,101,2,2024-06-14T15:01:49.875Z,english_964.wav,0,0,589,20,3,Chinese,f,1,0.1,-10.67848967,0.46038505
QMH,101,2,2024-06-14T15:01:49.875Z,english_964.wav,0,0,589,20,3,Chinese,f,2,0.2,64.95328634,0.80934661
QMH,101,2,2024-06-14T15:01:49.875Z,english_964.wav,0,0,589,20,3,Chinese,f,3,0.3,-78.10341524,1.94282647
QMH,101,2,2024-06-14T15:01:49.875Z,english_964.wav,0,0,589,20,3,Chinese,f,4,0.32341667,-48.61651995,1.99482071
QMH,102,2,2024-06-14T15:01:49.875Z,english_163.wav,0,1,352,20,3,Chinese,f,0,0,-28.85321754,1.43434597
QMH,102,2,2024-06-14T15:01:49.875Z,english_163.wav,0,1,352,20,3,Chinese,f,1,0.1,9.37410395,1.75766865
QMH,102,2,2024-06-14T15:01:49.875Z,english_163.wav,0,1,352,20,3,Chinese,f,2,0.2,-43.22266742,0.90391943
QMH,102,2,2024-06-14T15:01:49.875Z,english_163.wav,0,1,352,20,3,Chinese,f,3,0.3,48.63715122,1.21743426
QMH,102,2,2024-06-14T15:01:49.875Z,english_163.wav,0,1,352,20,3,Chinese,f,4,0.32341667,-94.22333204,1.8516503
QMH,103,2,2024-06-14T15:01:49.875Z,english_552.wav,0,1,399,20,3,Chinese,f,0,0,-54.22317773,0.14479657
QMH,103,2,2024-06-14T15:01:49.875Z,english_552.wav,0,1,399,20,3,Chinese,f,1,0.1,23.75537749,1.96762023
QMH,103,2,2024-06-14T15:01:49.875Z,english_552.wav,0,1,399,20,3,Chinese,f,2,0.2,-67.43154965,0.75812729
QMH,103,2,2024-06-14T15:01:49.875Z,english_552.wav,0,1,399,20,3,Chinese,f,3,0.3,-83.62242399,0.84420129
QMH,103,2,2024-06-14T15:01:49.875Z,english_552.wav,0,1,399,20,3,Chinese,f,4,0.32341667,64.2322812,0.73382384
QMH,104,2,2024-06-14T15:01:49.875Z,english_660.wav,0,0,862,20,3,Chinese,f,0,0,-18.17224728,0.25133372
QMH,104,2,2024-06-14T15:01:49.875Z,english_660.wav,0,0,862,20,3,Chinese,f,1,0.1,-51.94390165,0.1756709
QMH,104,2,2024-06-14T15:01:49.875Z,english_660.wav,0,0,862,20,3,Chinese,f,2,0.2,-79.57293034,0.660284
QMH,104,2,2024-06-14T15:01:49.875Z,english_660.wav,0,0,862,20,3,Chinese,f,3,0.3,67.99606973,1.08301436
QMH,104,2,2024-06-14T15:01:49.875Z,english_660.wav,0,0,862,20,3,Chinese,f,4,0.32341667,-2.00416122,0.81155284
QMH,105,2,2024-06-14T15:01:49.875Z,english_302.wav,0,1,191,20,3,Chinese,f,0,0,-63.95927305,1.3663617
QMH,105,2,2024-06-14T15:01:49.875Z,english_302.wav,0,1,191,20,3,Chinese,f,1,0.1,-82.44028643,1.24112643
QMH,105,2,2024-06-14T15:01:49.875Z,english_302.wav,0,1,191,20,3,Chinese,f,2,0.2,-63.33590257,1.83999602
QMH,105,2,2024-06-14T15:01:49.875Z,english_302.wav,0,1,191,20,3,Chinese,f,3,0.3,-82.33590521,0.89576132
QMH,105,2,2024-06-14T15:01:49.875Z,english_302.wav,0,1,191,20,3,Chinese,f,4,0.32341667,-77.43124585,1.51483357
QMH,106,2,2024-06-14T15:01:49.875Z,english_965.wav,0,1,302,20,3,Chinese,f,0,0,-19.49526798,1.71910172
QMH,106,2,2024-06-14T15:01:49.875Z,english_965.wav,0,1,302,20,3,Chinese,f,1,0.1,-33.46093545,1.16323176
QMH,106,2,2024-06-14T15:01:49.875Z,english_965.wav,0,1,302,20,3,Chinese,f,2,0.2,95.24809114,0.56514201
QMH,106,2,2024-06-14T15:01:49.875Z,english_965.wav,0,1,302,20,3,Chinese,f,3,0.3,26.23968625,1.82539978
QMH,106,2,2024-06-14T15:01:49.875Z,english_965.wav,0,1,302,20,3,Chinese,f,4,0.32341667,15.70217089,1.7659451
QMH,107,2,2024-06-14T15:01:49.875Z,english_793.wav,0,0,490,20,3,Chinese,f,0,0,-3.59370976,0.95327953
QMH,107,2,2024-06-14T15:01:49.875Z,english_793.wav,0,0,490,20,3,Chinese,f,1,0.1,-92.44382947,0.8890172
QMH,107,2,2024-06-14T15:01:49.875Z,english_793.wav,0,0,490,20,3,Chinese,f,2,0.2,-89.84008222,0.47547445
QMH,107,2,2024-06-14T15:01:49.875Z,english_793.wav,0,0,490,20,3,Chinese,f,3,0.3,96.09352514,1.09208031
QMH,107,2,2024-06-14T15:01:49.875Z,english_793.wav,0,0,490,20,3,Chinese,f,4,0.32341667,42.94050617,0.63383093
QMH,108,2,2024-06-14T15:01:49.875Z,english_922.wav,0,1,879,20,3,Chinese,f,0,0,-90.36253489,0.33253962
QMH,108,2,2024-06-14T15:01:49.875Z,english_922.wav,0,1,879,20,3,Chinese,f,1,0.1,-6.38761956,1.51366693
QMH,108,2,2024-06-14T15:01:49.875Z,english_922.wav,0,1,879,20,3,Chinese,f,2,0.2,-78.09661245,0.40049791
QMH,108,2,2024-06-14T15:01:49.875Z,english_922.wav,0,1,879,20,3,Chinese,f,3,0.3,-92.75722173,1.29207892
QMH,108,2,2024-06-14T15:01:49.875Z,english_922.wav,0,1,879,20,3,Chinese,f,4,0.32341667,-80.16719401,1.40400382
QMH,109,2,2024-06-14T15:01:49.875Z,english_626.wav,0,1,549,20,3,Chinese,f,0,0,4.25415757,0.7037323
QMH,109,2,2024-06-14T15:01:49.875Z,english_626.wav,0,1,549,20,3,Chinese,f,1,0.1,-41.27415217,1.26912647
QMH,109,2,2024-06-14T15:01:49.875Z,english_626.wav,0,1,549,20,3,Chinese,f,2,0.2,-74.74598363,0.17760594
QMH,109,2,2024-06-14T15:01:49.875Z,english_626.wav,0,1,549,20,3,Chinese,f,3,0.3,-15.94741517,1.12963497
QMH,109,2,2024-06-14T15:01:49.875Z,english_626.wav,0,1,549,20,3,Chinese,f,4,0.32341667,43.51897949,0.85087029
QMH,110,2,2024-06-14T15:01:49.875Z,english_966.wav,0,1,705,20,3,Chinese,f,0,0,23.00954068,1.02848684
QMH,110,2,2024-06-14T15:01:49.875Z,english_966.wav,0,1,705,20,3,Chinese,f,1,0.1,-2.7733657,1.22612364
QMH,110,2,2024-06-14T15:01:49.875Z,english_966.wav,0,1,705,20,3,Chinese,f,2,0.2,-6.00176123,0.03461529
QMH,110,2,2024-06-14T15:01:49.875Z,english_966.wav,0,1,705,20,3,Chinese,f,3,0.3,-64.80320904,0.22357585
QMH,110,2,2024-06-14T15:01:49.875Z,english_966.wav,0,1,705,20,3,Chinese,f,4,0.32341667,94.15296916,0.55383001
QMH,111,2,2024-06-14T15:01:49.875Z,english_704.wav,0,1,631,20,3,Chinese,f,0,0,-24.48288207,0.92043902
QMH,111,2,2024-06-14T15:01:49.875Z,english_704.wav,0,1,631,20,3,Chinese,f,1,0.1,-9.94163531,0.96595902
QMH,111,2,2024-06-14T15:01:49.875Z,english_704.wav,0,1,631,20,3,Chinese,f,2,0.2,74.85271107,1.40327859
QMH,111,2,2024-06-14T15:01:49.875Z,english_704.wav,0,1,631,20,3,Chinese,f,3,0.3,-38.44921803,1.07325586
QMH,111,2,2024-06-14T15:01:49.875Z,english_704.wav,0,1,631,20,3,Chinese,f,4,0.32341667,-21.20994959,1.87555588
QMH,112,2,2024-06-14T15:01:49.875Z,english_130.wav,0,1,608,20,3,Chinese,f,0,0,-27.4951122,0.83907871
QMH,112,2,2024-06-14T15:01:49.875Z,english_130.wav,0,1,608,20,3,Chinese,f,1,0.1,-38.07775804,1.38560413
QMH,112,2,2024-06-14T15:01:49.875Z,english_130.wav,0,1,608,20,3,Chinese,f,2,0.2,-9.69340922,0.50531735
QMH,112,2,2024-06-14T15:01:49.875Z,english_130.wav,0,1,608,20,3,Chinese,f,3,0.3,-88.09187015,0.53414674
QMH,112,2,2024-06-14T15:01:49.875Z,english_130.wav,0,1,608,20,3,Chinese,f,4,0.32341667,-47.45461314,1.10107345
QMH,113,2,2024-06-14T15:01:49.875Z,english_38.wav,0,1,1116,20,3,Chinese,f,0,0,-2.78484508,0.45448836
QMH,113,2,2024-06-14T15:01:49.875Z,english_38.wav,0,1,1116,20,3,Chinese,f,1,0.1,-57.68912839,0.86252605
QMH,113,2,2024-06-14T15:01:49.875Z,english_38.wav,0,1,1116,20,3,Chinese,f,2,0.2,-17.27242754,1.61904865
QMH,113,2,2024-06-14T15:01:49.875Z,english_38.wav,0,1,1116,20,3,Chinese,f,3,0.3,-2.64514482,1.39130822
QMH,113,2,2024-06-14T15:01:49.875Z,english_38.wav,0,1,1116,20,3,Chinese,f,4,0.32341667,55.14373267,1.59066599
QMH,114,2,2024-06-14T15:01:49.875Z,english_767.wav,0,1,2068,20,3,Chinese,f,0,0,29.63321135,0.17563718
QMH,114,2,2024-06-14T15:01:49.875Z,english_767.wav,0,1,2068,20,3,Chinese,f,1,0.1,-31.63783795,0.61981002
QMH,114,2,2024-06-14T15:01:49.875Z,english_767.wav,0,1,2068,20,3,Chinese,f,2,0.2,56.53254366,1.38773128
QMH,114,2,2024-06-14T15:01:49.875Z,english_767.wav,0,1,2068,20,3,Chinese,f,3,0.3,52.69149806,1.37795514
QMH,114,2,2024-06-14T15:01:49.875Z,english_767.wav,0,1,2068,20,3,Chinese,f,4,0.32341667,-0.8536295,1.97315338
QMH,115,2,2024-06-14T15:01:49.875Z,english_477.wav,0,0,868,20,3,Chinese,f,0,0,9.7496965,0.26828956
QMH,115,2,2024-06-14T15:01:49.875Z,english_477.wav,0,0,868,20,3,Chinese,f,1,0.1,70.56003184,0.51901368
QMH,115,2,2024-06-14T15:01:49.875Z,english_477.wav,0,0,868,20,3,Chinese,f,2,0.2,34.49551211,0.35677294
QMH,115,2,2024-06-14T15:01:49.875Z,english_477.wav,0,0,868,20,3,Chinese,f,3,0.3,-75.0597055,1.39462812
QMH,115,2,2024-06-14T15:01:49.875Z,english_477.wav,0,0,868,20,3,Chinese,f,4,0.32341667,-82.15638008,0.55199483
QMH,116,2,2024-06-14T15:01:49.875Z,english_584.wav,0,0,1432,20,3,Chinese,f,0,0,10.38934641,1.28044862
QMH,116,2,2024-06-14T15:01:49.875Z,english_584.wav,0,0,1432,20,3,Chinese,f,1,0.1,16.58552078,0.12750447
QMH,116,2,2024-06-14T15:01:49.875Z,english_584.wav,0,0,1432,20,3,Chinese,f,2,0.2,93.24376001,0.67889343
QMH,116,2,2024-06-14T15:01:49.875Z,english_584.wav,0,0,1432,20,3,Chinese,f,3,0.3,-17.62367845,1.20299248
QMH,116,2,2024-06-14T15:01:49.875Z,english_584.wav,0,0,1432,20,3,Chinese,f,4,0.32341667,35.31863132,1.61660781
QMH,117,2,2024-06-14T15:01:49.875Z,english_691.wav,0,0,2508,20,3,Chinese,f,0,0,28.79078449,1.07683297
QMH,117,2,2024-06-14T15:01:49.875Z,english_691.wav,0,0,2508,20,3,Chinese,f,1,0.1,99.1184909,1.07376069
QMH,117,2,2024-06-14T15:01:49.875Z,english_691.wav,0,0,2508,20,3,Chinese,f,2,0.2,-54.13985733,0.28522735
QMH,117,2,2024-06-14T15:01:49.875Z,english_691.wav,0,0,2508,20,3,Chinese,f,3,0.3,-85.36319246,0.85701066
QMH,117,2,2024-06-14T15:01:49.875Z,english_691.wav,0,0,2508,20,3,Chinese,f,4,0.32341667,-73.61621094,1.71165398
QMH,118,2,2024-06-14T15:01:49.875Z,english_519.wav,0,1,524,20,3,Chinese,f,0,0,-8.06946753,0.14231686
QMH,118,2,2024-06-14T15:01:49.875Z,english_519.wav,0,1,524,20,3,Chinese,f,1,0.1,-66.74939098,1.74411569
QMH,118,2,2024-06-14T15:01:49.875Z,english_519.wav,0,1,524,20,3,Chinese,f,2,0.2,-27.98142454,1.42967772
QMH,118,2,2024-06-14T15:01:49.875Z,english_519.wav,0,1,524,20,3,Chinese,f,3,0.3,-72.75033344,0.44774012
QMH,118,2,2024-06-14T15:01:49.875Z,english_519.wav,0,1,524,20,3,Chinese,f,4,0.32341667,-36.15575878,1.4256209
QMH,119,2,2024-06-14T15:01:49.875Z,english_629.wav,0,0,528,20,3,Chinese,f,0,0,76.68747977,0.56482572
QMH,119,2,2024-06-14T15:01:49.875Z,english_629.wav,0,0,528,20,3,Chinese,f,1,0.1,72.0676039,0.14075004
QMH,119,2,2024-06-14T15:01:49.875Z,english_629.wav,0,0,528,20,3,Chinese,f,2,0.2,-3.42071834,0.80885654
QMH,119,2,2024-06-14T15:01:49.875Z,english_629.wav,0,0,528,20,3,Chinese,f,3,0.3,-75.36993348,1.43133267
QMH,119,2,2024-06-14T15:01:49.875Z,english_629.wav,0,0,528,20,3,Chinese,f,4,0.32341667,-15.4233884,0.14234351
QMH,120,2,2024-06-14T15:01:49.875Z,english_834.wav,0,1,585,20,3,Chinese,f,0,0,-64.94927172,0.98752234
QMH,120,2,2024-06-14T15:01:49.875Z,english_834.wav,0,1,585,20,3,Chinese,f,1,0.1,49.61052881,1.31122352
QMH,120,2,2024-06-14T15:01:49.875Z,english_834.wav,0,1,585,20,3,Chinese,f,2,0.2,-25.04715585,0.09065599
QMH,120,2,2024-06-14T15:01:49.875Z,english_834.wav,0,1,585,20,3,Chinese,f,3,0.3,95.09819394,1.07854905
QMH,120,2,2024-06-14T15:01:49.875Z,english_834.wav,0,1,585,20,3,Chinese,f,4,0.32341667,84.16953653,1.76453498
QMH,121,2,2024-06-14T15:01:49.875Z,english_751.wav,0,1,532,20,3,Chinese,f,0,0,45.03630887,0.43450625
QMH,121,2,2024-06-14T15:01:49.875Z,english_751.wav,0,1,532,20,3,Chinese,f,1,0.1,46.59103402,1.30072592
QMH,121,2,2024-06-14T15:01:49.875Z,english_751.wav,0,1,532,20,3,Chinese,f,2,0.2,-30.90440374,1.20093797
QMH,121,2,2024-06-14T15:01:49.875Z,english_751.wav,0,1,532,20,3,Chinese,f,3,0.3,-61.26470289,0.81911259
QMH,121,2,2024-06-14T15:01:49.875Z,english_751.wav,0,1,532,20,3,Chinese,f,4,0.32341667,34.91384756,0.19140491
QMH,122,2,2024-06-14T15:01:49.875Z,english_799.wav,0,1,447,20,3,Chinese,f,0,0,-48.4958847,1.9233431
QMH,122,2,2024-06-14T15:01:49.875Z,english_799.wav,0,1,447,20,3,Chinese,f,1,0.1,-9.52866418,1.11542891
QMH,122,2,2024-06-14T15:01:49.875Z,english_799.wav,0,1,447,20,3,Chinese,f,2,0.2,1.94176449,0.95865462
QMH,122,2,2024-06-14T15:01:49.875Z,english_799.wav,0,1,447,20,3,Chinese,f,3,0.3,5.71676827,0.6616034
QMH,122,2,2024-06-14T15:01:49.875Z,english_799.wav,0,1,447,20,3,Chinese,f,4,0.32341667,30.27282792,1.91183458
QMH,123,2,2024-06-14T15:01:49.875Z,english_480.wav,0,0,781,20,3,Chinese,f,0,0,-9.10453384,0.61491247
QMH,123,2,2024-06-14T15:01:49.875Z,english_480.wav,0,0,781,20,3,Chinese,f,1,0.1,72.09708103,1.35502449
QMH,123,2,2024-06-14T15:01:49.875Z,english_480.wav,0,0,781,20,3,Chinese,f,2,0.2,-73.7181862,0.28674933
QMH,123,2,2024-06-14T15:01:49.875Z,english_480.wav,0,0,781,20,3,Chinese,f,3,0.3,18.73451671,0.14653082
QMH,123,2,2024-06-14T15:01:49.875Z,english_480.wav,0,0,781,20,3,Chinese,f,4,0.32341667,83.35837597,1.34653786
QMH,124,2,2024-06-14T15:01:49.875Z,english_466.wav,0,1,289,20,3,Chinese,f,0,0,59.64739432,1.91119383
QMH,124,2,2024-06-14T15:01:49.875Z,english_466.wav,0,1,289,20,3,Chinese,f,1,0.1,-20.63646321,1.29572765
QMH,124,2,2024-06-14T15:01:49.875Z,english_466.wav,0,1,289,20,3,Chinese,f,2,0.2,62.86141463,0.99944191
QMH,124,2,2024-06-14T15:01:49.875Z,english_466.wav,0,1,289,20,3,Chinese,f,3,0.3,-65.74461877,1.01221774
QMH,124,2,2024-06-14T15:01:49.875Z,english_466.wav,0,1,289,20,3,Chinese,f,4,0.32341667,44.70090984,0.89697717
QMH,125,2,2024-06-14T15:01:49.875Z,english_816.wav,0,1,2219,20,3,Chinese,f,0,0,-5.39935373,0.27372013
QMH,125,2,2024-06-14T15:01:49.875Z,english_816.wav,0,1,2219,20,3,Chinese,f,1,0.1,-58.12348851,1.23542608
QMH,125,2,2024-06-14T15:01:49.875Z,english_816.wav,0,1,2219,20,3,Chinese,f,2,0.2,-97.19740724,1.6956732
QMH,125,2,2024-06-14T15:01:49.875Z,english_816.wav,0,1,2219,20,3,Chinese,f,3,0.3,4.60418864,0.17466083
QMH,125,2,2024-06-14T15:01:49.875Z,english_816.wav,0,1,2219,20,3,Chinese,f,4,0.32341667,57.92285533,0.69657013
QMH,126,2,2024-06-14T15:01:49.875Z,english_998.wav,0,0,1890,20,3,Chinese,f,0,0,-57.03196796,0.0179282
QMH,126,2,2024-06-14T15:01:49.875Z,english_998.wav,0,0,1890,20,3,Chinese,f,1,0.1,-12.93623633,1.72217412
QMH,126,2,2024-06-14T15:01:49.875Z,english_998.wav,0,0,1890,20,3,Chinese,f,2,0.2,-24.63186366,0.91011795
QMH,126,2,2024-06-14T15:01:49.875Z,english_998.wav,0,0,1890,20,3,Chinese,f,3,0.3,-10.49750637,1.24282972
QMH,126,2,2024-06-14T15:01:49.875Z,english_998.wav,0,0,1890,20,3,Chinese,f,4,0.32341667,22.76793653,0.40520665
QMH,127,2,2024-06-14T15:01:49.875Z,english_865.wav,0,0,646,20,3,Chinese,f,0,0,57.45647421,1.64387024
QMH,127,2,2024-06-14T15:01:49.875Z,english_865.wav,0,0,646,20,3,Chinese,f,1,0.1,-62.30549211,0.05749027
QMH,127,2,2024-06-14T15:01:49.875Z,english_865.wav,0,0,646,20,3,Chinese,f,2,0.2,-35.85649312,0.09554773
QMH,127,2,2024-06-14T15:01:49.875Z,english_865.wav,0,0,646,20,3,Chinese,f,3,0.3,55.00701181,1.62598434
QMH,127,2,2024-06-14T15:01:49.875Z,english_865.wav,0,0,646,20,3,Chinese,f,4,0.32341667,-39.97662747,0.71232625
QMH,128,2,2024-06-14T15:01:49.875Z,english_636.wav,0,1,320,20,3,Chinese,f,0,0,-20.37295141,1.69276631
QMH,128,2,2024-06-14T15:01:49.875Z,english_636.wav,0,1,320,20,3,Chinese,f,1,0.1,-84.7288786,1.69908726
QMH,128,2,2024-06-14T15:01:49.875Z,english_636.wav,0,1,320,20,3,Chinese,f,2,0.2,24.84265136,1.44836333
QMH,128,2,2024-06-14T15:01:49.875Z,english_636.wav,0,1,320,20,3,Chinese,f,3,0.3,-9.2443485,1.36647816
QMH,128,2,2024-06-14T15:01:49.875Z,english_636.wav,0,1,320,20,3,Chinese,f,4,0.32341667,49.04875774,0.88112598
QMH,129,2,2024-06-14T15:01:49.875Z,english_440.wav,0,1,506,20,3,Chinese,f,0,0,44.70308901,1.51497438
QMH,129,2,2024-06-14T15:01:49.875Z,english_440.wav,0,1,506,20,3,Chinese,f,1,0.1,-88.0257567,1.05972447
QMH,129,2,2024-06-14T15:01:49.875Z,english_440.wav,0,1,506,20,3,Chinese,f,2,0.2,1.19893433,0.590820378
QMH,129,2,2024-06-14T15:01:49.875Z,english_440.wav,0,1,506,20,3,Chinese,f,3,0.3,19.45485395,0.680586803
QMH,129,2,2024-06-14T15:01:49.875Z,english_440.wav,0,1,506,20,3,Chinese,f,4,0.32341667,13.00088222,0.000618341324
QMH,130,2,2024-06-14T15:01:49.875Z,english_148.wav,0,0,419,20,3,Chinese,f,0,0,-15.87588743,0.13468567
QMH,130,2,2024-06-14T15:01:49.875Z,english_148.wav,0,0,419,20,3,Chinese,f,1,0.1,66.05332506,1.11017862
QMH,130,2,2024-06-14T15:01:49.875Z,english_148.wav,0,0,419,20,3,Chinese,f,2,0.2,50.59551539,0.42983488
QMH,130,2,2024-06-14T15:01:49.875Z,english_148.wav,0,0,419,20,3,Chinese,f,3,0.3,-59.45276716,0.2729575
QMH,130,2,2024-06-14T15:01:49.875Z,english_148.wav,0,0,419,20,3,Chinese,f,4,0.32341667,58.4155276,0.65396017
QMH,131,2,2024-06-14T15:01:49.875Z,english_441.wav,0,1,592,20,3,Chinese,f,0,0,-34.50722314,1.86415324
QMH,131,2,2024-06-14T15:01:49.875Z,english_441.wav,0,1,592,20,3,Chinese,f,1,0.1,91.55175756,1.34062972
QMH,131,2,2024-06-14T15:01:49.875Z,english_441.wav,0,1,592,20,3,Chinese,f,2,0.2,-74.07917439,1.20894222
QMH,131,2,2024-06-14T15:01:49.875Z,english_441.wav,0,1,592,20,3,Chinese,f,3,0.3,82.08396891,0.00248362
QMH,131,2,2024-06-14T15:01:49.875Z,english_441.wav,0,1,592,20,3,Chinese,f,4,0.32341667,13.2563292,0.67485278
QMH,132,2,2024-06-14T15:01:49.875Z,english_968.wav,0,0,1098,20,3,Chinese,f,0,0,-36.76350372,0.52322451
QMH,132,2,2024-06-14T15:01:49.875Z,english_968.wav,0,0,1098,20,3,Chinese,f,1,0.1,-99.8991193,0.66419732
QMH,132,2,2024-06-14T15:01:49.875Z,english_968.wav,0,0,1098,20,3,Chinese,f,2,0.2,27.503089,0.44232096
QMH,132,2,2024-06-14T15:01:49.875Z,english_968.wav,0,0,1098,20,3,Chinese,f,3,0.3,-34.85106147,1.90778707
QMH,132,2,2024-06-14T15:01:49.875Z,english_968.wav,0,0,1098,20,3,Chinese,f,4,0.32341667,68.2869663,0.59652698
QMH,133,2,2024-06-14T15:01:49.875Z,english_325.wav,0,1,1657,20,3,Chinese,f,0,0,-36.86035688,0.2784687
QMH,133,2,2024-06-14T15:01:49.875Z,english_325.wav,0,1,1657,20,3,Chinese,f,1,0.1,-55.38569655,1.41229923
QMH,133,2,2024-06-14T15:01:49.875Z,english_325.wav,0,1,1657,20,3,Chinese,f,2,0.2,-56.86017215,0.83316938
QMH,133,2,2024-06-14T15:01:49.875Z,english_325.wav,0,1,1657,20,3,Chinese,f,3,0.3,-98.19449268,0.3465596
QMH,133,2,2024-06-14T15:01:49.875Z,english_325.wav,0,1,1657,20,3,Chinese,f,4,0.32341667,-6.42447902,1.41863786
QMH,134,2,2024-06-14T15:01:49.875Z,english_994.wav,0,1,388,20,3,Chinese,f,0,0,53.6083957,1.72152032
QMH,134,2,2024-06-14T15:01:49.875Z,english_994.wav,0,1,388,20,3,Chinese,f,1,0.1,62.5650281,0.97077126
QMH,134,2,2024-06-14T15:01:49.875Z,english_994.wav,0,1,388,20,3,Chinese,f,2,0.2,91.00734213,1.1154275
QMH,134,2,2024-06-14T15:01:49.875Z,english_994.wav,0,1,388,20,3,Chinese,f,3,0.3,-14.6853323,0.93534142
QMH,134,2,2024-06-14T15:01:49.875Z,english_994.wav,0,1,388,20,3,Chinese,f,4,0.32341667,42.94025292,1.51312842
QMH,135,2,2024-06-14T15:01:49.875Z,english_877.wav,0,1,1599,20,3,Chinese,f,0,0,49.36401037,1.25510861
QMH,135,2,2024-06-14T15:01:49.875Z,english_877.wav,0,1,1599,20,3,Chinese,f,1,0.1,15.17280231,0.84700305
QMH,135,2,2024-06-14T15:01:49.875Z,english_877.wav,0,1,1599,20,3,Chinese,f,2,0.2,22.36436744,0.32703774
QMH,135,2,2024-06-14T15:01:49.875Z,english_877.wav,0,1,1599,20,3,Chinese,f,3,0.3,-25.51979868,1.72637958
QMH,135,2,2024-06-14T15:01:49.875Z,english_877.wav,0,1,1599,20,3,Chinese,f,4,0.32341667,-55.72443313,0.52117686
QMH,136,2,2024-06-14T15:01:49.875Z,english_373.wav,0,1,499,20,3,Chinese,f,0,0,-63.66458186,0.61104768
QMH,136,2,2024-06-14T15:01:49.875Z,english_373.wav,0,1,499,20,3,Chinese,f,1,0.1,-61.42386056,1.64905001
QMH,136,2,2024-06-14T15:01:49.875Z,english_373.wav,0,1,499,20,3,Chinese,f,2,0.2,-78.74831974,1.44355649
QMH,136,2,2024-06-14T15:01:49.875Z,english_373.wav,0,1,499,20,3,Chinese,f,3,0.3,-23.23108213,1.63671726
QMH,136,2,2024-06-14T15:01:49.875Z,english_373.wav,0,1,499,20,3,Chinese,f,4,0.32341667,-77.15694383,1.96911306
QMH,137,2,2024-06-14T15:01:49.875Z,english_885.wav,0,0,402,20,3,Chinese,f,0,0,36.3288655,0.78617108
QMH,137,2,2024-06-14T15:01:49.875Z,english_885.wav,0,0,402,20,3,Chinese,f,1,0.1,-33.4786966,0.96292114
QMH,137,2,2024-06-14T15:01:49.875Z,english_885.wav,0,0,402,20,3,Chinese,f,2,0.2,8.05827153,0.70266535
QMH,137,2,2024-06-14T15:01:49.875Z,english_885.wav,0,0,402,20,3,Chinese,f,3,0.3,84.98004341,0.45613544
QMH,137,2,2024-06-14T15:01:49.875Z,english_885.wav,0,0,402,20,3,Chinese,f,4,0.32341667,-34.65749493,0.81873504
QMH,138,2,2024-06-14T15:01:49.875Z,english_488.wav,0,0,898,20,3,Chinese,f,0,0,7.19120882,0.55609806
QMH,138,2,2024-06-14T15:01:49.875Z,english_488.wav,0,0,898,20,3,Chinese,f,1,0.1,11.64873536,1.36121935
QMH,138,2,2024-06-14T15:01:49.875Z,english_488.wav,0,0,898,20,3,Chinese,f,2,0.2,59.26032861,0.93872915
QMH,138,2,2024-06-14T15:01:49.875Z,english_488.wav,0,0,898,20,3,Chinese,f,3,0.3,-31.0631162,1.52041262
QMH,138,2,2024-06-14T15:01:49.875Z,english_488.wav,0,0,898,20,3,Chinese,f,4,0.32341667,23.8619583,1.83140972
QMH,139,2,2024-06-14T15:01:49.875Z,english_886.wav,0,0,1093,20,3,Chinese,f,0,0,52.0334205,0.43451348
QMH,139,2,2024-06-14T15:01:49.875Z,english_886.wav,0,0,1093,20,3,Chinese,f,1,0.1,-34.60142464,1.57387994
QMH,139,2,2024-06-14T15:01:49.875Z,english_886.wav,0,0,1093,20,3,Chinese,f,2,0.2,77.69993065,1.05416836
QMH,139,2,2024-06-14T15:01:49.875Z,english_886.wav,0,0,1093,20,3,Chinese,f,3,0.3,29.08950905,0.32554246
QMH,139,2,2024-06-14T15:01:49.875Z,english_886.wav,0,0,1093,20,3,Chinese,f,4,0.32341667,-98.8324779,1.85669509
QMH,140,2,2024-06-14T15:01:49.875Z,english_802.wav,0,1,445,20,3,Chinese,f,0,0,44.11448731,1.89082481
QMH,140,2,2024-06-14T15:01:49.875Z,english_802.wav,0,1,445,20,3,Chinese,f,1,0.1,27.89646601,1.73386287
QMH,140,2,2024-06-14T15:01:49.875Z,english_802.wav,0,1,445,20,3,Chinese,f,2,0.2,-19.36127415,0.34468699
QMH,140,2,2024-06-14T15:01:49.875Z,english_802.wav,0,1,445,20,3,Chinese,f,3,0.3,15.17899174,0.39328876
QMH,140,2,2024-06-14T15:01:49.875Z,english_802.wav,0,1,445,20,3,Chinese,f,4,0.32341667,-18.70870555,1.25778986
QMH,141,2,2024-06-14T15:01:49.875Z,english_194.wav,0,1,890,20,3,Chinese,f,0,0,46.99725025,0.38230397
QMH,141,2,2024-06-14T15:01:49.875Z,english_194.wav,0,1,890,20,3,Chinese,f,1,0.1,-37.20381284,1.33246395
QMH,141,2,2024-06-14T15:01:49.875Z,english_194.wav,0,1,890,20,3,Chinese,f,2,0.2,13.86947558,1.31276464
QMH,141,2,2024-06-14T15:01:49.875Z,english_194.wav,0,1,890,20,3,Chinese,f,3,0.3,79.77232086,0.22397005
QMH,141,2,2024-06-14T15:01:49.875Z,english_194.wav,0,1,890,20,3,Chinese,f,4,0.32341667,49.46244041,1.74931967
QMH,142,2,2024-06-14T15:01:49.875Z,english_3.wav,0,1,552,20,3,Chinese,f,0,0,-57.66547148,1.73485112
QMH,142,2,2024-06-14T15:01:49.875Z,english_3.wav,0,1,552,20,3,Chinese,f,1,0.1,-70.60568286,1.4226462
QMH,142,2,2024-06-14T15:01:49.875Z,english_3.wav,0,1,552,20,3,Chinese,f,2,0.2,70.86912423,1.06235888
QMH,142,2,2024-06-14T15:01:49.875Z,english_3.wav,0,1,552,20,3,Chinese,f,3,0.3,-17.39285893,1.05619652
QMH,142,2,2024-06-14T15:01:49.875Z,english_3.wav,0,1,552,20,3,Chinese,f,4,0.32341667,-60.61780379,1.35606233
QMH,143,2,2024-06-14T15:01:49.875Z,english_714.wav,0,1,623,20,3,Chinese,f,0,0,6.62463448,0.98205871
QMH,143,2,2024-06-14T15:01:49.875Z,english_714.wav,0,1,623,20,3,Chinese,f,1,0.1,-7.37775178,1.90018259
QMH,143,2,2024-06-14T15:01:49.875Z,english_714.wav,0,1,623,20,3,Chinese,f,2,0.2,-58.74003357,1.33033281
QMH,143,2,2024-06-14T15:01:49.875Z,english_714.wav,0,1,623,20,3,Chinese,f,3,0.3,-38.84014254,0.20009115
QMH,143,2,2024-06-14T15:01:49.875Z,english_714.wav,0,1,623,20,3,Chinese,f,4,0.32341667,-23.67047323,0.44650169
QMH,144,2,2024-06-14T15:01:49.875Z,english_921.wav,0,0,400,20,3,Chinese,f,0,0,60.93482672,0.06624465
QMH,144,2,2024-06-14T15:01:49.875Z,english_921.wav,0,0,400,20,3,Chinese,f,1,0.1,-71.63665921,1.88925143
QMH,144,2,2024-06-14T15:01:49.875Z,english_921.wav,0,0,400,20,3,Chinese,f,2,0.2,-30.77028929,0.40013084
QMH,144,2,2024-06-14T15:01:49.875Z,english_921.wav,0,0,400,20,3,Chinese,f,3,0.3,-44.68164597,1.26601564
QMH,144,2,2024-06-14T15:01:49.875Z,english_921.wav,0,0,400,20,3,Chinese,f,4,0.32341667,34.59415858,1.98956357
QMH,145,2,2024-06-14T15:01:49.875Z,english_220.wav,0,1,710,20,3,Chinese,f,0,0,-49.83323752,1.6244524
QMH,145,2,2024-06-14T15:01:49.875Z,english_220.wav,0,1,710,20,3,Chinese,f,1,0.1,49.13629021,0.7812698
QMH,145,2,2024-06-14T15:01:49.875Z,english_220.wav,0,1,710,20,3,Chinese,f,2,0.2,10.673463,1.29736816
QMH,145,2,2024-06-14T15:01:49.875Z,english_220.wav,0,1,710,20,3,Chinese,f,3,0.3,-2.35218347,1.3419496
QMH,145,2,2024-06-14T15:01:49.875Z,english_220.wav,0,1,710,20,3,Chinese,f,4,0.32341667,-2.61587219,1.06575232
QMH,146,2,2024-06-14T15:01:49.875Z,english_219.wav,0,0,687,20,3,Chinese,f,0,0,38.40040381,1.09142553
QMH,146,2,2024-06-14T15:01:49.875Z,english_219.wav,0,0,687,20,3,Chinese,f,1,0.1,-26.23926727,0.5740428
QMH,146,2,2024-06-14T15:01:49.875Z,english_219.wav,0,0,687,20,3,Chinese,f,2,0.2,-57.67558578,1.19056911
QMH,146,2,2024-06-14T15:01:49.875Z,english_219.wav,0,0,687,20,3,Chinese,f,3,0.3,50.56926795,1.87089358
QMH,146,2,2024-06-14T15:01:49.875Z,english_219.wav,0,0,687,20,3,Chinese,f,4,0.32341667,64.39220397,1.06933149
QMH,147,2,2024-06-14T15:01:49.875Z,english_891.wav,0,0,685,20,3,Chinese,f,0,0,21.29241244,0.7419472
QMH,147,2,2024-06-14T15:01:49.875Z,english_891.wav,0,0,685,20,3,Chinese,f,1,0.1,-1.23713702,1.09270952
QMH,147,2,2024-06-14T15:01:49.875Z,english_891.wav,0,0,685,20,3,Chinese,f,2,0.2,-74.86460599,0.8129571
QMH,147,2,2024-06-14T15:01:49.875Z,english_891.wav,0,0,685,20,3,Chinese,f,3,0.3,18.81587233,0.16019775
QMH,147,2,2024-06-14T15:01:49.875Z,english_891.wav,0,0,685,20,3,Chinese,f,4,0.32341667,35.3489582,1.17476401
QMH,148,2,2024-06-14T15:01:49.875Z,english_272.wav,0,1,618,20,3,Chinese,f,0,0,61.82030971,1.51341556
QMH,148,2,2024-06-14T15:01:49.875Z,english_272.wav,0,1,618,20,3,Chinese,f,1,0.1,4.16580657,0.43290826
QMH,148,2,2024-06-14T15:01:49.875Z,english_272.wav,0,1,618,20,3,Chinese,f,2,0.2,-53.2567432,1.82734584
QMH,148,2,2024-06-14T15:01:49.875Z,english_272.wav,0,1,618,20,3,Chinese,f,3,0.3,-52.99830768,0.22094446
QMH,148,2,2024-06-14T15:01:49.875Z,english_272.wav,0,1,618,20,3,Chinese,f,4,0.32341667,-92.9943793,1.88040337
QMH,149,2,2024-06-14T15:01:49.875Z,english_953.wav,0,0,1111,20,3,Chinese,f,0,0,-16.02430182,0.31806788
QMH,149,2,2024-06-14T15:01:49.875Z,english_953.wav,0,0,1111,20,3,Chinese,f,1,0.1,29.58660593,0.5983964
QMH,149,2,2024-06-14T15:01:49.875Z,english_953.wav,0,0,1111,20,3,Chinese,f,2,0.2,-69.77021268,1.47459901
QMH,149,2,2024-06-14T15:01:49.875Z,english_953.wav,0,0,1111,20,3,Chinese,f,3,0.3,10.24378989,1.63555671
QMH,149,2,2024-06-14T15:01:49.875Z,english_953.wav,0,0,1111,20,3,Chinese,f,4,0.32341667,-68.66835117,1.74756834
QMH,150,3,2024-06-14T15:01:49.875Z,english_239.wav,0,0,796,20,3,Chinese,f,0,0,87.44943986,1.42022081
QMH,150,3,2024-06-14T15:01:49.875Z,english_239.wav,0,0,796,20,3,Chinese,f,1,0.1,50.09814929,0.64261102
QMH,150,3,2024-06-14T15:01:49.875Z,english_239.wav,0,0,796,20,3,Chinese,f,2,0.2,-20.91132269,0.17156284
QMH,150,3,2024-06-14T15:01:49.875Z,english_239.wav,0,0,796,20,3,Chinese,f,3,0.3,1.56869958,1.89365974
QMH,150,3,2024-06-14T15:01:49.875Z,english_239.wav,0,0,796,20,3,Chinese,f,4,0.32341667,15.23790706,1.86939691
QMH,151,3,2024-06-14T15:01:49.875Z,english_647.wav,0,1,423,20,3,Chinese,f,0,0,-8.76796469,1.6238225
QMH,151,3,2024-06-14T15:01:49.875Z,english_647.wav,0,1,423,20,3,Chinese,f,1,0.1,-49.13996982,1.56934089
QMH,151,3,2024-06-14T15:01:49.875Z,english_647.wav,0,1,423,20,3,Chinese,f,2,0.2,43.79634461,0.78560304
QMH,151,3,2024-06-14T15:01:49.875Z,english_647.wav,0,1,423,20,3,Chinese,f,3,0.3,5.5781311,0.61771672
QMH,151,3,2024-06-14T15:01:49.875Z,english_647.wav,0,1,423,20,3,Chinese,f,4,0.32341667,17.41251701,1.2404866
QMH,152,3,2024-06-14T15:01:49.875Z,english_836.wav,0,0,436,20,3,Chinese,f,0,0,34.85846782,1.04017402
QMH,152,3,2024-06-14T15:01:49.875Z,english_836.wav,0,0,436,20,3,Chinese,f,1,0.1,41.54458908,0.35535359
QMH,152,3,2024-06-14T15:01:49.875Z,english_836.wav,0,0,436,20,3,Chinese,f,2,0.2,23.27363575,0.10471693
QMH,152,3,2024-06-14T15:01:49.875Z,english_836.wav,0,0,436,20,3,Chinese,f,3,0.3,86.83996211,0.55523491
QMH,152,3,2024-06-14T15:01:49.875Z,english_836.wav,0,0,436,20,3,Chinese,f,4,0.32341667,-32.25656931,0.70311776
QMH,153,3,2024-06-14T15:01:49.875Z,english_887.wav,0,1,1313,20,3,Chinese,f,0,0,21.36154006,0.58574694
QMH,153,3,2024-06-14T15:01:49.875Z,english_887.wav,0,1,1313,20,3,Chinese,f,1,0.1,-21.46213737,0.48413962
QMH,153,3,2024-06-14T15:01:49.875Z,english_887.wav,0,1,1313,20,3,Chinese,f,2,0.2,-45.53850124,1.16923549
QMH,153,3,2024-06-14T15:01:49.875Z,english_887.wav,0,1,1313,20,3,Chinese,f,3,0.3,-75.36110743,1.46190157
QMH,153,3,2024-06-14T15:01:49.875Z,english_887.wav,0,1,1313,20,3,Chinese,f,4,0.32341667,-96.67184991,0.00789239
QMH,154,3,2024-06-14T15:01:49.875Z,english_32.wav,0,1,583,20,3,Chinese,f,0,0,89.50349963,1.73304916
QMH,154,3,2024-06-14T15:01:49.875Z,english_32.wav,0,1,583,20,3,Chinese,f,1,0.1,51.51128255,0.02192789
QMH,154,3,2024-06-14T15:01:49.875Z,english_32.wav,0,1,583,20,3,Chinese,f,2,0.2,-58.32910347,1.71493142
QMH,154,3,2024-06-14T15:01:49.875Z,english_32.wav,0,1,583,20,3,Chinese,f,3,0.3,15.96172744,1.28451373
QMH,154,3,2024-06-14T15:01:49.875Z,english_32.wav,0,1,583,20,3,Chinese,f,4,0.32341667,84.40449403,1.22971166
QMH,155,3,2024-06-14T15:01:49.875Z,english_26.wav,0,1,338,20,3,Chinese,f,0,0,54.38966875,1.86679487
QMH,155,3,2024-06-14T15:01:49.875Z,english_26.wav,0,1,338,20,3,Chinese,f,1,0.1,0.3460174,0.79762949
QMH,155,3,2024-06-14T15:01:49.875Z,english_26.wav,0,1,338,20,3,Chinese,f,2,0.2,-72.33258957,0.93682052
QMH,155,3,2024-06-14T15:01:49.875Z,english_26.wav,0,1,338,20,3,Chinese,f,3,0.3,67.09142092,1.42469209
QMH,155,3,2024-06-14T15:01:49.875Z,english_26.wav,0,1,338,20,3,Chinese,f,4,0.32341667,16.00565239,1.17807545
QMH,156,3,2024-06-14T15:01:49.875Z,english_75.wav,0,1,464,20,3,Chinese,f,0,0,-9.18091647,0.92930856
QMH,156,3,2024-06-14T15:01:49.875Z,english_75.wav,0,1,464,20,3,Chinese,f,1,0.1,-62.02164907,1.94000482
QMH,156,3,2024-06-14T15:01:49.875Z,english_75.wav,0,1,464,20,3,Chinese,f,2,0.2,-12.90623207,1.2183621
QMH,156,3,2024-06-14T15:01:49.875Z,english_75.wav,0,1,464,20,3,Chinese,f,3,0.3,15.17089036,0.47349695
QMH,156,3,2024-06-14T15:01:49.875Z,english_75.wav,0,1,464,20,3,Chinese,f,4,0.32341667,10.89352922,1.02561006
QMH,157,3,2024-06-14T15:01:49.875Z,english_890.wav,0,1,313,20,3,Chinese,f,0,0,-68.21158685,0.82535308
QMH,157,3,2024-06-14T15:01:49.875Z,english_890.wav,0,1,313,20,3,Chinese,f,1,0.1,-83.19360642,1.79167423
QMH,157,3,2024-06-14T15:01:49.875Z,english_890.wav,0,1,313,20,3,Chinese,f,2,0.2,79.13343252,0.78297904
QMH,157,3,2024-06-14T15:01:49.875Z,english_890.wav,0,1,313,20,3,Chinese,f,3,0.3,80.54326003,0.23441015
QMH,157,3,2024-06-14T15:01:49.875Z,english_890.wav,0,1,313,20,3,Chinese,f,4,0.32341667,-30.48737523,1.41044901
QMH,158,3,2024-06-14T15:01:49.875Z,english_460.wav,0,0,1091,20,3,Chinese,f,0,0,-93.21492338,1.97422145
QMH,158,3,2024-06-14T15:01:49.875Z,english_460.wav,0,0,1091,20,3,Chinese,f,1,0.1,-65.59669931,0.48313428
QMH,158,3,2024-06-14T15:01:49.875Z,english_460.wav,0,0,1091,20,3,Chinese,f,2,0.2,76.47030005,0.91916034
QMH,158,3,2024-06-14T15:01:49.875Z,english_460.wav,0,0,1091,20,3,Chinese,f,3,0.3,-24.62267943,0.34121923
QMH,158,3,2024-06-14T15:01:49.875Z,english_460.wav,0,0,1091,20,3,Chinese,f,4,0.32341667,17.6428759,0.75894887
QMH,159,3,2024-06-14T15:01:49.875Z,english_265.wav,0,1,1151,20,3,Chinese,f,0,0,-30.2287418,1.31067296
QMH,159,3,2024-06-14T15:01:49.875Z,english_265.wav,0,1,1151,20,3,Chinese,f,1,0.1,86.62283936,0.87427745
QMH,159,3,2024-06-14T15:01:49.875Z,english_265.wav,0,1,1151,20,3,Chinese,f,2,0.2,-21.47577863,1.37620008
QMH,159,3,2024-06-14T15:01:49.875Z,english_265.wav,0,1,1151,20,3,Chinese,f,3,0.3,84.9300577,0.45825557
QMH,159,3,2024-06-14T15:01:49.875Z,english_265.wav,0,1,1151,20,3,Chinese,f,4,0.32341667,59.52250756,1.13518739
QMH,160,3,2024-06-14T15:01:49.875Z,english_574.wav,0,0,1258,20,3,Chinese,f,0,0,53.128433,0.28349694
QMH,160,3,2024-06-14T15:01:49.875Z,english_574.wav,0,0,1258,20,3,Chinese,f,1,0.1,70.24248151,0.66519348
QMH,160,3,2024-06-14T15:01:49.875Z,english_574.wav,0,0,1258,20,3,Chinese,f,2,0.2,47.13290739,1.25768036
QMH,160,3,2024-06-14T15:01:49.875Z,english_574.wav,0,0,1258,20,3,Chinese,f,3,0.3,52.31480293,1.43482954
QMH,160,3,2024-06-14T15:01:49.875Z,english_574.wav,0,0,1258,20,3,Chinese,f,4,0.32341667,-33.06438127,1.23350688
QMH,161,3,2024-06-14T15:01:49.875Z,english_501.wav,0,1,359,20,3,Chinese,f,0,0,-7.07122187,1.4737248
QMH,161,3,2024-06-14T15:01:49.875Z,english_501.wav,0,1,359,20,3,Chinese,f,1,0.1,10.00250781,1.10212017
QMH,161,3,2024-06-14T15:01:49.875Z,english_501.wav,0,1,359,20,3,Chinese,f,2,0.2,-21.98285256,1.65595948
QMH,161,3,2024-06-14T15:01:49.875Z,english_501.wav,0,1,359,20,3,Chinese,f,3,0.3,46.16062549,0.64757112
QMH,161,3,2024-06-14T15:01:49.875Z,english_501.wav,0,1,359,20,3,Chinese,f,4,0.32341667,41.01655214,0.36171009
QMH,162,3,2024-06-14T15:01:49.875Z,english_23.wav,0,1,749,20,3,Chinese,f,0,0,-50.80982819,0.58244855
QMH,162,3,2024-06-14T15:01:49.875Z,english_23.wav,0,1,749,20,3,Chinese,f,1,0.1,76.10516215,1.77510268
QMH,162,3,2024-06-14T15:01:49.875Z,english_23.wav,0,1,749,20,3,Chinese,f,2,0.2,-90.32463898,0.60847707
QMH,162,3,2024-06-14T15:01:49.875Z,english_23.wav,0,1,749,20,3,Chinese,f,3,0.3,15.76928166,0.62114149
QMH,162,3,2024-06-14T15:01:49.875Z,english_23.wav,0,1,749,20,3,Chinese,f,4,0.32341667,-7.56392806,1.60162938
QMH,163,3,2024-06-14T15:01:49.875Z,english_398.wav,0,1,1016,20,3,Chinese,f,0,0,-72.24204172,0.50855809
QMH,163,3,2024-06-14T15:01:49.875Z,english_398.wav,0,1,1016,20,3,Chinese,f,1,0.1,29.80242672,0.68040596
QMH,163,3,2024-06-14T15:01:49.875Z,english_398.wav,0,1,1016,20,3,Chinese,f,2,0.2,-29.26741326,1.59063958
QMH,163,3,2024-06-14T15:01:49.875Z,english_398.wav,0,1,1016,20,3,Chinese,f,3,0.3,30.68380911,1.71035635
QMH,163,3,2024-06-14T15:01:49.875Z,english_398.wav,0,1,1016,20,3,Chinese,f,4,0.32341667,-23.61694816,1.737831
QMH,164,3,2024-06-14T15:01:49.875Z,english_902.wav,0,0,663,20,3,Chinese,f,0,0,-4.27617126,0.16330526
QMH,164,3,2024-06-14T15:01:49.875Z,english_902.wav,0,0,663,20,3,Chinese,f,1,0.1,-5.01127315,0.62492789
QMH,164,3,2024-06-14T15:01:49.875Z,english_902.wav,0,0,663,20,3,Chinese,f,2,0.2,83.22080084,1.08638924
QMH,164,3,2024-06-14T15:01:49.875Z,english_902.wav,0,0,663,20,3,Chinese,f,3,0.3,77.56473772,1.61764227
QMH,164,3,2024-06-14T15:01:49.875Z,english_902.wav,0,0,663,20,3,Chinese,f,4,0.32341667,-13.02741535,1.72075309
QMH,165,3,2024-06-14T15:01:49.875Z,english_55.wav,0,0,810,20,3,Chinese,f,0,0,71.89255128,0.24931264
QMH,165,3,2024-06-14T15:01:49.875Z,english_55.wav,0,0,810,20,3,Chinese,f,1,0.1,0.20692224,1.79813092
QMH,165,3,2024-06-14T15:01:49.875Z,english_55.wav,0,0,810,20,3,Chinese,f,2,0.2,-68.61006599,0.71729895
QMH,165,3,2024-06-14T15:01:49.875Z,english_55.wav,0,0,810,20,3,Chinese,f,3,0.3,-5.20952515,1.28733782
QMH,165,3,2024-06-14T15:01:49.875Z,english_55.wav,0,0,810,20,3,Chinese,f,4,0.32341667,28.45991968,1.77061752
QMH,166,3,2024-06-14T15:01:49.875Z,english_304.wav,0,0,680,20,3,Chinese,f,0,0,-80.7192326,0.54130022
QMH,166,3,2024-06-14T15:01:49.875Z,english_304.wav,0,0,680,20,3,Chinese,f,1,0.1,34.14230443,0.20766845
QMH,166,3,2024-06-14T15:01:49.875Z,english_304.wav,0,0,680,20,3,Chinese,f,2,0.2,-43.78548789,1.25157904
QMH,166,3,2024-06-14T15:01:49.875Z,english_304.wav,0,0,680,20,3,Chinese,f,3,0.3,85.79520644,0.76195837
QMH,166,3,2024-06-14T15:01:49.875Z,english_304.wav,0,0,680,20,3,Chinese,f,4,0.32341667,-29.32737886,0.20991234
QMH,167,3,2024-06-14T15:01:49.875Z,english_365.wav,0,0,1138,20,3,Chinese,f,0,0,58.11205919,0.53708026
QMH,167,3,2024-06-14T15:01:49.875Z,english_365.wav,0,0,1138,20,3,Chinese,f,1,0.1,-61.04014877,1.10456153
QMH,167,3,2024-06-14T15:01:49.875Z,english_365.wav,0,0,1138,20,3,Chinese,f,2,0.2,12.43042802,1.31731937
QMH,167,3,2024-06-14T15:01:49.875Z,english_365.wav,0,0,1138,20,3,Chinese,f,3,0.3,17.00746388,1.02387946
QMH,167,3,2024-06-14T15:01:49.875Z,english_365.wav,0,0,1138,20,3,Chinese,f,4,0.32341667,-69.10644956,1.31633463
QMH,168,3,2024-06-14T15:01:49.875Z,english_932.wav,0,0,867,20,3,Chinese,f,0,0,-3.8848098,1.00949787
QMH,168,3,2024-06-14T15:01:49.875Z,english_932.wav,0,0,867,20,3,Chinese,f,1,0.1,-32.48916274,1.44703087
QMH,168,3,2024-06-14T15:01:49.875Z,english_932.wav,0,0,867,20,3,Chinese,f,2,0.2,81.26251807,0.10808594
QMH,168,3,2024-06-14T15:01:49.875Z,english_932.wav,0,0,867,20,3,Chinese,f,3,0.3,-18.23478105,0.03465182
QMH,168,3,2024-06-14T15:01:49.875Z,english_932.wav,0,0,867,20,3,Chinese,f,4,0.32341667,7.90132089,0.79845554
QMH,169,3,2024-06-14T15:01:49.875Z,english_366.wav,0,0,679,20,3,Chinese,f,0,0,30.08929792,0.87054072
QMH,169,3,2024-06-14T15:01:49.875Z,english_366.wav,0,0,679,20,3,Chinese,f,1,0.1,-17.9139155,0.34658018
QMH,169,3,2024-06-14T15:01:49.875Z,english_366.wav,0,0,679,20,3,Chinese,f,2,0.2,-66.75779592,0.49970414
QMH,169,3,2024-06-14T15:01:49.875Z,english_366.wav,0,0,679,20,3,Chinese,f,3,0.3,77.64459909,1.94720887
QMH,169,3,2024-06-14T15:01:49.875Z,english_366.wav,0,0,679,20,3,Chinese,f,4,0.32341667,72.64294537,1.76390144
QMH,170,3,2024-06-14T15:01:49.875Z,english_866.wav,0,0,760,20,3,Chinese,f,0,0,-75.90204766,0.10539101
QMH,170,3,2024-06-14T15:01:49.875Z,english_866.wav,0,0,760,20,3,Chinese,f,1,0.1,-89.66881049,1.63294926
QMH,170,3,2024-06-14T15:01:49.875Z,english_866.wav,0,0,760,20,3,Chinese,f,2,0.2,-86.78535298,0.21421971
QMH,170,3,2024-06-14T15:01:49.875Z,english_866.wav,0,0,760,20,3,Chinese,f,3,0.3,50.96369643,1.47001367
QMH,170,3,2024-06-14T15:01:49.875Z,english_866.wav,0,0,760,20,3,Chinese,f,4,0.32341667,36.94157773,1.56453662
QMH,171,3,2024-06-14T15:01:49.875Z,english_383.wav,0,0,595,20,3,Chinese,f,0,0,-1.49759031,0.61403304
QMH,171,3,2024-06-14T15:01:49.875Z,english_383.wav,0,0,595,20,3,Chinese,f,1,0.1,48.0809444,0.69225556
QMH,171,3,2024-06-14T15:01:49.875Z,english_383.wav,0,0,595,20,3,Chinese,f,2,0.2,-84.09524499,0.33452268
QMH,171,3,2024-06-14T15:01:49.875Z,english_383.wav,0,0,595,20,3,Chinese,f,3,0.3,95.23220486,1.06792504
QMH,171,3,2024-06-14T15:01:49.875Z,english_383.wav,0,0,595,20,3,Chinese,f,4,0.32341667,64.91086902,0.58483827
QMH,172,3,2024-06-14T15:01:49.875Z,english_84.wav,0,1,509,20,3,Chinese,f,0,0,-42.35488886,0.45116064
QMH,172,3,2024-06-14T15:01:49.875Z,english_84.wav,0,1,509,20,3,Chinese,f,1,0.1,17.86576323,1.91320005
QMH,172,3,2024-06-14T15:01:49.875Z,english_84.wav,0,1,509,20,3,Chinese,f,2,0.2,-56.36172821,1.53140363
QMH,172,3,2024-06-14T15:01:49.875Z,english_84.wav,0,1,509,20,3,Chinese,f,3,0.3,69.8537656,0.53091011
QMH,172,3,2024-06-14T15:01:49.875Z,english_84.wav,0,1,509,20,3,Chinese,f,4,0.32341667,-47.30652012,1.59279301
QMH,173,3,2024-06-14T15:01:49.875Z,english_641.wav,0,0,880,20,3,Chinese,f,0,0,-90.88934322,1.28926835
QMH,173,3,2024-06-14T15:01:49.875Z,english_641.wav,0,0,880,20,3,Chinese,f,1,0.1,13.36673253,0.02464493
QMH,173,3,2024-06-14T15:01:49.875Z,english_641.wav,0,0,880,20,3,Chinese,f,2,0.2,-36.70414591,0.5505433
QMH,173,3,2024-06-14T15:01:49.875Z,english_641.wav,0,0,880,20,3,Chinese,f,3,0.3,-4.62417375,0.52188675
QMH,173,3,2024-06-14T15:01:49.875Z,english_641.wav,0,0,880,20,3,Chinese,f,4,0.32341667,15.34366305,0.01360039
QMH,174,3,2024-06-14T15:01:49.875Z,english_778.wav,0,1,674,20,3,Chinese,f,0,0,99.37283207,0.92158405
QMH,174,3,2024-06-14T15:01:49.875Z,english_778.wav,0,1,674,20,3,Chinese,f,1,0.1,61.02900927,1.90392814
QMH,174,3,2024-06-14T15:01:49.875Z,english_778.wav,0,1,674,20,3,Chinese,f,2,0.2,-43.89505842,0.34916702
QMH,174,3,2024-06-14T15:01:49.875Z,english_778.wav,0,1,674,20,3,Chinese,f,3,0.3,-6.51139434,1.21087231
QMH,174,3,2024-06-14T15:01:49.875Z,english_778.wav,0,1,674,20,3,Chinese,f,4,0.32341667,-98.37213751,0.72140227
QMH,175,3,2024-06-14T15:01:49.875Z,english_475.wav,0,1,628,20,3,Chinese,f,0,0,-68.25626322,0.40988158
QMH,175,3,2024-06-14T15:01:49.875Z,english_475.wav,0,1,628,20,3,Chinese,f,1,0.1,-56.46648788,1.90107213
QMH,175,3,2024-06-14T15:01:49.875Z,english_475.wav,0,1,628,20,3,Chinese,f,2,0.2,49.77560279,0.54721615
QMH,175,3,2024-06-14T15:01:49.875Z,english_475.wav,0,1,628,20,3,Chinese,f,3,0.3,-41.74178488,1.80730726
QMH,175,3,2024-06-14T15:01:49.875Z,english_475.wav,0,1,628,20,3,Chinese,f,4,0.32341667,-60.3255454,0.11427958
QMH,176,3,2024-06-14T15:01:49.875Z,english_721.wav,0,1,852,20,3,Chinese,f,0,0,-1.67193172,0.23966059
QMH,176,3,2024-06-14T15:01:49.875Z,english_721.wav,0,1,852,20,3,Chinese,f,1,0.1,23.81304459,1.61361986
QMH,176,3,2024-06-14T15:01:49.875Z,english_721.wav,0,1,852,20,3,Chinese,f,2,0.2,94.27532923,0.58045828
QMH,176,3,2024-06-14T15:01:49.875Z,english_721.wav,0,1,852,20,3,Chinese,f,3,0.3,10.08520391,1.63757532
QMH,176,3,2024-06-14T15:01:49.875Z,english_721.wav,0,1,852,20,3,Chinese,f,4,0.32341667,-26.68837018,1.4581473
QMH,177,3,2024-06-14T15:01:49.875Z,english_271.wav,0,0,681,20,3,Chinese,f,0,0,24.41564841,0.25667552
QMH,177,3,2024-06-14T15:01:49.875Z,english_271.wav,0,0,681,20,3,Chinese,f,1,0.1,-64.42577909,1.20221217
QMH,177,3,2024-06-14T15:01:49.875Z,english_271.wav,0,0,681,20,3,Chinese,f,2,0.2,32.27025317,0.24658485
QMH,177,3,2024-06-14T15:01:49.875Z,english_271.wav,0,0,681,20,3,Chinese,f,3,0.3,58.71212772,1.57844265
QMH,177,3,2024-06-14T15:01:49.875Z,english_271.wav,0,0,681,20,3,Chinese,f,4,0.32341667,46.7300547,1.00400066
QMH,178,3,2024-06-14T15:01:49.875Z,english_226.wav,0,1,863,20,3,Chinese,f,0,0,-56.53605181,0.51185795
QMH,178,3,2024-06-14T15:01:49.875Z,english_226.wav,0,1,863,20,3,Chinese,f,1,0.1,-5.93547338,0.73377568
QMH,178,3,2024-06-14T15:01:49.875Z,english_226.wav,0,1,863,20,3,Chinese,f,2,0.2,-81.0596442,1.62034912
QMH,178,3,2024-06-14T15:01:49.875Z,english_226.wav,0,1,863,20,3,Chinese,f,3,0.3,-12.14261426,0.19474782
QMH,178,3,2024-06-14T15:01:49.875Z,english_226.wav,0,1,863,20,3,Chinese,f,4,0.32341667,40.67667876,0.1395898
QMH,179,3,2024-06-14T15:01:49.875Z,english_837.wav,0,1,497,20,3,Chinese,f,0,0,-10.72674788,0.56055933
QMH,179,3,2024-06-14T15:01:49.875Z,english_837.wav,0,1,497,20,3,Chinese,f,1,0.1,33.60933966,1.16716927
QMH,179,3,2024-06-14T15:01:49.875Z,english_837.wav,0,1,497,20,3,Chinese,f,2,0.2,-1.37827911,1.02731607
QMH,179,3,2024-06-14T15:01:49.875Z,english_837.wav,0,1,497,20,3,Chinese,f,3,0.3,29.3498758,1.96665864
QMH,179,3,2024-06-14T15:01:49.875Z,english_837.wav,0,1,497,20,3,Chinese,f,4,0.32341667,31.86641091,0.45425732
QMH,180,3,2024-06-14T15:01:49.875Z,english_580.wav,0,0,1029,20,3,Chinese,f,0,0,92.13406767,1.93694744
QMH,180,3,2024-06-14T15:01:49.875Z,english_580.wav,0,0,1029,20,3,Chinese,f,1,0.1,-85.58685866,0.28773753
QMH,180,3,2024-06-14T15:01:49.875Z,english_580.wav,0,0,1029,20,3,Chinese,f,2,0.2,57.10945482,0.86433335
QMH,180,3,2024-06-14T15:01:49.875Z,english_580.wav,0,0,1029,20,3,Chinese,f,3,0.3,32.92004132,0.96651265
QMH,180,3,2024-06-14T15:01:49.875Z,english_580.wav,0,0,1029,20,3,Chinese,f,4,0.32341667,52.08708517,1.25003658
QMH,181,3,2024-06-14T15:01:49.875Z,english_811.wav,0,1,411,20,3,Chinese,f,0,0,-51.03425556,1.55055496
QMH,181,3,2024-06-14T15:01:49.875Z,english_811.wav,0,1,411,20,3,Chinese,f,1,0.1,22.81695275,1.74830484
QMH,181,3,2024-06-14T15:01:49.875Z,english_811.wav,0,1,411,20,3,Chinese,f,2,0.2,73.06623682,1.24661488
QMH,181,3,2024-06-14T15:01:49.875Z,english_811.wav,0,1,411,20,3,Chinese,f,3,0.3,-9.17693151,0.09792889
QMH,181,3,2024-06-14T15:01:49.875Z,english_811.wav,0,1,411,20,3,Chinese,f,4,0.32341667,79.97760745,0.03735929
QMH,182,3,2024-06-14T15:01:49.875Z,english_74.wav,0,1,595,20,3,Chinese,f,0,0,86.29588785,1.196208
QMH,182,3,2024-06-14T15:01:49.875Z,english_74.wav,0,1,595,20,3,Chinese,f,1,0.1,-14.52381687,1.63208143
QMH,182,3,2024-06-14T15:01:49.875Z,english_74.wav,0,1,595,20,3,Chinese,f,2,0.2,77.94321906,0.46125368
QMH,182,3,2024-06-14T15:01:49.875Z,english_74.wav,0,1,595,20,3,Chinese,f,3,0.3,-32.33104188,1.38278461
QMH,182,3,2024-06-14T15:01:49.875Z,english_74.wav,0,1,595,20,3,Chinese,f,4,0.32341667,9.46602754,0.83147108
QMH,183,3,2024-06-14T15:01:49.875Z,english_693.wav,0,1,625,20,3,Chinese,f,0,0,-83.71635172,0.35753224
QMH,183,3,2024-06-14T15:01:49.875Z,english_693.wav,0,1,625,20,3,Chinese,f,1,0.1,32.46406691,1.09553371
QMH,183,3,2024-06-14T15:01:49.875Z,english_693.wav,0,1,625,20,3,Chinese,f,2,0.2,8.27548994,1.67166692
QMH,183,3,2024-06-14T15:01:49.875Z,english_693.wav,0,1,625,20,3,Chinese,f,3,0.3,15.80660539,1.61413862
QMH,183,3,2024-06-14T15:01:49.875Z,english_693.wav,0,1,625,20,3,Chinese,f,4,0.32341667,74.32681132,1.90943184
QMH,184,3,2024-06-14T15:01:49.875Z,english_858.wav,0,0,1195,20,3,Chinese,f,0,0,45.12570132,0.50395823
QMH,184,3,2024-06-14T15:01:49.875Z,english_858.wav,0,0,1195,20,3,Chinese,f,1,0.1,-46.71359417,1.50658612
QMH,184,3,2024-06-14T15:01:49.875Z,english_858.wav,0,0,1195,20,3,Chinese,f,2,0.2,-60.32464978,0.86887416
QMH,184,3,2024-06-14T15:01:49.875Z,english_858.wav,0,0,1195,20,3,Chinese,f,3,0.3,-70.46241098,0.20520469
QMH,184,3,2024-06-14T15:01:49.875Z,english_858.wav,0,0,1195,20,3,Chinese,f,4,0.32341667,76.51169453,1.05885662
QMH,185,3,2024-06-14T15:01:49.875Z,english_117.wav,0,1,667,20,3,Chinese,f,0,0,-98.72491255,1.42659946
QMH,185,3,2024-06-14T15:01:49.875Z,english_117.wav,0,1,667,20,3,Chinese,f,1,0.1,-15.15642563,1.64599539
QMH,185,3,2024-06-14T15:01:49.875Z,english_117.wav,0,1,667,20,3,Chinese,f,2,0.2,24.45806353,0.97767705
QMH,185,3,2024-06-14T15:01:49.875Z,english_117.wav,0,1,667,20,3,Chinese,f,3,0.3,-80.67224668,0.37962884
QMH,185,3,2024-06-14T15:01:49.875Z,english_117.wav,0,1,667,20,3,Chinese,f,4,0.32341667,-97.50349755,0.74274723
QMH,186,3,2024-06-14T15:01:49.875Z,english_790.wav,0,1,511,20,3,Chinese,f,0,0,51.18493756,0.66657869
QMH,186,3,2024-06-14T15:01:49.875Z,english_790.wav,0,1,511,20,3,Chinese,f,1,0.1,-64.70105349,0.91857876
QMH,186,3,2024-06-14T15:01:49.875Z,english_790.wav,0,1,511,20,3,Chinese,f,2,0.2,-90.57968214,1.26779222
QMH,186,3,2024-06-14T15:01:49.875Z,english_790.wav,0,1,511,20,3,Chinese,f,3,0.3,-94.64625917,1.54144859
QMH,186,3,2024-06-14T15:01:49.875Z,english_790.wav,0,1,511,20,3,Chinese,f,4,0.32341667,-38.85953331,1.32367104
QMH,187,3,2024-06-14T15:01:49.875Z,english_388.wav,0,0,1212,20,3,Chinese,f,0,0,17.9760939,0.95494184
QMH,187,3,2024-06-14T15:01:49.875Z,english_388.wav,0,0,1212,20,3,Chinese,f,1,0.1,-43.00340989,0.10281418
QMH,187,3,2024-06-14T15:01:49.875Z,english_388.wav,0,0,1212,20,3,Chinese,f,2,0.2,-30.55059063,1.52164503
QMH,187,3,2024-06-14T15:01:49.875Z,english_388.wav,0,0,1212,20,3,Chinese,f,3,0.3,-92.55876504,1.24827519
QMH,187,3,2024-06-14T15:01:49.875Z,english_388.wav,0,0,1212,20,3,Chinese,f,4,0.32341667,-64.21175873,0.08180338
QMH,188,3,2024-06-14T15:01:49.875Z,english_249.wav,0,1,1369,20,3,Chinese,f,0,0,78.40227579,1.91339694
QMH,188,3,2024-06-14T15:01:49.875Z,english_249.wav,0,1,1369,20,3,Chinese,f,1,0.1,-55.1129652,1.00834957
QMH,188,3,2024-06-14T15:01:49.875Z,english_249.wav,0,1,1369,20,3,Chinese,f,2,0.2,6.74447168,0.29418026
QMH,188,3,2024-06-14T15:01:49.875Z,english_249.wav,0,1,1369,20,3,Chinese,f,3,0.3,27.3376716,1.53256547
QMH,188,3,2024-06-14T15:01:49.875Z,english_249.wav,0,1,1369,20,3,Chinese,f,4,0.32341667,-97.08031886,0.99264532
QMH,189,3,2024-06-14T15:01:49.875Z,english_958.wav,0,1,676,20,3,Chinese,f,0,0,17.32592779,0.33109802
QMH,189,3,2024-06-14T15:01:49.875Z,english_958.wav,0,1,676,20,3,Chinese,f,1,0.1,89.03376041,1.83345348
QMH,189,3,2024-06-14T15:01:49.875Z,english_958.wav,0,1,676,20,3,Chinese,f,2,0.2,-24.89219777,1.95859429
QMH,189,3,2024-06-14T15:01:49.875Z,english_958.wav,0,1,676,20,3,Chinese,f,3,0.3,-92.10798137,1.50296341
QMH,189,3,2024-06-14T15:01:49.875Z,english_958.wav,0,1,676,20,3,Chinese,f,4,0.32341667,3.27828718,0.1474067
QMH,190,3,2024-06-14T15:01:49.875Z,english_300.wav,0,1,495,20,3,Chinese,f,0,0,-57.32903368,1.31106943
QMH,190,3,2024-06-14T15:01:49.875Z,english_300.wav,0,1,495,20,3,Chinese,f,1,0.1,-14.80176218,1.36432179
QMH,190,3,2024-06-14T15:01:49.875Z,english_300.wav,0,1,495,20,3,Chinese,f,2,0.2,17.32090115,1.9756976
QMH,190,3,2024-06-14T15:01:49.875Z,english_300.wav,0,1,495,20,3,Chinese,f,3,0.3,9.38584248,1.38621255
QMH,190,3,2024-06-14T15:01:49.875Z,english_300.wav,0,1,495,20,3,Chinese,f,4,0.32341667,-54.58865419,1.60203422
QMH,191,3,2024-06-14T15:01:49.875Z,english_637.wav,0,0,1027,20,3,Chinese,f,0,0,-1.71458324,1.21739028
QMH,191,3,2024-06-14T15:01:49.875Z,english_637.wav,0,0,1027,20,3,Chinese,f,1,0.1,-8.03758275,0.51882016
QMH,191,3,2024-06-14T15:01:49.875Z,english_637.wav,0,0,1027,20,3,Chinese,f,2,0.2,-8.49550443,1.63519413
QMH,191,3,2024-06-14T15:01:49.875Z,english_637.wav,0,0,1027,20,3,Chinese,f,3,0.3,-8.27727969,1.34863813
QMH,191,3,2024-06-14T15:01:49.875Z,english_637.wav,0,0,1027,20,3,Chinese,f,4,0.32341667,64.42471467,1.93003029
QMH,192,3,2024-06-14T15:01:49.875Z,english_60.wav,0,1,828,20,3,Chinese,f,0,0,82.53369854,0.66834278
QMH,192,3,2024-06-14T15:01:49.875Z,english_60.wav,0,1,828,20,3,Chinese,f,1,0.1,60.14491878,1.16350573
