subj,trial,block,date,stim,stim_order,response,rt,age,english,language,sex,param_index,segment,pitch,stretch
C,0,0,2024-06-15T07:21:36.698Z,english_96.wav,0,0,11702,,,,,0,0,-2.60251168,1.33849038
C,0,0,2024-06-15T07:21:36.698Z,english_96.wav,0,0,11702,,,,,1,0.1,3.1808695,1.03790095
C,0,0,2024-06-15T07:21:36.698Z,english_96.wav,0,0,11702,,,,,2,0.2,-93.89625608,0.32730996
C,0,0,2024-06-15T07:21:36.698Z,english_96.wav,0,0,11702,,,,,3,0.3,22.03695444,1.15118519
C,0,0,2024-06-15T07:21:36.698Z,english_96.wav,0,0,11702,,,,,4,0.32341667,89.13776591,1.37996061
C,1,0,2024-06-15T07:21:36.698Z,english_132.wav,0,0,4585,,,,,0,0,-72.51222148,1.10010631
C,1,0,2024-06-15T07:21:36.698Z,english_132.wav,0,0,4585,,,,,1,0.1,-7.68798614,1.14985521
C,1,0,2024-06-15T07:21:36.698Z,english_132.wav,0,0,4585,,,,,2,0.2,-26.80347179,1.49426164
C,1,0,2024-06-15T07:21:36.698Z,english_132.wav,0,0,4585,,,,,3,0.3,-51.62992771,1.25622472
C,1,0,2024-06-15T07:21:36.698Z,english_132.wav,0,0,4585,,,,,4,0.32341667,-1.85745595,0.89976888
C,2,0,2024-06-15T07:21:36.698Z,english_979.wav,0,0,5452,,,,,0,0,-1.00654814,1.61411081
C,2,0,2024-06-15T07:21:36.698Z,english_979.wav,0,0,5452,,,,,1,0.1,18.39835707,1.30464512
C,2,0,2024-06-15T07:21:36.698Z,english_979.wav,0,0,5452,,,,,2,0.2,-42.91789413,0.93120215
C,2,0,2024-06-15T07:21:36.698Z,english_979.wav,0,0,5452,,,,,3,0.3,-58.29527223,0.87145212
C,2,0,2024-06-15T07:21:36.698Z,english_979.wav,0,0,5452,,,,,4,0.32341667,86.14740424,1.17332389
C,3,0,2024-06-15T07:21:36.698Z,english_328.wav,0,0,1286,,,,,0,0,-24.96515822,0.68772771
C,3,0,2024-06-15T07:21:36.698Z,english_328.wav,0,0,1286,,,,,1,0.1,36.64267249,0.30369637
C,3,0,2024-06-15T07:21:36.698Z,english_328.wav,0,0,1286,,,,,2,0.2,-93.60804347,1.16330199
C,3,0,2024-06-15T07:21:36.698Z,english_328.wav,0,0,1286,,,,,3,0.3,9.86556644,0.69001341
C,3,0,2024-06-15T07:21:36.698Z,english_328.wav,0,0,1286,,,,,4,0.32341667,-17.13685423,0.54642887
C,4,0,2024-06-15T07:21:36.698Z,english_379.wav,0,0,622,,,,,0,0,30.14616912,1.43961489
C,4,0,2024-06-15T07:21:36.698Z,english_379.wav,0,0,622,,,,,1,0.1,-79.51193423,1.4219763
C,4,0,2024-06-15T07:21:36.698Z,english_379.wav,0,0,622,,,,,2,0.2,7.34860539,0.62633101
C,4,0,2024-06-15T07:21:36.698Z,english_379.wav,0,0,622,,,,,3,0.3,-43.99342265,1.13621958
C,4,0,2024-06-15T07:21:36.698Z,english_379.wav,0,0,622,,,,,4,0.32341667,37.72881761,1.35387794
C,5,0,2024-06-15T07:32:59.732Z,english_881.wav,0,0,1104,,,,,0,0,7.28069095,1.60234882
C,5,0,2024-06-15T07:32:59.732Z,english_881.wav,0,0,1104,,,,,1,0.1,-64.28928902,0.93497238
C,5,0,2024-06-15T07:32:59.732Z,english_881.wav,0,0,1104,,,,,2,0.2,-2.07432692,0.58107235
C,5,0,2024-06-15T07:32:59.732Z,english_881.wav,0,0,1104,,,,,3,0.3,51.5536886,1.34691236
C,5,0,2024-06-15T07:32:59.732Z,english_881.wav,0,0,1104,,,,,4,0.32341667,65.74991707,0.85842561
C,6,0,2024-06-15T07:32:59.732Z,english_640.wav,0,0,1117,,,,,0,0,74.95875769,1.81273707
C,6,0,2024-06-15T07:32:59.732Z,english_640.wav,0,0,1117,,,,,1,0.1,87.73764633,1.50076703
C,6,0,2024-06-15T07:32:59.732Z,english_640.wav,0,0,1117,,,,,2,0.2,-71.36544648,0.25286143
C,6,0,2024-06-15T07:32:59.732Z,english_640.wav,0,0,1117,,,,,3,0.3,11.07583082,0.53181051
C,6,0,2024-06-15T07:32:59.732Z,english_640.wav,0,0,1117,,,,,4,0.32341667,18.32643638,0.76351343
C,7,0,2024-06-15T07:32:59.732Z,english_788.wav,0,0,4924,,,,,0,0,-93.79628683,0.67330318
C,7,0,2024-06-15T07:32:59.732Z,english_788.wav,0,0,4924,,,,,1,0.1,-45.29703147,1.33385595
C,7,0,2024-06-15T07:32:59.732Z,english_788.wav,0,0,4924,,,,,2,0.2,-46.01001772,1.35248941
C,7,0,2024-06-15T07:32:59.732Z,english_788.wav,0,0,4924,,,,,3,0.3,-56.6729179,1.33220146
C,7,0,2024-06-15T07:32:59.732Z,english_788.wav,0,0,4924,,,,,4,0.32341667,51.29020462,1.32468206
C,8,0,2024-06-15T07:32:59.732Z,english_784.wav,0,0,1092,,,,,0,0,8.33598236,1.26617784
C,8,0,2024-06-15T07:32:59.732Z,english_784.wav,0,0,1092,,,,,1,0.1,-95.44591543,0.3784594
C,8,0,2024-06-15T07:32:59.732Z,english_784.wav,0,0,1092,,,,,2,0.2,-36.57026964,1.54775832
C,8,0,2024-06-15T07:32:59.732Z,english_784.wav,0,0,1092,,,,,3,0.3,21.49915707,0.94378056
C,8,0,2024-06-15T07:32:59.732Z,english_784.wav,0,0,1092,,,,,4,0.32341667,14.63720491,0.98781772
C,9,0,2024-06-15T07:32:59.732Z,english_842.wav,0,0,317,,,,,0,0,-48.5952207,0.12382156
C,9,0,2024-06-15T07:32:59.732Z,english_842.wav,0,0,317,,,,,1,0.1,29.19485822,1.75564688
C,9,0,2024-06-15T07:32:59.732Z,english_842.wav,0,0,317,,,,,2,0.2,84.54328152,0.24815543
C,9,0,2024-06-15T07:32:59.732Z,english_842.wav,0,0,317,,,,,3,0.3,69.99994667,1.2885643
C,9,0,2024-06-15T07:32:59.732Z,english_842.wav,0,0,317,,,,,4,0.32341667,56.72069463,0.70518165
C,10,0,2024-06-15T07:32:59.732Z,english_663.wav,0,0,8,,,,,0,0,55.84438863,1.29444713
C,10,0,2024-06-15T07:32:59.732Z,english_663.wav,0,0,8,,,,,1,0.1,-89.02249371,0.90215198
C,10,0,2024-06-15T07:32:59.732Z,english_663.wav,0,0,8,,,,,2,0.2,-13.61345685,1.61104603
C,10,0,2024-06-15T07:32:59.732Z,english_663.wav,0,0,8,,,,,3,0.3,14.50375693,0.31375715
C,10,0,2024-06-15T07:32:59.732Z,english_663.wav,0,0,8,,,,,4,0.32341667,80.63633164,1.01784406
C,11,0,2024-06-15T07:32:59.732Z,english_146.wav,0,0,130,,,,,0,0,-7.47107612,0.36907021
C,11,0,2024-06-15T07:32:59.732Z,english_146.wav,0,0,130,,,,,1,0.1,-10.73298436,0.24473139
C,11,0,2024-06-15T07:32:59.732Z,english_146.wav,0,0,130,,,,,2,0.2,-4.63341632,1.01983542
C,11,0,2024-06-15T07:32:59.732Z,english_146.wav,0,0,130,,,,,3,0.3,14.65491039,0.62607899
C,11,0,2024-06-15T07:32:59.732Z,english_146.wav,0,0,130,,,,,4,0.32341667,19.96333333,1.1005899
C,12,0,2024-06-15T07:32:59.732Z,english_64.wav,0,0,293,,,,,0,0,-77.75081389,0.01503168
C,12,0,2024-06-15T07:32:59.732Z,english_64.wav,0,0,293,,,,,1,0.1,47.79712302,0.51971923
C,12,0,2024-06-15T07:32:59.732Z,english_64.wav,0,0,293,,,,,2,0.2,-98.04646937,1.01128345
C,12,0,2024-06-15T07:32:59.732Z,english_64.wav,0,0,293,,,,,3,0.3,-20.17707595,0.69563875
C,12,0,2024-06-15T07:32:59.732Z,english_64.wav,0,0,293,,,,,4,0.32341667,53.05828969,1.51814807
C,13,0,2024-06-15T07:32:59.732Z,english_945.wav,0,0,627,,,,,0,0,63.16075011,1.8314946
C,13,0,2024-06-15T07:32:59.732Z,english_945.wav,0,0,627,,,,,1,0.1,87.55520176,1.3737613
C,13,0,2024-06-15T07:32:59.732Z,english_945.wav,0,0,627,,,,,2,0.2,-69.60467193,0.61639792
C,13,0,2024-06-15T07:32:59.732Z,english_945.wav,0,0,627,,,,,3,0.3,-69.25530384,1.67239747
C,13,0,2024-06-15T07:32:59.732Z,english_945.wav,0,0,627,,,,,4,0.32341667,-47.64160087,1.88344595
C,14,0,2024-06-15T07:32:59.732Z,english_834.wav,0,0,512,,,,,0,0,-64.94927172,0.98752234
C,14,0,2024-06-15T07:32:59.732Z,english_834.wav,0,0,512,,,,,1,0.1,49.61052881,1.31122352
C,14,0,2024-06-15T07:32:59.732Z,english_834.wav,0,0,512,,,,,2,0.2,-25.04715585,0.09065599
C,14,0,2024-06-15T07:32:59.732Z,english_834.wav,0,0,512,,,,,3,0.3,95.09819394,1.07854905
C,14,0,2024-06-15T07:32:59.732Z,english_834.wav,0,0,512,,,,,4,0.32341667,84.16953653,1.76453498
C,15,0,2024-06-15T07:32:59.732Z,english_49.wav,0,0,38,,,,,0,0,-6.08822071,0.36436507
C,15,0,2024-06-15T07:32:59.732Z,english_49.wav,0,0,38,,,,,1,0.1,-56.0367764,1.66948988
C,15,0,2024-06-15T07:32:59.732Z,english_49.wav,0,0,38,,,,,2,0.2,-51.95657584,1.20554654
C,15,0,2024-06-15T07:32:59.732Z,english_49.wav,0,0,38,,,,,3,0.3,-59.93208112,0.31084089
C,15,0,2024-06-15T07:32:59.732Z,english_49.wav,0,0,38,,,,,4,0.32341667,-7.85847813,0.44223059
C,16,0,2024-06-15T07:32:59.732Z,english_1000.wav,0,0,972,,,,,0,0,27.35321797,1.01803417
C,16,0,2024-06-15T07:32:59.732Z,english_1000.wav,0,0,972,,,,,1,0.1,42.13438871,0.4558176
C,16,0,2024-06-15T07:32:59.732Z,english_1000.wav,0,0,972,,,,,2,0.2,95.34760893,0.52251179
C,16,0,2024-06-15T07:32:59.732Z,english_1000.wav,0,0,972,,,,,3,0.3,-34.10168873,0.90165507
C,16,0,2024-06-15T07:32:59.732Z,english_1000.wav,0,0,972,,,,,4,0.32341667,64.49689477,0.38395199
C,17,0,2024-06-15T07:32:59.732Z,english_591.wav,0,0,248,,,,,0,0,-17.23532002,0.16408748
C,17,0,2024-06-15T07:32:59.732Z,english_591.wav,0,0,248,,,,,1,0.1,-55.20494434,0.21361432
C,17,0,2024-06-15T07:32:59.732Z,english_591.wav,0,0,248,,,,,2,0.2,-36.65883109,0.19384467
C,17,0,2024-06-15T07:32:59.732Z,english_591.wav,0,0,248,,,,,3,0.3,75.34514139,0.82850175
C,17,0,2024-06-15T07:32:59.732Z,english_591.wav,0,0,248,,,,,4,0.32341667,31.2832342,1.471328
C,18,0,2024-06-15T07:32:59.732Z,english_401.wav,0,0,2143,,,,,0,0,-70.37998858,1.11338134
C,18,0,2024-06-15T07:32:59.732Z,english_401.wav,0,0,2143,,,,,1,0.1,49.27188779,1.59691292
C,18,0,2024-06-15T07:32:59.732Z,english_401.wav,0,0,2143,,,,,2,0.2,5.09566389,0.88679935
C,18,0,2024-06-15T07:32:59.732Z,english_401.wav,0,0,2143,,,,,3,0.3,58.42368176,1.89749174
C,18,0,2024-06-15T07:32:59.732Z,english_401.wav,0,0,2143,,,,,4,0.32341667,-43.06407799,1.35831765
C,19,0,2024-06-15T07:32:59.732Z,english_667.wav,0,0,2422,,,,,0,0,-36.96649028,1.3014101
C,19,0,2024-06-15T07:32:59.732Z,english_667.wav,0,0,2422,,,,,1,0.1,9.08709827,0.05882523
C,19,0,2024-06-15T07:32:59.732Z,english_667.wav,0,0,2422,,,,,2,0.2,85.36553945,1.428997
C,19,0,2024-06-15T07:32:59.732Z,english_667.wav,0,0,2422,,,,,3,0.3,-41.19556041,1.2429303
C,19,0,2024-06-15T07:32:59.732Z,english_667.wav,0,0,2422,,,,,4,0.32341667,-31.79783786,0.97363261
C,20,0,2024-06-15T07:32:59.732Z,english_199.wav,0,0,542,,,,,0,0,-24.89956817,0.07306367
C,20,0,2024-06-15T07:32:59.732Z,english_199.wav,0,0,542,,,,,1,0.1,-48.49200931,0.10334581
C,20,0,2024-06-15T07:32:59.732Z,english_199.wav,0,0,542,,,,,2,0.2,-89.66548778,1.49062114
C,20,0,2024-06-15T07:32:59.732Z,english_199.wav,0,0,542,,,,,3,0.3,29.20785813,0.36717513
C,20,0,2024-06-15T07:32:59.732Z,english_199.wav,0,0,542,,,,,4,0.32341667,-88.68286362,1.33179809
C,21,0,2024-06-15T07:32:59.732Z,english_52.wav,0,0,730,,,,,0,0,54.63859099,0.91426261
C,21,0,2024-06-15T07:32:59.732Z,english_52.wav,0,0,730,,,,,1,0.1,-85.67195477,1.20728413
C,21,0,2024-06-15T07:32:59.732Z,english_52.wav,0,0,730,,,,,2,0.2,2.4878885,0.71733995
C,21,0,2024-06-15T07:32:59.732Z,english_52.wav,0,0,730,,,,,3,0.3,86.13143505,1.54149443
C,21,0,2024-06-15T07:32:59.732Z,english_52.wav,0,0,730,,,,,4,0.32341667,-53.30399902,1.3376245
C,22,0,2024-06-15T07:32:59.732Z,english_28.wav,0,0,389,,,,,0,0,46.68805065,0.37315412
C,22,0,2024-06-15T07:32:59.732Z,english_28.wav,0,0,389,,,,,1,0.1,-19.91180265,0.08560602
C,22,0,2024-06-15T07:32:59.732Z,english_28.wav,0,0,389,,,,,2,0.2,30.74929008,0.67724734
C,22,0,2024-06-15T07:32:59.732Z,english_28.wav,0,0,389,,,,,3,0.3,14.01537548,0.53332652
C,22,0,2024-06-15T07:32:59.732Z,english_28.wav,0,0,389,,,,,4,0.32341667,-32.95915121,1.33480721
C,23,0,2024-06-15T07:32:59.732Z,english_699.wav,0,0,416,,,,,0,0,-21.84844695,0.55007596
C,23,0,2024-06-15T07:32:59.732Z,english_699.wav,0,0,416,,,,,1,0.1,-20.61050251,0.98595355
C,23,0,2024-06-15T07:32:59.732Z,english_699.wav,0,0,416,,,,,2,0.2,-7.57046677,1.16771202
C,23,0,2024-06-15T07:32:59.732Z,english_699.wav,0,0,416,,,,,3,0.3,-90.18255135,0.60930532
C,23,0,2024-06-15T07:32:59.732Z,english_699.wav,0,0,416,,,,,4,0.32341667,-39.12532958,1.39260434
C,24,0,2024-06-15T07:32:59.732Z,english_404.wav,0,0,87,,,,,0,0,32.93077195,0.80618862
C,24,0,2024-06-15T07:32:59.732Z,english_404.wav,0,0,87,,,,,1,0.1,51.79107477,1.03327995
C,24,0,2024-06-15T07:32:59.732Z,english_404.wav,0,0,87,,,,,2,0.2,-61.91466198,1.39590152
C,24,0,2024-06-15T07:32:59.732Z,english_404.wav,0,0,87,,,,,3,0.3,33.45957754,1.8615638
C,24,0,2024-06-15T07:32:59.732Z,english_404.wav,0,0,87,,,,,4,0.32341667,-82.23793256,0.80137687
C,25,0,2024-06-15T07:32:59.732Z,english_684.wav,0,0,231,,,,,0,0,0.36394418,1.65924935
C,25,0,2024-06-15T07:32:59.732Z,english_684.wav,0,0,231,,,,,1,0.1,28.47964645,1.32149406
C,25,0,2024-06-15T07:32:59.732Z,english_684.wav,0,0,231,,,,,2,0.2,60.47995017,0.32417562
C,25,0,2024-06-15T07:32:59.732Z,english_684.wav,0,0,231,,,,,3,0.3,-33.43266819,1.42108385
C,25,0,2024-06-15T07:32:59.732Z,english_684.wav,0,0,231,,,,,4,0.32341667,-31.86672206,1.29243289
C,26,0,2024-06-15T07:32:59.732Z,english_774.wav,0,0,2867,,,,,0,0,-13.3479616,1.45409172
C,26,0,2024-06-15T07:32:59.732Z,english_774.wav,0,0,2867,,,,,1,0.1,-18.75352159,1.07775337
C,26,0,2024-06-15T07:32:59.732Z,english_774.wav,0,0,2867,,,,,2,0.2,-41.83192829,0.61872946
C,26,0,2024-06-15T07:32:59.732Z,english_774.wav,0,0,2867,,,,,3,0.3,14.77986843,1.87871381
C,26,0,2024-06-15T07:32:59.732Z,english_774.wav,0,0,2867,,,,,4,0.32341667,45.85609187,1.0399825
C,27,0,2024-06-15T07:32:59.732Z,english_515.wav,0,0,978,,,,,0,0,-51.44071002,1.17100165
C,27,0,2024-06-15T07:32:59.732Z,english_515.wav,0,0,978,,,,,1,0.1,-54.80209221,0.37535268
C,27,0,2024-06-15T07:32:59.732Z,english_515.wav,0,0,978,,,,,2,0.2,64.47174239,1.31079719
C,27,0,2024-06-15T07:32:59.732Z,english_515.wav,0,0,978,,,,,3,0.3,-10.56071982,1.40472496
C,27,0,2024-06-15T07:32:59.732Z,english_515.wav,0,0,978,,,,,4,0.32341667,-39.86348554,0.6392892
C,28,0,2024-06-15T07:32:59.732Z,english_271.wav,0,0,5042,,,,,0,0,24.41564841,0.25667552
C,28,0,2024-06-15T07:32:59.732Z,english_271.wav,0,0,5042,,,,,1,0.1,-64.42577909,1.20221217
C,28,0,2024-06-15T07:32:59.732Z,english_271.wav,0,0,5042,,,,,2,0.2,32.27025317,0.24658485
C,28,0,2024-06-15T07:32:59.732Z,english_271.wav,0,0,5042,,,,,3,0.3,58.71212772,1.57844265
C,28,0,2024-06-15T07:32:59.732Z,english_271.wav,0,0,5042,,,,,4,0.32341667,46.7300547,1.00400066
C,29,0,2024-06-15T07:32:59.732Z,english_659.wav,0,0,9,,,,,0,0,-86.13080632,0.77157019
C,29,0,2024-06-15T07:32:59.732Z,english_659.wav,0,0,9,,,,,1,0.1,39.51927718,1.34569204
C,29,0,2024-06-15T07:32:59.732Z,english_659.wav,0,0,9,,,,,2,0.2,-6.22185106,0.71695874
C,29,0,2024-06-15T07:32:59.732Z,english_659.wav,0,0,9,,,,,3,0.3,5.64287294,1.04110125
C,29,0,2024-06-15T07:32:59.732Z,english_659.wav,0,0,9,,,,,4,0.32341667,47.08694279,1.84115141
C,30,0,2024-06-15T07:32:59.732Z,english_323.wav,0,0,1781,,,,,0,0,92.33188111,1.59668922
C,30,0,2024-06-15T07:32:59.732Z,english_323.wav,0,0,1781,,,,,1,0.1,4.22577609,1.75306106
C,30,0,2024-06-15T07:32:59.732Z,english_323.wav,0,0,1781,,,,,2,0.2,-35.48560344,1.06071567
C,30,0,2024-06-15T07:32:59.732Z,english_323.wav,0,0,1781,,,,,3,0.3,7.73763769,1.9328625
C,30,0,2024-06-15T07:32:59.732Z,english_323.wav,0,0,1781,,,,,4,0.32341667,55.62458321,1.27347405
C,31,0,2024-06-15T07:32:59.732Z,english_409.wav,0,0,4672,,,,,0,0,-24.04105399,0.29560797
C,31,0,2024-06-15T07:32:59.732Z,english_409.wav,0,0,4672,,,,,1,0.1,-26.67389605,1.53762848
C,31,0,2024-06-15T07:32:59.732Z,english_409.wav,0,0,4672,,,,,2,0.2,23.9966363,0.34602898
C,31,0,2024-06-15T07:32:59.732Z,english_409.wav,0,0,4672,,,,,3,0.3,16.61705293,1.21824435
C,31,0,2024-06-15T07:32:59.732Z,english_409.wav,0,0,4672,,,,,4,0.32341667,73.09980407,1.55330233
C,32,0,2024-06-15T07:32:59.732Z,english_352.wav,0,0,2616,,,,,0,0,71.64354449,0.18312459
C,32,0,2024-06-15T07:32:59.732Z,english_352.wav,0,0,2616,,,,,1,0.1,53.2516906,1.19991438
C,32,0,2024-06-15T07:32:59.732Z,english_352.wav,0,0,2616,,,,,2,0.2,28.90726554,1.21095973
C,32,0,2024-06-15T07:32:59.732Z,english_352.wav,0,0,2616,,,,,3,0.3,-49.8940387,1.61067418
C,32,0,2024-06-15T07:32:59.732Z,english_352.wav,0,0,2616,,,,,4,0.32341667,21.76832357,1.26376439
C,33,0,2024-06-15T07:32:59.732Z,english_773.wav,0,0,3855,,,,,0,0,-97.46951928,0.54003315
C,33,0,2024-06-15T07:32:59.732Z,english_773.wav,0,0,3855,,,,,1,0.1,85.58858853,1.35505424
C,33,0,2024-06-15T07:32:59.732Z,english_773.wav,0,0,3855,,,,,2,0.2,-54.69649905,1.09283168
C,33,0,2024-06-15T07:32:59.732Z,english_773.wav,0,0,3855,,,,,3,0.3,-97.24656559,1.42526307
C,33,0,2024-06-15T07:32:59.732Z,english_773.wav,0,0,3855,,,,,4,0.32341667,40.28006613,0.69844725
C,34,0,2024-06-15T07:32:59.732Z,english_30.wav,0,0,959,,,,,0,0,-18.5398728,0.31748681
C,34,0,2024-06-15T07:32:59.732Z,english_30.wav,0,0,959,,,,,1,0.1,-67.34991207,1.82477139
C,34,0,2024-06-15T07:32:59.732Z,english_30.wav,0,0,959,,,,,2,0.2,65.54879707,1.59992979
C,34,0,2024-06-15T07:32:59.732Z,english_30.wav,0,0,959,,,,,3,0.3,30.88088319,0.89523729
C,34,0,2024-06-15T07:32:59.732Z,english_30.wav,0,0,959,,,,,4,0.32341667,50.60550813,1.02052202
C,35,0,2024-06-15T07:32:59.732Z,english_246.wav,0,0,53,,,,,0,0,-62.23082525,0.02615808
C,35,0,2024-06-15T07:32:59.732Z,english_246.wav,0,0,53,,,,,1,0.1,59.67623932,1.52596932
C,35,0,2024-06-15T07:32:59.732Z,english_246.wav,0,0,53,,,,,2,0.2,-63.30715513,1.87080553
C,35,0,2024-06-15T07:32:59.732Z,english_246.wav,0,0,53,,,,,3,0.3,15.41118057,0.81226596
C,35,0,2024-06-15T07:32:59.732Z,english_246.wav,0,0,53,,,,,4,0.32341667,90.60814582,0.64975072
C,36,0,2024-06-15T07:32:59.732Z,english_31.wav,0,0,2871,,,,,0,0,21.28810337,1.2057056
C,36,0,2024-06-15T07:32:59.732Z,english_31.wav,0,0,2871,,,,,1,0.1,68.821868,0.99381392
C,36,0,2024-06-15T07:32:59.732Z,english_31.wav,0,0,2871,,,,,2,0.2,-73.02143346,0.87600828
C,36,0,2024-06-15T07:32:59.732Z,english_31.wav,0,0,2871,,,,,3,0.3,68.60173581,1.15844697
C,36,0,2024-06-15T07:32:59.732Z,english_31.wav,0,0,2871,,,,,4,0.32341667,51.47999234,1.3722803
C,37,0,2024-06-15T07:32:59.732Z,english_100.wav,0,0,645,,,,,0,0,-66.86198445,0.79522553
C,37,0,2024-06-15T07:32:59.732Z,english_100.wav,0,0,645,,,,,1,0.1,32.23990363,0.27784591
C,37,0,2024-06-15T07:32:59.732Z,english_100.wav,0,0,645,,,,,2,0.2,-63.31896149,1.76330212
C,37,0,2024-06-15T07:32:59.732Z,english_100.wav,0,0,645,,,,,3,0.3,-73.00038049,0.60946618
C,37,0,2024-06-15T07:32:59.732Z,english_100.wav,0,0,645,,,,,4,0.32341667,32.15710315,0.42695433
C,38,0,2024-06-15T07:32:59.732Z,english_556.wav,0,1,3948,,,,,0,0,35.62658416,1.88481821
C,38,0,2024-06-15T07:32:59.732Z,english_556.wav,0,1,3948,,,,,1,0.1,28.75181601,0.4023528
C,38,0,2024-06-15T07:32:59.732Z,english_556.wav,0,1,3948,,,,,2,0.2,-2.62389444,1.49364055
C,38,0,2024-06-15T07:32:59.732Z,english_556.wav,0,1,3948,,,,,3,0.3,64.03572584,1.54190039
C,38,0,2024-06-15T07:32:59.732Z,english_556.wav,0,1,3948,,,,,4,0.32341667,72.79696002,0.53435232
C,39,0,2024-06-15T07:32:59.732Z,english_733.wav,0,0,1232,,,,,0,0,-77.09135463,1.21028291
C,39,0,2024-06-15T07:32:59.732Z,english_733.wav,0,0,1232,,,,,1,0.1,-30.68901019,1.14931675
C,39,0,2024-06-15T07:32:59.732Z,english_733.wav,0,0,1232,,,,,2,0.2,-27.18135709,1.68866455
C,39,0,2024-06-15T07:32:59.732Z,english_733.wav,0,0,1232,,,,,3,0.3,-10.74804936,0.29390693
C,39,0,2024-06-15T07:32:59.732Z,english_733.wav,0,0,1232,,,,,4,0.32341667,-57.14773718,0.43305962
C,40,0,2024-06-15T07:32:59.732Z,english_838.wav,0,0,1545,,,,,0,0,-46.43239877,0.57293762
C,40,0,2024-06-15T07:32:59.732Z,english_838.wav,0,0,1545,,,,,1,0.1,-0.77549132,1.65450135
C,40,0,2024-06-15T07:32:59.732Z,english_838.wav,0,0,1545,,,,,2,0.2,-47.56158581,0.30574951
C,40,0,2024-06-15T07:32:59.732Z,english_838.wav,0,0,1545,,,,,3,0.3,7.18116474,0.96315644
C,40,0,2024-06-15T07:32:59.732Z,english_838.wav,0,0,1545,,,,,4,0.32341667,-87.38880816,0.83017899
C,41,0,2024-06-15T07:32:59.732Z,english_223.wav,0,0,765,,,,,0,0,-51.58222533,0.62889348
C,41,0,2024-06-15T07:32:59.732Z,english_223.wav,0,0,765,,,,,1,0.1,-36.02700064,1.73736573
C,41,0,2024-06-15T07:32:59.732Z,english_223.wav,0,0,765,,,,,2,0.2,-35.4915315,1.20130681
C,41,0,2024-06-15T07:32:59.732Z,english_223.wav,0,0,765,,,,,3,0.3,1.26892628,0.53176439
C,41,0,2024-06-15T07:32:59.732Z,english_223.wav,0,0,765,,,,,4,0.32341667,72.37143842,1.24562253
C,42,0,2024-06-15T07:32:59.732Z,english_281.wav,0,0,3015,,,,,0,0,-55.42099824,1.64310908
C,42,0,2024-06-15T07:32:59.732Z,english_281.wav,0,0,3015,,,,,1,0.1,30.44020676,0.76997124
C,42,0,2024-06-15T07:32:59.732Z,english_281.wav,0,0,3015,,,,,2,0.2,53.34739709,0.1940809
C,42,0,2024-06-15T07:32:59.732Z,english_281.wav,0,0,3015,,,,,3,0.3,-32.26512488,0.25794937
C,42,0,2024-06-15T07:32:59.732Z,english_281.wav,0,0,3015,,,,,4,0.32341667,-59.86883114,1.27043487
C,43,0,2024-06-15T07:32:59.732Z,english_559.wav,0,1,4162,,,,,0,0,72.91796617,0.28347303
C,43,0,2024-06-15T07:32:59.732Z,english_559.wav,0,1,4162,,,,,1,0.1,49.0763932,0.33705515
C,43,0,2024-06-15T07:32:59.732Z,english_559.wav,0,1,4162,,,,,2,0.2,37.36372944,1.25665906
C,43,0,2024-06-15T07:32:59.732Z,english_559.wav,0,1,4162,,,,,3,0.3,62.8744144,0.42135622
C,43,0,2024-06-15T07:32:59.732Z,english_559.wav,0,1,4162,,,,,4,0.32341667,-70.24316133,0.44445559
C,44,0,2024-06-15T07:32:59.732Z,english_468.wav,0,0,5684,,,,,0,0,-33.82586043,0.35164089
C,44,0,2024-06-15T07:32:59.732Z,english_468.wav,0,0,5684,,,,,1,0.1,-42.55840131,0.20114733
C,44,0,2024-06-15T07:32:59.732Z,english_468.wav,0,0,5684,,,,,2,0.2,-36.6492295,1.40729654
C,44,0,2024-06-15T07:32:59.732Z,english_468.wav,0,0,5684,,,,,3,0.3,39.91321296,0.04300573
C,44,0,2024-06-15T07:32:59.732Z,english_468.wav,0,0,5684,,,,,4,0.32341667,54.14936319,1.79642733
C,45,0,2024-06-15T07:32:59.732Z,english_58.wav,0,1,6451,,,,,0,0,20.12478601,1.19415515
C,45,0,2024-06-15T07:32:59.732Z,english_58.wav,0,1,6451,,,,,1,0.1,-22.60038942,0.26098942
C,45,0,2024-06-15T07:32:59.732Z,english_58.wav,0,1,6451,,,,,2,0.2,34.38627512,1.99195241
C,45,0,2024-06-15T07:32:59.732Z,english_58.wav,0,1,6451,,,,,3,0.3,30.90369434,0.42925074
C,45,0,2024-06-15T07:32:59.732Z,english_58.wav,0,1,6451,,,,,4,0.32341667,11.39971337,0.50368767
C,46,0,2024-06-15T07:32:59.732Z,english_303.wav,0,0,2129,,,,,0,0,67.00540241,1.22520816
C,46,0,2024-06-15T07:32:59.732Z,english_303.wav,0,0,2129,,,,,1,0.1,32.95821842,1.22732479
C,46,0,2024-06-15T07:32:59.732Z,english_303.wav,0,0,2129,,,,,2,0.2,-23.67517146,0.54923068
C,46,0,2024-06-15T07:32:59.732Z,english_303.wav,0,0,2129,,,,,3,0.3,-66.94926695,0.8977578
C,46,0,2024-06-15T07:32:59.732Z,english_303.wav,0,0,2129,,,,,4,0.32341667,65.71723135,1.41807679
C,47,0,2024-06-15T07:32:59.732Z,english_829.wav,0,0,893,,,,,0,0,60.30417439,0.94286345
C,47,0,2024-06-15T07:32:59.732Z,english_829.wav,0,0,893,,,,,1,0.1,-26.87459656,0.76756767
C,47,0,2024-06-15T07:32:59.732Z,english_829.wav,0,0,893,,,,,2,0.2,59.05286014,1.50609211
C,47,0,2024-06-15T07:32:59.732Z,english_829.wav,0,0,893,,,,,3,0.3,-38.64739237,0.33518122
C,47,0,2024-06-15T07:32:59.732Z,english_829.wav,0,0,893,,,,,4,0.32341667,68.61732932,1.40687349
C,48,0,2024-06-15T07:32:59.732Z,english_353.wav,0,0,706,,,,,0,0,51.44050484,0.16518243
C,48,0,2024-06-15T07:32:59.732Z,english_353.wav,0,0,706,,,,,1,0.1,-8.32491594,1.32533476
C,48,0,2024-06-15T07:32:59.732Z,english_353.wav,0,0,706,,,,,2,0.2,-53.32966552,0.41923861
C,48,0,2024-06-15T07:32:59.732Z,english_353.wav,0,0,706,,,,,3,0.3,68.29246543,1.87374553
C,48,0,2024-06-15T07:32:59.732Z,english_353.wav,0,0,706,,,,,4,0.32341667,-32.22441747,1.13071195
C,49,0,2024-06-15T07:32:59.732Z,english_516.wav,0,1,4766,,,,,0,0,-37.49134217,0.47483782
C,49,0,2024-06-15T07:32:59.732Z,english_516.wav,0,1,4766,,,,,1,0.1,56.61653956,1.0523806
C,49,0,2024-06-15T07:32:59.732Z,english_516.wav,0,1,4766,,,,,2,0.2,60.98574822,0.59798137
C,49,0,2024-06-15T07:32:59.732Z,english_516.wav,0,1,4766,,,,,3,0.3,-0.52682824,0.6957238
C,49,0,2024-06-15T07:32:59.732Z,english_516.wav,0,1,4766,,,,,4,0.32341667,-50.41932267,1.76373844
C,50,1,2024-06-15T07:32:59.732Z,english_51.wav,0,0,8382,,,,,0,0,88.48054236,0.21487201
C,50,1,2024-06-15T07:32:59.732Z,english_51.wav,0,0,8382,,,,,1,0.1,-53.5534646,0.90061677
C,50,1,2024-06-15T07:32:59.732Z,english_51.wav,0,0,8382,,,,,2,0.2,-33.31344908,0.24834744
C,50,1,2024-06-15T07:32:59.732Z,english_51.wav,0,0,8382,,,,,3,0.3,87.0533187,1.31052611
C,50,1,2024-06-15T07:32:59.732Z,english_51.wav,0,0,8382,,,,,4,0.32341667,-16.55219825,0.58644625
C,51,1,2024-06-15T07:32:59.732Z,english_924.wav,0,0,630,,,,,0,0,63.64154058,1.83477076
C,51,1,2024-06-15T07:32:59.732Z,english_924.wav,0,0,630,,,,,1,0.1,-60.55254199,0.21366754
C,51,1,2024-06-15T07:32:59.732Z,english_924.wav,0,0,630,,,,,2,0.2,-47.94670646,1.07859551
C,51,1,2024-06-15T07:32:59.732Z,english_924.wav,0,0,630,,,,,3,0.3,-76.50696127,1.9507375
C,51,1,2024-06-15T07:32:59.732Z,english_924.wav,0,0,630,,,,,4,0.32341667,44.23103111,1.33476666
C,52,1,2024-06-15T07:32:59.732Z,english_743.wav,0,0,3829,,,,,0,0,-28.24983145,1.42102626
C,52,1,2024-06-15T07:32:59.732Z,english_743.wav,0,0,3829,,,,,1,0.1,71.30498545,0.84283155
C,52,1,2024-06-15T07:32:59.732Z,english_743.wav,0,0,3829,,,,,2,0.2,-89.00652632,0.82757129
C,52,1,2024-06-15T07:32:59.732Z,english_743.wav,0,0,3829,,,,,3,0.3,3.43441779,1.38808557
C,52,1,2024-06-15T07:32:59.732Z,english_743.wav,0,0,3829,,,,,4,0.32341667,-16.71659348,0.28501565
C,53,1,2024-06-15T07:32:59.732Z,english_698.wav,0,0,1078,,,,,0,0,-86.30999669,1.66322514
C,53,1,2024-06-15T07:32:59.732Z,english_698.wav,0,0,1078,,,,,1,0.1,-91.60158578,1.16924533
C,53,1,2024-06-15T07:32:59.732Z,english_698.wav,0,0,1078,,,,,2,0.2,-41.16326515,1.29610919
C,53,1,2024-06-15T07:32:59.732Z,english_698.wav,0,0,1078,,,,,3,0.3,7.86252123,1.21006153
C,53,1,2024-06-15T07:32:59.732Z,english_698.wav,0,0,1078,,,,,4,0.32341667,25.04181708,1.83628755
C,54,1,2024-06-15T07:32:59.732Z,english_671.wav,0,0,195,,,,,0,0,32.91930287,1.74193101
C,54,1,2024-06-15T07:32:59.732Z,english_671.wav,0,0,195,,,,,1,0.1,6.16976114,0.51820224
C,54,1,2024-06-15T07:32:59.732Z,english_671.wav,0,0,195,,,,,2,0.2,-34.00390264,0.07120536
C,54,1,2024-06-15T07:32:59.732Z,english_671.wav,0,0,195,,,,,3,0.3,18.374511,0.3828633
C,54,1,2024-06-15T07:32:59.732Z,english_671.wav,0,0,195,,,,,4,0.32341667,-2.98713897,1.2592669
C,55,1,2024-06-15T07:32:59.732Z,english_702.wav,0,1,1761,,,,,0,0,-19.6614881,1.13820402
C,55,1,2024-06-15T07:32:59.732Z,english_702.wav,0,1,1761,,,,,1,0.1,-92.60133235,1.47755069
C,55,1,2024-06-15T07:32:59.732Z,english_702.wav,0,1,1761,,,,,2,0.2,-18.01071493,1.33705675
C,55,1,2024-06-15T07:32:59.732Z,english_702.wav,0,1,1761,,,,,3,0.3,91.54675011,0.59768286
C,55,1,2024-06-15T07:32:59.732Z,english_702.wav,0,1,1761,,,,,4,0.32341667,23.09112348,0.82103567
C,56,1,2024-06-15T07:32:59.732Z,english_220.wav,0,0,1169,,,,,0,0,-49.83323752,1.6244524
C,56,1,2024-06-15T07:32:59.732Z,english_220.wav,0,0,1169,,,,,1,0.1,49.13629021,0.7812698
C,56,1,2024-06-15T07:32:59.732Z,english_220.wav,0,0,1169,,,,,2,0.2,10.673463,1.29736816
C,56,1,2024-06-15T07:32:59.732Z,english_220.wav,0,0,1169,,,,,3,0.3,-2.35218347,1.3419496
C,56,1,2024-06-15T07:32:59.732Z,english_220.wav,0,0,1169,,,,,4,0.32341667,-2.61587219,1.06575232
C,57,1,2024-06-15T07:32:59.732Z,english_238.wav,0,1,1864,,,,,0,0,87.78466979,1.0750983
C,57,1,2024-06-15T07:32:59.732Z,english_238.wav,0,1,1864,,,,,1,0.1,65.39287108,0.03626896
C,57,1,2024-06-15T07:32:59.732Z,english_238.wav,0,1,1864,,,,,2,0.2,-38.39100082,1.9832234
C,57,1,2024-06-15T07:32:59.732Z,english_238.wav,0,1,1864,,,,,3,0.3,-20.01297649,0.17604691
C,57,1,2024-06-15T07:32:59.732Z,english_238.wav,0,1,1864,,,,,4,0.32341667,78.31880556,1.61383808
C,58,1,2024-06-15T07:32:59.732Z,english_175.wav,0,0,3529,,,,,0,0,-88.83902874,0.00773228
C,58,1,2024-06-15T07:32:59.732Z,english_175.wav,0,0,3529,,,,,1,0.1,8.60564456,1.6431495
C,58,1,2024-06-15T07:32:59.732Z,english_175.wav,0,0,3529,,,,,2,0.2,7.189218,0.24882977
C,58,1,2024-06-15T07:32:59.732Z,english_175.wav,0,0,3529,,,,,3,0.3,-2.31675389,1.20663028
C,58,1,2024-06-15T07:32:59.732Z,english_175.wav,0,0,3529,,,,,4,0.32341667,-21.56803319,0.57172188
C,59,1,2024-06-15T07:32:59.732Z,english_196.wav,0,0,957,,,,,0,0,-86.38202104,1.63362226
C,59,1,2024-06-15T07:32:59.732Z,english_196.wav,0,0,957,,,,,1,0.1,0.95731439,1.36148231
C,59,1,2024-06-15T07:32:59.732Z,english_196.wav,0,0,957,,,,,2,0.2,-48.4797064,0.68683683
C,59,1,2024-06-15T07:32:59.732Z,english_196.wav,0,0,957,,,,,3,0.3,50.57477866,1.59869277
C,59,1,2024-06-15T07:32:59.732Z,english_196.wav,0,0,957,,,,,4,0.32341667,-52.07184875,0.40963154
C,60,1,2024-06-15T07:32:59.732Z,english_836.wav,0,0,571,,,,,0,0,34.85846782,1.04017402
C,60,1,2024-06-15T07:32:59.732Z,english_836.wav,0,0,571,,,,,1,0.1,41.54458908,0.35535359
C,60,1,2024-06-15T07:32:59.732Z,english_836.wav,0,0,571,,,,,2,0.2,23.27363575,0.10471693
C,60,1,2024-06-15T07:32:59.732Z,english_836.wav,0,0,571,,,,,3,0.3,86.83996211,0.55523491
C,60,1,2024-06-15T07:32:59.732Z,english_836.wav,0,0,571,,,,,4,0.32341667,-32.25656931,0.70311776
C,61,1,2024-06-15T07:32:59.732Z,english_198.wav,0,0,960,,,,,0,0,-3.53881338,0.6033193
C,61,1,2024-06-15T07:32:59.732Z,english_198.wav,0,0,960,,,,,1,0.1,58.04445454,0.57837506
C,61,1,2024-06-15T07:32:59.732Z,english_198.wav,0,0,960,,,,,2,0.2,67.39523563,1.37850613
C,61,1,2024-06-15T07:32:59.732Z,english_198.wav,0,0,960,,,,,3,0.3,56.58835275,0.73107668
C,61,1,2024-06-15T07:32:59.732Z,english_198.wav,0,0,960,,,,,4,0.32341667,7.34595052,0.42006089
C,62,1,2024-06-15T07:32:59.732Z,english_973.wav,0,1,227,,,,,0,0,67.86183821,1.19015671
C,62,1,2024-06-15T07:32:59.732Z,english_973.wav,0,1,227,,,,,1,0.1,19.68291271,0.58574514
C,62,1,2024-06-15T07:32:59.732Z,english_973.wav,0,1,227,,,,,2,0.2,97.35795082,0.11672587
C,62,1,2024-06-15T07:32:59.732Z,english_973.wav,0,1,227,,,,,3,0.3,-17.83494635,0.43523095
C,62,1,2024-06-15T07:32:59.732Z,english_973.wav,0,1,227,,,,,4,0.32341667,-53.451809,1.74630461
C,63,1,2024-06-15T07:32:59.732Z,english_690.wav,0,0,974,,,,,0,0,33.047654,1.58265684
C,63,1,2024-06-15T07:32:59.732Z,english_690.wav,0,0,974,,,,,1,0.1,0.0212167444,0.6931717
C,63,1,2024-06-15T07:32:59.732Z,english_690.wav,0,0,974,,,,,2,0.2,21.343237,1.47002515
C,63,1,2024-06-15T07:32:59.732Z,english_690.wav,0,0,974,,,,,3,0.3,35.4710796,1.9856235
C,63,1,2024-06-15T07:32:59.732Z,english_690.wav,0,0,974,,,,,4,0.323416667,79.4400816,1.00479917
C,64,1,2024-06-15T07:32:59.732Z,english_790.wav,0,0,480,,,,,0,0,51.18493756,0.66657869
C,64,1,2024-06-15T07:32:59.732Z,english_790.wav,0,0,480,,,,,1,0.1,-64.70105349,0.91857876
C,64,1,2024-06-15T07:32:59.732Z,english_790.wav,0,0,480,,,,,2,0.2,-90.57968214,1.26779222
C,64,1,2024-06-15T07:32:59.732Z,english_790.wav,0,0,480,,,,,3,0.3,-94.64625917,1.54144859
C,64,1,2024-06-15T07:32:59.732Z,english_790.wav,0,0,480,,,,,4,0.32341667,-38.85953331,1.32367104
C,65,1,2024-06-15T07:32:59.732Z,english_577.wav,0,0,4031,,,,,0,0,0.60742169,1.18439754
C,65,1,2024-06-15T07:32:59.732Z,english_577.wav,0,0,4031,,,,,1,0.1,-16.75441018,1.17258894
C,65,1,2024-06-15T07:32:59.732Z,english_577.wav,0,0,4031,,,,,2,0.2,32.29278586,0.00832478
C,65,1,2024-06-15T07:32:59.732Z,english_577.wav,0,0,4031,,,,,3,0.3,94.63733595,1.24529525
C,65,1,2024-06-15T07:32:59.732Z,english_577.wav,0,0,4031,,,,,4,0.32341667,-75.78119055,0.24980342
C,66,1,2024-06-15T07:32:59.732Z,english_77.wav,0,0,240,,,,,0,0,-72.40491727,0.02183184
C,66,1,2024-06-15T07:32:59.732Z,english_77.wav,0,0,240,,,,,1,0.1,8.82020558,1.36505393
C,66,1,2024-06-15T07:32:59.732Z,english_77.wav,0,0,240,,,,,2,0.2,89.28229375,1.34112472
C,66,1,2024-06-15T07:32:59.732Z,english_77.wav,0,0,240,,,,,3,0.3,-14.39120814,0.45737201
C,66,1,2024-06-15T07:32:59.732Z,english_77.wav,0,0,240,,,,,4,0.32341667,0.18022976,1.1673494
C,67,1,2024-06-15T07:32:59.732Z,english_60.wav,0,1,1277,,,,,0,0,82.53369854,0.66834278
C,67,1,2024-06-15T07:32:59.732Z,english_60.wav,0,1,1277,,,,,1,0.1,60.14491878,1.16350573
C,67,1,2024-06-15T07:32:59.732Z,english_60.wav,0,1,1277,,,,,2,0.2,-26.84704149,1.24827189
C,67,1,2024-06-15T07:32:59.732Z,english_60.wav,0,1,1277,,,,,3,0.3,-19.8784386,0.70182905
C,67,1,2024-06-15T07:32:59.732Z,english_60.wav,0,1,1277,,,,,4,0.32341667,-26.04492652,0.20173025
C,68,1,2024-06-15T07:32:59.732Z,english_302.wav,0,1,4421,,,,,0,0,-63.95927305,1.3663617
C,68,1,2024-06-15T07:32:59.732Z,english_302.wav,0,1,4421,,,,,1,0.1,-82.44028643,1.24112643
C,68,1,2024-06-15T07:32:59.732Z,english_302.wav,0,1,4421,,,,,2,0.2,-63.33590257,1.83999602
C,68,1,2024-06-15T07:32:59.732Z,english_302.wav,0,1,4421,,,,,3,0.3,-82.33590521,0.89576132
C,68,1,2024-06-15T07:32:59.732Z,english_302.wav,0,1,4421,,,,,4,0.32341667,-77.43124585,1.51483357
C,69,1,2024-06-15T07:32:59.732Z,english_947.wav,0,1,1384,,,,,0,0,73.13113362,0.1925557
C,69,1,2024-06-15T07:32:59.732Z,english_947.wav,0,1,1384,,,,,1,0.1,-55.13077299,1.89478059
C,69,1,2024-06-15T07:32:59.732Z,english_947.wav,0,1,1384,,,,,2,0.2,59.32217849,0.99662771
C,69,1,2024-06-15T07:32:59.732Z,english_947.wav,0,1,1384,,,,,3,0.3,-71.25946194,0.61263341
C,69,1,2024-06-15T07:32:59.732Z,english_947.wav,0,1,1384,,,,,4,0.32341667,39.2274254,0.46373334
C,70,1,2024-06-15T07:32:59.732Z,english_151.wav,0,0,3617,,,,,0,0,-8.78950662,1.36403682
C,70,1,2024-06-15T07:32:59.732Z,english_151.wav,0,0,3617,,,,,1,0.1,-1.70650264,1.76375426
C,70,1,2024-06-15T07:32:59.732Z,english_151.wav,0,0,3617,,,,,2,0.2,-17.50286784,1.43087438
C,70,1,2024-06-15T07:32:59.732Z,english_151.wav,0,0,3617,,,,,3,0.3,88.78233286,1.18017331
C,70,1,2024-06-15T07:32:59.732Z,english_151.wav,0,0,3617,,,,,4,0.32341667,55.08117545,1.30400061
C,71,1,2024-06-15T07:32:59.732Z,english_783.wav,0,0,3171,,,,,0,0,23.05268069,1.49549247
C,71,1,2024-06-15T07:32:59.732Z,english_783.wav,0,0,3171,,,,,1,0.1,9.36005369,0.13797177
C,71,1,2024-06-15T07:32:59.732Z,english_783.wav,0,0,3171,,,,,2,0.2,62.81522218,1.80236654
C,71,1,2024-06-15T07:32:59.732Z,english_783.wav,0,0,3171,,,,,3,0.3,67.71456376,0.33800471
C,71,1,2024-06-15T07:32:59.732Z,english_783.wav,0,0,3171,,,,,4,0.32341667,77.96788237,1.97708045
C,72,1,2024-06-15T07:32:59.732Z,english_91.wav,0,0,1841,,,,,0,0,-67.73951944,0.2772338
C,72,1,2024-06-15T07:32:59.732Z,english_91.wav,0,0,1841,,,,,1,0.1,83.83337034,0.0816757
C,72,1,2024-06-15T07:32:59.732Z,english_91.wav,0,0,1841,,,,,2,0.2,-12.75649653,0.92538416
C,72,1,2024-06-15T07:32:59.732Z,english_91.wav,0,0,1841,,,,,3,0.3,5.95502951,0.40714056
C,72,1,2024-06-15T07:32:59.732Z,english_91.wav,0,0,1841,,,,,4,0.32341667,59.56964586,1.8717525
C,73,1,2024-06-15T07:32:59.732Z,english_590.wav,0,1,4790,,,,,0,0,-36.198224,1.58650853
C,73,1,2024-06-15T07:32:59.732Z,english_590.wav,0,1,4790,,,,,1,0.1,-81.6019347,0.24081988
C,73,1,2024-06-15T07:32:59.732Z,english_590.wav,0,1,4790,,,,,2,0.2,23.00860846,0.40073912
C,73,1,2024-06-15T07:32:59.732Z,english_590.wav,0,1,4790,,,,,3,0.3,-40.72667736,0.83686248
C,73,1,2024-06-15T07:32:59.732Z,english_590.wav,0,1,4790,,,,,4,0.32341667,31.06175796,1.43958247
C,74,1,2024-06-15T07:32:59.732Z,english_987.wav,0,1,795,,,,,0,0,91.33137772,1.82656395
C,74,1,2024-06-15T07:32:59.732Z,english_987.wav,0,1,795,,,,,1,0.1,-39.20299527,1.12122948
C,74,1,2024-06-15T07:32:59.732Z,english_987.wav,0,1,795,,,,,2,0.2,78.9852337,1.12025045
C,74,1,2024-06-15T07:32:59.732Z,english_987.wav,0,1,795,,,,,3,0.3,-94.66209845,1.02557261
C,74,1,2024-06-15T07:32:59.732Z,english_987.wav,0,1,795,,,,,4,0.32341667,-71.76730894,1.06580695
C,75,1,2024-06-15T07:32:59.732Z,english_124.wav,0,1,2151,,,,,0,0,-16.92140416,1.25482105
C,75,1,2024-06-15T07:32:59.732Z,english_124.wav,0,1,2151,,,,,1,0.1,97.41289205,1.97830042
C,75,1,2024-06-15T07:32:59.732Z,english_124.wav,0,1,2151,,,,,2,0.2,-78.49167412,1.09846955
C,75,1,2024-06-15T07:32:59.732Z,english_124.wav,0,1,2151,,,,,3,0.3,-3.48618202,0.36540564
C,75,1,2024-06-15T07:32:59.732Z,english_124.wav,0,1,2151,,,,,4,0.32341667,5.32047068,0.96325389
C,76,1,2024-06-15T07:32:59.732Z,english_78.wav,0,1,2032,,,,,0,0,57.57509383,0.85738581
C,76,1,2024-06-15T07:32:59.732Z,english_78.wav,0,1,2032,,,,,1,0.1,8.37611797,1.59375359
C,76,1,2024-06-15T07:32:59.732Z,english_78.wav,0,1,2032,,,,,2,0.2,-42.8518908,1.65756647
C,76,1,2024-06-15T07:32:59.732Z,english_78.wav,0,1,2032,,,,,3,0.3,26.19415986,0.53011742
C,76,1,2024-06-15T07:32:59.732Z,english_78.wav,0,1,2032,,,,,4,0.32341667,65.52498429,1.5323802
C,77,1,2024-06-15T07:32:59.732Z,english_111.wav,0,1,999,,,,,0,0,43.12539807,1.84745579
C,77,1,2024-06-15T07:32:59.732Z,english_111.wav,0,1,999,,,,,1,0.1,63.99665526,0.92577031
C,77,1,2024-06-15T07:32:59.732Z,english_111.wav,0,1,999,,,,,2,0.2,86.04570556,0.31264784
C,77,1,2024-06-15T07:32:59.732Z,english_111.wav,0,1,999,,,,,3,0.3,-25.76798659,0.89352032
C,77,1,2024-06-15T07:32:59.732Z,english_111.wav,0,1,999,,,,,4,0.32341667,-36.14422463,0.32138535
C,78,1,2024-06-15T07:32:59.732Z,english_16.wav,0,1,1319,,,,,0,0,-86.84797814,0.47796166
C,78,1,2024-06-15T07:32:59.732Z,english_16.wav,0,1,1319,,,,,1,0.1,29.78439304,1.82902446
C,78,1,2024-06-15T07:32:59.732Z,english_16.wav,0,1,1319,,,,,2,0.2,93.37667148,1.57835565
C,78,1,2024-06-15T07:32:59.732Z,english_16.wav,0,1,1319,,,,,3,0.3,-84.28086854,0.98546729
C,78,1,2024-06-15T07:32:59.732Z,english_16.wav,0,1,1319,,,,,4,0.32341667,-8.77302982,0.88950072
C,79,1,2024-06-15T07:32:59.732Z,english_915.wav,0,1,2100,,,,,0,0,40.39704719,0.11203387
C,79,1,2024-06-15T07:32:59.732Z,english_915.wav,0,1,2100,,,,,1,0.1,-77.86782689,0.449249
C,79,1,2024-06-15T07:32:59.732Z,english_915.wav,0,1,2100,,,,,2,0.2,21.84672988,0.02407483
C,79,1,2024-06-15T07:32:59.732Z,english_915.wav,0,1,2100,,,,,3,0.3,-56.0972156,1.6502756
C,79,1,2024-06-15T07:32:59.732Z,english_915.wav,0,1,2100,,,,,4,0.32341667,65.00594456,0.65362707
C,80,1,2024-06-15T07:32:59.732Z,english_507.wav,0,0,1777,,,,,0,0,-61.1842488,1.97653192
C,80,1,2024-06-15T07:32:59.732Z,english_507.wav,0,0,1777,,,,,1,0.1,-67.40048172,1.52355847
C,80,1,2024-06-15T07:32:59.732Z,english_507.wav,0,0,1777,,,,,2,0.2,12.41471853,0.98006415
C,80,1,2024-06-15T07:32:59.732Z,english_507.wav,0,0,1777,,,,,3,0.3,-23.82579329,0.44372312
C,80,1,2024-06-15T07:32:59.732Z,english_507.wav,0,0,1777,,,,,4,0.32341667,9.53005369,0.65281453
C,81,1,2024-06-15T07:32:59.732Z,english_696.wav,0,0,339,,,,,0,0,-48.45243871,0.15817179
C,81,1,2024-06-15T07:32:59.732Z,english_696.wav,0,0,339,,,,,1,0.1,82.41340646,0.69939178
C,81,1,2024-06-15T07:32:59.732Z,english_696.wav,0,0,339,,,,,2,0.2,-7.53339347,1.28466279
C,81,1,2024-06-15T07:32:59.732Z,english_696.wav,0,0,339,,,,,3,0.3,-30.87957178,1.90686052
C,81,1,2024-06-15T07:32:59.732Z,english_696.wav,0,0,339,,,,,4,0.32341667,75.39947922,0.63235415
C,82,1,2024-06-15T07:32:59.732Z,english_543.wav,0,1,2007,,,,,0,0,13.74009622,0.63900578
C,82,1,2024-06-15T07:32:59.732Z,english_543.wav,0,1,2007,,,,,1,0.1,51.80972721,1.6206981
C,82,1,2024-06-15T07:32:59.732Z,english_543.wav,0,1,2007,,,,,2,0.2,86.3964352,0.03304675
C,82,1,2024-06-15T07:32:59.732Z,english_543.wav,0,1,2007,,,,,3,0.3,-66.39783761,1.7049324
C,82,1,2024-06-15T07:32:59.732Z,english_543.wav,0,1,2007,,,,,4,0.32341667,31.11863834,1.46507556
C,83,1,2024-06-15T07:32:59.732Z,english_61.wav,0,0,1600,,,,,0,0,-58.73450167,1.5196582
C,83,1,2024-06-15T07:32:59.732Z,english_61.wav,0,0,1600,,,,,1,0.1,-68.77732169,0.79346499
C,83,1,2024-06-15T07:32:59.732Z,english_61.wav,0,0,1600,,,,,2,0.2,-61.07430116,0.90548432
C,83,1,2024-06-15T07:32:59.732Z,english_61.wav,0,0,1600,,,,,3,0.3,-87.12791991,1.71431728
C,83,1,2024-06-15T07:32:59.732Z,english_61.wav,0,0,1600,,,,,4,0.32341667,47.32358741,0.57778581
C,84,1,2024-06-15T07:32:59.732Z,english_826.wav,0,0,1116,,,,,0,0,24.96468068,1.6444456
C,84,1,2024-06-15T07:32:59.732Z,english_826.wav,0,0,1116,,,,,1,0.1,1.37616969,0.97947611
C,84,1,2024-06-15T07:32:59.732Z,english_826.wav,0,0,1116,,,,,2,0.2,-71.19975556,0.49097947
C,84,1,2024-06-15T07:32:59.732Z,english_826.wav,0,0,1116,,,,,3,0.3,-48.49913399,0.98819908
C,84,1,2024-06-15T07:32:59.732Z,english_826.wav,0,0,1116,,,,,4,0.32341667,40.69153462,1.05842158
C,85,1,2024-06-15T07:32:59.732Z,english_706.wav,0,1,1924,,,,,0,0,-14.02426606,0.18721001
C,85,1,2024-06-15T07:32:59.732Z,english_706.wav,0,1,1924,,,,,1,0.1,23.81630209,0.48464851
C,85,1,2024-06-15T07:32:59.732Z,english_706.wav,0,1,1924,,,,,2,0.2,94.24266466,1.46456973
C,85,1,2024-06-15T07:32:59.732Z,english_706.wav,0,1,1924,,,,,3,0.3,20.03642156,0.11403632
C,85,1,2024-06-15T07:32:59.732Z,english_706.wav,0,1,1924,,,,,4,0.32341667,57.92570785,0.61389372
C,86,1,2024-06-15T07:32:59.732Z,english_188.wav,0,0,1484,,,,,0,0,-13.13088252,0.29227292
C,86,1,2024-06-15T07:32:59.732Z,english_188.wav,0,0,1484,,,,,1,0.1,51.13663316,1.25360943
C,86,1,2024-06-15T07:32:59.732Z,english_188.wav,0,0,1484,,,,,2,0.2,-80.18048506,1.7916357
C,86,1,2024-06-15T07:32:59.732Z,english_188.wav,0,0,1484,,,,,3,0.3,-47.89773773,0.58346705
C,86,1,2024-06-15T07:32:59.732Z,english_188.wav,0,0,1484,,,,,4,0.32341667,-7.0568118,1.77612328
C,87,1,2024-06-15T07:32:59.732Z,english_20.wav,0,0,1035,,,,,0,0,-56.6830557,0.06363068
C,87,1,2024-06-15T07:32:59.732Z,english_20.wav,0,0,1035,,,,,1,0.1,50.66790367,1.80739158
C,87,1,2024-06-15T07:32:59.732Z,english_20.wav,0,0,1035,,,,,2,0.2,-18.96445326,1.41045117
C,87,1,2024-06-15T07:32:59.732Z,english_20.wav,0,0,1035,,,,,3,0.3,-25.44345058,0.2049667
C,87,1,2024-06-15T07:32:59.732Z,english_20.wav,0,0,1035,,,,,4,0.32341667,12.75548414,0.27136646
C,88,1,2024-06-15T07:32:59.732Z,english_701.wav,0,1,1229,,,,,0,0,87.15265727,1.41120649
C,88,1,2024-06-15T07:32:59.732Z,english_701.wav,0,1,1229,,,,,1,0.1,38.39882515,0.44004622
C,88,1,2024-06-15T07:32:59.732Z,english_701.wav,0,1,1229,,,,,2,0.2,64.60201562,1.15462264
C,88,1,2024-06-15T07:32:59.732Z,english_701.wav,0,1,1229,,,,,3,0.3,12.58613119,1.17454355
C,88,1,2024-06-15T07:32:59.732Z,english_701.wav,0,1,1229,,,,,4,0.32341667,46.94968762,1.38716818
C,89,1,2024-06-15T07:32:59.732Z,english_600.wav,0,0,1339,,,,,0,0,37.30285492,1.23507691
C,89,1,2024-06-15T07:32:59.732Z,english_600.wav,0,0,1339,,,,,1,0.1,57.58729363,0.65453179
C,89,1,2024-06-15T07:32:59.732Z,english_600.wav,0,0,1339,,,,,2,0.2,-74.33256695,1.70226061
C,89,1,2024-06-15T07:32:59.732Z,english_600.wav,0,0,1339,,,,,3,0.3,-35.711252,0.4723836
C,89,1,2024-06-15T07:32:59.732Z,english_600.wav,0,0,1339,,,,,4,0.32341667,3.54782198,0.49080622
C,90,1,2024-06-15T07:32:59.732Z,english_974.wav,0,0,1092,,,,,0,0,29.63575745,0.7371821
C,90,1,2024-06-15T07:32:59.732Z,english_974.wav,0,0,1092,,,,,1,0.1,-49.63946334,1.15838362
C,90,1,2024-06-15T07:32:59.732Z,english_974.wav,0,0,1092,,,,,2,0.2,87.75163431,1.66312363
C,90,1,2024-06-15T07:32:59.732Z,english_974.wav,0,0,1092,,,,,3,0.3,-62.39844007,0.85783748
C,90,1,2024-06-15T07:32:59.732Z,english_974.wav,0,0,1092,,,,,4,0.32341667,-98.5513891,1.53033297
C,91,1,2024-06-15T07:32:59.732Z,english_11.wav,0,1,1418,,,,,0,0,-20.45826732,1.19869378
C,91,1,2024-06-15T07:32:59.732Z,english_11.wav,0,1,1418,,,,,1,0.1,-31.26113472,0.2059713
C,91,1,2024-06-15T07:32:59.732Z,english_11.wav,0,1,1418,,,,,2,0.2,84.03210455,0.62296143
C,91,1,2024-06-15T07:32:59.732Z,english_11.wav,0,1,1418,,,,,3,0.3,30.35463164,1.49781179
C,91,1,2024-06-15T07:32:59.732Z,english_11.wav,0,1,1418,,,,,4,0.32341667,-63.36217442,0.18750748
C,92,1,2024-06-15T07:32:59.732Z,english_534.wav,0,0,2031,,,,,0,0,-42.4271338,1.1267565
C,92,1,2024-06-15T07:32:59.732Z,english_534.wav,0,0,2031,,,,,1,0.1,-80.6424644,0.6842577
C,92,1,2024-06-15T07:32:59.732Z,english_534.wav,0,0,2031,,,,,2,0.2,59.29592388,0.01459656
C,92,1,2024-06-15T07:32:59.732Z,english_534.wav,0,0,2031,,,,,3,0.3,75.02007223,1.03701198
C,92,1,2024-06-15T07:32:59.732Z,english_534.wav,0,0,2031,,,,,4,0.32341667,-57.55026449,1.25840342
C,93,1,2024-06-15T07:32:59.732Z,english_182.wav,0,1,2426,,,,,0,0,57.43769915,0.89919812
C,93,1,2024-06-15T07:32:59.732Z,english_182.wav,0,1,2426,,,,,1,0.1,-87.06676545,1.25243937
C,93,1,2024-06-15T07:32:59.732Z,english_182.wav,0,1,2426,,,,,2,0.2,-91.52107401,1.35021358
C,93,1,2024-06-15T07:32:59.732Z,english_182.wav,0,1,2426,,,,,3,0.3,52.0843588,0.52787795
C,93,1,2024-06-15T07:32:59.732Z,english_182.wav,0,1,2426,,,,,4,0.32341667,18.07264914,0.72620624
C,94,1,2024-06-15T07:32:59.732Z,english_597.wav,0,0,1684,,,,,0,0,-83.66792118,0.17389721
C,94,1,2024-06-15T07:32:59.732Z,english_597.wav,0,0,1684,,,,,1,0.1,-19.98744657,0.39349672
C,94,1,2024-06-15T07:32:59.732Z,english_597.wav,0,0,1684,,,,,2,0.2,-30.38458549,1.97590818
C,94,1,2024-06-15T07:32:59.732Z,english_597.wav,0,0,1684,,,,,3,0.3,-63.4406446,1.84988074
C,94,1,2024-06-15T07:32:59.732Z,english_597.wav,0,0,1684,,,,,4,0.32341667,25.67812426,1.17620678
C,95,1,2024-06-15T07:32:59.732Z,english_354.wav,0,0,2962,,,,,0,0,-63.97501145,0.52067601
C,95,1,2024-06-15T07:32:59.732Z,english_354.wav,0,0,2962,,,,,1,0.1,-43.11314734,0.59903392
C,95,1,2024-06-15T07:32:59.732Z,english_354.wav,0,0,2962,,,,,2,0.2,10.53928595,0.9992363
C,95,1,2024-06-15T07:32:59.732Z,english_354.wav,0,0,2962,,,,,3,0.3,-23.15258088,1.16142831
C,95,1,2024-06-15T07:32:59.732Z,english_354.wav,0,0,2962,,,,,4,0.32341667,3.22925066,0.37639432
C,96,1,2024-06-15T07:32:59.732Z,english_794.wav,0,0,2259,,,,,0,0,5.57967757,1.6157291
C,96,1,2024-06-15T07:32:59.732Z,english_794.wav,0,0,2259,,,,,1,0.1,-3.8737546,0.80008436
C,96,1,2024-06-15T07:32:59.732Z,english_794.wav,0,0,2259,,,,,2,0.2,-24.29943164,0.69881068
C,96,1,2024-06-15T07:32:59.732Z,english_794.wav,0,0,2259,,,,,3,0.3,3.56417137,1.55658335
C,96,1,2024-06-15T07:32:59.732Z,english_794.wav,0,0,2259,,,,,4,0.32341667,-13.30357118,1.787412
C,97,1,2024-06-15T07:32:59.732Z,english_792.wav,0,0,4571,,,,,0,0,-56.39949456,1.32676777
C,97,1,2024-06-15T07:32:59.732Z,english_792.wav,0,0,4571,,,,,1,0.1,-76.36067248,1.08004851
C,97,1,2024-06-15T07:32:59.732Z,english_792.wav,0,0,4571,,,,,2,0.2,-58.44160547,1.5809308
C,97,1,2024-06-15T07:32:59.732Z,english_792.wav,0,0,4571,,,,,3,0.3,25.29086486,0.16508433
C,97,1,2024-06-15T07:32:59.732Z,english_792.wav,0,0,4571,,,,,4,0.32341667,-6.58788169,1.18870574
C,98,1,2024-06-15T07:32:59.732Z,english_613.wav,0,1,2023,,,,,0,0,-12.80235787,0.8409713
C,98,1,2024-06-15T07:32:59.732Z,english_613.wav,0,1,2023,,,,,1,0.1,38.67858639,0.30410002
C,98,1,2024-06-15T07:32:59.732Z,english_613.wav,0,1,2023,,,,,2,0.2,21.08834288,0.031636
C,98,1,2024-06-15T07:32:59.732Z,english_613.wav,0,1,2023,,,,,3,0.3,94.81469787,1.79222997
C,98,1,2024-06-15T07:32:59.732Z,english_613.wav,0,1,2023,,,,,4,0.32341667,18.45506868,1.98455664
C,99,1,2024-06-15T07:32:59.732Z,english_393.wav,0,0,3770,,,,,0,0,3.63201436,1.68653621
C,99,1,2024-06-15T07:32:59.732Z,english_393.wav,0,0,3770,,,,,1,0.1,64.52667935,0.22518435
C,99,1,2024-06-15T07:32:59.732Z,english_393.wav,0,0,3770,,,,,2,0.2,-51.23523019,0.07728703
C,99,1,2024-06-15T07:32:59.732Z,english_393.wav,0,0,3770,,,,,3,0.3,-89.75219839,0.70962284
C,99,1,2024-06-15T07:32:59.732Z,english_393.wav,0,0,3770,,,,,4,0.32341667,-66.06218428,0.7432397
C,100,2,2024-06-15T07:32:59.732Z,english_495.wav,0,0,1165,,,,,0,0,-5.58861003,1.32978923
C,100,2,2024-06-15T07:32:59.732Z,english_495.wav,0,0,1165,,,,,1,0.1,8.95176437,0.81778757
C,100,2,2024-06-15T07:32:59.732Z,english_495.wav,0,0,1165,,,,,2,0.2,39.42206983,0.66481361
C,100,2,2024-06-15T07:32:59.732Z,english_495.wav,0,0,1165,,,,,3,0.3,-84.38976819,0.35850052
C,100,2,2024-06-15T07:32:59.732Z,english_495.wav,0,0,1165,,,,,4,0.32341667,-2.90431636,0.23899864
C,101,2,2024-06-15T07:32:59.732Z,english_611.wav,0,1,1795,,,,,0,0,4.04989913,1.48647041
C,101,2,2024-06-15T07:32:59.732Z,english_611.wav,0,1,1795,,,,,1,0.1,-26.35519993,0.87297853
C,101,2,2024-06-15T07:32:59.732Z,english_611.wav,0,1,1795,,,,,2,0.2,-41.22744209,0.91907267
C,101,2,2024-06-15T07:32:59.732Z,english_611.wav,0,1,1795,,,,,3,0.3,-72.41198747,0.12624761
C,101,2,2024-06-15T07:32:59.732Z,english_611.wav,0,1,1795,,,,,4,0.32341667,-60.09703168,0.964981
C,102,2,2024-06-15T07:32:59.732Z,english_926.wav,0,0,825,,,,,0,0,-21.84910749,1.63725542
C,102,2,2024-06-15T07:32:59.732Z,english_926.wav,0,0,825,,,,,1,0.1,92.62617727,0.91190035
C,102,2,2024-06-15T07:32:59.732Z,english_926.wav,0,0,825,,,,,2,0.2,-40.07927874,0.45967153
C,102,2,2024-06-15T07:32:59.732Z,english_926.wav,0,0,825,,,,,3,0.3,30.58508574,0.64362954
C,102,2,2024-06-15T07:32:59.732Z,english_926.wav,0,0,825,,,,,4,0.32341667,-68.98646438,1.44788087
C,103,2,2024-06-15T07:32:59.732Z,english_161.wav,0,1,1070,,,,,0,0,16.17182642,0.80971259
C,103,2,2024-06-15T07:32:59.732Z,english_161.wav,0,1,1070,,,,,1,0.1,51.23408036,1.56168911
C,103,2,2024-06-15T07:32:59.732Z,english_161.wav,0,1,1070,,,,,2,0.2,56.55598601,0.91666403
C,103,2,2024-06-15T07:32:59.732Z,english_161.wav,0,1,1070,,,,,3,0.3,-25.08054758,1.93998208
C,103,2,2024-06-15T07:32:59.732Z,english_161.wav,0,1,1070,,,,,4,0.32341667,-70.36900789,0.76147365
C,104,2,2024-06-15T07:32:59.732Z,english_747.wav,0,0,1776,,,,,0,0,-77.73977436,1.00478752
C,104,2,2024-06-15T07:32:59.732Z,english_747.wav,0,0,1776,,,,,1,0.1,-18.96284798,0.15717617
C,104,2,2024-06-15T07:32:59.732Z,english_747.wav,0,0,1776,,,,,2,0.2,-36.55549612,1.90654565
C,104,2,2024-06-15T07:32:59.732Z,english_747.wav,0,0,1776,,,,,3,0.3,89.20291952,0.7651101
C,104,2,2024-06-15T07:32:59.732Z,english_747.wav,0,0,1776,,,,,4,0.32341667,-97.78574386,0.92755825
C,105,2,2024-06-15T07:32:59.732Z,english_428.wav,0,1,1964,,,,,0,0,-98.34466569,1.83106884
C,105,2,2024-06-15T07:32:59.732Z,english_428.wav,0,1,1964,,,,,1,0.1,-10.51162175,1.34345266
C,105,2,2024-06-15T07:32:59.732Z,english_428.wav,0,1,1964,,,,,2,0.2,97.93427859,0.65853672
C,105,2,2024-06-15T07:32:59.732Z,english_428.wav,0,1,1964,,,,,3,0.3,35.61870537,1.28105878
C,105,2,2024-06-15T07:32:59.732Z,english_428.wav,0,1,1964,,,,,4,0.32341667,-12.49352836,0.15324236
C,106,2,2024-06-15T07:32:59.732Z,english_569.wav,0,0,1579,,,,,0,0,-44.4695194,1.56768834
C,106,2,2024-06-15T07:32:59.732Z,english_569.wav,0,0,1579,,,,,1,0.1,50.36705327,0.42032873
C,106,2,2024-06-15T07:32:59.732Z,english_569.wav,0,0,1579,,,,,2,0.2,-76.17438636,0.31133764
C,106,2,2024-06-15T07:32:59.732Z,english_569.wav,0,0,1579,,,,,3,0.3,55.47083669,0.91900801
C,106,2,2024-06-15T07:32:59.732Z,english_569.wav,0,0,1579,,,,,4,0.32341667,-10.68913609,1.26529561
C,107,2,2024-06-15T07:32:59.732Z,english_419.wav,0,1,1001,,,,,0,0,74.10926047,0.423980314
C,107,2,2024-06-15T07:32:59.732Z,english_419.wav,0,1,1001,,,,,1,0.1,-50.44969368,1.12483838
C,107,2,2024-06-15T07:32:59.732Z,english_419.wav,0,1,1001,,,,,2,0.2,-38.37630765,0.473465541
C,107,2,2024-06-15T07:32:59.732Z,english_419.wav,0,1,1001,,,,,3,0.3,-57.54140712,0.000838613621
C,107,2,2024-06-15T07:32:59.732Z,english_419.wav,0,1,1001,,,,,4,0.32341667,48.12555486,0.389285402
C,108,2,2024-06-15T07:32:59.732Z,english_309.wav,0,0,1740,,,,,0,0,59.8258624,0.58100331
C,108,2,2024-06-15T07:32:59.732Z,english_309.wav,0,0,1740,,,,,1,0.1,73.70427758,0.81024997
C,108,2,2024-06-15T07:32:59.732Z,english_309.wav,0,0,1740,,,,,2,0.2,-8.71125849,0.10827203
C,108,2,2024-06-15T07:32:59.732Z,english_309.wav,0,0,1740,,,,,3,0.3,-86.6882155,0.09670208
C,108,2,2024-06-15T07:32:59.732Z,english_309.wav,0,0,1740,,,,,4,0.32341667,-90.77340978,1.53063904
C,109,2,2024-06-15T07:32:59.732Z,english_360.wav,0,1,894,,,,,0,0,-50.57937638,0.73788637
C,109,2,2024-06-15T07:32:59.732Z,english_360.wav,0,1,894,,,,,1,0.1,-29.22164644,0.6487653
C,109,2,2024-06-15T07:32:59.732Z,english_360.wav,0,1,894,,,,,2,0.2,-88.45421248,0.73193848
C,109,2,2024-06-15T07:32:59.732Z,english_360.wav,0,1,894,,,,,3,0.3,93.68039656,1.75347372
C,109,2,2024-06-15T07:32:59.732Z,english_360.wav,0,1,894,,,,,4,0.32341667,-2.59092547,1.19277037
C,110,2,2024-06-15T07:32:59.732Z,english_245.wav,0,0,11978,,,,,0,0,74.89239003,1.30710747
C,110,2,2024-06-15T07:32:59.732Z,english_245.wav,0,0,11978,,,,,1,0.1,41.98679172,0.93119149
C,110,2,2024-06-15T07:32:59.732Z,english_245.wav,0,0,11978,,,,,2,0.2,99.42105985,1.84379828
C,110,2,2024-06-15T07:32:59.732Z,english_245.wav,0,0,11978,,,,,3,0.3,-75.11958538,1.72828743
C,110,2,2024-06-15T07:32:59.732Z,english_245.wav,0,0,11978,,,,,4,0.32341667,-62.10664415,0.50124118
C,111,2,2024-06-15T07:32:59.732Z,english_88.wav,0,1,1568,,,,,0,0,26.55889683,1.3027014
C,111,2,2024-06-15T07:32:59.732Z,english_88.wav,0,1,1568,,,,,1,0.1,31.00356365,0.67122251
C,111,2,2024-06-15T07:32:59.732Z,english_88.wav,0,1,1568,,,,,2,0.2,-60.56468942,0.59704477
C,111,2,2024-06-15T07:32:59.732Z,english_88.wav,0,1,1568,,,,,3,0.3,-56.53017227,1.68194373
C,111,2,2024-06-15T07:32:59.732Z,english_88.wav,0,1,1568,,,,,4,0.32341667,-78.90279024,0.42277005
C,112,2,2024-06-15T07:32:59.732Z,english_799.wav,0,0,805,,,,,0,0,-48.4958847,1.9233431
C,112,2,2024-06-15T07:32:59.732Z,english_799.wav,0,0,805,,,,,1,0.1,-9.52866418,1.11542891
C,112,2,2024-06-15T07:32:59.732Z,english_799.wav,0,0,805,,,,,2,0.2,1.94176449,0.95865462
C,112,2,2024-06-15T07:32:59.732Z,english_799.wav,0,0,805,,,,,3,0.3,5.71676827,0.6616034
C,112,2,2024-06-15T07:32:59.732Z,english_799.wav,0,0,805,,,,,4,0.32341667,30.27282792,1.91183458
C,113,2,2024-06-15T07:32:59.732Z,english_412.wav,0,0,925,,,,,0,0,-82.38375592,0.41347899
C,113,2,2024-06-15T07:32:59.732Z,english_412.wav,0,0,925,,,,,1,0.1,-35.89348303,0.05505218
C,113,2,2024-06-15T07:32:59.732Z,english_412.wav,0,0,925,,,,,2,0.2,-78.50422887,1.28972039
C,113,2,2024-06-15T07:32:59.732Z,english_412.wav,0,0,925,,,,,3,0.3,8.19618882,0.97331843
C,113,2,2024-06-15T07:32:59.732Z,english_412.wav,0,0,925,,,,,4,0.32341667,88.30694734,0.22558246
C,114,2,2024-06-15T07:32:59.732Z,english_542.wav,0,1,1860,,,,,0,0,-75.53633957,0.40538048
C,114,2,2024-06-15T07:32:59.732Z,english_542.wav,0,1,1860,,,,,1,0.1,-65.83593262,1.98560632
C,114,2,2024-06-15T07:32:59.732Z,english_542.wav,0,1,1860,,,,,2,0.2,-66.8010443,1.18970355
C,114,2,2024-06-15T07:32:59.732Z,english_542.wav,0,1,1860,,,,,3,0.3,89.94318033,1.00543009
C,114,2,2024-06-15T07:32:59.732Z,english_542.wav,0,1,1860,,,,,4,0.32341667,-28.80984484,1.15995836
C,115,2,2024-06-15T07:32:59.732Z,english_940.wav,0,0,913,,,,,0,0,47.11462569,0.32214594
C,115,2,2024-06-15T07:32:59.732Z,english_940.wav,0,0,913,,,,,1,0.1,11.81885745,0.21999868
C,115,2,2024-06-15T07:32:59.732Z,english_940.wav,0,0,913,,,,,2,0.2,-1.49931669,0.34357292
C,115,2,2024-06-15T07:32:59.732Z,english_940.wav,0,0,913,,,,,3,0.3,45.92466934,1.61274527
C,115,2,2024-06-15T07:32:59.732Z,english_940.wav,0,0,913,,,,,4,0.32341667,-72.78738407,0.9185628
C,116,2,2024-06-15T07:32:59.732Z,english_687.wav,0,0,1239,,,,,0,0,86.90300909,0.475784
C,116,2,2024-06-15T07:32:59.732Z,english_687.wav,0,0,1239,,,,,1,0.1,79.71843279,0.40603367
C,116,2,2024-06-15T07:32:59.732Z,english_687.wav,0,0,1239,,,,,2,0.2,34.94433723,0.97706088
C,116,2,2024-06-15T07:32:59.732Z,english_687.wav,0,0,1239,,,,,3,0.3,-45.53952821,0.65075382
C,116,2,2024-06-15T07:32:59.732Z,english_687.wav,0,0,1239,,,,,4,0.32341667,63.0204093,0.93918167
C,117,2,2024-06-15T07:32:59.732Z,english_430.wav,0,1,1415,,,,,0,0,72.23510535,0.8682214
C,117,2,2024-06-15T07:32:59.732Z,english_430.wav,0,1,1415,,,,,1,0.1,-9.56156918,0.26781202
C,117,2,2024-06-15T07:32:59.732Z,english_430.wav,0,1,1415,,,,,2,0.2,36.71559936,1.38873793
C,117,2,2024-06-15T07:32:59.732Z,english_430.wav,0,1,1415,,,,,3,0.3,-33.55254317,0.29076709
C,117,2,2024-06-15T07:32:59.732Z,english_430.wav,0,1,1415,,,,,4,0.32341667,-25.71861109,0.30869259
C,118,2,2024-06-15T07:32:59.732Z,english_128.wav,0,0,1125,,,,,0,0,-84.07301703,0.96445051
C,118,2,2024-06-15T07:32:59.732Z,english_128.wav,0,0,1125,,,,,1,0.1,0.2051398,0.77165422
C,118,2,2024-06-15T07:32:59.732Z,english_128.wav,0,0,1125,,,,,2,0.2,50.77588291,0.60279997
C,118,2,2024-06-15T07:32:59.732Z,english_128.wav,0,0,1125,,,,,3,0.3,3.27834455,0.59915485
C,118,2,2024-06-15T07:32:59.732Z,english_128.wav,0,0,1125,,,,,4,0.32341667,59.5943459,0.43521132
C,119,2,2024-06-15T07:32:59.732Z,english_378.wav,0,1,645,,,,,0,0,13.37832971,0.65677047
C,119,2,2024-06-15T07:32:59.732Z,english_378.wav,0,1,645,,,,,1,0.1,17.37931074,1.74134092
C,119,2,2024-06-15T07:32:59.732Z,english_378.wav,0,1,645,,,,,2,0.2,10.9554113,0.67897054
C,119,2,2024-06-15T07:32:59.732Z,english_378.wav,0,1,645,,,,,3,0.3,-24.86891171,1.20159635
C,119,2,2024-06-15T07:32:59.732Z,english_378.wav,0,1,645,,,,,4,0.32341667,7.89965194,0.27053006
C,120,2,2024-06-15T07:32:59.732Z,english_469.wav,0,0,511,,,,,0,0,-12.92877168,0.59007764
C,120,2,2024-06-15T07:32:59.732Z,english_469.wav,0,0,511,,,,,1,0.1,-67.35237443,1.36577084
C,120,2,2024-06-15T07:32:59.732Z,english_469.wav,0,0,511,,,,,2,0.2,-70.76493751,1.86337992
C,120,2,2024-06-15T07:32:59.732Z,english_469.wav,0,0,511,,,,,3,0.3,86.785725,1.85233296
C,120,2,2024-06-15T07:32:59.732Z,english_469.wav,0,0,511,,,,,4,0.32341667,-36.33255728,1.108986
C,121,2,2024-06-15T07:32:59.732Z,english_782.wav,0,1,2820,,,,,0,0,-98.70381677,1.47488053
C,121,2,2024-06-15T07:32:59.732Z,english_782.wav,0,1,2820,,,,,1,0.1,-69.82387258,0.7270016
C,121,2,2024-06-15T07:32:59.732Z,english_782.wav,0,1,2820,,,,,2,0.2,35.26613747,0.08778447
C,121,2,2024-06-15T07:32:59.732Z,english_782.wav,0,1,2820,,,,,3,0.3,-81.38004879,1.16903228
C,121,2,2024-06-15T07:32:59.732Z,english_782.wav,0,1,2820,,,,,4,0.32341667,-61.83067014,0.92727902
C,122,2,2024-06-15T07:32:59.732Z,english_448.wav,0,0,1413,,,,,0,0,0.37188167,1.15390094
C,122,2,2024-06-15T07:32:59.732Z,english_448.wav,0,0,1413,,,,,1,0.1,-67.82723624,1.58767458
C,122,2,2024-06-15T07:32:59.732Z,english_448.wav,0,0,1413,,,,,2,0.2,65.77705469,1.13313853
C,122,2,2024-06-15T07:32:59.732Z,english_448.wav,0,0,1413,,,,,3,0.3,83.31626383,0.27075507
C,122,2,2024-06-15T07:32:59.732Z,english_448.wav,0,0,1413,,,,,4,0.32341667,-27.56829045,1.20964916
C,123,2,2024-06-15T07:32:59.732Z,english_334.wav,0,1,709,,,,,0,0,-67.45724149,1.41500124
C,123,2,2024-06-15T07:32:59.732Z,english_334.wav,0,1,709,,,,,1,0.1,-9.29085452,1.93519658
C,123,2,2024-06-15T07:32:59.732Z,english_334.wav,0,1,709,,,,,2,0.2,-52.27794836,1.67457228
C,123,2,2024-06-15T07:32:59.732Z,english_334.wav,0,1,709,,,,,3,0.3,97.74689659,1.80763723
C,123,2,2024-06-15T07:32:59.732Z,english_334.wav,0,1,709,,,,,4,0.32341667,69.13668576,0.68141016
C,124,2,2024-06-15T07:32:59.732Z,english_156.wav,0,1,2113,,,,,0,0,93.86570948,0.27803573
C,124,2,2024-06-15T07:32:59.732Z,english_156.wav,0,1,2113,,,,,1,0.1,63.74639013,0.76121308
C,124,2,2024-06-15T07:32:59.732Z,english_156.wav,0,1,2113,,,,,2,0.2,-97.10775444,0.98438609
C,124,2,2024-06-15T07:32:59.732Z,english_156.wav,0,1,2113,,,,,3,0.3,99.76737427,0.34877861
C,124,2,2024-06-15T07:32:59.732Z,english_156.wav,0,1,2113,,,,,4,0.32341667,11.29868277,0.58154428
C,125,2,2024-06-15T07:32:59.732Z,english_787.wav,0,1,1079,,,,,0,0,57.99353047,1.96251481
C,125,2,2024-06-15T07:32:59.732Z,english_787.wav,0,1,1079,,,,,1,0.1,-40.79525362,0.94444479
C,125,2,2024-06-15T07:32:59.732Z,english_787.wav,0,1,1079,,,,,2,0.2,23.78072576,0.924778
C,125,2,2024-06-15T07:32:59.732Z,english_787.wav,0,1,1079,,,,,3,0.3,72.96982422,0.31383508
C,125,2,2024-06-15T07:32:59.732Z,english_787.wav,0,1,1079,,,,,4,0.32341667,53.76957631,0.68947425
C,126,2,2024-06-15T07:32:59.732Z,english_427.wav,0,0,957,,,,,0,0,38.10585738,0.62221409
C,126,2,2024-06-15T07:32:59.732Z,english_427.wav,0,0,957,,,,,1,0.1,75.26959407,1.20145201
C,126,2,2024-06-15T07:32:59.732Z,english_427.wav,0,0,957,,,,,2,0.2,-92.48152235,0.18894815
C,126,2,2024-06-15T07:32:59.732Z,english_427.wav,0,0,957,,,,,3,0.3,-38.24940669,0.36527681
C,126,2,2024-06-15T07:32:59.732Z,english_427.wav,0,0,957,,,,,4,0.32341667,-41.67637111,0.02898627
C,127,2,2024-06-15T07:32:59.732Z,english_887.wav,0,1,937,,,,,0,0,21.36154006,0.58574694
C,127,2,2024-06-15T07:32:59.732Z,english_887.wav,0,1,937,,,,,1,0.1,-21.46213737,0.48413962
C,127,2,2024-06-15T07:32:59.732Z,english_887.wav,0,1,937,,,,,2,0.2,-45.53850124,1.16923549
C,127,2,2024-06-15T07:32:59.732Z,english_887.wav,0,1,937,,,,,3,0.3,-75.36110743,1.46190157
C,127,2,2024-06-15T07:32:59.732Z,english_887.wav,0,1,937,,,,,4,0.32341667,-96.67184991,0.00789239
C,128,2,2024-06-15T07:32:59.732Z,english_523.wav,0,0,1386,,,,,0,0,8.07414344,0.20594791
C,128,2,2024-06-15T07:32:59.732Z,english_523.wav,0,0,1386,,,,,1,0.1,27.61667564,1.87511385
C,128,2,2024-06-15T07:32:59.732Z,english_523.wav,0,0,1386,,,,,2,0.2,12.25175146,0.19246655
C,128,2,2024-06-15T07:32:59.732Z,english_523.wav,0,0,1386,,,,,3,0.3,5.7333769,0.42766967
C,128,2,2024-06-15T07:32:59.732Z,english_523.wav,0,0,1386,,,,,4,0.32341667,77.72310536,1.43882185
C,129,2,2024-06-15T07:32:59.732Z,english_990.wav,0,1,841,,,,,0,0,-17.98511021,0.6190444
C,129,2,2024-06-15T07:32:59.732Z,english_990.wav,0,1,841,,,,,1,0.1,-90.3005676,0.77548775
C,129,2,2024-06-15T07:32:59.732Z,english_990.wav,0,1,841,,,,,2,0.2,4.37005684,0.55013224
C,129,2,2024-06-15T07:32:59.732Z,english_990.wav,0,1,841,,,,,3,0.3,83.93705034,0.66784051
C,129,2,2024-06-15T07:32:59.732Z,english_990.wav,0,1,841,,,,,4,0.32341667,-36.57803625,0.32384409
C,130,2,2024-06-15T07:32:59.732Z,english_477.wav,0,0,586,,,,,0,0,9.7496965,0.26828956
C,130,2,2024-06-15T07:32:59.732Z,english_477.wav,0,0,586,,,,,1,0.1,70.56003184,0.51901368
C,130,2,2024-06-15T07:32:59.732Z,english_477.wav,0,0,586,,,,,2,0.2,34.49551211,0.35677294
C,130,2,2024-06-15T07:32:59.732Z,english_477.wav,0,0,586,,,,,3,0.3,-75.0597055,1.39462812
C,130,2,2024-06-15T07:32:59.732Z,english_477.wav,0,0,586,,,,,4,0.32341667,-82.15638008,0.55199483
C,131,2,2024-06-15T07:32:59.732Z,english_963.wav,0,0,367,,,,,0,0,-60.03327616,0.86711865
C,131,2,2024-06-15T07:32:59.732Z,english_963.wav,0,0,367,,,,,1,0.1,-15.51067414,1.69273621
C,131,2,2024-06-15T07:32:59.732Z,english_963.wav,0,0,367,,,,,2,0.2,59.36715957,0.74157302
C,131,2,2024-06-15T07:32:59.732Z,english_963.wav,0,0,367,,,,,3,0.3,-98.70464219,1.73078555
C,131,2,2024-06-15T07:32:59.732Z,english_963.wav,0,0,367,,,,,4,0.32341667,37.26723218,1.37482324
C,132,2,2024-06-15T07:32:59.732Z,english_876.wav,0,1,804,,,,,0,0,-20.36884991,0.97958319
C,132,2,2024-06-15T07:32:59.732Z,english_876.wav,0,1,804,,,,,1,0.1,-12.16725052,0.93484439
C,132,2,2024-06-15T07:32:59.732Z,english_876.wav,0,1,804,,,,,2,0.2,-26.42868614,0.43422731
C,132,2,2024-06-15T07:32:59.732Z,english_876.wav,0,1,804,,,,,3,0.3,-15.16942384,0.12359811
C,132,2,2024-06-15T07:32:59.732Z,english_876.wav,0,1,804,,,,,4,0.32341667,-52.65446315,1.31629037
C,133,2,2024-06-15T07:32:59.732Z,english_680.wav,0,0,1407,,,,,0,0,93.24972168,1.89994278
C,133,2,2024-06-15T07:32:59.732Z,english_680.wav,0,0,1407,,,,,1,0.1,21.55707386,1.06559033
C,133,2,2024-06-15T07:32:59.732Z,english_680.wav,0,0,1407,,,,,2,0.2,-58.84044748,0.79606997
C,133,2,2024-06-15T07:32:59.732Z,english_680.wav,0,0,1407,,,,,3,0.3,-13.55367876,0.35899559
C,133,2,2024-06-15T07:32:59.732Z,english_680.wav,0,0,1407,,,,,4,0.32341667,17.98073729,1.50925573
C,134,2,2024-06-15T07:32:59.732Z,english_80.wav,0,0,631,,,,,0,0,33.21374474,1.09809668
C,134,2,2024-06-15T07:32:59.732Z,english_80.wav,0,0,631,,,,,1,0.1,-72.2618742,1.73594877
C,134,2,2024-06-15T07:32:59.732Z,english_80.wav,0,0,631,,,,,2,0.2,-29.44860443,0.30037535
C,134,2,2024-06-15T07:32:59.732Z,english_80.wav,0,0,631,,,,,3,0.3,-33.36418129,0.36613598
C,134,2,2024-06-15T07:32:59.732Z,english_80.wav,0,0,631,,,,,4,0.32341667,-65.11319145,0.50687614
C,135,2,2024-06-15T07:32:59.732Z,english_50.wav,0,1,929,,,,,0,0,-72.72872807,1.68140442
C,135,2,2024-06-15T07:32:59.732Z,english_50.wav,0,1,929,,,,,1,0.1,-88.33626222,1.82728433
C,135,2,2024-06-15T07:32:59.732Z,english_50.wav,0,1,929,,,,,2,0.2,-2.18882928,0.80476824
C,135,2,2024-06-15T07:32:59.732Z,english_50.wav,0,1,929,,,,,3,0.3,60.61456424,0.21215651
C,135,2,2024-06-15T07:32:59.732Z,english_50.wav,0,1,929,,,,,4,0.32341667,95.28335061,1.87644163
C,136,2,2024-06-15T07:32:59.732Z,english_976.wav,0,0,1653,,,,,0,0,-92.49082032,0.30893725
C,136,2,2024-06-15T07:32:59.732Z,english_976.wav,0,0,1653,,,,,1,0.1,92.01562452,1.54393752
C,136,2,2024-06-15T07:32:59.732Z,english_976.wav,0,0,1653,,,,,2,0.2,-80.55764576,1.31466429
C,136,2,2024-06-15T07:32:59.732Z,english_976.wav,0,0,1653,,,,,3,0.3,-70.09009567,1.88171095
C,136,2,2024-06-15T07:32:59.732Z,english_976.wav,0,0,1653,,,,,4,0.32341667,-7.5394989,1.71314556
C,137,2,2024-06-15T07:32:59.732Z,english_563.wav,0,1,840,,,,,0,0,19.758909,0.0609285
C,137,2,2024-06-15T07:32:59.732Z,english_563.wav,0,1,840,,,,,1,0.1,33.70416131,1.63852294
C,137,2,2024-06-15T07:32:59.732Z,english_563.wav,0,1,840,,,,,2,0.2,-28.26228599,0.53834051
C,137,2,2024-06-15T07:32:59.732Z,english_563.wav,0,1,840,,,,,3,0.3,77.25360299,0.54558093
C,137,2,2024-06-15T07:32:59.732Z,english_563.wav,0,1,840,,,,,4,0.32341667,-40.65982077,0.29994173
C,138,2,2024-06-15T07:32:59.732Z,english_608.wav,0,0,887,,,,,0,0,78.8022196,1.54390555
C,138,2,2024-06-15T07:32:59.732Z,english_608.wav,0,0,887,,,,,1,0.1,59.03316834,1.36513164
C,138,2,2024-06-15T07:32:59.732Z,english_608.wav,0,0,887,,,,,2,0.2,-13.94961152,0.78716897
C,138,2,2024-06-15T07:32:59.732Z,english_608.wav,0,0,887,,,,,3,0.3,55.83681575,1.29889886
C,138,2,2024-06-15T07:32:59.732Z,english_608.wav,0,0,887,,,,,4,0.32341667,-13.77656228,0.44376749
C,139,2,2024-06-15T07:32:59.732Z,english_291.wav,0,1,712,,,,,0,0,-23.91479102,1.25533579
C,139,2,2024-06-15T07:32:59.732Z,english_291.wav,0,1,712,,,,,1,0.1,-31.34063508,0.8599513
C,139,2,2024-06-15T07:32:59.732Z,english_291.wav,0,1,712,,,,,2,0.2,-16.29866726,1.40556138
C,139,2,2024-06-15T07:32:59.732Z,english_291.wav,0,1,712,,,,,3,0.3,10.36632866,0.42924112
C,139,2,2024-06-15T07:32:59.732Z,english_291.wav,0,1,712,,,,,4,0.32341667,7.35722843,0.61564446
C,140,2,2024-06-15T07:32:59.732Z,english_748.wav,0,0,605,,,,,0,0,0.23647087,0.91094575
C,140,2,2024-06-15T07:32:59.732Z,english_748.wav,0,0,605,,,,,1,0.1,45.60572596,1.68800655
C,140,2,2024-06-15T07:32:59.732Z,english_748.wav,0,0,605,,,,,2,0.2,6.14588966,1.37684191
C,140,2,2024-06-15T07:32:59.732Z,english_748.wav,0,0,605,,,,,3,0.3,-10.39850874,0.70556294
C,140,2,2024-06-15T07:32:59.732Z,english_748.wav,0,0,605,,,,,4,0.32341667,-7.86503132,1.52987196
C,141,2,2024-06-15T07:32:59.732Z,english_580.wav,0,1,788,,,,,0,0,92.13406767,1.93694744
C,141,2,2024-06-15T07:32:59.732Z,english_580.wav,0,1,788,,,,,1,0.1,-85.58685866,0.28773753
C,141,2,2024-06-15T07:32:59.732Z,english_580.wav,0,1,788,,,,,2,0.2,57.10945482,0.86433335
C,141,2,2024-06-15T07:32:59.732Z,english_580.wav,0,1,788,,,,,3,0.3,32.92004132,0.96651265
C,141,2,2024-06-15T07:32:59.732Z,english_580.wav,0,1,788,,,,,4,0.32341667,52.08708517,1.25003658
C,142,2,2024-06-15T07:32:59.732Z,english_43.wav,0,0,1325,,,,,0,0,22.40064366,1.74132857
C,142,2,2024-06-15T07:32:59.732Z,english_43.wav,0,0,1325,,,,,1,0.1,-68.20152198,0.12763156
C,142,2,2024-06-15T07:32:59.732Z,english_43.wav,0,0,1325,,,,,2,0.2,62.56231291,0.31420738
C,142,2,2024-06-15T07:32:59.732Z,english_43.wav,0,0,1325,,,,,3,0.3,45.0736378,0.98572154
C,142,2,2024-06-15T07:32:59.732Z,english_43.wav,0,0,1325,,,,,4,0.32341667,-36.46791656,0.91325677
C,143,2,2024-06-15T07:32:59.732Z,english_97.wav,0,1,601,,,,,0,0,57.21139396,1.63402743
C,143,2,2024-06-15T07:32:59.732Z,english_97.wav,0,1,601,,,,,1,0.1,-7.40408397,0.54734888
C,143,2,2024-06-15T07:32:59.732Z,english_97.wav,0,1,601,,,,,2,0.2,77.7995227,1.5228594
C,143,2,2024-06-15T07:32:59.732Z,english_97.wav,0,1,601,,,,,3,0.3,-51.1747528,1.13050105
C,143,2,2024-06-15T07:32:59.732Z,english_97.wav,0,1,601,,,,,4,0.32341667,77.11982253,0.82586999
C,144,2,2024-06-15T07:32:59.732Z,english_260.wav,0,0,534,,,,,0,0,-45.73422918,1.75247731
C,144,2,2024-06-15T07:32:59.732Z,english_260.wav,0,0,534,,,,,1,0.1,-23.757295,1.29821829
C,144,2,2024-06-15T07:32:59.732Z,english_260.wav,0,0,534,,,,,2,0.2,-1.17180464,0.50372963
C,144,2,2024-06-15T07:32:59.732Z,english_260.wav,0,0,534,,,,,3,0.3,42.98000529,1.19905143
C,144,2,2024-06-15T07:32:59.732Z,english_260.wav,0,0,534,,,,,4,0.32341667,7.49715463,0.66690199
C,145,2,2024-06-15T07:32:59.732Z,english_625.wav,0,1,764,,,,,0,0,25.70847239,1.1960971
C,145,2,2024-06-15T07:32:59.732Z,english_625.wav,0,1,764,,,,,1,0.1,-37.82303983,0.02795501
C,145,2,2024-06-15T07:32:59.732Z,english_625.wav,0,1,764,,,,,2,0.2,38.52328891,1.10198652
C,145,2,2024-06-15T07:32:59.732Z,english_625.wav,0,1,764,,,,,3,0.3,-23.93667478,0.08852642
C,145,2,2024-06-15T07:32:59.732Z,english_625.wav,0,1,764,,,,,4,0.32341667,-53.98326942,1.59813041
C,146,2,2024-06-15T07:32:59.732Z,english_789.wav,0,1,666,,,,,0,0,70.69388181,1.62690516
C,146,2,2024-06-15T07:32:59.732Z,english_789.wav,0,1,666,,,,,1,0.1,-91.45782136,1.02092359
C,146,2,2024-06-15T07:32:59.732Z,english_789.wav,0,1,666,,,,,2,0.2,-94.67801392,0.93437639
C,146,2,2024-06-15T07:32:59.732Z,english_789.wav,0,1,666,,,,,3,0.3,83.76501612,1.8239896
C,146,2,2024-06-15T07:32:59.732Z,english_789.wav,0,1,666,,,,,4,0.32341667,-4.60584958,1.29596798
C,147,2,2024-06-15T07:32:59.732Z,english_178.wav,0,0,259,,,,,0,0,-14.41838744,0.71193749
C,147,2,2024-06-15T07:32:59.732Z,english_178.wav,0,0,259,,,,,1,0.1,64.59665955,0.54024543
C,147,2,2024-06-15T07:32:59.732Z,english_178.wav,0,0,259,,,,,2,0.2,-96.76492712,1.78065704
C,147,2,2024-06-15T07:32:59.732Z,english_178.wav,0,0,259,,,,,3,0.3,-50.00654232,1.40559917
C,147,2,2024-06-15T07:32:59.732Z,english_178.wav,0,0,259,,,,,4,0.32341667,42.56426636,0.99785593
C,148,2,2024-06-15T07:32:59.732Z,english_38.wav,0,1,558,,,,,0,0,-2.78484508,0.45448836
C,148,2,2024-06-15T07:32:59.732Z,english_38.wav,0,1,558,,,,,1,0.1,-57.68912839,0.86252605
C,148,2,2024-06-15T07:32:59.732Z,english_38.wav,0,1,558,,,,,2,0.2,-17.27242754,1.61904865
C,148,2,2024-06-15T07:32:59.732Z,english_38.wav,0,1,558,,,,,3,0.3,-2.64514482,1.39130822
C,148,2,2024-06-15T07:32:59.732Z,english_38.wav,0,1,558,,,,,4,0.32341667,55.14373267,1.59066599
C,149,2,2024-06-15T07:32:59.732Z,english_816.wav,0,0,821,,,,,0,0,-5.39935373,0.27372013
C,149,2,2024-06-15T07:32:59.732Z,english_816.wav,0,0,821,,,,,1,0.1,-58.12348851,1.23542608
C,149,2,2024-06-15T07:32:59.732Z,english_816.wav,0,0,821,,,,,2,0.2,-97.19740724,1.6956732
C,149,2,2024-06-15T07:32:59.732Z,english_816.wav,0,0,821,,,,,3,0.3,4.60418864,0.17466083
C,149,2,2024-06-15T07:32:59.732Z,english_816.wav,0,0,821,,,,,4,0.32341667,57.92285533,0.69657013
C,150,3,2024-06-15T07:32:59.732Z,english_455.wav,0,0,897,,,,,0,0,16.09493262,0.21208686
C,150,3,2024-06-15T07:32:59.732Z,english_455.wav,0,0,897,,,,,1,0.1,24.58982,1.0305564
C,150,3,2024-06-15T07:32:59.732Z,english_455.wav,0,0,897,,,,,2,0.2,-59.31201859,1.53057992
C,150,3,2024-06-15T07:32:59.732Z,english_455.wav,0,0,897,,,,,3,0.3,40.79603426,0.62599766
C,150,3,2024-06-15T07:32:59.732Z,english_455.wav,0,0,897,,,,,4,0.32341667,-39.30035714,1.43054244
C,151,3,2024-06-15T07:32:59.732Z,english_193.wav,0,1,31,,,,,0,0,98.63199606,1.10219899
C,151,3,2024-06-15T07:32:59.732Z,english_193.wav,0,1,31,,,,,1,0.1,38.06859183,1.75752318
C,151,3,2024-06-15T07:32:59.732Z,english_193.wav,0,1,31,,,,,2,0.2,58.19309996,1.8701857
C,151,3,2024-06-15T07:32:59.732Z,english_193.wav,0,1,31,,,,,3,0.3,70.68425501,1.90449871
C,151,3,2024-06-15T07:32:59.732Z,english_193.wav,0,1,31,,,,,4,0.32341667,89.06926868,1.70479661
C,152,3,2024-06-15T07:32:59.732Z,english_326.wav,0,0,3265,,,,,0,0,-13.70476372,1.64570887
C,152,3,2024-06-15T07:32:59.732Z,english_326.wav,0,0,3265,,,,,1,0.1,47.7156259,0.91266102
C,152,3,2024-06-15T07:32:59.732Z,english_326.wav,0,0,3265,,,,,2,0.2,23.24839736,0.36997562
C,152,3,2024-06-15T07:32:59.732Z,english_326.wav,0,0,3265,,,,,3,0.3,67.08212267,1.96258237
C,152,3,2024-06-15T07:32:59.732Z,english_326.wav,0,0,3265,,,,,4,0.32341667,78.79356023,1.01334204
C,153,3,2024-06-15T07:32:59.732Z,english_891.wav,0,1,582,,,,,0,0,21.29241244,0.7419472
C,153,3,2024-06-15T07:32:59.732Z,english_891.wav,0,1,582,,,,,1,0.1,-1.23713702,1.09270952
C,153,3,2024-06-15T07:32:59.732Z,english_891.wav,0,1,582,,,,,2,0.2,-74.86460599,0.8129571
C,153,3,2024-06-15T07:32:59.732Z,english_891.wav,0,1,582,,,,,3,0.3,18.81587233,0.16019775
C,153,3,2024-06-15T07:32:59.732Z,english_891.wav,0,1,582,,,,,4,0.32341667,35.3489582,1.17476401
C,154,3,2024-06-15T07:32:59.732Z,english_624.wav,0,0,370,,,,,0,0,-66.94889137,0.79130031
C,154,3,2024-06-15T07:32:59.732Z,english_624.wav,0,0,370,,,,,1,0.1,-6.87427926,1.85178888
C,154,3,2024-06-15T07:32:59.732Z,english_624.wav,0,0,370,,,,,2,0.2,69.52298075,0.79988954
C,154,3,2024-06-15T07:32:59.732Z,english_624.wav,0,0,370,,,,,3,0.3,-45.26015132,0.87521033
C,154,3,2024-06-15T07:32:59.732Z,english_624.wav,0,0,370,,,,,4,0.32341667,-50.37935108,1.50754026
C,155,3,2024-06-15T07:32:59.732Z,english_995.wav,0,0,408,,,,,0,0,49.33707883,0.89732458
C,155,3,2024-06-15T07:32:59.732Z,english_995.wav,0,0,408,,,,,1,0.1,54.78730957,0.49662083
C,155,3,2024-06-15T07:32:59.732Z,english_995.wav,0,0,408,,,,,2,0.2,-5.99414072,0.83265132
C,155,3,2024-06-15T07:32:59.732Z,english_995.wav,0,0,408,,,,,3,0.3,26.8687238,1.32035917
C,155,3,2024-06-15T07:32:59.732Z,english_995.wav,0,0,408,,,,,4,0.32341667,38.3348194,1.99869744
C,156,3,2024-06-15T07:32:59.732Z,english_700.wav,0,1,681,,,,,0,0,-76.89056698,0.13963816
C,156,3,2024-06-15T07:32:59.732Z,english_700.wav,0,1,681,,,,,1,0.1,-93.17552037,0.76842729
C,156,3,2024-06-15T07:32:59.732Z,english_700.wav,0,1,681,,,,,2,0.2,51.24439156,0.49149542
C,156,3,2024-06-15T07:32:59.732Z,english_700.wav,0,1,681,,,,,3,0.3,89.4516499,1.08714417
C,156,3,2024-06-15T07:32:59.732Z,english_700.wav,0,1,681,,,,,4,0.32341667,-68.48659069,1.35188588
C,157,3,2024-06-15T07:32:59.732Z,english_654.wav,0,0,749,,,,,0,0,-97.13147194,0.91673578
C,157,3,2024-06-15T07:32:59.732Z,english_654.wav,0,0,749,,,,,1,0.1,-81.37819023,1.23280851
C,157,3,2024-06-15T07:32:59.732Z,english_654.wav,0,0,749,,,,,2,0.2,51.48571278,1.64688363
C,157,3,2024-06-15T07:32:59.732Z,english_654.wav,0,0,749,,,,,3,0.3,54.00949099,1.75994168
C,157,3,2024-06-15T07:32:59.732Z,english_654.wav,0,0,749,,,,,4,0.32341667,-95.1633683,0.20104411
C,158,3,2024-06-15T07:32:59.732Z,english_722.wav,0,1,657,,,,,0,0,56.33358757,0.09194264
C,158,3,2024-06-15T07:32:59.732Z,english_722.wav,0,1,657,,,,,1,0.1,-63.11389498,1.89550133
C,158,3,2024-06-15T07:32:59.732Z,english_722.wav,0,1,657,,,,,2,0.2,65.64746862,0.18403216
C,158,3,2024-06-15T07:32:59.732Z,english_722.wav,0,1,657,,,,,3,0.3,-93.10605514,1.23223326
C,158,3,2024-06-15T07:32:59.732Z,english_722.wav,0,1,657,,,,,4,0.32341667,-45.92743551,0.28331892
C,159,3,2024-06-15T07:32:59.732Z,english_270.wav,0,0,575,,,,,0,0,-54.89328754,1.02368747
C,159,3,2024-06-15T07:32:59.732Z,english_270.wav,0,0,575,,,,,1,0.1,-41.12345733,1.74263534
C,159,3,2024-06-15T07:32:59.732Z,english_270.wav,0,0,575,,,,,2,0.2,79.03328036,0.45342006
C,159,3,2024-06-15T07:32:59.732Z,english_270.wav,0,0,575,,,,,3,0.3,-87.71335894,1.29911503
C,159,3,2024-06-15T07:32:59.732Z,english_270.wav,0,0,575,,,,,4,0.32341667,-48.20373708,0.95859349
C,160,3,2024-06-15T07:32:59.732Z,english_540.wav,0,1,842,,,,,0,0,-46.6752609,1.16352469
C,160,3,2024-06-15T07:32:59.732Z,english_540.wav,0,1,842,,,,,1,0.1,-93.20209644,0.0234781
C,160,3,2024-06-15T07:32:59.732Z,english_540.wav,0,1,842,,,,,2,0.2,64.96419662,0.05926191
C,160,3,2024-06-15T07:32:59.732Z,english_540.wav,0,1,842,,,,,3,0.3,-12.16484387,1.47406284
C,160,3,2024-06-15T07:32:59.732Z,english_540.wav,0,1,842,,,,,4,0.32341667,-44.34688232,0.60104864
C,161,3,2024-06-15T07:32:59.732Z,english_348.wav,0,0,759,,,,,0,0,21.35215111,0.19799702
C,161,3,2024-06-15T07:32:59.732Z,english_348.wav,0,0,759,,,,,1,0.1,14.79849269,0.60931017
C,161,3,2024-06-15T07:32:59.732Z,english_348.wav,0,0,759,,,,,2,0.2,53.1788992,0.16102666
C,161,3,2024-06-15T07:32:59.732Z,english_348.wav,0,0,759,,,,,3,0.3,-95.85723561,1.54818605
C,161,3,2024-06-15T07:32:59.732Z,english_348.wav,0,0,759,,,,,4,0.32341667,5.27283499,0.26552753
C,162,3,2024-06-15T07:32:59.732Z,english_602.wav,0,1,654,,,,,0,0,-53.18857274,1.95117352
C,162,3,2024-06-15T07:32:59.732Z,english_602.wav,0,1,654,,,,,1,0.1,-52.96167371,1.1427253
C,162,3,2024-06-15T07:32:59.732Z,english_602.wav,0,1,654,,,,,2,0.2,38.20784676,1.10694813
C,162,3,2024-06-15T07:32:59.732Z,english_602.wav,0,1,654,,,,,3,0.3,46.0178344,0.8717932
C,162,3,2024-06-15T07:32:59.732Z,english_602.wav,0,1,654,,,,,4,0.32341667,78.11630752,0.71626065
C,163,3,2024-06-15T07:32:59.732Z,english_465.wav,0,0,487,,,,,0,0,40.04056426,1.33778995
C,163,3,2024-06-15T07:32:59.732Z,english_465.wav,0,0,487,,,,,1,0.1,-97.28817369,0.1899685
C,163,3,2024-06-15T07:32:59.732Z,english_465.wav,0,0,487,,,,,2,0.2,-58.72937184,1.35609136
C,163,3,2024-06-15T07:32:59.732Z,english_465.wav,0,0,487,,,,,3,0.3,82.2448524,1.94032164
C,163,3,2024-06-15T07:32:59.732Z,english_465.wav,0,0,487,,,,,4,0.32341667,-29.20233879,0.27858753
C,164,3,2024-06-15T07:32:59.732Z,english_114.wav,0,1,1035,,,,,0,0,32.66189176,0.56529239
C,164,3,2024-06-15T07:32:59.732Z,english_114.wav,0,1,1035,,,,,1,0.1,11.50533392,1.79520186
C,164,3,2024-06-15T07:32:59.732Z,english_114.wav,0,1,1035,,,,,2,0.2,-73.58201401,1.4619954
C,164,3,2024-06-15T07:32:59.732Z,english_114.wav,0,1,1035,,,,,3,0.3,-8.93644113,0.78288211
C,164,3,2024-06-15T07:32:59.732Z,english_114.wav,0,1,1035,,,,,4,0.32341667,-2.4794064,0.66376764
C,165,3,2024-06-15T07:32:59.732Z,english_347.wav,0,0,430,,,,,0,0,34.89178431,1.32203506
C,165,3,2024-06-15T07:32:59.732Z,english_347.wav,0,0,430,,,,,1,0.1,53.24978685,0.28714436
C,165,3,2024-06-15T07:32:59.732Z,english_347.wav,0,0,430,,,,,2,0.2,4.11185022,1.66093526
C,165,3,2024-06-15T07:32:59.732Z,english_347.wav,0,0,430,,,,,3,0.3,89.26663646,1.29826057
C,165,3,2024-06-15T07:32:59.732Z,english_347.wav,0,0,430,,,,,4,0.32341667,-53.02646266,0.05504814
C,166,3,2024-06-15T07:32:59.732Z,english_395.wav,0,1,563,,,,,0,0,12.69072165,1.18485033
C,166,3,2024-06-15T07:32:59.732Z,english_395.wav,0,1,563,,,,,1,0.1,16.88915645,0.64230571
C,166,3,2024-06-15T07:32:59.732Z,english_395.wav,0,1,563,,,,,2,0.2,49.23789678,0.95454364
C,166,3,2024-06-15T07:32:59.732Z,english_395.wav,0,1,563,,,,,3,0.3,39.87613746,0.75997929
C,166,3,2024-06-15T07:32:59.732Z,english_395.wav,0,1,563,,,,,4,0.32341667,70.90138048,1.50770695
C,167,3,2024-06-15T07:32:59.732Z,english_33.wav,0,0,1366,,,,,0,0,13.53683954,1.37746345
C,167,3,2024-06-15T07:32:59.732Z,english_33.wav,0,0,1366,,,,,1,0.1,-23.61599557,1.14776292
C,167,3,2024-06-15T07:32:59.732Z,english_33.wav,0,0,1366,,,,,2,0.2,60.58241295,1.15899553
C,167,3,2024-06-15T07:32:59.732Z,english_33.wav,0,0,1366,,,,,3,0.3,-2.03686091,0.64766031
C,167,3,2024-06-15T07:32:59.732Z,english_33.wav,0,0,1366,,,,,4,0.32341667,79.90239576,1.69768968
C,168,3,2024-06-15T07:32:59.732Z,english_713.wav,0,1,704,,,,,0,0,18.77281956,1.04868626
C,168,3,2024-06-15T07:32:59.732Z,english_713.wav,0,1,704,,,,,1,0.1,40.78610286,0.48332939
C,168,3,2024-06-15T07:32:59.732Z,english_713.wav,0,1,704,,,,,2,0.2,84.18153491,0.83217717
C,168,3,2024-06-15T07:32:59.732Z,english_713.wav,0,1,704,,,,,3,0.3,47.00827256,1.90318663
C,168,3,2024-06-15T07:32:59.732Z,english_713.wav,0,1,704,,,,,4,0.32341667,66.01008384,0.50055362
C,169,3,2024-06-15T07:32:59.732Z,english_240.wav,0,0,750,,,,,0,0,-96.55121617,1.04823872
C,169,3,2024-06-15T07:32:59.732Z,english_240.wav,0,0,750,,,,,1,0.1,73.99435309,1.11556714
C,169,3,2024-06-15T07:32:59.732Z,english_240.wav,0,0,750,,,,,2,0.2,-27.17256968,0.68795106
C,169,3,2024-06-15T07:32:59.732Z,english_240.wav,0,0,750,,,,,3,0.3,-2.05185553,1.30325309
C,169,3,2024-06-15T07:32:59.732Z,english_240.wav,0,0,750,,,,,4,0.32341667,80.37406519,0.86977317
C,170,3,2024-06-15T07:32:59.732Z,english_208.wav,0,1,856,,,,,0,0,-16.36413188,1.19542909
C,170,3,2024-06-15T07:32:59.732Z,english_208.wav,0,1,856,,,,,1,0.1,25.67725806,0.42717457
C,170,3,2024-06-15T07:32:59.732Z,english_208.wav,0,1,856,,,,,2,0.2,15.43722313,1.01088833
C,170,3,2024-06-15T07:32:59.732Z,english_208.wav,0,1,856,,,,,3,0.3,-39.3158007,1.09044814
C,170,3,2024-06-15T07:32:59.732Z,english_208.wav,0,1,856,,,,,4,0.32341667,38.48956167,1.60091335
C,171,3,2024-06-15T07:32:59.732Z,english_694.wav,0,0,845,,,,,0,0,-79.88370205,0.99496101
C,171,3,2024-06-15T07:32:59.732Z,english_694.wav,0,0,845,,,,,1,0.1,-58.02841319,0.06406007
C,171,3,2024-06-15T07:32:59.732Z,english_694.wav,0,0,845,,,,,2,0.2,-50.54988317,0.5055253
C,171,3,2024-06-15T07:32:59.732Z,english_694.wav,0,0,845,,,,,3,0.3,-20.79864769,0.19498426
C,171,3,2024-06-15T07:32:59.732Z,english_694.wav,0,0,845,,,,,4,0.32341667,-73.64916114,0.36410653
C,172,3,2024-06-15T07:32:59.732Z,english_351.wav,0,1,603,,,,,0,0,-56.55455818,0.98366365
C,172,3,2024-06-15T07:32:59.732Z,english_351.wav,0,1,603,,,,,1,0.1,-81.1333892,1.13800808
C,172,3,2024-06-15T07:32:59.732Z,english_351.wav,0,1,603,,,,,2,0.2,70.95296343,1.04915948
C,172,3,2024-06-15T07:32:59.732Z,english_351.wav,0,1,603,,,,,3,0.3,-82.79021433,1.70890302
C,172,3,2024-06-15T07:32:59.732Z,english_351.wav,0,1,603,,,,,4,0.32341667,-21.34496407,1.83807055
C,173,3,2024-06-15T07:32:59.732Z,english_735.wav,0,0,833,,,,,0,0,51.40973306,0.29099813
C,173,3,2024-06-15T07:32:59.732Z,english_735.wav,0,0,833,,,,,1,0.1,-5.42867159,1.62833375
C,173,3,2024-06-15T07:32:59.732Z,english_735.wav,0,0,833,,,,,2,0.2,13.71146629,0.32849247
C,173,3,2024-06-15T07:32:59.732Z,english_735.wav,0,0,833,,,,,3,0.3,-14.17202169,0.46991549
C,173,3,2024-06-15T07:32:59.732Z,english_735.wav,0,0,833,,,,,4,0.32341667,14.98699592,0.51625305
C,174,3,2024-06-15T07:32:59.732Z,english_164.wav,0,1,517,,,,,0,0,-18.99376005,1.91320144
C,174,3,2024-06-15T07:32:59.732Z,english_164.wav,0,1,517,,,,,1,0.1,-38.65269109,0.23857652
C,174,3,2024-06-15T07:32:59.732Z,english_164.wav,0,1,517,,,,,2,0.2,64.75288033,1.41883879
C,174,3,2024-06-15T07:32:59.732Z,english_164.wav,0,1,517,,,,,3,0.3,-33.8407164,1.34667564
C,174,3,2024-06-15T07:32:59.732Z,english_164.wav,0,1,517,,,,,4,0.32341667,27.96502681,0.04602263
C,175,3,2024-06-15T07:32:59.732Z,english_795.wav,0,0,1757,,,,,0,0,39.36518311,1.47453336
C,175,3,2024-06-15T07:32:59.732Z,english_795.wav,0,0,1757,,,,,1,0.1,16.50141431,0.29075574
C,175,3,2024-06-15T07:32:59.732Z,english_795.wav,0,0,1757,,,,,2,0.2,54.87860026,1.88174141
C,175,3,2024-06-15T07:32:59.732Z,english_795.wav,0,0,1757,,,,,3,0.3,61.09971909,0.27471403
C,175,3,2024-06-15T07:32:59.732Z,english_795.wav,0,0,1757,,,,,4,0.32341667,4.28490532,0.11399574
C,176,3,2024-06-15T07:32:59.732Z,english_467.wav,0,0,406,,,,,0,0,-0.54983343,1.824027
C,176,3,2024-06-15T07:32:59.732Z,english_467.wav,0,0,406,,,,,1,0.1,-84.54516502,1.06295632
C,176,3,2024-06-15T07:32:59.732Z,english_467.wav,0,0,406,,,,,2,0.2,54.30123894,1.09976952
C,176,3,2024-06-15T07:32:59.732Z,english_467.wav,0,0,406,,,,,3,0.3,-82.00368026,1.11766566
C,176,3,2024-06-15T07:32:59.732Z,english_467.wav,0,0,406,,,,,4,0.32341667,-54.10816942,0.44824559
C,177,3,2024-06-15T07:32:59.732Z,english_4.wav,0,1,4273,,,,,0,0,97.57442054,1.3122383
C,177,3,2024-06-15T07:32:59.732Z,english_4.wav,0,1,4273,,,,,1,0.1,57.41970729,1.27661748
C,177,3,2024-06-15T07:32:59.732Z,english_4.wav,0,1,4273,,,,,2,0.2,32.67065062,1.16138222
C,177,3,2024-06-15T07:32:59.732Z,english_4.wav,0,1,4273,,,,,3,0.3,34.06011343,0.34510216
C,177,3,2024-06-15T07:32:59.732Z,english_4.wav,0,1,4273,,,,,4,0.32341667,83.59797788,1.84938224
C,178,3,2024-06-15T07:32:59.732Z,english_871.wav,0,0,828,,,,,0,0,84.63625516,0.21643415
C,178,3,2024-06-15T07:32:59.732Z,english_871.wav,0,0,828,,,,,1,0.1,-19.11058767,1.23538017
C,178,3,2024-06-15T07:32:59.732Z,english_871.wav,0,0,828,,,,,2,0.2,49.1497137,1.26375285
C,178,3,2024-06-15T07:32:59.732Z,english_871.wav,0,0,828,,,,,3,0.3,-83.07816512,0.03257235
C,178,3,2024-06-15T07:32:59.732Z,english_871.wav,0,0,828,,,,,4,0.32341667,11.22002909,1.90703832
C,179,3,2024-06-15T07:32:59.732Z,english_592.wav,0,1,392,,,,,0,0,-77.34060672,0.96869857
C,179,3,2024-06-15T07:32:59.732Z,english_592.wav,0,1,392,,,,,1,0.1,27.41551815,1.75134411
C,179,3,2024-06-15T07:32:59.732Z,english_592.wav,0,1,392,,,,,2,0.2,-17.47445882,1.41680483
C,179,3,2024-06-15T07:32:59.732Z,english_592.wav,0,1,392,,,,,3,0.3,-61.08462212,1.07260777
C,179,3,2024-06-15T07:32:59.732Z,english_592.wav,0,1,392,,,,,4,0.32341667,74.7675789,0.73150904
C,180,3,2024-06-15T07:32:59.732Z,english_94.wav,0,0,405,,,,,0,0,-78.50776969,1.58967719
C,180,3,2024-06-15T07:32:59.732Z,english_94.wav,0,0,405,,,,,1,0.1,21.81048112,0.88841047
C,180,3,2024-06-15T07:32:59.732Z,english_94.wav,0,0,405,,,,,2,0.2,76.78230264,1.12549424
C,180,3,2024-06-15T07:32:59.732Z,english_94.wav,0,0,405,,,,,3,0.3,-35.62145712,1.80621507
C,180,3,2024-06-15T07:32:59.732Z,english_94.wav,0,0,405,,,,,4,0.32341667,-71.39427505,1.00879957
C,181,3,2024-06-15T07:32:59.732Z,english_149.wav,0,1,335,,,,,0,0,84.22842235,1.59516341
C,181,3,2024-06-15T07:32:59.732Z,english_149.wav,0,1,335,,,,,1,0.1,-27.4405272,0.66089578
C,181,3,2024-06-15T07:32:59.732Z,english_149.wav,0,1,335,,,,,2,0.2,-61.08664731,1.85372623
C,181,3,2024-06-15T07:32:59.732Z,english_149.wav,0,1,335,,,,,3,0.3,-73.42064763,1.25159901
C,181,3,2024-06-15T07:32:59.732Z,english_149.wav,0,1,335,,,,,4,0.32341667,74.80057547,1.10687529
C,182,3,2024-06-15T07:32:59.732Z,english_858.wav,0,0,516,,,,,0,0,45.12570132,0.50395823
C,182,3,2024-06-15T07:32:59.732Z,english_858.wav,0,0,516,,,,,1,0.1,-46.71359417,1.50658612
C,182,3,2024-06-15T07:32:59.732Z,english_858.wav,0,0,516,,,,,2,0.2,-60.32464978,0.86887416
C,182,3,2024-06-15T07:32:59.732Z,english_858.wav,0,0,516,,,,,3,0.3,-70.46241098,0.20520469
C,182,3,2024-06-15T07:32:59.732Z,english_858.wav,0,0,516,,,,,4,0.32341667,76.51169453,1.05885662
C,183,3,2024-06-15T07:32:59.732Z,english_859.wav,0,1,408,,,,,0,0,71.31858369,0.11764496
C,183,3,2024-06-15T07:32:59.732Z,english_859.wav,0,1,408,,,,,1,0.1,-33.60875554,0.29827778
C,183,3,2024-06-15T07:32:59.732Z,english_859.wav,0,1,408,,,,,2,0.2,-64.15502461,0.43254339
C,183,3,2024-06-15T07:32:59.732Z,english_859.wav,0,1,408,,,,,3,0.3,-36.22537369,0.12368506
C,183,3,2024-06-15T07:32:59.732Z,english_859.wav,0,1,408,,,,,4,0.32341667,-23.59955866,0.97858169
C,184,3,2024-06-15T07:32:59.732Z,english_159.wav,0,0,284,,,,,0,0,-83.7072706,0.09138871
C,184,3,2024-06-15T07:32:59.732Z,english_159.wav,0,0,284,,,,,1,0.1,-62.69238784,0.63335487
C,184,3,2024-06-15T07:32:59.732Z,english_159.wav,0,0,284,,,,,2,0.2,22.09248507,1.23550763
C,184,3,2024-06-15T07:32:59.732Z,english_159.wav,0,0,284,,,,,3,0.3,-80.94681782,1.83356136
C,184,3,2024-06-15T07:32:59.732Z,english_159.wav,0,0,284,,,,,4,0.32341667,-55.76861956,0.76796393
C,185,3,2024-06-15T07:32:59.732Z,english_618.wav,0,1,217,,,,,0,0,58.31579708,1.46895394
C,185,3,2024-06-15T07:32:59.732Z,english_618.wav,0,1,217,,,,,1,0.1,6.96253647,0.48660613
C,185,3,2024-06-15T07:32:59.732Z,english_618.wav,0,1,217,,,,,2,0.2,-4.41581756,1.00963977
C,185,3,2024-06-15T07:32:59.732Z,english_618.wav,0,1,217,,,,,3,0.3,-63.5775247,1.29399549
C,185,3,2024-06-15T07:32:59.732Z,english_618.wav,0,1,217,,,,,4,0.32341667,97.77631762,0.84060701
C,186,3,2024-06-15T07:32:59.732Z,english_145.wav,0,0,623,,,,,0,0,-29.75830226,1.9441914
C,186,3,2024-06-15T07:32:59.732Z,english_145.wav,0,0,623,,,,,1,0.1,0.94664025,0.04744273
C,186,3,2024-06-15T07:32:59.732Z,english_145.wav,0,0,623,,,,,2,0.2,-55.39340023,1.27144901
C,186,3,2024-06-15T07:32:59.732Z,english_145.wav,0,0,623,,,,,3,0.3,-49.58722608,0.20842421
C,186,3,2024-06-15T07:32:59.732Z,english_145.wav,0,0,623,,,,,4,0.32341667,-83.35110665,0.85478836
C,187,3,2024-06-15T07:32:59.732Z,english_254.wav,0,1,579,,,,,0,0,-9.19838866,1.99657173
C,187,3,2024-06-15T07:32:59.732Z,english_254.wav,0,1,579,,,,,1,0.1,15.86633291,1.39044581
C,187,3,2024-06-15T07:32:59.732Z,english_254.wav,0,1,579,,,,,2,0.2,-42.67167238,1.09933375
C,187,3,2024-06-15T07:32:59.732Z,english_254.wav,0,1,579,,,,,3,0.3,-11.53254556,0.78821302
C,187,3,2024-06-15T07:32:59.732Z,english_254.wav,0,1,579,,,,,4,0.32341667,-12.27536806,0.39297423
C,188,3,2024-06-15T07:32:59.732Z,english_818.wav,0,1,794,,,,,0,0,88.49542613,1.4873036
C,188,3,2024-06-15T07:32:59.732Z,english_818.wav,0,1,794,,,,,1,0.1,-7.37005163,1.25102077
C,188,3,2024-06-15T07:32:59.732Z,english_818.wav,0,1,794,,,,,2,0.2,-1.58613611,0.80764036
C,188,3,2024-06-15T07:32:59.732Z,english_818.wav,0,1,794,,,,,3,0.3,-69.41222379,0.80656775
C,188,3,2024-06-15T07:32:59.732Z,english_818.wav,0,1,794,,,,,4,0.32341667,14.01707612,1.41859799
C,189,3,2024-06-15T07:32:59.732Z,english_258.wav,0,0,413,,,,,0,0,-7.1133109,1.89026761
C,189,3,2024-06-15T07:32:59.732Z,english_258.wav,0,0,413,,,,,1,0.1,44.58564752,1.79361992
C,189,3,2024-06-15T07:32:59.732Z,english_258.wav,0,0,413,,,,,2,0.2,45.36800295,0.43687845
C,189,3,2024-06-15T07:32:59.732Z,english_258.wav,0,0,413,,,,,3,0.3,25.81301737,0.04688612
C,189,3,2024-06-15T07:32:59.732Z,english_258.wav,0,0,413,,,,,4,0.32341667,-77.97513924,0.52567924
C,190,3,2024-06-15T07:32:59.732Z,english_346.wav,0,0,660,,,,,0,0,29.51078372,1.24489428
C,190,3,2024-06-15T07:32:59.732Z,english_346.wav,0,0,660,,,,,1,0.1,86.25753287,1.77356048
C,190,3,2024-06-15T07:32:59.732Z,english_346.wav,0,0,660,,,,,2,0.2,95.6553577,1.30862901
C,190,3,2024-06-15T07:32:59.732Z,english_346.wav,0,0,660,,,,,3,0.3,-65.97707071,0.68318311
C,190,3,2024-06-15T07:32:59.732Z,english_346.wav,0,0,660,,,,,4,0.32341667,49.79896228,1.63073528
C,191,3,2024-06-15T07:32:59.732Z,english_526.wav,0,1,388,,,,,0,0,-32.34532461,0.924261
C,191,3,2024-06-15T07:32:59.732Z,english_526.wav,0,1,388,,,,,1,0.1,-46.6208459,0.25414499
C,191,3,2024-06-15T07:32:59.732Z,english_526.wav,0,1,388,,,,,2,0.2,-42.84927068,1.01925886
C,191,3,2024-06-15T07:32:59.732Z,english_526.wav,0,1,388,,,,,3,0.3,3.47643827,0.65966822
C,191,3,2024-06-15T07:32:59.732Z,english_526.wav,0,1,388,,,,,4,0.32341667,52.79087598,1.50872035
C,192,3,2024-06-15T07:32:59.732Z,english_304.wav,0,0,411,,,,,0,0,-80.7192326,0.54130022
C,192,3,2024-06-15T07:32:59.732Z,english_304.wav,0,0,411,,,,,1,0.1,34.14230443,0.20766845
C,192,3,2024-06-15T07:32:59.732Z,english_304.wav,0,0,411,,,,,2,0.2,-43.78548789,1.25157904
C,192,3,2024-06-15T07:32:59.732Z,english_304.wav,0,0,411,,,,,3,0.3,85.79520644,0.76195837
C,192,3,2024-06-15T07:32:59.732Z,english_304.wav,0,0,411,,,,,4,0.32341667,-29.32737886,0.20991234
C,193,3,2024-06-15T07:32:59.732Z,english_81.wav,0,1,49,,,,,0,0,-8.99652005,1.6890162
C,193,3,2024-06-15T07:32:59.732Z,english_81.wav,0,1,49,,,,,1,0.1,37.2959996,1.86826101
C,193,3,2024-06-15T07:32:59.732Z,english_81.wav,0,1,49,,,,,2,0.2,56.49217416,0.68929954
C,193,3,2024-06-15T07:32:59.732Z,english_81.wav,0,1,49,,,,,3,0.3,99.31521879,0.22383451
C,193,3,2024-06-15T07:32:59.732Z,english_81.wav,0,1,49,,,,,4,0.32341667,-25.36881215,0.930773
C,194,3,2024-06-15T07:32:59.732Z,english_436.wav,0,0,697,,,,,0,0,58.73131257,0.30497449
C,194,3,2024-06-15T07:32:59.732Z,english_436.wav,0,0,697,,,,,1,0.1,65.29204538,1.04665744
C,194,3,2024-06-15T07:32:59.732Z,english_436.wav,0,0,697,,,,,2,0.2,7.63213906,1.03883923
C,194,3,2024-06-15T07:32:59.732Z,english_436.wav,0,0,697,,,,,3,0.3,-2.54756362,0.97345352
C,194,3,2024-06-15T07:32:59.732Z,english_436.wav,0,0,697,,,,,4,0.32341667,-11.40614268,0.16121918
C,195,3,2024-06-15T07:32:59.732Z,english_295.wav,0,1,171,,,,,0,0,-76.51454746,1.12273409
C,195,3,2024-06-15T07:32:59.732Z,english_295.wav,0,1,171,,,,,1,0.1,-96.9380047,0.2018376
C,195,3,2024-06-15T07:32:59.732Z,english_295.wav,0,1,171,,,,,2,0.2,-72.79782389,1.81703153
C,195,3,2024-06-15T07:32:59.732Z,english_295.wav,0,1,171,,,,,3,0.3,-31.86888898,0.31799467
C,195,3,2024-06-15T07:32:59.732Z,english_295.wav,0,1,171,,,,,4,0.32341667,-51.47839766,0.71777059
C,196,3,2024-06-15T07:32:59.732Z,english_605.wav,0,0,342,,,,,0,0,-82.65591545,0.90945233
C,196,3,2024-06-15T07:32:59.732Z,english_605.wav,0,0,342,,,,,1,0.1,35.78886654,1.65178877
C,196,3,2024-06-15T07:32:59.732Z,english_605.wav,0,0,342,,,,,2,0.2,-36.80716754,0.21181898
C,196,3,2024-06-15T07:32:59.732Z,english_605.wav,0,0,342,,,,,3,0.3,-4.39131435,1.21754483
C,196,3,2024-06-15T07:32:59.732Z,english_605.wav,0,0,342,,,,,4,0.32341667,-17.17702763,1.60493484
C,197,3,2024-06-15T07:32:59.732Z,english_658.wav,0,1,252,,,,,0,0,-80.21976745,0.49170119
C,197,3,2024-06-15T07:32:59.732Z,english_658.wav,0,1,252,,,,,1,0.1,11.23314836,0.6994793
C,197,3,2024-06-15T07:32:59.732Z,english_658.wav,0,1,252,,,,,2,0.2,8.94946791,1.18458539
C,197,3,2024-06-15T07:32:59.732Z,english_658.wav,0,1,252,,,,,3,0.3,17.22411688,0.7091276
C,197,3,2024-06-15T07:32:59.732Z,english_658.wav,0,1,252,,,,,4,0.32341667,10.67081381,1.7453453
C,198,3,2024-06-15T07:32:59.732Z,english_862.wav,0,0,359,,,,,0,0,97.17644144,0.51253178
C,198,3,2024-06-15T07:32:59.732Z,english_862.wav,0,0,359,,,,,1,0.1,26.34966999,0.21080737
C,198,3,2024-06-15T07:32:59.732Z,english_862.wav,0,0,359,,,,,2,0.2,-21.73584106,0.27401534
C,198,3,2024-06-15T07:32:59.732Z,english_862.wav,0,0,359,,,,,3,0.3,70.49109419,1.91980484
C,198,3,2024-06-15T07:32:59.732Z,english_862.wav,0,0,359,,,,,4,0.32341667,43.48373212,0.96077188
C,199,3,2024-06-15T07:32:59.732Z,english_656.wav,0,1,160,,,,,0,0,-4.15957802,0.9962349
C,199,3,2024-06-15T07:32:59.732Z,english_656.wav,0,1,160,,,,,1,0.1,-31.70283109,1.16669679
C,199,3,2024-06-15T07:32:59.732Z,english_656.wav,0,1,160,,,,,2,0.2,-35.90055673,0.85512169
C,199,3,2024-06-15T07:32:59.732Z,english_656.wav,0,1,160,,,,,3,0.3,-27.39202404,1.68840921
C,199,3,2024-06-15T07:32:59.732Z,english_656.wav,0,1,160,,,,,4,0.32341667,-5.54715508,1.5699395
C,200,4,2024-06-15T07:32:59.732Z,english_439.wav,0,0,215,,,,,0,0,-34.98153375,0.51703437
C,200,4,2024-06-15T07:32:59.732Z,english_439.wav,0,0,215,,,,,1,0.1,58.81829455,0.92552513
C,200,4,2024-06-15T07:32:59.732Z,english_439.wav,0,0,215,,,,,2,0.2,-39.64168408,1.94754337
C,200,4,2024-06-15T07:32:59.732Z,english_439.wav,0,0,215,,,,,3,0.3,-65.89684329,0.19153473
C,200,4,2024-06-15T07:32:59.732Z,english_439.wav,0,0,215,,,,,4,0.32341667,-18.09409032,1.29438445
C,201,4,2024-06-15T07:32:59.732Z,english_520.wav,0,1,128,,,,,0,0,86.3711843,1.94117834
C,201,4,2024-06-15T07:32:59.732Z,english_520.wav,0,1,128,,,,,1,0.1,30.73905166,1.71866566
C,201,4,2024-06-15T07:32:59.732Z,english_520.wav,0,1,128,,,,,2,0.2,6.06230503,1.15295637
C,201,4,2024-06-15T07:32:59.732Z,english_520.wav,0,1,128,,,,,3,0.3,-72.93527416,0.80072648
C,201,4,2024-06-15T07:32:59.732Z,english_520.wav,0,1,128,,,,,4,0.32341667,40.17700679,1.71054199
C,202,4,2024-06-15T07:32:59.732Z,english_734.wav,0,0,332,,,,,0,0,23.12527103,1.15728247
C,202,4,2024-06-15T07:32:59.732Z,english_734.wav,0,0,332,,,,,1,0.1,70.97885261,1.10975856
C,202,4,2024-06-15T07:32:59.732Z,english_734.wav,0,0,332,,,,,2,0.2,-68.62860591,0.41126476
C,202,4,2024-06-15T07:32:59.732Z,english_734.wav,0,0,332,,,,,3,0.3,-14.81239301,1.45213782
C,202,4,2024-06-15T07:32:59.732Z,english_734.wav,0,0,332,,,,,4,0.32341667,-74.40513958,1.98917216
C,203,4,2024-06-15T07:32:59.732Z,english_73.wav,0,0,335,,,,,0,0,-73.49165063,1.41947215
C,203,4,2024-06-15T07:32:59.732Z,english_73.wav,0,0,335,,,,,1,0.1,65.54847429,1.68852165
C,203,4,2024-06-15T07:32:59.732Z,english_73.wav,0,0,335,,,,,2,0.2,-55.11967081,0.59259525
C,203,4,2024-06-15T07:32:59.732Z,english_73.wav,0,0,335,,,,,3,0.3,68.77466141,0.85140805
C,203,4,2024-06-15T07:32:59.732Z,english_73.wav,0,0,335,,,,,4,0.32341667,-37.79888894,1.17745107
C,204,4,2024-06-15T07:32:59.732Z,english_811.wav,0,1,1086,,,,,0,0,-51.03425556,1.55055496
C,204,4,2024-06-15T07:32:59.732Z,english_811.wav,0,1,1086,,,,,1,0.1,22.81695275,1.74830484
C,204,4,2024-06-15T07:32:59.732Z,english_811.wav,0,1,1086,,,,,2,0.2,73.06623682,1.24661488
C,204,4,2024-06-15T07:32:59.732Z,english_811.wav,0,1,1086,,,,,3,0.3,-9.17693151,0.09792889
C,204,4,2024-06-15T07:32:59.732Z,english_811.wav,0,1,1086,,,,,4,0.32341667,79.97760745,0.03735929
C,205,4,2024-06-15T07:32:59.732Z,english_634.wav,0,0,1217,,,,,0,0,-94.29539956,0.6011183
C,205,4,2024-06-15T07:32:59.732Z,english_634.wav,0,0,1217,,,,,1,0.1,28.41708136,1.15242669
C,205,4,2024-06-15T07:32:59.732Z,english_634.wav,0,0,1217,,,,,2,0.2,-99.13935281,0.68826906
C,205,4,2024-06-15T07:32:59.732Z,english_634.wav,0,0,1217,,,,,3,0.3,-78.11216949,1.44169335
C,205,4,2024-06-15T07:32:59.732Z,english_634.wav,0,0,1217,,,,,4,0.32341667,-54.5881907,0.90266094
C,206,4,2024-06-15T07:32:59.732Z,english_86.wav,0,1,269,,,,,0,0,-48.59393833,1.45450552
C,206,4,2024-06-15T07:32:59.732Z,english_86.wav,0,1,269,,,,,1,0.1,77.37095157,1.8635573
C,206,4,2024-06-15T07:32:59.732Z,english_86.wav,0,1,269,,,,,2,0.2,44.19816726,1.174515
C,206,4,2024-06-15T07:32:59.732Z,english_86.wav,0,1,269,,,,,3,0.3,-99.780271,1.46785746
C,206,4,2024-06-15T07:32:59.732Z,english_86.wav,0,1,269,,,,,4,0.32341667,38.96545556,0.99607158
C,207,4,2024-06-15T07:32:59.732Z,english_59.wav,0,0,525,,,,,0,0,30.26604033,1.5973148
C,207,4,2024-06-15T07:32:59.732Z,english_59.wav,0,0,525,,,,,1,0.1,25.69112756,0.24758472
C,207,4,2024-06-15T07:32:59.732Z,english_59.wav,0,0,525,,,,,2,0.2,-24.85549033,0.1547886
C,207,4,2024-06-15T07:32:59.732Z,english_59.wav,0,0,525,,,,,3,0.3,-31.2790444,0.30754036
C,207,4,2024-06-15T07:32:59.732Z,english_59.wav,0,0,525,,,,,4,0.32341667,86.30355152,0.40312024
C,208,4,2024-06-15T07:32:59.732Z,english_256.wav,0,0,519,,,,,0,0,22.60769813,1.84037168
C,208,4,2024-06-15T07:32:59.732Z,english_256.wav,0,0,519,,,,,1,0.1,-95.01444593,0.47687766
C,208,4,2024-06-15T07:32:59.732Z,english_256.wav,0,0,519,,,,,2,0.2,-19.91310746,0.85339151
C,208,4,2024-06-15T07:32:59.732Z,english_256.wav,0,0,519,,,,,3,0.3,-6.39209363,0.75097161
C,208,4,2024-06-15T07:32:59.732Z,english_256.wav,0,0,519,,,,,4,0.32341667,24.02209282,1.98695073
C,209,4,2024-06-15T07:32:59.732Z,english_766.wav,0,1,1155,,,,,0,0,-86.57417509,1.21737292
C,209,4,2024-06-15T07:32:59.732Z,english_766.wav,0,1,1155,,,,,1,0.1,-67.75686223,1.61484435
C,209,4,2024-06-15T07:32:59.732Z,english_766.wav,0,1,1155,,,,,2,0.2,74.21258041,1.47872362
C,209,4,2024-06-15T07:32:59.732Z,english_766.wav,0,1,1155,,,,,3,0.3,65.20164426,1.81064247
C,209,4,2024-06-15T07:32:59.732Z,english_766.wav,0,1,1155,,,,,4,0.32341667,-26.41371036,1.37776493
C,210,4,2024-06-15T07:32:59.732Z,english_471.wav,0,0,563,,,,,0,0,47.42131089,0.58869392
C,210,4,2024-06-15T07:32:59.732Z,english_471.wav,0,0,563,,,,,1,0.1,-63.95282256,1.74739294
C,210,4,2024-06-15T07:32:59.732Z,english_471.wav,0,0,563,,,,,2,0.2,31.67244378,1.10105994
C,210,4,2024-06-15T07:32:59.732Z,english_471.wav,0,0,563,,,,,3,0.3,40.6572625,0.54790015
C,210,4,2024-06-15T07:32:59.732Z,english_471.wav,0,0,563,,,,,4,0.32341667,-18.6332399,1.33029013
C,211,4,2024-06-15T07:32:59.732Z,english_934.wav,0,1,526,,,,,0,0,48.23169593,1.38760579
C,211,4,2024-06-15T07:32:59.732Z,english_934.wav,0,1,526,,,,,1,0.1,42.81145804,1.74622613
C,211,4,2024-06-15T07:32:59.732Z,english_934.wav,0,1,526,,,,,2,0.2,79.06411095,0.2874918
C,211,4,2024-06-15T07:32:59.732Z,english_934.wav,0,1,526,,,,,3,0.3,69.44528076,1.61606763
C,211,4,2024-06-15T07:32:59.732Z,english_934.wav,0,1,526,,,,,4,0.32341667,88.54940569,1.62058381
C,212,4,2024-06-15T07:32:59.732Z,english_533.wav,0,0,173,,,,,0,0,-10.36570298,0.10013008
C,212,4,2024-06-15T07:32:59.732Z,english_533.wav,0,0,173,,,,,1,0.1,-67.04420928,1.73583104
C,212,4,2024-06-15T07:32:59.732Z,english_533.wav,0,0,173,,,,,2,0.2,-31.24691396,1.00550506
C,212,4,2024-06-15T07:32:59.732Z,english_533.wav,0,0,173,,,,,3,0.3,-22.73912087,1.21009828
C,212,4,2024-06-15T07:32:59.732Z,english_533.wav,0,0,173,,,,,4,0.32341667,-4.63915005,1.69946188
C,213,4,2024-06-15T07:32:59.732Z,english_720.wav,0,1,288,,,,,0,0,85.23240719,1.23446246
C,213,4,2024-06-15T07:32:59.732Z,english_720.wav,0,1,288,,,,,1,0.1,78.65958559,0.77382892
C,213,4,2024-06-15T07:32:59.732Z,english_720.wav,0,1,288,,,,,2,0.2,-56.45174874,0.48705718
C,213,4,2024-06-15T07:32:59.732Z,english_720.wav,0,1,288,,,,,3,0.3,71.88898266,1.42335328
C,213,4,2024-06-15T07:32:59.732Z,english_720.wav,0,1,288,,,,,4,0.32341667,-9.13482,1.32495619
C,214,4,2024-06-15T07:32:59.732Z,english_18.wav,0,0,267,,,,,0,0,-61.9567004,0.45038722
C,214,4,2024-06-15T07:32:59.732Z,english_18.wav,0,0,267,,,,,1,0.1,39.2027204,1.56185221
C,214,4,2024-06-15T07:32:59.732Z,english_18.wav,0,0,267,,,,,2,0.2,-0.0626834214,0.80652275
C,214,4,2024-06-15T07:32:59.732Z,english_18.wav,0,0,267,,,,,3,0.3,-72.2820301,0.39505163
C,214,4,2024-06-15T07:32:59.732Z,english_18.wav,0,0,267,,,,,4,0.323416667,-52.9459242,0.50402069
C,215,4,2024-06-15T07:32:59.732Z,english_802.wav,0,1,164,,,,,0,0,44.11448731,1.89082481
C,215,4,2024-06-15T07:32:59.732Z,english_802.wav,0,1,164,,,,,1,0.1,27.89646601,1.73386287
C,215,4,2024-06-15T07:32:59.732Z,english_802.wav,0,1,164,,,,,2,0.2,-19.36127415,0.34468699
C,215,4,2024-06-15T07:32:59.732Z,english_802.wav,0,1,164,,,,,3,0.3,15.17899174,0.39328876
C,215,4,2024-06-15T07:32:59.732Z,english_802.wav,0,1,164,,,,,4,0.32341667,-18.70870555,1.25778986
C,216,4,2024-06-15T07:32:59.732Z,english_213.wav,0,0,333,,,,,0,0,-29.91874444,1.42031243
C,216,4,2024-06-15T07:32:59.732Z,english_213.wav,0,0,333,,,,,1,0.1,41.64704809,0.59218852
C,216,4,2024-06-15T07:32:59.732Z,english_213.wav,0,0,333,,,,,2,0.2,-87.11075848,1.10576613
C,216,4,2024-06-15T07:32:59.732Z,english_213.wav,0,0,333,,,,,3,0.3,-61.54877495,0.09529021
C,216,4,2024-06-15T07:32:59.732Z,english_213.wav,0,0,333,,,,,4,0.32341667,-34.29429643,1.15583312
C,217,4,2024-06-15T07:32:59.732Z,english_218.wav,0,1,545,,,,,0,0,87.3373499,1.94084006
C,217,4,2024-06-15T07:32:59.732Z,english_218.wav,0,1,545,,,,,1,0.1,-14.87903436,0.13305972
C,217,4,2024-06-15T07:32:59.732Z,english_218.wav,0,1,545,,,,,2,0.2,-31.97943339,1.11441312
C,217,4,2024-06-15T07:32:59.732Z,english_218.wav,0,1,545,,,,,3,0.3,-60.49311609,1.83933377
C,217,4,2024-06-15T07:32:59.732Z,english_218.wav,0,1,545,,,,,4,0.32341667,-63.68242647,1.41053301
C,218,4,2024-06-15T07:32:59.732Z,english_264.wav,0,0,173,,,,,0,0,16.10521774,1.02407609
C,218,4,2024-06-15T07:32:59.732Z,english_264.wav,0,0,173,,,,,1,0.1,-43.55481907,1.4393598
C,218,4,2024-06-15T07:32:59.732Z,english_264.wav,0,0,173,,,,,2,0.2,-16.87093852,1.31552174
C,218,4,2024-06-15T07:32:59.732Z,english_264.wav,0,0,173,,,,,3,0.3,-81.41755984,1.17516842
C,218,4,2024-06-15T07:32:59.732Z,english_264.wav,0,0,173,,,,,4,0.32341667,-76.00277997,0.613195
C,219,4,2024-06-15T07:32:59.732Z,english_758.wav,0,1,33,,,,,0,0,-56.29380511,1.72966744
C,219,4,2024-06-15T07:32:59.732Z,english_758.wav,0,1,33,,,,,1,0.1,1.29517397,1.20455484
C,219,4,2024-06-15T07:32:59.732Z,english_758.wav,0,1,33,,,,,2,0.2,49.77366466,0.98441853
