subj,trial,block,date,stim,stim_order,response,rt,age,english,language,sex,param_index,segment,pitch,stretch
WZL_1701,0,0,2024-06-16T09:04:27.810Z,english_552.wav,0,1,8535,25,4,chinese,m,0,0,-54.22317773,0.14479657
WZL_1701,0,0,2024-06-16T09:04:27.810Z,english_552.wav,0,1,8535,25,4,chinese,m,1,0.1,23.75537749,1.96762023
WZL_1701,0,0,2024-06-16T09:04:27.810Z,english_552.wav,0,1,8535,25,4,chinese,m,2,0.2,-67.43154965,0.75812729
WZL_1701,0,0,2024-06-16T09:04:27.810Z,english_552.wav,0,1,8535,25,4,chinese,m,3,0.3,-83.62242399,0.84420129
WZL_1701,0,0,2024-06-16T09:04:27.810Z,english_552.wav,0,1,8535,25,4,chinese,m,4,0.32341667,64.2322812,0.73382384
WZL_1701,1,0,2024-06-16T09:04:58.235Z,english_119.wav,0,0,3620,25,4,chinese,m,0,0,-72.13623542,1.33116293
WZL_1701,1,0,2024-06-16T09:04:58.235Z,english_119.wav,0,0,3620,25,4,chinese,m,1,0.1,-47.93500709,0.14257244
WZL_1701,1,0,2024-06-16T09:04:58.235Z,english_119.wav,0,0,3620,25,4,chinese,m,2,0.2,91.39212861,1.10285667
WZL_1701,1,0,2024-06-16T09:04:58.235Z,english_119.wav,0,0,3620,25,4,chinese,m,3,0.3,-4.62561099,0.57572872
WZL_1701,1,0,2024-06-16T09:04:58.235Z,english_119.wav,0,0,3620,25,4,chinese,m,4,0.32341667,-33.86599352,1.36512269
WZL_1701,2,0,2024-06-16T09:04:58.235Z,english_308.wav,0,0,2605,25,4,chinese,m,0,0,71.04817524,1.27905886
WZL_1701,2,0,2024-06-16T09:04:58.235Z,english_308.wav,0,0,2605,25,4,chinese,m,1,0.1,-29.23230128,0.28593244
WZL_1701,2,0,2024-06-16T09:04:58.235Z,english_308.wav,0,0,2605,25,4,chinese,m,2,0.2,-23.90252129,0.87298087
WZL_1701,2,0,2024-06-16T09:04:58.235Z,english_308.wav,0,0,2605,25,4,chinese,m,3,0.3,-20.50746627,0.50431278
WZL_1701,2,0,2024-06-16T09:04:58.235Z,english_308.wav,0,0,2605,25,4,chinese,m,4,0.32341667,-25.31970697,1.06118321
WZL_1701,3,0,2024-06-16T09:04:58.235Z,english_247.wav,0,1,2317,25,4,chinese,m,0,0,48.65693284,0.25539499
WZL_1701,3,0,2024-06-16T09:04:58.235Z,english_247.wav,0,1,2317,25,4,chinese,m,1,0.1,-27.64572099,1.09429421
WZL_1701,3,0,2024-06-16T09:04:58.235Z,english_247.wav,0,1,2317,25,4,chinese,m,2,0.2,-20.19701808,0.88115619
WZL_1701,3,0,2024-06-16T09:04:58.235Z,english_247.wav,0,1,2317,25,4,chinese,m,3,0.3,-10.74442668,1.97859338
WZL_1701,3,0,2024-06-16T09:04:58.235Z,english_247.wav,0,1,2317,25,4,chinese,m,4,0.32341667,91.42432082,0.10638235
WZL_1701,4,0,2024-06-16T09:04:58.235Z,english_158.wav,0,1,2006,25,4,chinese,m,0,0,33.09785739,1.71128449
WZL_1701,4,0,2024-06-16T09:04:58.235Z,english_158.wav,0,1,2006,25,4,chinese,m,1,0.1,-85.08083727,1.56145129
WZL_1701,4,0,2024-06-16T09:04:58.235Z,english_158.wav,0,1,2006,25,4,chinese,m,2,0.2,97.70701203,0.69707892
WZL_1701,4,0,2024-06-16T09:04:58.235Z,english_158.wav,0,1,2006,25,4,chinese,m,3,0.3,2.54261044,1.19647348
WZL_1701,4,0,2024-06-16T09:04:58.235Z,english_158.wav,0,1,2006,25,4,chinese,m,4,0.32341667,-59.73934841,1.17782448
WZL_1701,5,0,2024-06-16T09:06:17.126Z,english_98.wav,0,0,4257,25,4,chinese,m,0,0,-23.07451683,0.55932234
WZL_1701,5,0,2024-06-16T09:06:17.126Z,english_98.wav,0,0,4257,25,4,chinese,m,1,0.1,58.83766866,1.03192869
WZL_1701,5,0,2024-06-16T09:06:17.126Z,english_98.wav,0,0,4257,25,4,chinese,m,2,0.2,75.90401246,1.16154403
WZL_1701,5,0,2024-06-16T09:06:17.126Z,english_98.wav,0,0,4257,25,4,chinese,m,3,0.3,-86.31256295,0.50819795
WZL_1701,5,0,2024-06-16T09:06:17.126Z,english_98.wav,0,0,4257,25,4,chinese,m,4,0.32341667,26.17624316,1.94690859
WZL_1701,6,0,2024-06-16T09:06:17.126Z,english_300.wav,0,0,2859,25,4,chinese,m,0,0,-57.32903368,1.31106943
WZL_1701,6,0,2024-06-16T09:06:17.126Z,english_300.wav,0,0,2859,25,4,chinese,m,1,0.1,-14.80176218,1.36432179
WZL_1701,6,0,2024-06-16T09:06:17.126Z,english_300.wav,0,0,2859,25,4,chinese,m,2,0.2,17.32090115,1.9756976
WZL_1701,6,0,2024-06-16T09:06:17.126Z,english_300.wav,0,0,2859,25,4,chinese,m,3,0.3,9.38584248,1.38621255
WZL_1701,6,0,2024-06-16T09:06:17.126Z,english_300.wav,0,0,2859,25,4,chinese,m,4,0.32341667,-54.58865419,1.60203422
WZL_1701,7,0,2024-06-16T09:06:17.126Z,english_881.wav,0,0,5516,25,4,chinese,m,0,0,7.28069095,1.60234882
WZL_1701,7,0,2024-06-16T09:06:17.126Z,english_881.wav,0,0,5516,25,4,chinese,m,1,0.1,-64.28928902,0.93497238
WZL_1701,7,0,2024-06-16T09:06:17.126Z,english_881.wav,0,0,5516,25,4,chinese,m,2,0.2,-2.07432692,0.58107235
WZL_1701,7,0,2024-06-16T09:06:17.126Z,english_881.wav,0,0,5516,25,4,chinese,m,3,0.3,51.5536886,1.34691236
WZL_1701,7,0,2024-06-16T09:06:17.126Z,english_881.wav,0,0,5516,25,4,chinese,m,4,0.32341667,65.74991707,0.85842561
WZL_1701,8,0,2024-06-16T09:06:17.126Z,english_320.wav,0,0,3167,25,4,chinese,m,0,0,-85.59568725,1.40519879
WZL_1701,8,0,2024-06-16T09:06:17.126Z,english_320.wav,0,0,3167,25,4,chinese,m,1,0.1,-85.79055124,0.4213256
WZL_1701,8,0,2024-06-16T09:06:17.126Z,english_320.wav,0,0,3167,25,4,chinese,m,2,0.2,-34.52195848,0.82537755
WZL_1701,8,0,2024-06-16T09:06:17.126Z,english_320.wav,0,0,3167,25,4,chinese,m,3,0.3,14.03031204,0.50617831
WZL_1701,8,0,2024-06-16T09:06:17.126Z,english_320.wav,0,0,3167,25,4,chinese,m,4,0.32341667,45.83597199,1.22725326
WZL_1701,9,0,2024-06-16T09:06:17.126Z,english_844.wav,0,1,6031,25,4,chinese,m,0,0,-84.59865618,1.95225136
WZL_1701,9,0,2024-06-16T09:06:17.126Z,english_844.wav,0,1,6031,25,4,chinese,m,1,0.1,2.74576488,1.66072701
WZL_1701,9,0,2024-06-16T09:06:17.126Z,english_844.wav,0,1,6031,25,4,chinese,m,2,0.2,-31.14414819,0.05165652
WZL_1701,9,0,2024-06-16T09:06:17.126Z,english_844.wav,0,1,6031,25,4,chinese,m,3,0.3,59.06244098,0.5878804
WZL_1701,9,0,2024-06-16T09:06:17.126Z,english_844.wav,0,1,6031,25,4,chinese,m,4,0.32341667,67.61674881,0.72232709
WZL_1701,10,0,2024-06-16T09:06:17.126Z,english_860.wav,0,0,8064,25,4,chinese,m,0,0,10.25066679,1.47817545
WZL_1701,10,0,2024-06-16T09:06:17.126Z,english_860.wav,0,0,8064,25,4,chinese,m,1,0.1,55.87909831,1.32859058
WZL_1701,10,0,2024-06-16T09:06:17.126Z,english_860.wav,0,0,8064,25,4,chinese,m,2,0.2,81.09373959,0.99201561
WZL_1701,10,0,2024-06-16T09:06:17.126Z,english_860.wav,0,0,8064,25,4,chinese,m,3,0.3,15.52286826,0.3312489
WZL_1701,10,0,2024-06-16T09:06:17.126Z,english_860.wav,0,0,8064,25,4,chinese,m,4,0.32341667,58.18702512,0.66001743
WZL_1701,11,0,2024-06-16T09:06:17.126Z,english_557.wav,0,1,5863,25,4,chinese,m,0,0,43.94308994,0.38165316
WZL_1701,11,0,2024-06-16T09:06:17.126Z,english_557.wav,0,1,5863,25,4,chinese,m,1,0.1,84.77773598,1.19567933
WZL_1701,11,0,2024-06-16T09:06:17.126Z,english_557.wav,0,1,5863,25,4,chinese,m,2,0.2,-14.75143777,1.35103773
WZL_1701,11,0,2024-06-16T09:06:17.126Z,english_557.wav,0,1,5863,25,4,chinese,m,3,0.3,-37.76141322,1.69174007
WZL_1701,11,0,2024-06-16T09:06:17.126Z,english_557.wav,0,1,5863,25,4,chinese,m,4,0.32341667,-5.99076179,0.4334092
WZL_1701,12,0,2024-06-16T09:06:17.126Z,english_419.wav,0,1,2594,25,4,chinese,m,0,0,74.10926047,0.423980314
WZL_1701,12,0,2024-06-16T09:06:17.126Z,english_419.wav,0,1,2594,25,4,chinese,m,1,0.1,-50.44969368,1.12483838
WZL_1701,12,0,2024-06-16T09:06:17.126Z,english_419.wav,0,1,2594,25,4,chinese,m,2,0.2,-38.37630765,0.473465541
WZL_1701,12,0,2024-06-16T09:06:17.126Z,english_419.wav,0,1,2594,25,4,chinese,m,3,0.3,-57.54140712,0.000838613621
WZL_1701,12,0,2024-06-16T09:06:17.126Z,english_419.wav,0,1,2594,25,4,chinese,m,4,0.32341667,48.12555486,0.389285402
WZL_1701,13,0,2024-06-16T09:06:17.126Z,english_185.wav,0,1,919,25,4,chinese,m,0,0,-67.20213277,0.62417316
WZL_1701,13,0,2024-06-16T09:06:17.126Z,english_185.wav,0,1,919,25,4,chinese,m,1,0.1,-70.91279736,1.12829576
WZL_1701,13,0,2024-06-16T09:06:17.126Z,english_185.wav,0,1,919,25,4,chinese,m,2,0.2,11.55913655,0.70978518
WZL_1701,13,0,2024-06-16T09:06:17.126Z,english_185.wav,0,1,919,25,4,chinese,m,3,0.3,-88.76292025,0.02882377
WZL_1701,13,0,2024-06-16T09:06:17.126Z,english_185.wav,0,1,919,25,4,chinese,m,4,0.32341667,-25.67800099,0.52970381
WZL_1701,14,0,2024-06-16T09:06:17.126Z,english_982.wav,0,1,736,25,4,chinese,m,0,0,12.44046596,0.81508625
WZL_1701,14,0,2024-06-16T09:06:17.126Z,english_982.wav,0,1,736,25,4,chinese,m,1,0.1,-60.41666302,0.92712357
WZL_1701,14,0,2024-06-16T09:06:17.126Z,english_982.wav,0,1,736,25,4,chinese,m,2,0.2,-35.31499742,0.77678916
WZL_1701,14,0,2024-06-16T09:06:17.126Z,english_982.wav,0,1,736,25,4,chinese,m,3,0.3,-10.96739076,1.0294352
WZL_1701,14,0,2024-06-16T09:06:17.126Z,english_982.wav,0,1,736,25,4,chinese,m,4,0.32341667,44.50624474,1.1322674
WZL_1701,15,0,2024-06-16T09:06:17.126Z,english_629.wav,0,1,945,25,4,chinese,m,0,0,76.68747977,0.56482572
WZL_1701,15,0,2024-06-16T09:06:17.126Z,english_629.wav,0,1,945,25,4,chinese,m,1,0.1,72.0676039,0.14075004
WZL_1701,15,0,2024-06-16T09:06:17.126Z,english_629.wav,0,1,945,25,4,chinese,m,2,0.2,-3.42071834,0.80885654
WZL_1701,15,0,2024-06-16T09:06:17.126Z,english_629.wav,0,1,945,25,4,chinese,m,3,0.3,-75.36993348,1.43133267
WZL_1701,15,0,2024-06-16T09:06:17.126Z,english_629.wav,0,1,945,25,4,chinese,m,4,0.32341667,-15.4233884,0.14234351
WZL_1701,16,0,2024-06-16T09:06:17.126Z,english_151.wav,0,1,2430,25,4,chinese,m,0,0,-8.78950662,1.36403682
WZL_1701,16,0,2024-06-16T09:06:17.126Z,english_151.wav,0,1,2430,25,4,chinese,m,1,0.1,-1.70650264,1.76375426
WZL_1701,16,0,2024-06-16T09:06:17.126Z,english_151.wav,0,1,2430,25,4,chinese,m,2,0.2,-17.50286784,1.43087438
WZL_1701,16,0,2024-06-16T09:06:17.126Z,english_151.wav,0,1,2430,25,4,chinese,m,3,0.3,88.78233286,1.18017331
WZL_1701,16,0,2024-06-16T09:06:17.126Z,english_151.wav,0,1,2430,25,4,chinese,m,4,0.32341667,55.08117545,1.30400061
WZL_1701,17,0,2024-06-16T09:06:17.126Z,english_186.wav,0,1,5341,25,4,chinese,m,0,0,-54.7664391,1.87021502
WZL_1701,17,0,2024-06-16T09:06:17.126Z,english_186.wav,0,1,5341,25,4,chinese,m,1,0.1,-8.4263529,1.36390049
WZL_1701,17,0,2024-06-16T09:06:17.126Z,english_186.wav,0,1,5341,25,4,chinese,m,2,0.2,6.22451559,1.69942617
WZL_1701,17,0,2024-06-16T09:06:17.126Z,english_186.wav,0,1,5341,25,4,chinese,m,3,0.3,-12.35671223,1.8066537
WZL_1701,17,0,2024-06-16T09:06:17.126Z,english_186.wav,0,1,5341,25,4,chinese,m,4,0.32341667,86.21839615,1.2511354
WZL_1701,18,0,2024-06-16T09:06:17.126Z,english_652.wav,0,1,825,25,4,chinese,m,0,0,4.27736911,0.30427218
WZL_1701,18,0,2024-06-16T09:06:17.126Z,english_652.wav,0,1,825,25,4,chinese,m,1,0.1,18.79087972,0.67520162
WZL_1701,18,0,2024-06-16T09:06:17.126Z,english_652.wav,0,1,825,25,4,chinese,m,2,0.2,61.32163128,0.66270689
WZL_1701,18,0,2024-06-16T09:06:17.126Z,english_652.wav,0,1,825,25,4,chinese,m,3,0.3,45.76092148,0.93987847
WZL_1701,18,0,2024-06-16T09:06:17.126Z,english_652.wav,0,1,825,25,4,chinese,m,4,0.32341667,-45.08671386,1.10617978
WZL_1701,19,0,2024-06-16T09:06:17.126Z,english_826.wav,0,1,1937,25,4,chinese,m,0,0,24.96468068,1.6444456
WZL_1701,19,0,2024-06-16T09:06:17.126Z,english_826.wav,0,1,1937,25,4,chinese,m,1,0.1,1.37616969,0.97947611
WZL_1701,19,0,2024-06-16T09:06:17.126Z,english_826.wav,0,1,1937,25,4,chinese,m,2,0.2,-71.19975556,0.49097947
WZL_1701,19,0,2024-06-16T09:06:17.126Z,english_826.wav,0,1,1937,25,4,chinese,m,3,0.3,-48.49913399,0.98819908
WZL_1701,19,0,2024-06-16T09:06:17.126Z,english_826.wav,0,1,1937,25,4,chinese,m,4,0.32341667,40.69153462,1.05842158
WZL_1701,20,0,2024-06-16T09:06:17.126Z,english_746.wav,0,1,411,25,4,chinese,m,0,0,-1.32395796,1.72273729
WZL_1701,20,0,2024-06-16T09:06:17.126Z,english_746.wav,0,1,411,25,4,chinese,m,1,0.1,-67.07117971,1.22961235
WZL_1701,20,0,2024-06-16T09:06:17.126Z,english_746.wav,0,1,411,25,4,chinese,m,2,0.2,75.09604974,1.29107068
WZL_1701,20,0,2024-06-16T09:06:17.126Z,english_746.wav,0,1,411,25,4,chinese,m,3,0.3,-48.59278454,1.34694816
WZL_1701,20,0,2024-06-16T09:06:17.126Z,english_746.wav,0,1,411,25,4,chinese,m,4,0.32341667,-6.52080997,0.94274536
WZL_1701,21,0,2024-06-16T09:06:17.126Z,english_539.wav,0,1,1077,25,4,chinese,m,0,0,-67.77604021,0.83598486
WZL_1701,21,0,2024-06-16T09:06:17.126Z,english_539.wav,0,1,1077,25,4,chinese,m,1,0.1,61.22104537,1.51877163
WZL_1701,21,0,2024-06-16T09:06:17.126Z,english_539.wav,0,1,1077,25,4,chinese,m,2,0.2,38.09257369,1.73578169
WZL_1701,21,0,2024-06-16T09:06:17.126Z,english_539.wav,0,1,1077,25,4,chinese,m,3,0.3,-20.76875757,0.52680037
WZL_1701,21,0,2024-06-16T09:06:17.126Z,english_539.wav,0,1,1077,25,4,chinese,m,4,0.32341667,-47.71444482,1.99278149
WZL_1701,22,0,2024-06-16T09:06:17.126Z,english_951.wav,0,1,2355,25,4,chinese,m,0,0,-0.1209724,0.19208806
WZL_1701,22,0,2024-06-16T09:06:17.126Z,english_951.wav,0,1,2355,25,4,chinese,m,1,0.1,-14.6507611,1.44795721
WZL_1701,22,0,2024-06-16T09:06:17.126Z,english_951.wav,0,1,2355,25,4,chinese,m,2,0.2,-2.36153686,0.88209985
WZL_1701,22,0,2024-06-16T09:06:17.126Z,english_951.wav,0,1,2355,25,4,chinese,m,3,0.3,15.28547447,1.97099669
WZL_1701,22,0,2024-06-16T09:06:17.126Z,english_951.wav,0,1,2355,25,4,chinese,m,4,0.32341667,-0.16445922,0.158195
WZL_1701,23,0,2024-06-16T09:06:17.126Z,english_524.wav,0,1,2431,25,4,chinese,m,0,0,-67.97449296,0.75247726
WZL_1701,23,0,2024-06-16T09:06:17.126Z,english_524.wav,0,1,2431,25,4,chinese,m,1,0.1,11.07328714,0.25589602
WZL_1701,23,0,2024-06-16T09:06:17.126Z,english_524.wav,0,1,2431,25,4,chinese,m,2,0.2,-43.89657964,0.70559599
WZL_1701,23,0,2024-06-16T09:06:17.126Z,english_524.wav,0,1,2431,25,4,chinese,m,3,0.3,-41.15015074,0.70218971
WZL_1701,23,0,2024-06-16T09:06:17.126Z,english_524.wav,0,1,2431,25,4,chinese,m,4,0.32341667,-33.76804681,0.11352048
WZL_1701,24,0,2024-06-16T09:06:17.126Z,english_266.wav,0,1,431,25,4,chinese,m,0,0,16.70772117,0.81064175
WZL_1701,24,0,2024-06-16T09:06:17.126Z,english_266.wav,0,1,431,25,4,chinese,m,1,0.1,-61.82971906,1.48442032
WZL_1701,24,0,2024-06-16T09:06:17.126Z,english_266.wav,0,1,431,25,4,chinese,m,2,0.2,-31.41060896,1.39445033
WZL_1701,24,0,2024-06-16T09:06:17.126Z,english_266.wav,0,1,431,25,4,chinese,m,3,0.3,-8.94045194,1.01594082
WZL_1701,24,0,2024-06-16T09:06:17.126Z,english_266.wav,0,1,431,25,4,chinese,m,4,0.32341667,-27.43066022,0.75934284
WZL_1701,25,0,2024-06-16T09:06:17.126Z,english_365.wav,0,1,347,25,4,chinese,m,0,0,58.11205919,0.53708026
WZL_1701,25,0,2024-06-16T09:06:17.126Z,english_365.wav,0,1,347,25,4,chinese,m,1,0.1,-61.04014877,1.10456153
WZL_1701,25,0,2024-06-16T09:06:17.126Z,english_365.wav,0,1,347,25,4,chinese,m,2,0.2,12.43042802,1.31731937
WZL_1701,25,0,2024-06-16T09:06:17.126Z,english_365.wav,0,1,347,25,4,chinese,m,3,0.3,17.00746388,1.02387946
WZL_1701,25,0,2024-06-16T09:06:17.126Z,english_365.wav,0,1,347,25,4,chinese,m,4,0.32341667,-69.10644956,1.31633463
WZL_1701,26,0,2024-06-16T09:06:17.126Z,english_23.wav,0,1,641,25,4,chinese,m,0,0,-50.80982819,0.58244855
WZL_1701,26,0,2024-06-16T09:06:17.126Z,english_23.wav,0,1,641,25,4,chinese,m,1,0.1,76.10516215,1.77510268
WZL_1701,26,0,2024-06-16T09:06:17.126Z,english_23.wav,0,1,641,25,4,chinese,m,2,0.2,-90.32463898,0.60847707
WZL_1701,26,0,2024-06-16T09:06:17.126Z,english_23.wav,0,1,641,25,4,chinese,m,3,0.3,15.76928166,0.62114149
WZL_1701,26,0,2024-06-16T09:06:17.126Z,english_23.wav,0,1,641,25,4,chinese,m,4,0.32341667,-7.56392806,1.60162938
WZL_1701,27,0,2024-06-16T09:06:17.126Z,english_499.wav,0,1,329,25,4,chinese,m,0,0,-62.75547094,0.4212983
WZL_1701,27,0,2024-06-16T09:06:17.126Z,english_499.wav,0,1,329,25,4,chinese,m,1,0.1,28.73361796,1.54082224
WZL_1701,27,0,2024-06-16T09:06:17.126Z,english_499.wav,0,1,329,25,4,chinese,m,2,0.2,-71.86053711,1.07919976
WZL_1701,27,0,2024-06-16T09:06:17.126Z,english_499.wav,0,1,329,25,4,chinese,m,3,0.3,-44.40399931,1.20425095
WZL_1701,27,0,2024-06-16T09:06:17.126Z,english_499.wav,0,1,329,25,4,chinese,m,4,0.32341667,-2.72335033,0.4618338
WZL_1701,28,0,2024-06-16T09:06:17.126Z,english_36.wav,0,1,899,25,4,chinese,m,0,0,8.79498818,0.0614271
WZL_1701,28,0,2024-06-16T09:06:17.126Z,english_36.wav,0,1,899,25,4,chinese,m,1,0.1,-18.99628775,0.22652961
WZL_1701,28,0,2024-06-16T09:06:17.126Z,english_36.wav,0,1,899,25,4,chinese,m,2,0.2,-17.40156662,0.46484299
WZL_1701,28,0,2024-06-16T09:06:17.126Z,english_36.wav,0,1,899,25,4,chinese,m,3,0.3,-85.73958234,0.81464033
WZL_1701,28,0,2024-06-16T09:06:17.126Z,english_36.wav,0,1,899,25,4,chinese,m,4,0.32341667,45.44069908,0.21843777
WZL_1701,29,0,2024-06-16T09:06:17.126Z,english_177.wav,0,1,4544,25,4,chinese,m,0,0,87.98258728,1.54790065
WZL_1701,29,0,2024-06-16T09:06:17.126Z,english_177.wav,0,1,4544,25,4,chinese,m,1,0.1,87.12011565,0.90861448
WZL_1701,29,0,2024-06-16T09:06:17.126Z,english_177.wav,0,1,4544,25,4,chinese,m,2,0.2,-29.82518494,0.58649069
WZL_1701,29,0,2024-06-16T09:06:17.126Z,english_177.wav,0,1,4544,25,4,chinese,m,3,0.3,54.38835911,0.51296238
WZL_1701,29,0,2024-06-16T09:06:17.126Z,english_177.wav,0,1,4544,25,4,chinese,m,4,0.32341667,53.98423531,1.78492888
WZL_1701,30,0,2024-06-16T09:06:17.126Z,english_745.wav,0,1,646,25,4,chinese,m,0,0,-57.64472866,1.88925258
WZL_1701,30,0,2024-06-16T09:06:17.126Z,english_745.wav,0,1,646,25,4,chinese,m,1,0.1,-14.80975681,0.26333653
WZL_1701,30,0,2024-06-16T09:06:17.126Z,english_745.wav,0,1,646,25,4,chinese,m,2,0.2,44.46939178,1.01945351
WZL_1701,30,0,2024-06-16T09:06:17.126Z,english_745.wav,0,1,646,25,4,chinese,m,3,0.3,56.80280999,0.00901457
WZL_1701,30,0,2024-06-16T09:06:17.126Z,english_745.wav,0,1,646,25,4,chinese,m,4,0.32341667,-16.53068296,0.38778228
WZL_1701,31,0,2024-06-16T09:06:17.126Z,english_700.wav,0,1,763,25,4,chinese,m,0,0,-76.89056698,0.13963816
WZL_1701,31,0,2024-06-16T09:06:17.126Z,english_700.wav,0,1,763,25,4,chinese,m,1,0.1,-93.17552037,0.76842729
WZL_1701,31,0,2024-06-16T09:06:17.126Z,english_700.wav,0,1,763,25,4,chinese,m,2,0.2,51.24439156,0.49149542
WZL_1701,31,0,2024-06-16T09:06:17.126Z,english_700.wav,0,1,763,25,4,chinese,m,3,0.3,89.4516499,1.08714417
WZL_1701,31,0,2024-06-16T09:06:17.126Z,english_700.wav,0,1,763,25,4,chinese,m,4,0.32341667,-68.48659069,1.35188588
WZL_1701,32,0,2024-06-16T09:06:17.126Z,english_490.wav,0,1,3719,25,4,chinese,m,0,0,39.23640548,0.12600295
WZL_1701,32,0,2024-06-16T09:06:17.126Z,english_490.wav,0,1,3719,25,4,chinese,m,1,0.1,-42.18123516,0.88631808
WZL_1701,32,0,2024-06-16T09:06:17.126Z,english_490.wav,0,1,3719,25,4,chinese,m,2,0.2,53.94030347,1.76218548
WZL_1701,32,0,2024-06-16T09:06:17.126Z,english_490.wav,0,1,3719,25,4,chinese,m,3,0.3,-65.41993581,1.86160188
WZL_1701,32,0,2024-06-16T09:06:17.126Z,english_490.wav,0,1,3719,25,4,chinese,m,4,0.32341667,90.15742696,1.03493088
WZL_1701,33,0,2024-06-16T09:06:17.126Z,english_811.wav,0,1,673,25,4,chinese,m,0,0,-51.03425556,1.55055496
WZL_1701,33,0,2024-06-16T09:06:17.126Z,english_811.wav,0,1,673,25,4,chinese,m,1,0.1,22.81695275,1.74830484
WZL_1701,33,0,2024-06-16T09:06:17.126Z,english_811.wav,0,1,673,25,4,chinese,m,2,0.2,73.06623682,1.24661488
WZL_1701,33,0,2024-06-16T09:06:17.126Z,english_811.wav,0,1,673,25,4,chinese,m,3,0.3,-9.17693151,0.09792889
WZL_1701,33,0,2024-06-16T09:06:17.126Z,english_811.wav,0,1,673,25,4,chinese,m,4,0.32341667,79.97760745,0.03735929
WZL_1701,34,0,2024-06-16T09:06:17.126Z,english_504.wav,0,1,370,25,4,chinese,m,0,0,4.11468456,0.75379057
WZL_1701,34,0,2024-06-16T09:06:17.126Z,english_504.wav,0,1,370,25,4,chinese,m,1,0.1,70.56620437,1.18348717
WZL_1701,34,0,2024-06-16T09:06:17.126Z,english_504.wav,0,1,370,25,4,chinese,m,2,0.2,3.26767498,0.25360202
WZL_1701,34,0,2024-06-16T09:06:17.126Z,english_504.wav,0,1,370,25,4,chinese,m,3,0.3,-3.14493553,1.87094491
WZL_1701,34,0,2024-06-16T09:06:17.126Z,english_504.wav,0,1,370,25,4,chinese,m,4,0.32341667,43.57926014,0.110125
WZL_1701,35,0,2024-06-16T09:06:17.126Z,english_442.wav,0,1,1545,25,4,chinese,m,0,0,-5.21319176,1.35819452
WZL_1701,35,0,2024-06-16T09:06:17.126Z,english_442.wav,0,1,1545,25,4,chinese,m,1,0.1,-16.23989513,1.66019663
WZL_1701,35,0,2024-06-16T09:06:17.126Z,english_442.wav,0,1,1545,25,4,chinese,m,2,0.2,-36.77315909,0.51170704
WZL_1701,35,0,2024-06-16T09:06:17.126Z,english_442.wav,0,1,1545,25,4,chinese,m,3,0.3,-33.51446291,1.6590932
WZL_1701,35,0,2024-06-16T09:06:17.126Z,english_442.wav,0,1,1545,25,4,chinese,m,4,0.32341667,-25.07447919,0.97998973
WZL_1701,36,0,2024-06-16T09:06:17.126Z,english_428.wav,0,1,487,25,4,chinese,m,0,0,-98.34466569,1.83106884
WZL_1701,36,0,2024-06-16T09:06:17.126Z,english_428.wav,0,1,487,25,4,chinese,m,1,0.1,-10.51162175,1.34345266
WZL_1701,36,0,2024-06-16T09:06:17.126Z,english_428.wav,0,1,487,25,4,chinese,m,2,0.2,97.93427859,0.65853672
WZL_1701,36,0,2024-06-16T09:06:17.126Z,english_428.wav,0,1,487,25,4,chinese,m,3,0.3,35.61870537,1.28105878
WZL_1701,36,0,2024-06-16T09:06:17.126Z,english_428.wav,0,1,487,25,4,chinese,m,4,0.32341667,-12.49352836,0.15324236
WZL_1701,37,0,2024-06-16T09:06:17.126Z,english_858.wav,0,1,477,25,4,chinese,m,0,0,45.12570132,0.50395823
WZL_1701,37,0,2024-06-16T09:06:17.126Z,english_858.wav,0,1,477,25,4,chinese,m,1,0.1,-46.71359417,1.50658612
WZL_1701,37,0,2024-06-16T09:06:17.126Z,english_858.wav,0,1,477,25,4,chinese,m,2,0.2,-60.32464978,0.86887416
WZL_1701,37,0,2024-06-16T09:06:17.126Z,english_858.wav,0,1,477,25,4,chinese,m,3,0.3,-70.46241098,0.20520469
WZL_1701,37,0,2024-06-16T09:06:17.126Z,english_858.wav,0,1,477,25,4,chinese,m,4,0.32341667,76.51169453,1.05885662
WZL_1701,38,0,2024-06-16T09:06:17.126Z,english_805.wav,0,1,2095,25,4,chinese,m,0,0,-11.97504695,0.06029378
WZL_1701,38,0,2024-06-16T09:06:17.126Z,english_805.wav,0,1,2095,25,4,chinese,m,1,0.1,96.82911573,0.81391401
WZL_1701,38,0,2024-06-16T09:06:17.126Z,english_805.wav,0,1,2095,25,4,chinese,m,2,0.2,7.51835152,1.33531055
WZL_1701,38,0,2024-06-16T09:06:17.126Z,english_805.wav,0,1,2095,25,4,chinese,m,3,0.3,2.47378187,1.7608484
WZL_1701,38,0,2024-06-16T09:06:17.126Z,english_805.wav,0,1,2095,25,4,chinese,m,4,0.32341667,-43.26336213,1.4289718
WZL_1701,39,0,2024-06-16T09:06:17.126Z,english_441.wav,0,1,1684,25,4,chinese,m,0,0,-34.50722314,1.86415324
WZL_1701,39,0,2024-06-16T09:06:17.126Z,english_441.wav,0,1,1684,25,4,chinese,m,1,0.1,91.55175756,1.34062972
WZL_1701,39,0,2024-06-16T09:06:17.126Z,english_441.wav,0,1,1684,25,4,chinese,m,2,0.2,-74.07917439,1.20894222
WZL_1701,39,0,2024-06-16T09:06:17.126Z,english_441.wav,0,1,1684,25,4,chinese,m,3,0.3,82.08396891,0.00248362
WZL_1701,39,0,2024-06-16T09:06:17.126Z,english_441.wav,0,1,1684,25,4,chinese,m,4,0.32341667,13.2563292,0.67485278
WZL_1701,40,0,2024-06-16T09:06:17.126Z,english_506.wav,0,1,871,25,4,chinese,m,0,0,-17.73769578,0.98447335
WZL_1701,40,0,2024-06-16T09:06:17.126Z,english_506.wav,0,1,871,25,4,chinese,m,1,0.1,-41.45582363,0.94666259
WZL_1701,40,0,2024-06-16T09:06:17.126Z,english_506.wav,0,1,871,25,4,chinese,m,2,0.2,30.66866042,0.72831062
WZL_1701,40,0,2024-06-16T09:06:17.126Z,english_506.wav,0,1,871,25,4,chinese,m,3,0.3,59.8078046,1.02790064
WZL_1701,40,0,2024-06-16T09:06:17.126Z,english_506.wav,0,1,871,25,4,chinese,m,4,0.32341667,84.38248427,0.39724826
WZL_1701,41,0,2024-06-16T09:06:17.126Z,english_253.wav,0,1,1643,25,4,chinese,m,0,0,12.9108365,0.20464585
WZL_1701,41,0,2024-06-16T09:06:17.126Z,english_253.wav,0,1,1643,25,4,chinese,m,1,0.1,-70.83420593,1.97412558
WZL_1701,41,0,2024-06-16T09:06:17.126Z,english_253.wav,0,1,1643,25,4,chinese,m,2,0.2,-6.13796162,1.12401504
WZL_1701,41,0,2024-06-16T09:06:17.126Z,english_253.wav,0,1,1643,25,4,chinese,m,3,0.3,38.03543053,1.75851492
WZL_1701,41,0,2024-06-16T09:06:17.126Z,english_253.wav,0,1,1643,25,4,chinese,m,4,0.32341667,-61.21147917,0.77953826
WZL_1701,42,0,2024-06-16T09:06:17.126Z,english_659.wav,0,1,877,25,4,chinese,m,0,0,-86.13080632,0.77157019
WZL_1701,42,0,2024-06-16T09:06:17.126Z,english_659.wav,0,1,877,25,4,chinese,m,1,0.1,39.51927718,1.34569204
WZL_1701,42,0,2024-06-16T09:06:17.126Z,english_659.wav,0,1,877,25,4,chinese,m,2,0.2,-6.22185106,0.71695874
WZL_1701,42,0,2024-06-16T09:06:17.126Z,english_659.wav,0,1,877,25,4,chinese,m,3,0.3,5.64287294,1.04110125
WZL_1701,42,0,2024-06-16T09:06:17.126Z,english_659.wav,0,1,877,25,4,chinese,m,4,0.32341667,47.08694279,1.84115141
WZL_1701,43,0,2024-06-16T09:06:17.126Z,english_196.wav,0,1,987,25,4,chinese,m,0,0,-86.38202104,1.63362226
WZL_1701,43,0,2024-06-16T09:06:17.126Z,english_196.wav,0,1,987,25,4,chinese,m,1,0.1,0.95731439,1.36148231
WZL_1701,43,0,2024-06-16T09:06:17.126Z,english_196.wav,0,1,987,25,4,chinese,m,2,0.2,-48.4797064,0.68683683
WZL_1701,43,0,2024-06-16T09:06:17.126Z,english_196.wav,0,1,987,25,4,chinese,m,3,0.3,50.57477866,1.59869277
WZL_1701,43,0,2024-06-16T09:06:17.126Z,english_196.wav,0,1,987,25,4,chinese,m,4,0.32341667,-52.07184875,0.40963154
WZL_1701,44,0,2024-06-16T09:06:17.126Z,english_389.wav,0,1,141,25,4,chinese,m,0,0,36.16487693,1.25286497
WZL_1701,44,0,2024-06-16T09:06:17.126Z,english_389.wav,0,1,141,25,4,chinese,m,1,0.1,-97.36259769,1.31396789
WZL_1701,44,0,2024-06-16T09:06:17.126Z,english_389.wav,0,1,141,25,4,chinese,m,2,0.2,24.50411951,1.84060757
WZL_1701,44,0,2024-06-16T09:06:17.126Z,english_389.wav,0,1,141,25,4,chinese,m,3,0.3,43.1395046,0.64046023
WZL_1701,44,0,2024-06-16T09:06:17.126Z,english_389.wav,0,1,141,25,4,chinese,m,4,0.32341667,85.14605982,1.47992762
WZL_1701,45,0,2024-06-16T09:06:17.126Z,english_916.wav,0,1,1035,25,4,chinese,m,0,0,-50.62314768,0.5519299
WZL_1701,45,0,2024-06-16T09:06:17.126Z,english_916.wav,0,1,1035,25,4,chinese,m,1,0.1,-52.55300278,1.16723516
WZL_1701,45,0,2024-06-16T09:06:17.126Z,english_916.wav,0,1,1035,25,4,chinese,m,2,0.2,54.298582,1.72376738
WZL_1701,45,0,2024-06-16T09:06:17.126Z,english_916.wav,0,1,1035,25,4,chinese,m,3,0.3,-23.99088857,0.41493786
WZL_1701,45,0,2024-06-16T09:06:17.126Z,english_916.wav,0,1,1035,25,4,chinese,m,4,0.32341667,4.88948607,1.97918138
WZL_1701,46,0,2024-06-16T09:06:17.126Z,english_495.wav,0,1,569,25,4,chinese,m,0,0,-5.58861003,1.32978923
WZL_1701,46,0,2024-06-16T09:06:17.126Z,english_495.wav,0,1,569,25,4,chinese,m,1,0.1,8.95176437,0.81778757
WZL_1701,46,0,2024-06-16T09:06:17.126Z,english_495.wav,0,1,569,25,4,chinese,m,2,0.2,39.42206983,0.66481361
WZL_1701,46,0,2024-06-16T09:06:17.126Z,english_495.wav,0,1,569,25,4,chinese,m,3,0.3,-84.38976819,0.35850052
WZL_1701,46,0,2024-06-16T09:06:17.126Z,english_495.wav,0,1,569,25,4,chinese,m,4,0.32341667,-2.90431636,0.23899864
WZL_1701,47,0,2024-06-16T09:06:17.126Z,english_736.wav,0,1,351,25,4,chinese,m,0,0,44.94907169,1.40223879
WZL_1701,47,0,2024-06-16T09:06:17.126Z,english_736.wav,0,1,351,25,4,chinese,m,1,0.1,-89.05982676,1.76358699
WZL_1701,47,0,2024-06-16T09:06:17.126Z,english_736.wav,0,1,351,25,4,chinese,m,2,0.2,27.88925208,0.99111008
WZL_1701,47,0,2024-06-16T09:06:17.126Z,english_736.wav,0,1,351,25,4,chinese,m,3,0.3,77.01163693,1.90426439
WZL_1701,47,0,2024-06-16T09:06:17.126Z,english_736.wav,0,1,351,25,4,chinese,m,4,0.32341667,-28.23601136,1.97036362
WZL_1701,48,0,2024-06-16T09:06:17.126Z,english_933.wav,0,1,411,25,4,chinese,m,0,0,-48.12258855,1.54767366
WZL_1701,48,0,2024-06-16T09:06:17.126Z,english_933.wav,0,1,411,25,4,chinese,m,1,0.1,27.26905516,0.30219473
WZL_1701,48,0,2024-06-16T09:06:17.126Z,english_933.wav,0,1,411,25,4,chinese,m,2,0.2,0.35087756,1.50410475
WZL_1701,48,0,2024-06-16T09:06:17.126Z,english_933.wav,0,1,411,25,4,chinese,m,3,0.3,94.96402149,1.44820406
WZL_1701,48,0,2024-06-16T09:06:17.126Z,english_933.wav,0,1,411,25,4,chinese,m,4,0.32341667,61.52669097,0.05049928
WZL_1701,49,0,2024-06-16T09:06:17.126Z,english_270.wav,0,1,660,25,4,chinese,m,0,0,-54.89328754,1.02368747
WZL_1701,49,0,2024-06-16T09:06:17.126Z,english_270.wav,0,1,660,25,4,chinese,m,1,0.1,-41.12345733,1.74263534
WZL_1701,49,0,2024-06-16T09:06:17.126Z,english_270.wav,0,1,660,25,4,chinese,m,2,0.2,79.03328036,0.45342006
WZL_1701,49,0,2024-06-16T09:06:17.126Z,english_270.wav,0,1,660,25,4,chinese,m,3,0.3,-87.71335894,1.29911503
WZL_1701,49,0,2024-06-16T09:06:17.126Z,english_270.wav,0,1,660,25,4,chinese,m,4,0.32341667,-48.20373708,0.95859349
WZL_1701,50,1,2024-06-16T09:06:17.126Z,english_970.wav,0,1,1397,25,4,chinese,m,0,0,37.22911191,0.60712849
WZL_1701,50,1,2024-06-16T09:06:17.126Z,english_970.wav,0,1,1397,25,4,chinese,m,1,0.1,36.57191813,1.26781741
WZL_1701,50,1,2024-06-16T09:06:17.126Z,english_970.wav,0,1,1397,25,4,chinese,m,2,0.2,20.2344678,1.29373459
WZL_1701,50,1,2024-06-16T09:06:17.126Z,english_970.wav,0,1,1397,25,4,chinese,m,3,0.3,-86.31030026,0.18112256
WZL_1701,50,1,2024-06-16T09:06:17.126Z,english_970.wav,0,1,1397,25,4,chinese,m,4,0.32341667,-83.96880691,1.07780169
WZL_1701,51,1,2024-06-16T09:06:17.126Z,english_301.wav,0,1,1050,25,4,chinese,m,0,0,-78.18927369,1.31935747
WZL_1701,51,1,2024-06-16T09:06:17.126Z,english_301.wav,0,1,1050,25,4,chinese,m,1,0.1,-3.52439177,1.41636911
WZL_1701,51,1,2024-06-16T09:06:17.126Z,english_301.wav,0,1,1050,25,4,chinese,m,2,0.2,-23.22473782,1.38842862
WZL_1701,51,1,2024-06-16T09:06:17.126Z,english_301.wav,0,1,1050,25,4,chinese,m,3,0.3,-11.7220967,1.25169603
WZL_1701,51,1,2024-06-16T09:06:17.126Z,english_301.wav,0,1,1050,25,4,chinese,m,4,0.32341667,-5.78047748,1.38740104
WZL_1701,52,1,2024-06-16T09:06:17.126Z,english_176.wav,0,1,827,25,4,chinese,m,0,0,-62.84257592,0.68193044
WZL_1701,52,1,2024-06-16T09:06:17.126Z,english_176.wav,0,1,827,25,4,chinese,m,1,0.1,86.95506575,0.26950978
WZL_1701,52,1,2024-06-16T09:06:17.126Z,english_176.wav,0,1,827,25,4,chinese,m,2,0.2,-28.0397163,0.45294908
WZL_1701,52,1,2024-06-16T09:06:17.126Z,english_176.wav,0,1,827,25,4,chinese,m,3,0.3,-64.80124174,0.91353321
WZL_1701,52,1,2024-06-16T09:06:17.126Z,english_176.wav,0,1,827,25,4,chinese,m,4,0.32341667,-98.66046935,1.10925614
WZL_1701,53,1,2024-06-16T09:06:17.126Z,english_415.wav,0,1,661,25,4,chinese,m,0,0,36.00223879,1.49199547
WZL_1701,53,1,2024-06-16T09:06:17.126Z,english_415.wav,0,1,661,25,4,chinese,m,1,0.1,-82.63332374,1.79959711
WZL_1701,53,1,2024-06-16T09:06:17.126Z,english_415.wav,0,1,661,25,4,chinese,m,2,0.2,57.55038703,0.64689267
WZL_1701,53,1,2024-06-16T09:06:17.126Z,english_415.wav,0,1,661,25,4,chinese,m,3,0.3,-9.83064734,0.31881377
WZL_1701,53,1,2024-06-16T09:06:17.126Z,english_415.wav,0,1,661,25,4,chinese,m,4,0.32341667,-29.78573939,0.18568486
WZL_1701,54,1,2024-06-16T09:06:17.126Z,english_432.wav,0,1,575,25,4,chinese,m,0,0,34.04923955,0.51661687
WZL_1701,54,1,2024-06-16T09:06:17.126Z,english_432.wav,0,1,575,25,4,chinese,m,1,0.1,-20.16773507,0.2259012
WZL_1701,54,1,2024-06-16T09:06:17.126Z,english_432.wav,0,1,575,25,4,chinese,m,2,0.2,58.06800811,1.98214485
WZL_1701,54,1,2024-06-16T09:06:17.126Z,english_432.wav,0,1,575,25,4,chinese,m,3,0.3,46.82268278,1.23025235
WZL_1701,54,1,2024-06-16T09:06:17.126Z,english_432.wav,0,1,575,25,4,chinese,m,4,0.32341667,16.04458546,1.72803009
WZL_1701,55,1,2024-06-16T09:06:17.126Z,english_346.wav,0,1,525,25,4,chinese,m,0,0,29.51078372,1.24489428
WZL_1701,55,1,2024-06-16T09:06:17.126Z,english_346.wav,0,1,525,25,4,chinese,m,1,0.1,86.25753287,1.77356048
WZL_1701,55,1,2024-06-16T09:06:17.126Z,english_346.wav,0,1,525,25,4,chinese,m,2,0.2,95.6553577,1.30862901
WZL_1701,55,1,2024-06-16T09:06:17.126Z,english_346.wav,0,1,525,25,4,chinese,m,3,0.3,-65.97707071,0.68318311
WZL_1701,55,1,2024-06-16T09:06:17.126Z,english_346.wav,0,1,525,25,4,chinese,m,4,0.32341667,49.79896228,1.63073528
WZL_1701,56,1,2024-06-16T09:06:17.126Z,english_735.wav,0,1,738,25,4,chinese,m,0,0,51.40973306,0.29099813
WZL_1701,56,1,2024-06-16T09:06:17.126Z,english_735.wav,0,1,738,25,4,chinese,m,1,0.1,-5.42867159,1.62833375
WZL_1701,56,1,2024-06-16T09:06:17.126Z,english_735.wav,0,1,738,25,4,chinese,m,2,0.2,13.71146629,0.32849247
WZL_1701,56,1,2024-06-16T09:06:17.126Z,english_735.wav,0,1,738,25,4,chinese,m,3,0.3,-14.17202169,0.46991549
WZL_1701,56,1,2024-06-16T09:06:17.126Z,english_735.wav,0,1,738,25,4,chinese,m,4,0.32341667,14.98699592,0.51625305
WZL_1701,57,1,2024-06-16T09:06:17.126Z,english_879.wav,0,1,2900,25,4,chinese,m,0,0,-56.32485069,0.53184386
WZL_1701,57,1,2024-06-16T09:06:17.126Z,english_879.wav,0,1,2900,25,4,chinese,m,1,0.1,64.67592183,1.34296213
WZL_1701,57,1,2024-06-16T09:06:17.126Z,english_879.wav,0,1,2900,25,4,chinese,m,2,0.2,25.82204554,0.44649674
WZL_1701,57,1,2024-06-16T09:06:17.126Z,english_879.wav,0,1,2900,25,4,chinese,m,3,0.3,5.66794257,0.79707043
WZL_1701,57,1,2024-06-16T09:06:17.126Z,english_879.wav,0,1,2900,25,4,chinese,m,4,0.32341667,-31.65503708,1.19804995
WZL_1701,58,1,2024-06-16T09:06:17.126Z,english_259.wav,0,1,2233,25,4,chinese,m,0,0,7.90187791,1.3064553
WZL_1701,58,1,2024-06-16T09:06:17.126Z,english_259.wav,0,1,2233,25,4,chinese,m,1,0.1,31.67295647,1.01100372
WZL_1701,58,1,2024-06-16T09:06:17.126Z,english_259.wav,0,1,2233,25,4,chinese,m,2,0.2,-53.65780041,0.35520266
WZL_1701,58,1,2024-06-16T09:06:17.126Z,english_259.wav,0,1,2233,25,4,chinese,m,3,0.3,-72.94929757,1.35187683
WZL_1701,58,1,2024-06-16T09:06:17.126Z,english_259.wav,0,1,2233,25,4,chinese,m,4,0.32341667,58.35152721,1.39599087
WZL_1701,59,1,2024-06-16T09:06:17.126Z,english_794.wav,0,1,655,25,4,chinese,m,0,0,5.57967757,1.6157291
WZL_1701,59,1,2024-06-16T09:06:17.126Z,english_794.wav,0,1,655,25,4,chinese,m,1,0.1,-3.8737546,0.80008436
WZL_1701,59,1,2024-06-16T09:06:17.126Z,english_794.wav,0,1,655,25,4,chinese,m,2,0.2,-24.29943164,0.69881068
WZL_1701,59,1,2024-06-16T09:06:17.126Z,english_794.wav,0,1,655,25,4,chinese,m,3,0.3,3.56417137,1.55658335
WZL_1701,59,1,2024-06-16T09:06:17.126Z,english_794.wav,0,1,655,25,4,chinese,m,4,0.32341667,-13.30357118,1.787412
WZL_1701,60,1,2024-06-16T09:06:17.126Z,english_938.wav,0,1,2099,25,4,chinese,m,0,0,55.68553541,1.13527087
WZL_1701,60,1,2024-06-16T09:06:17.126Z,english_938.wav,0,1,2099,25,4,chinese,m,1,0.1,19.57508628,0.57526943
WZL_1701,60,1,2024-06-16T09:06:17.126Z,english_938.wav,0,1,2099,25,4,chinese,m,2,0.2,99.59707332,0.71873046
WZL_1701,60,1,2024-06-16T09:06:17.126Z,english_938.wav,0,1,2099,25,4,chinese,m,3,0.3,-43.3789335,0.88566698
WZL_1701,60,1,2024-06-16T09:06:17.126Z,english_938.wav,0,1,2099,25,4,chinese,m,4,0.32341667,90.00594125,0.39461425
WZL_1701,61,1,2024-06-16T09:06:17.126Z,english_608.wav,0,1,681,25,4,chinese,m,0,0,78.8022196,1.54390555
WZL_1701,61,1,2024-06-16T09:06:17.126Z,english_608.wav,0,1,681,25,4,chinese,m,1,0.1,59.03316834,1.36513164
WZL_1701,61,1,2024-06-16T09:06:17.126Z,english_608.wav,0,1,681,25,4,chinese,m,2,0.2,-13.94961152,0.78716897
WZL_1701,61,1,2024-06-16T09:06:17.126Z,english_608.wav,0,1,681,25,4,chinese,m,3,0.3,55.83681575,1.29889886
WZL_1701,61,1,2024-06-16T09:06:17.126Z,english_608.wav,0,1,681,25,4,chinese,m,4,0.32341667,-13.77656228,0.44376749
WZL_1701,62,1,2024-06-16T09:06:17.126Z,english_529.wav,0,1,2402,25,4,chinese,m,0,0,13.90759343,0.83001961
WZL_1701,62,1,2024-06-16T09:06:17.126Z,english_529.wav,0,1,2402,25,4,chinese,m,1,0.1,-33.526088,0.02518437
WZL_1701,62,1,2024-06-16T09:06:17.126Z,english_529.wav,0,1,2402,25,4,chinese,m,2,0.2,-34.32120589,1.61112877
WZL_1701,62,1,2024-06-16T09:06:17.126Z,english_529.wav,0,1,2402,25,4,chinese,m,3,0.3,-18.30112723,0.91948239
WZL_1701,62,1,2024-06-16T09:06:17.126Z,english_529.wav,0,1,2402,25,4,chinese,m,4,0.32341667,16.4796061,0.33204613
WZL_1701,63,1,2024-06-16T09:06:17.126Z,english_133.wav,0,1,2185,25,4,chinese,m,0,0,12.35833749,0.72635311
WZL_1701,63,1,2024-06-16T09:06:17.126Z,english_133.wav,0,1,2185,25,4,chinese,m,1,0.1,40.12315016,1.38782059
WZL_1701,63,1,2024-06-16T09:06:17.126Z,english_133.wav,0,1,2185,25,4,chinese,m,2,0.2,21.09458129,0.15947395
WZL_1701,63,1,2024-06-16T09:06:17.126Z,english_133.wav,0,1,2185,25,4,chinese,m,3,0.3,-98.82286682,0.28433836
WZL_1701,63,1,2024-06-16T09:06:17.126Z,english_133.wav,0,1,2185,25,4,chinese,m,4,0.32341667,-85.44748976,1.2581514
WZL_1701,64,1,2024-06-16T09:06:17.126Z,english_561.wav,0,1,913,25,4,chinese,m,0,0,62.21065415,1.32725493
WZL_1701,64,1,2024-06-16T09:06:17.126Z,english_561.wav,0,1,913,25,4,chinese,m,1,0.1,-9.84770717,1.15871491
WZL_1701,64,1,2024-06-16T09:06:17.126Z,english_561.wav,0,1,913,25,4,chinese,m,2,0.2,-12.92274306,0.82816789
WZL_1701,64,1,2024-06-16T09:06:17.126Z,english_561.wav,0,1,913,25,4,chinese,m,3,0.3,16.08334811,1.72308293
WZL_1701,64,1,2024-06-16T09:06:17.126Z,english_561.wav,0,1,913,25,4,chinese,m,4,0.32341667,-22.38830035,0.72943893
WZL_1701,65,1,2024-06-16T09:06:17.126Z,english_810.wav,0,1,4813,25,4,chinese,m,0,0,44.6757801,0.77700382
WZL_1701,65,1,2024-06-16T09:06:17.126Z,english_810.wav,0,1,4813,25,4,chinese,m,1,0.1,-98.4252216,1.25917073
WZL_1701,65,1,2024-06-16T09:06:17.126Z,english_810.wav,0,1,4813,25,4,chinese,m,2,0.2,55.4106213,0.78203472
WZL_1701,65,1,2024-06-16T09:06:17.126Z,english_810.wav,0,1,4813,25,4,chinese,m,3,0.3,-18.4676839,1.13021068
WZL_1701,65,1,2024-06-16T09:06:17.126Z,english_810.wav,0,1,4813,25,4,chinese,m,4,0.323416667,0.0259169543,0.14578676
WZL_1701,66,1,2024-06-16T09:06:17.126Z,english_319.wav,0,1,467,25,4,chinese,m,0,0,-84.37928886,1.17141126
WZL_1701,66,1,2024-06-16T09:06:17.126Z,english_319.wav,0,1,467,25,4,chinese,m,1,0.1,-52.76931383,1.13741792
WZL_1701,66,1,2024-06-16T09:06:17.126Z,english_319.wav,0,1,467,25,4,chinese,m,2,0.2,56.06390533,0.91618882
WZL_1701,66,1,2024-06-16T09:06:17.126Z,english_319.wav,0,1,467,25,4,chinese,m,3,0.3,-69.46438111,0.7080153
WZL_1701,66,1,2024-06-16T09:06:17.126Z,english_319.wav,0,1,467,25,4,chinese,m,4,0.32341667,91.86152445,0.5910213
WZL_1701,67,1,2024-06-16T09:06:17.126Z,english_912.wav,0,1,13407,25,4,chinese,m,0,0,-43.64864707,0.87210048
WZL_1701,67,1,2024-06-16T09:06:17.126Z,english_912.wav,0,1,13407,25,4,chinese,m,1,0.1,94.54433808,1.43243955
WZL_1701,67,1,2024-06-16T09:06:17.126Z,english_912.wav,0,1,13407,25,4,chinese,m,2,0.2,67.98324072,1.49899487
WZL_1701,67,1,2024-06-16T09:06:17.126Z,english_912.wav,0,1,13407,25,4,chinese,m,3,0.3,9.27329172,0.42663795
WZL_1701,67,1,2024-06-16T09:06:17.126Z,english_912.wav,0,1,13407,25,4,chinese,m,4,0.32341667,-55.44973818,0.19299009
WZL_1701,68,1,2024-06-16T09:06:17.126Z,english_249.wav,0,1,523,25,4,chinese,m,0,0,78.40227579,1.91339694
WZL_1701,68,1,2024-06-16T09:06:17.126Z,english_249.wav,0,1,523,25,4,chinese,m,1,0.1,-55.1129652,1.00834957
WZL_1701,68,1,2024-06-16T09:06:17.126Z,english_249.wav,0,1,523,25,4,chinese,m,2,0.2,6.74447168,0.29418026
WZL_1701,68,1,2024-06-16T09:06:17.126Z,english_249.wav,0,1,523,25,4,chinese,m,3,0.3,27.3376716,1.53256547
WZL_1701,68,1,2024-06-16T09:06:17.126Z,english_249.wav,0,1,523,25,4,chinese,m,4,0.32341667,-97.08031886,0.99264532
WZL_1701,69,1,2024-06-16T09:06:17.126Z,english_656.wav,0,1,402,25,4,chinese,m,0,0,-4.15957802,0.9962349
WZL_1701,69,1,2024-06-16T09:06:17.126Z,english_656.wav,0,1,402,25,4,chinese,m,1,0.1,-31.70283109,1.16669679
WZL_1701,69,1,2024-06-16T09:06:17.126Z,english_656.wav,0,1,402,25,4,chinese,m,2,0.2,-35.90055673,0.85512169
WZL_1701,69,1,2024-06-16T09:06:17.126Z,english_656.wav,0,1,402,25,4,chinese,m,3,0.3,-27.39202404,1.68840921
WZL_1701,69,1,2024-06-16T09:06:17.126Z,english_656.wav,0,1,402,25,4,chinese,m,4,0.32341667,-5.54715508,1.5699395
WZL_1701,70,1,2024-06-16T09:06:17.126Z,english_872.wav,0,1,1623,25,4,chinese,m,0,0,0.56374655,0.10935802
WZL_1701,70,1,2024-06-16T09:06:17.126Z,english_872.wav,0,1,1623,25,4,chinese,m,1,0.1,-70.88107799,0.91778609
WZL_1701,70,1,2024-06-16T09:06:17.126Z,english_872.wav,0,1,1623,25,4,chinese,m,2,0.2,6.46677515,1.38740199
WZL_1701,70,1,2024-06-16T09:06:17.126Z,english_872.wav,0,1,1623,25,4,chinese,m,3,0.3,-23.51354109,0.12682507
WZL_1701,70,1,2024-06-16T09:06:17.126Z,english_872.wav,0,1,1623,25,4,chinese,m,4,0.32341667,81.64578493,0.71067476
WZL_1701,71,1,2024-06-16T09:06:17.126Z,english_236.wav,0,1,387,25,4,chinese,m,0,0,14.26564849,0.89253674
WZL_1701,71,1,2024-06-16T09:06:17.126Z,english_236.wav,0,1,387,25,4,chinese,m,1,0.1,60.97219358,0.38957934
WZL_1701,71,1,2024-06-16T09:06:17.126Z,english_236.wav,0,1,387,25,4,chinese,m,2,0.2,-12.39626346,1.55558051
WZL_1701,71,1,2024-06-16T09:06:17.126Z,english_236.wav,0,1,387,25,4,chinese,m,3,0.3,-62.87774076,0.2682718
WZL_1701,71,1,2024-06-16T09:06:17.126Z,english_236.wav,0,1,387,25,4,chinese,m,4,0.32341667,-75.97684705,1.92182597
WZL_1701,72,1,2024-06-16T09:06:17.126Z,english_189.wav,0,1,541,25,4,chinese,m,0,0,-22.70456848,0.82906961
WZL_1701,72,1,2024-06-16T09:06:17.126Z,english_189.wav,0,1,541,25,4,chinese,m,1,0.1,-12.00888723,0.58408113
WZL_1701,72,1,2024-06-16T09:06:17.126Z,english_189.wav,0,1,541,25,4,chinese,m,2,0.2,15.14046376,0.19058783
WZL_1701,72,1,2024-06-16T09:06:17.126Z,english_189.wav,0,1,541,25,4,chinese,m,3,0.3,-19.30106293,0.57788611
WZL_1701,72,1,2024-06-16T09:06:17.126Z,english_189.wav,0,1,541,25,4,chinese,m,4,0.32341667,-20.57313834,0.32577637
WZL_1701,73,1,2024-06-16T09:06:17.126Z,english_207.wav,0,1,643,25,4,chinese,m,0,0,-64.55688296,1.06406661
WZL_1701,73,1,2024-06-16T09:06:17.126Z,english_207.wav,0,1,643,25,4,chinese,m,1,0.1,98.33987034,1.58122859
WZL_1701,73,1,2024-06-16T09:06:17.126Z,english_207.wav,0,1,643,25,4,chinese,m,2,0.2,-40.48281934,1.31381917
WZL_1701,73,1,2024-06-16T09:06:17.126Z,english_207.wav,0,1,643,25,4,chinese,m,3,0.3,-36.48143513,0.83233835
WZL_1701,73,1,2024-06-16T09:06:17.126Z,english_207.wav,0,1,643,25,4,chinese,m,4,0.32341667,-87.11188062,0.12663517
WZL_1701,74,1,2024-06-16T09:06:17.126Z,english_921.wav,0,1,967,25,4,chinese,m,0,0,60.93482672,0.06624465
WZL_1701,74,1,2024-06-16T09:06:17.126Z,english_921.wav,0,1,967,25,4,chinese,m,1,0.1,-71.63665921,1.88925143
WZL_1701,74,1,2024-06-16T09:06:17.126Z,english_921.wav,0,1,967,25,4,chinese,m,2,0.2,-30.77028929,0.40013084
WZL_1701,74,1,2024-06-16T09:06:17.126Z,english_921.wav,0,1,967,25,4,chinese,m,3,0.3,-44.68164597,1.26601564
WZL_1701,74,1,2024-06-16T09:06:17.126Z,english_921.wav,0,1,967,25,4,chinese,m,4,0.32341667,34.59415858,1.98956357
WZL_1701,75,1,2024-06-16T09:06:17.126Z,english_70.wav,0,1,433,25,4,chinese,m,0,0,-53.09237622,1.21678364
WZL_1701,75,1,2024-06-16T09:06:17.126Z,english_70.wav,0,1,433,25,4,chinese,m,1,0.1,85.97526897,0.94111324
WZL_1701,75,1,2024-06-16T09:06:17.126Z,english_70.wav,0,1,433,25,4,chinese,m,2,0.2,25.5645184,1.03926055
WZL_1701,75,1,2024-06-16T09:06:17.126Z,english_70.wav,0,1,433,25,4,chinese,m,3,0.3,1.25172137,0.29519406
WZL_1701,75,1,2024-06-16T09:06:17.126Z,english_70.wav,0,1,433,25,4,chinese,m,4,0.32341667,93.59431896,0.80175783
WZL_1701,76,1,2024-06-16T09:06:17.126Z,english_936.wav,0,1,1877,25,4,chinese,m,0,0,48.39129511,0.54114143
WZL_1701,76,1,2024-06-16T09:06:17.126Z,english_936.wav,0,1,1877,25,4,chinese,m,1,0.1,-60.21618585,1.68728974
WZL_1701,76,1,2024-06-16T09:06:17.126Z,english_936.wav,0,1,1877,25,4,chinese,m,2,0.2,21.92845445,1.39155326
WZL_1701,76,1,2024-06-16T09:06:17.126Z,english_936.wav,0,1,1877,25,4,chinese,m,3,0.3,72.85258749,0.90488419
WZL_1701,76,1,2024-06-16T09:06:17.126Z,english_936.wav,0,1,1877,25,4,chinese,m,4,0.32341667,60.11152814,1.20326098
WZL_1701,77,1,2024-06-16T09:06:17.126Z,english_556.wav,0,1,551,25,4,chinese,m,0,0,35.62658416,1.88481821
WZL_1701,77,1,2024-06-16T09:06:17.126Z,english_556.wav,0,1,551,25,4,chinese,m,1,0.1,28.75181601,0.4023528
WZL_1701,77,1,2024-06-16T09:06:17.126Z,english_556.wav,0,1,551,25,4,chinese,m,2,0.2,-2.62389444,1.49364055
WZL_1701,77,1,2024-06-16T09:06:17.126Z,english_556.wav,0,1,551,25,4,chinese,m,3,0.3,64.03572584,1.54190039
WZL_1701,77,1,2024-06-16T09:06:17.126Z,english_556.wav,0,1,551,25,4,chinese,m,4,0.32341667,72.79696002,0.53435232
WZL_1701,78,1,2024-06-16T09:06:17.126Z,english_822.wav,0,1,861,25,4,chinese,m,0,0,22.19463519,1.34957498
WZL_1701,78,1,2024-06-16T09:06:17.126Z,english_822.wav,0,1,861,25,4,chinese,m,1,0.1,46.02970585,1.18534363
WZL_1701,78,1,2024-06-16T09:06:17.126Z,english_822.wav,0,1,861,25,4,chinese,m,2,0.2,44.31281831,0.88966115
WZL_1701,78,1,2024-06-16T09:06:17.126Z,english_822.wav,0,1,861,25,4,chinese,m,3,0.3,27.24156044,1.22476657
WZL_1701,78,1,2024-06-16T09:06:17.126Z,english_822.wav,0,1,861,25,4,chinese,m,4,0.32341667,41.58842879,0.51847317
WZL_1701,79,1,2024-06-16T09:06:17.126Z,english_478.wav,0,1,933,25,4,chinese,m,0,0,-70.9954821,0.91489342
WZL_1701,79,1,2024-06-16T09:06:17.126Z,english_478.wav,0,1,933,25,4,chinese,m,1,0.1,18.763036,1.0325944
WZL_1701,79,1,2024-06-16T09:06:17.126Z,english_478.wav,0,1,933,25,4,chinese,m,2,0.2,84.30682023,1.47139294
WZL_1701,79,1,2024-06-16T09:06:17.126Z,english_478.wav,0,1,933,25,4,chinese,m,3,0.3,96.70790152,0.31719256
WZL_1701,79,1,2024-06-16T09:06:17.126Z,english_478.wav,0,1,933,25,4,chinese,m,4,0.32341667,-65.75430749,1.1469235
WZL_1701,80,1,2024-06-16T09:06:17.126Z,english_79.wav,0,1,616,25,4,chinese,m,0,0,-69.52518262,0.23164561
WZL_1701,80,1,2024-06-16T09:06:17.126Z,english_79.wav,0,1,616,25,4,chinese,m,1,0.1,56.533406,1.01948637
WZL_1701,80,1,2024-06-16T09:06:17.126Z,english_79.wav,0,1,616,25,4,chinese,m,2,0.2,25.92051761,0.17653141
WZL_1701,80,1,2024-06-16T09:06:17.126Z,english_79.wav,0,1,616,25,4,chinese,m,3,0.3,81.58880491,0.14868702
WZL_1701,80,1,2024-06-16T09:06:17.126Z,english_79.wav,0,1,616,25,4,chinese,m,4,0.32341667,-19.75719301,0.33345335
WZL_1701,81,1,2024-06-16T09:06:17.126Z,english_363.wav,0,1,551,25,4,chinese,m,0,0,-8.62246293,0.22304778
WZL_1701,81,1,2024-06-16T09:06:17.126Z,english_363.wav,0,1,551,25,4,chinese,m,1,0.1,-37.95317313,0.51009023
WZL_1701,81,1,2024-06-16T09:06:17.126Z,english_363.wav,0,1,551,25,4,chinese,m,2,0.2,-98.56362786,1.67320701
WZL_1701,81,1,2024-06-16T09:06:17.126Z,english_363.wav,0,1,551,25,4,chinese,m,3,0.3,79.4101663,0.32318158
WZL_1701,81,1,2024-06-16T09:06:17.126Z,english_363.wav,0,1,551,25,4,chinese,m,4,0.32341667,-19.01593507,1.23606141
WZL_1701,82,1,2024-06-16T09:06:17.126Z,english_265.wav,0,1,482,25,4,chinese,m,0,0,-30.2287418,1.31067296
WZL_1701,82,1,2024-06-16T09:06:17.126Z,english_265.wav,0,1,482,25,4,chinese,m,1,0.1,86.62283936,0.87427745
WZL_1701,82,1,2024-06-16T09:06:17.126Z,english_265.wav,0,1,482,25,4,chinese,m,2,0.2,-21.47577863,1.37620008
WZL_1701,82,1,2024-06-16T09:06:17.126Z,english_265.wav,0,1,482,25,4,chinese,m,3,0.3,84.9300577,0.45825557
WZL_1701,82,1,2024-06-16T09:06:17.126Z,english_265.wav,0,1,482,25,4,chinese,m,4,0.32341667,59.52250756,1.13518739
WZL_1701,83,1,2024-06-16T09:06:17.126Z,english_97.wav,0,1,855,25,4,chinese,m,0,0,57.21139396,1.63402743
WZL_1701,83,1,2024-06-16T09:06:17.126Z,english_97.wav,0,1,855,25,4,chinese,m,1,0.1,-7.40408397,0.54734888
WZL_1701,83,1,2024-06-16T09:06:17.126Z,english_97.wav,0,1,855,25,4,chinese,m,2,0.2,77.7995227,1.5228594
WZL_1701,83,1,2024-06-16T09:06:17.126Z,english_97.wav,0,1,855,25,4,chinese,m,3,0.3,-51.1747528,1.13050105
WZL_1701,83,1,2024-06-16T09:06:17.126Z,english_97.wav,0,1,855,25,4,chinese,m,4,0.32341667,77.11982253,0.82586999
WZL_1701,84,1,2024-06-16T09:06:17.126Z,english_502.wav,0,1,3078,25,4,chinese,m,0,0,-23.73065935,0.0797034
WZL_1701,84,1,2024-06-16T09:06:17.126Z,english_502.wav,0,1,3078,25,4,chinese,m,1,0.1,2.70754613,1.83600464
WZL_1701,84,1,2024-06-16T09:06:17.126Z,english_502.wav,0,1,3078,25,4,chinese,m,2,0.2,25.650451,1.48948742
WZL_1701,84,1,2024-06-16T09:06:17.126Z,english_502.wav,0,1,3078,25,4,chinese,m,3,0.3,-49.55254658,1.22465236
WZL_1701,84,1,2024-06-16T09:06:17.126Z,english_502.wav,0,1,3078,25,4,chinese,m,4,0.32341667,16.82642172,1.41984075
WZL_1701,85,1,2024-06-16T09:06:17.126Z,english_641.wav,0,1,819,25,4,chinese,m,0,0,-90.88934322,1.28926835
WZL_1701,85,1,2024-06-16T09:06:17.126Z,english_641.wav,0,1,819,25,4,chinese,m,1,0.1,13.36673253,0.02464493
WZL_1701,85,1,2024-06-16T09:06:17.126Z,english_641.wav,0,1,819,25,4,chinese,m,2,0.2,-36.70414591,0.5505433
WZL_1701,85,1,2024-06-16T09:06:17.126Z,english_641.wav,0,1,819,25,4,chinese,m,3,0.3,-4.62417375,0.52188675
WZL_1701,85,1,2024-06-16T09:06:17.126Z,english_641.wav,0,1,819,25,4,chinese,m,4,0.32341667,15.34366305,0.01360039
WZL_1701,86,1,2024-06-16T09:06:17.126Z,english_474.wav,0,1,205,25,4,chinese,m,0,0,42.88606971,0.87351765
WZL_1701,86,1,2024-06-16T09:06:17.126Z,english_474.wav,0,1,205,25,4,chinese,m,1,0.1,6.82691085,1.08551449
WZL_1701,86,1,2024-06-16T09:06:17.126Z,english_474.wav,0,1,205,25,4,chinese,m,2,0.2,-33.80031927,1.99847166
WZL_1701,86,1,2024-06-16T09:06:17.126Z,english_474.wav,0,1,205,25,4,chinese,m,3,0.3,-97.18672796,0.27470298
WZL_1701,86,1,2024-06-16T09:06:17.126Z,english_474.wav,0,1,205,25,4,chinese,m,4,0.32341667,-4.7462475,0.02962094
WZL_1701,87,1,2024-06-16T09:06:17.126Z,english_691.wav,0,1,256,25,4,chinese,m,0,0,28.79078449,1.07683297
WZL_1701,87,1,2024-06-16T09:06:17.126Z,english_691.wav,0,1,256,25,4,chinese,m,1,0.1,99.1184909,1.07376069
WZL_1701,87,1,2024-06-16T09:06:17.126Z,english_691.wav,0,1,256,25,4,chinese,m,2,0.2,-54.13985733,0.28522735
WZL_1701,87,1,2024-06-16T09:06:17.126Z,english_691.wav,0,1,256,25,4,chinese,m,3,0.3,-85.36319246,0.85701066
WZL_1701,87,1,2024-06-16T09:06:17.126Z,english_691.wav,0,1,256,25,4,chinese,m,4,0.32341667,-73.61621094,1.71165398
WZL_1701,88,1,2024-06-16T09:06:17.126Z,english_360.wav,0,1,229,25,4,chinese,m,0,0,-50.57937638,0.73788637
WZL_1701,88,1,2024-06-16T09:06:17.126Z,english_360.wav,0,1,229,25,4,chinese,m,1,0.1,-29.22164644,0.6487653
WZL_1701,88,1,2024-06-16T09:06:17.126Z,english_360.wav,0,1,229,25,4,chinese,m,2,0.2,-88.45421248,0.73193848
WZL_1701,88,1,2024-06-16T09:06:17.126Z,english_360.wav,0,1,229,25,4,chinese,m,3,0.3,93.68039656,1.75347372
WZL_1701,88,1,2024-06-16T09:06:17.126Z,english_360.wav,0,1,229,25,4,chinese,m,4,0.32341667,-2.59092547,1.19277037
WZL_1701,89,1,2024-06-16T09:06:17.126Z,english_893.wav,0,1,261,25,4,chinese,m,0,0,17.19699967,0.82427167
WZL_1701,89,1,2024-06-16T09:06:17.126Z,english_893.wav,0,1,261,25,4,chinese,m,1,0.1,57.52525856,1.49866988
WZL_1701,89,1,2024-06-16T09:06:17.126Z,english_893.wav,0,1,261,25,4,chinese,m,2,0.2,13.30661706,0.84536161
WZL_1701,89,1,2024-06-16T09:06:17.126Z,english_893.wav,0,1,261,25,4,chinese,m,3,0.3,33.02687073,0.10168024
WZL_1701,89,1,2024-06-16T09:06:17.126Z,english_893.wav,0,1,261,25,4,chinese,m,4,0.32341667,-64.43392463,0.7117056
WZL_1701,90,1,2024-06-16T09:06:17.126Z,english_418.wav,0,1,311,25,4,chinese,m,0,0,-7.92859899,0.20369216
WZL_1701,90,1,2024-06-16T09:06:17.126Z,english_418.wav,0,1,311,25,4,chinese,m,1,0.1,10.19863107,0.15242613
WZL_1701,90,1,2024-06-16T09:06:17.126Z,english_418.wav,0,1,311,25,4,chinese,m,2,0.2,-44.82770696,0.77695319
WZL_1701,90,1,2024-06-16T09:06:17.126Z,english_418.wav,0,1,311,25,4,chinese,m,3,0.3,-80.4141896,0.71786342
WZL_1701,90,1,2024-06-16T09:06:17.126Z,english_418.wav,0,1,311,25,4,chinese,m,4,0.32341667,32.43674468,1.20494416
WZL_1701,91,1,2024-06-16T09:06:17.126Z,english_479.wav,0,1,1913,25,4,chinese,m,0,0,74.98268857,0.98081986
WZL_1701,91,1,2024-06-16T09:06:17.126Z,english_479.wav,0,1,1913,25,4,chinese,m,1,0.1,16.03290679,0.71187618
WZL_1701,91,1,2024-06-16T09:06:17.126Z,english_479.wav,0,1,1913,25,4,chinese,m,2,0.2,78.97784812,0.27050369
WZL_1701,91,1,2024-06-16T09:06:17.126Z,english_479.wav,0,1,1913,25,4,chinese,m,3,0.3,-15.63843586,1.15797271
WZL_1701,91,1,2024-06-16T09:06:17.126Z,english_479.wav,0,1,1913,25,4,chinese,m,4,0.32341667,42.04802753,1.51318639
WZL_1701,92,1,2024-06-16T09:06:17.126Z,english_48.wav,0,1,177,25,4,chinese,m,0,0,73.79399561,0.74385981
WZL_1701,92,1,2024-06-16T09:06:17.126Z,english_48.wav,0,1,177,25,4,chinese,m,1,0.1,-6.33056249,1.05457567
WZL_1701,92,1,2024-06-16T09:06:17.126Z,english_48.wav,0,1,177,25,4,chinese,m,2,0.2,-25.55346814,0.45493163
WZL_1701,92,1,2024-06-16T09:06:17.126Z,english_48.wav,0,1,177,25,4,chinese,m,3,0.3,46.43305776,0.06513279
WZL_1701,92,1,2024-06-16T09:06:17.126Z,english_48.wav,0,1,177,25,4,chinese,m,4,0.32341667,-46.56414761,0.46755714
WZL_1701,93,1,2024-06-16T09:06:17.126Z,english_969.wav,0,1,147,25,4,chinese,m,0,0,0.27440165,1.49550116
WZL_1701,93,1,2024-06-16T09:06:17.126Z,english_969.wav,0,1,147,25,4,chinese,m,1,0.1,32.90941676,1.08086357
WZL_1701,93,1,2024-06-16T09:06:17.126Z,english_969.wav,0,1,147,25,4,chinese,m,2,0.2,65.54691775,0.25687245
WZL_1701,93,1,2024-06-16T09:06:17.126Z,english_969.wav,0,1,147,25,4,chinese,m,3,0.3,38.11090315,0.33107225
WZL_1701,93,1,2024-06-16T09:06:17.126Z,english_969.wav,0,1,147,25,4,chinese,m,4,0.32341667,-66.49311905,0.72842933
WZL_1701,94,1,2024-06-16T09:06:17.126Z,english_61.wav,0,1,63,25,4,chinese,m,0,0,-58.73450167,1.5196582
WZL_1701,94,1,2024-06-16T09:06:17.126Z,english_61.wav,0,1,63,25,4,chinese,m,1,0.1,-68.77732169,0.79346499
WZL_1701,94,1,2024-06-16T09:06:17.126Z,english_61.wav,0,1,63,25,4,chinese,m,2,0.2,-61.07430116,0.90548432
WZL_1701,94,1,2024-06-16T09:06:17.126Z,english_61.wav,0,1,63,25,4,chinese,m,3,0.3,-87.12791991,1.71431728
WZL_1701,94,1,2024-06-16T09:06:17.126Z,english_61.wav,0,1,63,25,4,chinese,m,4,0.32341667,47.32358741,0.57778581
WZL_1701,95,1,2024-06-16T09:06:17.126Z,english_625.wav,0,1,364,25,4,chinese,m,0,0,25.70847239,1.1960971
WZL_1701,95,1,2024-06-16T09:06:17.126Z,english_625.wav,0,1,364,25,4,chinese,m,1,0.1,-37.82303983,0.02795501
WZL_1701,95,1,2024-06-16T09:06:17.126Z,english_625.wav,0,1,364,25,4,chinese,m,2,0.2,38.52328891,1.10198652
WZL_1701,95,1,2024-06-16T09:06:17.126Z,english_625.wav,0,1,364,25,4,chinese,m,3,0.3,-23.93667478,0.08852642
WZL_1701,95,1,2024-06-16T09:06:17.126Z,english_625.wav,0,1,364,25,4,chinese,m,4,0.32341667,-53.98326942,1.59813041
WZL_1701,96,1,2024-06-16T09:06:17.126Z,english_370.wav,0,1,896,25,4,chinese,m,0,0,-90.17078727,0.17796458
WZL_1701,96,1,2024-06-16T09:06:17.126Z,english_370.wav,0,1,896,25,4,chinese,m,1,0.1,-71.99280791,1.08934715
WZL_1701,96,1,2024-06-16T09:06:17.126Z,english_370.wav,0,1,896,25,4,chinese,m,2,0.2,-13.60727202,1.05914244
WZL_1701,96,1,2024-06-16T09:06:17.126Z,english_370.wav,0,1,896,25,4,chinese,m,3,0.3,-0.93192742,1.87852505
WZL_1701,96,1,2024-06-16T09:06:17.126Z,english_370.wav,0,1,896,25,4,chinese,m,4,0.32341667,33.27852394,1.24161401
WZL_1701,97,1,2024-06-16T09:06:17.126Z,english_444.wav,0,1,177,25,4,chinese,m,0,0,57.2872587,0.52242118
WZL_1701,97,1,2024-06-16T09:06:17.126Z,english_444.wav,0,1,177,25,4,chinese,m,1,0.1,68.85097071,1.61316948
WZL_1701,97,1,2024-06-16T09:06:17.126Z,english_444.wav,0,1,177,25,4,chinese,m,2,0.2,-30.10164543,0.15196309
WZL_1701,97,1,2024-06-16T09:06:17.126Z,english_444.wav,0,1,177,25,4,chinese,m,3,0.3,-57.0249627,0.44426911
WZL_1701,97,1,2024-06-16T09:06:17.126Z,english_444.wav,0,1,177,25,4,chinese,m,4,0.32341667,-54.19692118,1.48693747
WZL_1701,98,1,2024-06-16T09:06:17.126Z,english_46.wav,0,1,49,25,4,chinese,m,0,0,-29.32250151,0.64118776
WZL_1701,98,1,2024-06-16T09:06:17.126Z,english_46.wav,0,1,49,25,4,chinese,m,1,0.1,-3.06808063,0.73649566
WZL_1701,98,1,2024-06-16T09:06:17.126Z,english_46.wav,0,1,49,25,4,chinese,m,2,0.2,90.97923358,1.88790792
WZL_1701,98,1,2024-06-16T09:06:17.126Z,english_46.wav,0,1,49,25,4,chinese,m,3,0.3,10.7462216,0.26788582
WZL_1701,98,1,2024-06-16T09:06:17.126Z,english_46.wav,0,1,49,25,4,chinese,m,4,0.32341667,-76.74347892,0.543593
WZL_1701,99,1,2024-06-16T09:06:17.126Z,english_864.wav,0,1,435,25,4,chinese,m,0,0,-41.66547405,0.15536101
WZL_1701,99,1,2024-06-16T09:06:17.126Z,english_864.wav,0,1,435,25,4,chinese,m,1,0.1,47.36949562,1.78739046
WZL_1701,99,1,2024-06-16T09:06:17.126Z,english_864.wav,0,1,435,25,4,chinese,m,2,0.2,87.97635609,1.48310956
WZL_1701,99,1,2024-06-16T09:06:17.126Z,english_864.wav,0,1,435,25,4,chinese,m,3,0.3,-18.88921291,0.35838492
WZL_1701,99,1,2024-06-16T09:06:17.126Z,english_864.wav,0,1,435,25,4,chinese,m,4,0.32341667,13.88839096,0.21709894
WZL_1701,100,2,2024-06-16T09:06:17.126Z,english_426.wav,0,1,431,25,4,chinese,m,0,0,84.66887763,0.58495982
WZL_1701,100,2,2024-06-16T09:06:17.126Z,english_426.wav,0,1,431,25,4,chinese,m,1,0.1,6.08176803,0.31710055
WZL_1701,100,2,2024-06-16T09:06:17.126Z,english_426.wav,0,1,431,25,4,chinese,m,2,0.2,90.82211143,1.7123379
WZL_1701,100,2,2024-06-16T09:06:17.126Z,english_426.wav,0,1,431,25,4,chinese,m,3,0.3,42.04787562,1.38911617
WZL_1701,100,2,2024-06-16T09:06:17.126Z,english_426.wav,0,1,431,25,4,chinese,m,4,0.32341667,-40.19306584,1.84862951
WZL_1701,101,2,2024-06-16T09:06:17.126Z,english_374.wav,0,1,129,25,4,chinese,m,0,0,-43.98521466,1.11607514
WZL_1701,101,2,2024-06-16T09:06:17.126Z,english_374.wav,0,1,129,25,4,chinese,m,1,0.1,-24.87181663,0.38249505
WZL_1701,101,2,2024-06-16T09:06:17.126Z,english_374.wav,0,1,129,25,4,chinese,m,2,0.2,-29.31566683,1.56774755
WZL_1701,101,2,2024-06-16T09:06:17.126Z,english_374.wav,0,1,129,25,4,chinese,m,3,0.3,-43.36019392,1.33837662
WZL_1701,101,2,2024-06-16T09:06:17.126Z,english_374.wav,0,1,129,25,4,chinese,m,4,0.32341667,-35.5175379,0.68793086
WZL_1701,102,2,2024-06-16T09:06:17.126Z,english_531.wav,0,1,97,25,4,chinese,m,0,0,-79.40575395,0.23141906
WZL_1701,102,2,2024-06-16T09:06:17.126Z,english_531.wav,0,1,97,25,4,chinese,m,1,0.1,24.69139357,1.34739197
WZL_1701,102,2,2024-06-16T09:06:17.126Z,english_531.wav,0,1,97,25,4,chinese,m,2,0.2,31.85465478,0.44473315
WZL_1701,102,2,2024-06-16T09:06:17.126Z,english_531.wav,0,1,97,25,4,chinese,m,3,0.3,0.37788074,1.31624907
WZL_1701,102,2,2024-06-16T09:06:17.126Z,english_531.wav,0,1,97,25,4,chinese,m,4,0.32341667,-42.85922685,0.82105614
WZL_1701,103,2,2024-06-16T09:06:17.126Z,english_324.wav,0,1,259,25,4,chinese,m,0,0,49.07155908,0.10864525
WZL_1701,103,2,2024-06-16T09:06:17.126Z,english_324.wav,0,1,259,25,4,chinese,m,1,0.1,-58.77252084,1.61132735
WZL_1701,103,2,2024-06-16T09:06:17.126Z,english_324.wav,0,1,259,25,4,chinese,m,2,0.2,-55.40155542,0.60180616
WZL_1701,103,2,2024-06-16T09:06:17.126Z,english_324.wav,0,1,259,25,4,chinese,m,3,0.3,19.02224292,0.93555132
WZL_1701,103,2,2024-06-16T09:06:17.126Z,english_324.wav,0,1,259,25,4,chinese,m,4,0.32341667,21.20382854,0.34417591
WZL_1701,104,2,2024-06-16T09:06:17.126Z,english_731.wav,0,1,1547,25,4,chinese,m,0,0,91.74609406,0.2840719
WZL_1701,104,2,2024-06-16T09:06:17.126Z,english_731.wav,0,1,1547,25,4,chinese,m,1,0.1,96.5637085,1.75324284
WZL_1701,104,2,2024-06-16T09:06:17.126Z,english_731.wav,0,1,1547,25,4,chinese,m,2,0.2,-58.02596537,1.43086201
WZL_1701,104,2,2024-06-16T09:06:17.126Z,english_731.wav,0,1,1547,25,4,chinese,m,3,0.3,21.59328018,1.68336342
WZL_1701,104,2,2024-06-16T09:06:17.126Z,english_731.wav,0,1,1547,25,4,chinese,m,4,0.32341667,13.26044458,0.60031718
WZL_1701,105,2,2024-06-16T09:06:17.126Z,english_18.wav,0,1,27,25,4,chinese,m,0,0,-61.9567004,0.45038722
WZL_1701,105,2,2024-06-16T09:06:17.126Z,english_18.wav,0,1,27,25,4,chinese,m,1,0.1,39.2027204,1.56185221
WZL_1701,105,2,2024-06-16T09:06:17.126Z,english_18.wav,0,1,27,25,4,chinese,m,2,0.2,-0.0626834214,0.80652275
WZL_1701,105,2,2024-06-16T09:06:17.126Z,english_18.wav,0,1,27,25,4,chinese,m,3,0.3,-72.2820301,0.39505163
WZL_1701,105,2,2024-06-16T09:06:17.126Z,english_18.wav,0,1,27,25,4,chinese,m,4,0.323416667,-52.9459242,0.50402069
WZL_1701,106,2,2024-06-16T09:06:17.126Z,english_339.wav,0,1,121,25,4,chinese,m,0,0,-58.67599578,0.13141934
WZL_1701,106,2,2024-06-16T09:06:17.126Z,english_339.wav,0,1,121,25,4,chinese,m,1,0.1,-13.30258388,0.16133177
WZL_1701,106,2,2024-06-16T09:06:17.126Z,english_339.wav,0,1,121,25,4,chinese,m,2,0.2,-52.40820381,1.13500643
WZL_1701,106,2,2024-06-16T09:06:17.126Z,english_339.wav,0,1,121,25,4,chinese,m,3,0.3,11.33062491,0.98717522
WZL_1701,106,2,2024-06-16T09:06:17.126Z,english_339.wav,0,1,121,25,4,chinese,m,4,0.32341667,9.6385593,0.10332776
WZL_1701,107,2,2024-06-16T09:06:17.126Z,english_136.wav,0,1,403,25,4,chinese,m,0,0,12.04186247,0.70846626
WZL_1701,107,2,2024-06-16T09:06:17.126Z,english_136.wav,0,1,403,25,4,chinese,m,1,0.1,-56.97950323,1.3229906
WZL_1701,107,2,2024-06-16T09:06:17.126Z,english_136.wav,0,1,403,25,4,chinese,m,2,0.2,32.29793995,0.25119571
WZL_1701,107,2,2024-06-16T09:06:17.126Z,english_136.wav,0,1,403,25,4,chinese,m,3,0.3,40.05814767,1.28510755
WZL_1701,107,2,2024-06-16T09:06:17.126Z,english_136.wav,0,1,403,25,4,chinese,m,4,0.32341667,61.40693937,1.20697433
WZL_1701,108,2,2024-06-16T09:06:17.126Z,english_124.wav,0,1,1707,25,4,chinese,m,0,0,-16.92140416,1.25482105
WZL_1701,108,2,2024-06-16T09:06:17.126Z,english_124.wav,0,1,1707,25,4,chinese,m,1,0.1,97.41289205,1.97830042
WZL_1701,108,2,2024-06-16T09:06:17.126Z,english_124.wav,0,1,1707,25,4,chinese,m,2,0.2,-78.49167412,1.09846955
WZL_1701,108,2,2024-06-16T09:06:17.126Z,english_124.wav,0,1,1707,25,4,chinese,m,3,0.3,-3.48618202,0.36540564
WZL_1701,108,2,2024-06-16T09:06:17.126Z,english_124.wav,0,1,1707,25,4,chinese,m,4,0.32341667,5.32047068,0.96325389
WZL_1701,109,2,2024-06-16T09:06:17.126Z,english_829.wav,0,1,59,25,4,chinese,m,0,0,60.30417439,0.94286345
WZL_1701,109,2,2024-06-16T09:06:17.126Z,english_829.wav,0,1,59,25,4,chinese,m,1,0.1,-26.87459656,0.76756767
WZL_1701,109,2,2024-06-16T09:06:17.126Z,english_829.wav,0,1,59,25,4,chinese,m,2,0.2,59.05286014,1.50609211
WZL_1701,109,2,2024-06-16T09:06:17.126Z,english_829.wav,0,1,59,25,4,chinese,m,3,0.3,-38.64739237,0.33518122
WZL_1701,109,2,2024-06-16T09:06:17.126Z,english_829.wav,0,1,59,25,4,chinese,m,4,0.32341667,68.61732932,1.40687349
WZL_1701,110,2,2024-06-16T09:06:17.126Z,english_596.wav,0,1,2993,25,4,chinese,m,0,0,90.29147433,0.88361056
WZL_1701,110,2,2024-06-16T09:06:17.126Z,english_596.wav,0,1,2993,25,4,chinese,m,1,0.1,12.52853873,0.63799557
WZL_1701,110,2,2024-06-16T09:06:17.126Z,english_596.wav,0,1,2993,25,4,chinese,m,2,0.2,50.53853174,0.09787331
WZL_1701,110,2,2024-06-16T09:06:17.126Z,english_596.wav,0,1,2993,25,4,chinese,m,3,0.3,-77.3590695,1.15168959
WZL_1701,110,2,2024-06-16T09:06:17.126Z,english_596.wav,0,1,2993,25,4,chinese,m,4,0.32341667,-1.65440801,0.06773829
WZL_1701,111,2,2024-06-16T09:06:17.126Z,english_647.wav,0,1,305,25,4,chinese,m,0,0,-8.76796469,1.6238225
WZL_1701,111,2,2024-06-16T09:06:17.126Z,english_647.wav,0,1,305,25,4,chinese,m,1,0.1,-49.13996982,1.56934089
WZL_1701,111,2,2024-06-16T09:06:17.126Z,english_647.wav,0,1,305,25,4,chinese,m,2,0.2,43.79634461,0.78560304
WZL_1701,111,2,2024-06-16T09:06:17.126Z,english_647.wav,0,1,305,25,4,chinese,m,3,0.3,5.5781311,0.61771672
WZL_1701,111,2,2024-06-16T09:06:17.126Z,english_647.wav,0,1,305,25,4,chinese,m,4,0.32341667,17.41251701,1.2404866
WZL_1701,112,2,2024-06-16T09:06:17.126Z,english_138.wav,0,1,449,25,4,chinese,m,0,0,-79.80620147,0.37063564
WZL_1701,112,2,2024-06-16T09:06:17.126Z,english_138.wav,0,1,449,25,4,chinese,m,1,0.1,-15.42889109,0.81801141
WZL_1701,112,2,2024-06-16T09:06:17.126Z,english_138.wav,0,1,449,25,4,chinese,m,2,0.2,-88.31677226,0.0634538
WZL_1701,112,2,2024-06-16T09:06:17.126Z,english_138.wav,0,1,449,25,4,chinese,m,3,0.3,26.6486106,1.85131452
WZL_1701,112,2,2024-06-16T09:06:17.126Z,english_138.wav,0,1,449,25,4,chinese,m,4,0.32341667,-42.18894711,1.66059024
WZL_1701,113,2,2024-06-16T09:06:17.126Z,english_264.wav,0,1,213,25,4,chinese,m,0,0,16.10521774,1.02407609
WZL_1701,113,2,2024-06-16T09:06:17.126Z,english_264.wav,0,1,213,25,4,chinese,m,1,0.1,-43.55481907,1.4393598
WZL_1701,113,2,2024-06-16T09:06:17.126Z,english_264.wav,0,1,213,25,4,chinese,m,2,0.2,-16.87093852,1.31552174
WZL_1701,113,2,2024-06-16T09:06:17.126Z,english_264.wav,0,1,213,25,4,chinese,m,3,0.3,-81.41755984,1.17516842
WZL_1701,113,2,2024-06-16T09:06:17.126Z,english_264.wav,0,1,213,25,4,chinese,m,4,0.32341667,-76.00277997,0.613195
WZL_1701,114,2,2024-06-16T09:06:17.126Z,english_636.wav,0,1,2726,25,4,chinese,m,0,0,-20.37295141,1.69276631
WZL_1701,114,2,2024-06-16T09:06:17.126Z,english_636.wav,0,1,2726,25,4,chinese,m,1,0.1,-84.7288786,1.69908726
WZL_1701,114,2,2024-06-16T09:06:17.126Z,english_636.wav,0,1,2726,25,4,chinese,m,2,0.2,24.84265136,1.44836333
WZL_1701,114,2,2024-06-16T09:06:17.126Z,english_636.wav,0,1,2726,25,4,chinese,m,3,0.3,-9.2443485,1.36647816
WZL_1701,114,2,2024-06-16T09:06:17.126Z,english_636.wav,0,1,2726,25,4,chinese,m,4,0.32341667,49.04875774,0.88112598
WZL_1701,115,2,2024-06-16T09:06:17.126Z,english_423.wav,0,1,148,25,4,chinese,m,0,0,48.83941012,1.35290702
WZL_1701,115,2,2024-06-16T09:06:17.126Z,english_423.wav,0,1,148,25,4,chinese,m,1,0.1,26.57948938,1.33919202
WZL_1701,115,2,2024-06-16T09:06:17.126Z,english_423.wav,0,1,148,25,4,chinese,m,2,0.2,56.70545245,1.37149513
WZL_1701,115,2,2024-06-16T09:06:17.126Z,english_423.wav,0,1,148,25,4,chinese,m,3,0.3,-62.41131033,1.11357765
WZL_1701,115,2,2024-06-16T09:06:17.126Z,english_423.wav,0,1,148,25,4,chinese,m,4,0.32341667,78.49803502,1.20699722
WZL_1701,116,2,2024-06-16T09:06:17.126Z,english_796.wav,0,1,47,25,4,chinese,m,0,0,57.52331511,0.93419081
WZL_1701,116,2,2024-06-16T09:06:17.126Z,english_796.wav,0,1,47,25,4,chinese,m,1,0.1,-53.71774571,0.77950231
WZL_1701,116,2,2024-06-16T09:06:17.126Z,english_796.wav,0,1,47,25,4,chinese,m,2,0.2,-36.09214461,0.54947466
WZL_1701,116,2,2024-06-16T09:06:17.126Z,english_796.wav,0,1,47,25,4,chinese,m,3,0.3,23.21783142,1.69054841
WZL_1701,116,2,2024-06-16T09:06:17.126Z,english_796.wav,0,1,47,25,4,chinese,m,4,0.32341667,-74.52171885,0.76047802
WZL_1701,117,2,2024-06-16T09:06:17.126Z,english_281.wav,0,1,367,25,4,chinese,m,0,0,-55.42099824,1.64310908
WZL_1701,117,2,2024-06-16T09:06:17.126Z,english_281.wav,0,1,367,25,4,chinese,m,1,0.1,30.44020676,0.76997124
WZL_1701,117,2,2024-06-16T09:06:17.126Z,english_281.wav,0,1,367,25,4,chinese,m,2,0.2,53.34739709,0.1940809
WZL_1701,117,2,2024-06-16T09:06:17.126Z,english_281.wav,0,1,367,25,4,chinese,m,3,0.3,-32.26512488,0.25794937
WZL_1701,117,2,2024-06-16T09:06:17.126Z,english_281.wav,0,1,367,25,4,chinese,m,4,0.32341667,-59.86883114,1.27043487
WZL_1701,118,2,2024-06-16T09:06:17.126Z,english_501.wav,0,1,351,25,4,chinese,m,0,0,-7.07122187,1.4737248
WZL_1701,118,2,2024-06-16T09:06:17.126Z,english_501.wav,0,1,351,25,4,chinese,m,1,0.1,10.00250781,1.10212017
WZL_1701,118,2,2024-06-16T09:06:17.126Z,english_501.wav,0,1,351,25,4,chinese,m,2,0.2,-21.98285256,1.65595948
WZL_1701,118,2,2024-06-16T09:06:17.126Z,english_501.wav,0,1,351,25,4,chinese,m,3,0.3,46.16062549,0.64757112
WZL_1701,118,2,2024-06-16T09:06:17.126Z,english_501.wav,0,1,351,25,4,chinese,m,4,0.32341667,41.01655214,0.36171009
WZL_1701,119,2,2024-06-16T09:06:17.126Z,english_384.wav,0,1,439,25,4,chinese,m,0,0,-38.96228733,0.34616893
WZL_1701,119,2,2024-06-16T09:06:17.126Z,english_384.wav,0,1,439,25,4,chinese,m,1,0.1,2.386347,0.04115024
WZL_1701,119,2,2024-06-16T09:06:17.126Z,english_384.wav,0,1,439,25,4,chinese,m,2,0.2,48.26486793,0.35900131
WZL_1701,119,2,2024-06-16T09:06:17.126Z,english_384.wav,0,1,439,25,4,chinese,m,3,0.3,-48.11903655,1.58519606
WZL_1701,119,2,2024-06-16T09:06:17.126Z,english_384.wav,0,1,439,25,4,chinese,m,4,0.32341667,19.29531145,0.95531857
WZL_1701,120,2,2024-06-16T09:06:17.126Z,english_399.wav,0,1,147,25,4,chinese,m,0,0,77.00947727,0.99570417
WZL_1701,120,2,2024-06-16T09:06:17.126Z,english_399.wav,0,1,147,25,4,chinese,m,1,0.1,68.68212777,1.08385584
WZL_1701,120,2,2024-06-16T09:06:17.126Z,english_399.wav,0,1,147,25,4,chinese,m,2,0.2,29.89909441,0.2210854
WZL_1701,120,2,2024-06-16T09:06:17.126Z,english_399.wav,0,1,147,25,4,chinese,m,3,0.3,-37.60275897,0.41623588
WZL_1701,120,2,2024-06-16T09:06:17.126Z,english_399.wav,0,1,147,25,4,chinese,m,4,0.32341667,-61.49193386,0.38461981
WZL_1701,121,2,2024-06-16T09:06:17.126Z,english_27.wav,0,1,55,25,4,chinese,m,0,0,-6.18374659,1.89085405
WZL_1701,121,2,2024-06-16T09:06:17.126Z,english_27.wav,0,1,55,25,4,chinese,m,1,0.1,32.21095844,0.80138328
WZL_1701,121,2,2024-06-16T09:06:17.126Z,english_27.wav,0,1,55,25,4,chinese,m,2,0.2,21.02729748,1.01248602
WZL_1701,121,2,2024-06-16T09:06:17.126Z,english_27.wav,0,1,55,25,4,chinese,m,3,0.3,4.79829383,1.67412938
WZL_1701,121,2,2024-06-16T09:06:17.126Z,english_27.wav,0,1,55,25,4,chinese,m,4,0.32341667,-70.7577659,0.3387802
WZL_1701,122,2,2024-06-16T09:06:17.126Z,english_343.wav,0,1,169,25,4,chinese,m,0,0,-26.15456552,0.99905336
WZL_1701,122,2,2024-06-16T09:06:17.126Z,english_343.wav,0,1,169,25,4,chinese,m,1,0.1,-4.26522308,0.59066439
WZL_1701,122,2,2024-06-16T09:06:17.126Z,english_343.wav,0,1,169,25,4,chinese,m,2,0.2,55.3227334,1.69088488
WZL_1701,122,2,2024-06-16T09:06:17.126Z,english_343.wav,0,1,169,25,4,chinese,m,3,0.3,-26.26518208,1.70645599
WZL_1701,122,2,2024-06-16T09:06:17.126Z,english_343.wav,0,1,169,25,4,chinese,m,4,0.32341667,-18.3065251,0.13143106
WZL_1701,123,2,2024-06-16T09:06:17.126Z,english_565.wav,0,1,1411,25,4,chinese,m,0,0,-89.95965492,1.93181176
WZL_1701,123,2,2024-06-16T09:06:17.126Z,english_565.wav,0,1,1411,25,4,chinese,m,1,0.1,67.55938023,1.29027557
WZL_1701,123,2,2024-06-16T09:06:17.126Z,english_565.wav,0,1,1411,25,4,chinese,m,2,0.2,26.6208604,0.36054668
WZL_1701,123,2,2024-06-16T09:06:17.126Z,english_565.wav,0,1,1411,25,4,chinese,m,3,0.3,-54.20230035,1.25973455
WZL_1701,123,2,2024-06-16T09:06:17.126Z,english_565.wav,0,1,1411,25,4,chinese,m,4,0.32341667,-98.16020256,0.92743077
WZL_1701,124,2,2024-06-16T09:06:17.126Z,english_774.wav,0,1,339,25,4,chinese,m,0,0,-13.3479616,1.45409172
WZL_1701,124,2,2024-06-16T09:06:17.126Z,english_774.wav,0,1,339,25,4,chinese,m,1,0.1,-18.75352159,1.07775337
WZL_1701,124,2,2024-06-16T09:06:17.126Z,english_774.wav,0,1,339,25,4,chinese,m,2,0.2,-41.83192829,0.61872946
WZL_1701,124,2,2024-06-16T09:06:17.126Z,english_774.wav,0,1,339,25,4,chinese,m,3,0.3,14.77986843,1.87871381
WZL_1701,124,2,2024-06-16T09:06:17.126Z,english_774.wav,0,1,339,25,4,chinese,m,4,0.32341667,45.85609187,1.0399825
WZL_1701,125,2,2024-06-16T09:06:17.126Z,english_244.wav,0,1,223,25,4,chinese,m,0,0,-70.20374383,1.65134166
WZL_1701,125,2,2024-06-16T09:06:17.126Z,english_244.wav,0,1,223,25,4,chinese,m,1,0.1,67.84882107,1.23738837
WZL_1701,125,2,2024-06-16T09:06:17.126Z,english_244.wav,0,1,223,25,4,chinese,m,2,0.2,0.61676271,0.90147553
WZL_1701,125,2,2024-06-16T09:06:17.126Z,english_244.wav,0,1,223,25,4,chinese,m,3,0.3,-96.58934439,1.79293216
WZL_1701,125,2,2024-06-16T09:06:17.126Z,english_244.wav,0,1,223,25,4,chinese,m,4,0.32341667,-77.46985837,1.15013727
WZL_1701,126,2,2024-06-16T09:06:17.126Z,english_95.wav,0,1,273,25,4,chinese,m,0,0,-9.17523314,0.73915747
WZL_1701,126,2,2024-06-16T09:06:17.126Z,english_95.wav,0,1,273,25,4,chinese,m,1,0.1,-95.16832451,1.01172325
WZL_1701,126,2,2024-06-16T09:06:17.126Z,english_95.wav,0,1,273,25,4,chinese,m,2,0.2,-21.6130257,1.19817679
WZL_1701,126,2,2024-06-16T09:06:17.126Z,english_95.wav,0,1,273,25,4,chinese,m,3,0.3,0.51006416,1.53285694
WZL_1701,126,2,2024-06-16T09:06:17.126Z,english_95.wav,0,1,273,25,4,chinese,m,4,0.32341667,43.00131518,1.08383215
WZL_1701,127,2,2024-06-16T09:06:17.126Z,english_719.wav,0,1,4775,25,4,chinese,m,0,0,-32.14306232,1.4431753
WZL_1701,127,2,2024-06-16T09:06:17.126Z,english_719.wav,0,1,4775,25,4,chinese,m,1,0.1,-81.40439332,0.46175707
WZL_1701,127,2,2024-06-16T09:06:17.126Z,english_719.wav,0,1,4775,25,4,chinese,m,2,0.2,-20.1172293,1.86886769
WZL_1701,127,2,2024-06-16T09:06:17.126Z,english_719.wav,0,1,4775,25,4,chinese,m,3,0.3,67.63048238,0.67969247
WZL_1701,127,2,2024-06-16T09:06:17.126Z,english_719.wav,0,1,4775,25,4,chinese,m,4,0.32341667,50.83305788,1.68151983
WZL_1701,128,2,2024-06-16T09:06:17.126Z,english_739.wav,0,1,515,25,4,chinese,m,0,0,-30.44662447,1.4086692
WZL_1701,128,2,2024-06-16T09:06:17.126Z,english_739.wav,0,1,515,25,4,chinese,m,1,0.1,-27.69908881,0.95518545
WZL_1701,128,2,2024-06-16T09:06:17.126Z,english_739.wav,0,1,515,25,4,chinese,m,2,0.2,25.08576745,1.0815723
WZL_1701,128,2,2024-06-16T09:06:17.126Z,english_739.wav,0,1,515,25,4,chinese,m,3,0.3,-20.92476775,0.08724184
WZL_1701,128,2,2024-06-16T09:06:17.126Z,english_739.wav,0,1,515,25,4,chinese,m,4,0.32341667,-46.92266257,1.12979104
WZL_1701,129,2,2024-06-16T09:06:17.126Z,english_808.wav,0,1,727,25,4,chinese,m,0,0,23.02589628,1.07384277
WZL_1701,129,2,2024-06-16T09:06:17.126Z,english_808.wav,0,1,727,25,4,chinese,m,1,0.1,10.58817829,1.3919179
WZL_1701,129,2,2024-06-16T09:06:17.126Z,english_808.wav,0,1,727,25,4,chinese,m,2,0.2,36.77134597,0.54960524
WZL_1701,129,2,2024-06-16T09:06:17.126Z,english_808.wav,0,1,727,25,4,chinese,m,3,0.3,-30.31603221,1.95871365
WZL_1701,129,2,2024-06-16T09:06:17.126Z,english_808.wav,0,1,727,25,4,chinese,m,4,0.32341667,9.74764343,0.79150541
WZL_1701,130,2,2024-06-16T09:06:17.126Z,english_352.wav,0,1,679,25,4,chinese,m,0,0,71.64354449,0.18312459
WZL_1701,130,2,2024-06-16T09:06:17.126Z,english_352.wav,0,1,679,25,4,chinese,m,1,0.1,53.2516906,1.19991438
WZL_1701,130,2,2024-06-16T09:06:17.126Z,english_352.wav,0,1,679,25,4,chinese,m,2,0.2,28.90726554,1.21095973
WZL_1701,130,2,2024-06-16T09:06:17.126Z,english_352.wav,0,1,679,25,4,chinese,m,3,0.3,-49.8940387,1.61067418
WZL_1701,130,2,2024-06-16T09:06:17.126Z,english_352.wav,0,1,679,25,4,chinese,m,4,0.32341667,21.76832357,1.26376439
WZL_1701,131,2,2024-06-16T09:06:17.126Z,english_845.wav,0,1,117,25,4,chinese,m,0,0,-39.21264236,0.82761504
WZL_1701,131,2,2024-06-16T09:06:17.126Z,english_845.wav,0,1,117,25,4,chinese,m,1,0.1,99.78041888,0.53375751
WZL_1701,131,2,2024-06-16T09:06:17.126Z,english_845.wav,0,1,117,25,4,chinese,m,2,0.2,-59.29104422,1.24236426
WZL_1701,131,2,2024-06-16T09:06:17.126Z,english_845.wav,0,1,117,25,4,chinese,m,3,0.3,57.0409613,1.27736464
WZL_1701,131,2,2024-06-16T09:06:17.126Z,english_845.wav,0,1,117,25,4,chinese,m,4,0.32341667,-93.6361214,0.79024728
WZL_1701,132,2,2024-06-16T09:06:17.126Z,english_637.wav,0,1,1053,25,4,chinese,m,0,0,-1.71458324,1.21739028
WZL_1701,132,2,2024-06-16T09:06:17.126Z,english_637.wav,0,1,1053,25,4,chinese,m,1,0.1,-8.03758275,0.51882016
WZL_1701,132,2,2024-06-16T09:06:17.126Z,english_637.wav,0,1,1053,25,4,chinese,m,2,0.2,-8.49550443,1.63519413
WZL_1701,132,2,2024-06-16T09:06:17.126Z,english_637.wav,0,1,1053,25,4,chinese,m,3,0.3,-8.27727969,1.34863813
WZL_1701,132,2,2024-06-16T09:06:17.126Z,english_637.wav,0,1,1053,25,4,chinese,m,4,0.32341667,64.42471467,1.93003029
WZL_1701,133,2,2024-06-16T09:06:17.126Z,english_117.wav,0,1,541,25,4,chinese,m,0,0,-98.72491255,1.42659946
WZL_1701,133,2,2024-06-16T09:06:17.126Z,english_117.wav,0,1,541,25,4,chinese,m,1,0.1,-15.15642563,1.64599539
WZL_1701,133,2,2024-06-16T09:06:17.126Z,english_117.wav,0,1,541,25,4,chinese,m,2,0.2,24.45806353,0.97767705
WZL_1701,133,2,2024-06-16T09:06:17.126Z,english_117.wav,0,1,541,25,4,chinese,m,3,0.3,-80.67224668,0.37962884
WZL_1701,133,2,2024-06-16T09:06:17.126Z,english_117.wav,0,1,541,25,4,chinese,m,4,0.32341667,-97.50349755,0.74274723
WZL_1701,134,2,2024-06-16T09:06:17.126Z,english_836.wav,0,1,413,25,4,chinese,m,0,0,34.85846782,1.04017402
WZL_1701,134,2,2024-06-16T09:06:17.126Z,english_836.wav,0,1,413,25,4,chinese,m,1,0.1,41.54458908,0.35535359
WZL_1701,134,2,2024-06-16T09:06:17.126Z,english_836.wav,0,1,413,25,4,chinese,m,2,0.2,23.27363575,0.10471693
WZL_1701,134,2,2024-06-16T09:06:17.126Z,english_836.wav,0,1,413,25,4,chinese,m,3,0.3,86.83996211,0.55523491
WZL_1701,134,2,2024-06-16T09:06:17.126Z,english_836.wav,0,1,413,25,4,chinese,m,4,0.32341667,-32.25656931,0.70311776
WZL_1701,135,2,2024-06-16T09:06:17.126Z,english_457.wav,0,1,221,25,4,chinese,m,0,0,-73.30847947,0.35525387
WZL_1701,135,2,2024-06-16T09:06:17.126Z,english_457.wav,0,1,221,25,4,chinese,m,1,0.1,-25.74413936,0.90483023
WZL_1701,135,2,2024-06-16T09:06:17.126Z,english_457.wav,0,1,221,25,4,chinese,m,2,0.2,8.82772976,1.30004432
WZL_1701,135,2,2024-06-16T09:06:17.126Z,english_457.wav,0,1,221,25,4,chinese,m,3,0.3,-2.30416086,0.93422762
WZL_1701,135,2,2024-06-16T09:06:17.126Z,english_457.wav,0,1,221,25,4,chinese,m,4,0.32341667,-34.04493945,1.31504388
WZL_1701,136,2,2024-06-16T09:06:17.126Z,english_129.wav,0,1,649,25,4,chinese,m,0,0,80.17800931,1.16690044
WZL_1701,136,2,2024-06-16T09:06:17.126Z,english_129.wav,0,1,649,25,4,chinese,m,1,0.1,6.7929614,1.89220933
WZL_1701,136,2,2024-06-16T09:06:17.126Z,english_129.wav,0,1,649,25,4,chinese,m,2,0.2,51.03188375,1.40122633
WZL_1701,136,2,2024-06-16T09:06:17.126Z,english_129.wav,0,1,649,25,4,chinese,m,3,0.3,-14.28174581,0.72131347
WZL_1701,136,2,2024-06-16T09:06:17.126Z,english_129.wav,0,1,649,25,4,chinese,m,4,0.32341667,32.60771632,1.30692003
WZL_1701,137,2,2024-06-16T09:06:17.126Z,english_172.wav,0,1,277,25,4,chinese,m,0,0,8.59493981,0.93080222
WZL_1701,137,2,2024-06-16T09:06:17.126Z,english_172.wav,0,1,277,25,4,chinese,m,1,0.1,-56.34346079,0.53387901
WZL_1701,137,2,2024-06-16T09:06:17.126Z,english_172.wav,0,1,277,25,4,chinese,m,2,0.2,-95.76423912,0.34406097
WZL_1701,137,2,2024-06-16T09:06:17.126Z,english_172.wav,0,1,277,25,4,chinese,m,3,0.3,11.69646411,0.74935371
WZL_1701,137,2,2024-06-16T09:06:17.126Z,english_172.wav,0,1,277,25,4,chinese,m,4,0.32341667,-55.10661496,0.42041327
WZL_1701,138,2,2024-06-16T09:06:17.126Z,english_407.wav,0,1,425,25,4,chinese,m,0,0,-13.68776922,0.77658743
WZL_1701,138,2,2024-06-16T09:06:17.126Z,english_407.wav,0,1,425,25,4,chinese,m,1,0.1,-57.11899702,1.53398674
WZL_1701,138,2,2024-06-16T09:06:17.126Z,english_407.wav,0,1,425,25,4,chinese,m,2,0.2,62.94325807,0.70379875
WZL_1701,138,2,2024-06-16T09:06:17.126Z,english_407.wav,0,1,425,25,4,chinese,m,3,0.3,-27.77030003,0.72470084
WZL_1701,138,2,2024-06-16T09:06:17.126Z,english_407.wav,0,1,425,25,4,chinese,m,4,0.32341667,-61.90605897,0.771678
WZL_1701,139,2,2024-06-16T09:06:17.126Z,english_895.wav,0,1,265,25,4,chinese,m,0,0,-36.05432491,1.57991636
WZL_1701,139,2,2024-06-16T09:06:17.126Z,english_895.wav,0,1,265,25,4,chinese,m,1,0.1,0.27991529,1.29141926
WZL_1701,139,2,2024-06-16T09:06:17.126Z,english_895.wav,0,1,265,25,4,chinese,m,2,0.2,-68.50060493,0.78617821
WZL_1701,139,2,2024-06-16T09:06:17.126Z,english_895.wav,0,1,265,25,4,chinese,m,3,0.3,-65.34452755,0.53071912
WZL_1701,139,2,2024-06-16T09:06:17.126Z,english_895.wav,0,1,265,25,4,chinese,m,4,0.32341667,44.30205494,1.44568828
WZL_1701,140,2,2024-06-16T09:06:17.126Z,english_786.wav,0,1,250,25,4,chinese,m,0,0,50.77560123,0.9907589
WZL_1701,140,2,2024-06-16T09:06:17.126Z,english_786.wav,0,1,250,25,4,chinese,m,1,0.1,-87.08435808,0.48193409
WZL_1701,140,2,2024-06-16T09:06:17.126Z,english_786.wav,0,1,250,25,4,chinese,m,2,0.2,-36.07136163,1.01949061
WZL_1701,140,2,2024-06-16T09:06:17.126Z,english_786.wav,0,1,250,25,4,chinese,m,3,0.3,98.77618087,1.06334926
WZL_1701,140,2,2024-06-16T09:06:17.126Z,english_786.wav,0,1,250,25,4,chinese,m,4,0.32341667,86.70070823,0.94164836
WZL_1701,141,2,2024-06-16T09:06:17.126Z,english_289.wav,0,1,247,25,4,chinese,m,0,0,-55.97739865,0.95213243
WZL_1701,141,2,2024-06-16T09:06:17.126Z,english_289.wav,0,1,247,25,4,chinese,m,1,0.1,-97.9801122,0.81858491
WZL_1701,141,2,2024-06-16T09:06:17.126Z,english_289.wav,0,1,247,25,4,chinese,m,2,0.2,44.28679287,1.16094748
WZL_1701,141,2,2024-06-16T09:06:17.126Z,english_289.wav,0,1,247,25,4,chinese,m,3,0.3,-74.0895039,0.92969459
WZL_1701,141,2,2024-06-16T09:06:17.126Z,english_289.wav,0,1,247,25,4,chinese,m,4,0.32341667,-44.25845537,0.41504245
WZL_1701,142,2,2024-06-16T09:06:17.126Z,english_235.wav,0,1,613,25,4,chinese,m,0,0,-1.09951899,1.56432712
WZL_1701,142,2,2024-06-16T09:06:17.126Z,english_235.wav,0,1,613,25,4,chinese,m,1,0.1,-96.83918407,0.18127978
WZL_1701,142,2,2024-06-16T09:06:17.126Z,english_235.wav,0,1,613,25,4,chinese,m,2,0.2,96.22116446,1.26168206
WZL_1701,142,2,2024-06-16T09:06:17.126Z,english_235.wav,0,1,613,25,4,chinese,m,3,0.3,48.9502898,1.98140435
WZL_1701,142,2,2024-06-16T09:06:17.126Z,english_235.wav,0,1,613,25,4,chinese,m,4,0.32341667,38.18641725,0.52366779
WZL_1701,143,2,2024-06-16T09:06:17.126Z,english_892.wav,0,1,617,25,4,chinese,m,0,0,38.63128374,0.97893944
WZL_1701,143,2,2024-06-16T09:06:17.126Z,english_892.wav,0,1,617,25,4,chinese,m,1,0.1,22.49899687,0.66551001
WZL_1701,143,2,2024-06-16T09:06:17.126Z,english_892.wav,0,1,617,25,4,chinese,m,2,0.2,28.84135264,0.36795179
WZL_1701,143,2,2024-06-16T09:06:17.126Z,english_892.wav,0,1,617,25,4,chinese,m,3,0.3,81.19740532,1.0840826
WZL_1701,143,2,2024-06-16T09:06:17.126Z,english_892.wav,0,1,617,25,4,chinese,m,4,0.32341667,22.37782167,0.83637256
WZL_1701,144,2,2024-06-16T09:06:17.126Z,english_793.wav,0,1,379,25,4,chinese,m,0,0,-3.59370976,0.95327953
WZL_1701,144,2,2024-06-16T09:06:17.126Z,english_793.wav,0,1,379,25,4,chinese,m,1,0.1,-92.44382947,0.8890172
WZL_1701,144,2,2024-06-16T09:06:17.126Z,english_793.wav,0,1,379,25,4,chinese,m,2,0.2,-89.84008222,0.47547445
WZL_1701,144,2,2024-06-16T09:06:17.126Z,english_793.wav,0,1,379,25,4,chinese,m,3,0.3,96.09352514,1.09208031
WZL_1701,144,2,2024-06-16T09:06:17.126Z,english_793.wav,0,1,379,25,4,chinese,m,4,0.32341667,42.94050617,0.63383093
WZL_1701,145,2,2024-06-16T09:06:17.126Z,english_540.wav,0,1,335,25,4,chinese,m,0,0,-46.6752609,1.16352469
WZL_1701,145,2,2024-06-16T09:06:17.126Z,english_540.wav,0,1,335,25,4,chinese,m,1,0.1,-93.20209644,0.0234781
WZL_1701,145,2,2024-06-16T09:06:17.126Z,english_540.wav,0,1,335,25,4,chinese,m,2,0.2,64.96419662,0.05926191
WZL_1701,145,2,2024-06-16T09:06:17.126Z,english_540.wav,0,1,335,25,4,chinese,m,3,0.3,-12.16484387,1.47406284
WZL_1701,145,2,2024-06-16T09:06:17.126Z,english_540.wav,0,1,335,25,4,chinese,m,4,0.32341667,-44.34688232,0.60104864
WZL_1701,146,2,2024-06-16T09:06:17.126Z,english_11.wav,0,1,429,25,4,chinese,m,0,0,-20.45826732,1.19869378
WZL_1701,146,2,2024-06-16T09:06:17.126Z,english_11.wav,0,1,429,25,4,chinese,m,1,0.1,-31.26113472,0.2059713
WZL_1701,146,2,2024-06-16T09:06:17.126Z,english_11.wav,0,1,429,25,4,chinese,m,2,0.2,84.03210455,0.62296143
WZL_1701,146,2,2024-06-16T09:06:17.126Z,english_11.wav,0,1,429,25,4,chinese,m,3,0.3,30.35463164,1.49781179
WZL_1701,146,2,2024-06-16T09:06:17.126Z,english_11.wav,0,1,429,25,4,chinese,m,4,0.32341667,-63.36217442,0.18750748
WZL_1701,147,2,2024-06-16T09:06:17.126Z,english_251.wav,0,1,475,25,4,chinese,m,0,0,-35.26640223,1.59441442
WZL_1701,147,2,2024-06-16T09:06:17.126Z,english_251.wav,0,1,475,25,4,chinese,m,1,0.1,-82.14936791,1.21410308
WZL_1701,147,2,2024-06-16T09:06:17.126Z,english_251.wav,0,1,475,25,4,chinese,m,2,0.2,39.53587687,0.89125894
WZL_1701,147,2,2024-06-16T09:06:17.126Z,english_251.wav,0,1,475,25,4,chinese,m,3,0.3,-75.44024907,0.14763688
WZL_1701,147,2,2024-06-16T09:06:17.126Z,english_251.wav,0,1,475,25,4,chinese,m,4,0.32341667,26.94148116,1.71797298
WZL_1701,148,2,2024-06-16T09:06:17.126Z,english_395.wav,0,1,907,25,4,chinese,m,0,0,12.69072165,1.18485033
WZL_1701,148,2,2024-06-16T09:06:17.126Z,english_395.wav,0,1,907,25,4,chinese,m,1,0.1,16.88915645,0.64230571
WZL_1701,148,2,2024-06-16T09:06:17.126Z,english_395.wav,0,1,907,25,4,chinese,m,2,0.2,49.23789678,0.95454364
WZL_1701,148,2,2024-06-16T09:06:17.126Z,english_395.wav,0,1,907,25,4,chinese,m,3,0.3,39.87613746,0.75997929
WZL_1701,148,2,2024-06-16T09:06:17.126Z,english_395.wav,0,1,907,25,4,chinese,m,4,0.32341667,70.90138048,1.50770695
WZL_1701,149,2,2024-06-16T09:06:17.126Z,english_670.wav,0,1,911,25,4,chinese,m,0,0,64.75672565,1.5535903
WZL_1701,149,2,2024-06-16T09:06:17.126Z,english_670.wav,0,1,911,25,4,chinese,m,1,0.1,85.95156369,0.12522594
WZL_1701,149,2,2024-06-16T09:06:17.126Z,english_670.wav,0,1,911,25,4,chinese,m,2,0.2,-44.32949438,0.22842632
WZL_1701,149,2,2024-06-16T09:06:17.126Z,english_670.wav,0,1,911,25,4,chinese,m,3,0.3,22.57192219,0.17636502
WZL_1701,149,2,2024-06-16T09:06:17.126Z,english_670.wav,0,1,911,25,4,chinese,m,4,0.32341667,34.74005277,0.16208776
WZL_1701,150,3,2024-06-16T09:06:17.126Z,english_323.wav,0,1,1065,25,4,chinese,m,0,0,92.33188111,1.59668922
WZL_1701,150,3,2024-06-16T09:06:17.126Z,english_323.wav,0,1,1065,25,4,chinese,m,1,0.1,4.22577609,1.75306106
WZL_1701,150,3,2024-06-16T09:06:17.126Z,english_323.wav,0,1,1065,25,4,chinese,m,2,0.2,-35.48560344,1.06071567
WZL_1701,150,3,2024-06-16T09:06:17.126Z,english_323.wav,0,1,1065,25,4,chinese,m,3,0.3,7.73763769,1.9328625
WZL_1701,150,3,2024-06-16T09:06:17.126Z,english_323.wav,0,1,1065,25,4,chinese,m,4,0.32341667,55.62458321,1.27347405
WZL_1701,151,3,2024-06-16T09:06:17.126Z,english_932.wav,0,1,283,25,4,chinese,m,0,0,-3.8848098,1.00949787
WZL_1701,151,3,2024-06-16T09:06:17.126Z,english_932.wav,0,1,283,25,4,chinese,m,1,0.1,-32.48916274,1.44703087
WZL_1701,151,3,2024-06-16T09:06:17.126Z,english_932.wav,0,1,283,25,4,chinese,m,2,0.2,81.26251807,0.10808594
WZL_1701,151,3,2024-06-16T09:06:17.126Z,english_932.wav,0,1,283,25,4,chinese,m,3,0.3,-18.23478105,0.03465182
WZL_1701,151,3,2024-06-16T09:06:17.126Z,english_932.wav,0,1,283,25,4,chinese,m,4,0.32341667,7.90132089,0.79845554
WZL_1701,152,3,2024-06-16T09:06:17.126Z,english_192.wav,0,1,346,25,4,chinese,m,0,0,78.04280759,0.73118961
WZL_1701,152,3,2024-06-16T09:06:17.126Z,english_192.wav,0,1,346,25,4,chinese,m,1,0.1,-85.52188616,0.7164391
WZL_1701,152,3,2024-06-16T09:06:17.126Z,english_192.wav,0,1,346,25,4,chinese,m,2,0.2,-14.2601202,1.68273927
WZL_1701,152,3,2024-06-16T09:06:17.126Z,english_192.wav,0,1,346,25,4,chinese,m,3,0.3,29.76504865,0.51501418
WZL_1701,152,3,2024-06-16T09:06:17.126Z,english_192.wav,0,1,346,25,4,chinese,m,4,0.32341667,82.81048791,1.16986294
WZL_1701,153,3,2024-06-16T09:06:17.126Z,english_663.wav,0,1,617,25,4,chinese,m,0,0,55.84438863,1.29444713
WZL_1701,153,3,2024-06-16T09:06:17.126Z,english_663.wav,0,1,617,25,4,chinese,m,1,0.1,-89.02249371,0.90215198
WZL_1701,153,3,2024-06-16T09:06:17.126Z,english_663.wav,0,1,617,25,4,chinese,m,2,0.2,-13.61345685,1.61104603
WZL_1701,153,3,2024-06-16T09:06:17.126Z,english_663.wav,0,1,617,25,4,chinese,m,3,0.3,14.50375693,0.31375715
WZL_1701,153,3,2024-06-16T09:06:17.126Z,english_663.wav,0,1,617,25,4,chinese,m,4,0.32341667,80.63633164,1.01784406
WZL_1701,154,3,2024-06-16T09:06:17.126Z,english_751.wav,0,1,379,25,4,chinese,m,0,0,45.03630887,0.43450625
WZL_1701,154,3,2024-06-16T09:06:17.126Z,english_751.wav,0,1,379,25,4,chinese,m,1,0.1,46.59103402,1.30072592
WZL_1701,154,3,2024-06-16T09:06:17.126Z,english_751.wav,0,1,379,25,4,chinese,m,2,0.2,-30.90440374,1.20093797
WZL_1701,154,3,2024-06-16T09:06:17.126Z,english_751.wav,0,1,379,25,4,chinese,m,3,0.3,-61.26470289,0.81911259
WZL_1701,154,3,2024-06-16T09:06:17.126Z,english_751.wav,0,1,379,25,4,chinese,m,4,0.32341667,34.91384756,0.19140491
WZL_1701,155,3,2024-06-16T09:06:17.126Z,english_866.wav,0,1,1041,25,4,chinese,m,0,0,-75.90204766,0.10539101
WZL_1701,155,3,2024-06-16T09:06:17.126Z,english_866.wav,0,1,1041,25,4,chinese,m,1,0.1,-89.66881049,1.63294926
WZL_1701,155,3,2024-06-16T09:06:17.126Z,english_866.wav,0,1,1041,25,4,chinese,m,2,0.2,-86.78535298,0.21421971
WZL_1701,155,3,2024-06-16T09:06:17.126Z,english_866.wav,0,1,1041,25,4,chinese,m,3,0.3,50.96369643,1.47001367
WZL_1701,155,3,2024-06-16T09:06:17.126Z,english_866.wav,0,1,1041,25,4,chinese,m,4,0.32341667,36.94157773,1.56453662
WZL_1701,156,3,2024-06-16T09:06:17.126Z,english_40.wav,0,1,321,25,4,chinese,m,0,0,20.98315678,0.33544846
WZL_1701,156,3,2024-06-16T09:06:17.126Z,english_40.wav,0,1,321,25,4,chinese,m,1,0.1,80.64974175,0.81764939
WZL_1701,156,3,2024-06-16T09:06:17.126Z,english_40.wav,0,1,321,25,4,chinese,m,2,0.2,5.38930518,0.17548883
WZL_1701,156,3,2024-06-16T09:06:17.126Z,english_40.wav,0,1,321,25,4,chinese,m,3,0.3,18.83593916,0.83674413
WZL_1701,156,3,2024-06-16T09:06:17.126Z,english_40.wav,0,1,321,25,4,chinese,m,4,0.32341667,-14.62145671,0.80890384
WZL_1701,157,3,2024-06-16T09:06:17.126Z,english_648.wav,0,1,67,25,4,chinese,m,0,0,-36.17742204,0.57576188
WZL_1701,157,3,2024-06-16T09:06:17.126Z,english_648.wav,0,1,67,25,4,chinese,m,1,0.1,30.10697278,1.1310908
WZL_1701,157,3,2024-06-16T09:06:17.126Z,english_648.wav,0,1,67,25,4,chinese,m,2,0.2,-67.31320052,1.67112441
WZL_1701,157,3,2024-06-16T09:06:17.126Z,english_648.wav,0,1,67,25,4,chinese,m,3,0.3,-10.94597212,0.39641968
WZL_1701,157,3,2024-06-16T09:06:17.126Z,english_648.wav,0,1,67,25,4,chinese,m,4,0.32341667,72.59648235,1.93789316
WZL_1701,158,3,2024-06-16T09:06:17.126Z,english_362.wav,0,1,371,25,4,chinese,m,0,0,12.71485551,1.44490364
WZL_1701,158,3,2024-06-16T09:06:17.126Z,english_362.wav,0,1,371,25,4,chinese,m,1,0.1,-18.83660308,1.3029027
WZL_1701,158,3,2024-06-16T09:06:17.126Z,english_362.wav,0,1,371,25,4,chinese,m,2,0.2,-52.07271323,1.10609828
WZL_1701,158,3,2024-06-16T09:06:17.126Z,english_362.wav,0,1,371,25,4,chinese,m,3,0.3,-29.96931661,1.18379787
WZL_1701,158,3,2024-06-16T09:06:17.126Z,english_362.wav,0,1,371,25,4,chinese,m,4,0.32341667,-9.99178163,1.80996789
WZL_1701,159,3,2024-06-16T09:06:17.126Z,english_754.wav,0,0,2149,25,4,chinese,m,0,0,-19.76675532,0.85408869
WZL_1701,159,3,2024-06-16T09:06:17.126Z,english_754.wav,0,0,2149,25,4,chinese,m,1,0.1,34.48414938,1.68072852
WZL_1701,159,3,2024-06-16T09:06:17.126Z,english_754.wav,0,0,2149,25,4,chinese,m,2,0.2,62.52568934,1.92334892
WZL_1701,159,3,2024-06-16T09:06:17.126Z,english_754.wav,0,0,2149,25,4,chinese,m,3,0.3,25.41574935,0.35114342
WZL_1701,159,3,2024-06-16T09:06:17.126Z,english_754.wav,0,0,2149,25,4,chinese,m,4,0.32341667,-36.16911462,0.9845535
WZL_1701,160,3,2024-06-16T09:06:17.126Z,english_135.wav,0,1,305,25,4,chinese,m,0,0,92.53632507,0.8813083
WZL_1701,160,3,2024-06-16T09:06:17.126Z,english_135.wav,0,1,305,25,4,chinese,m,1,0.1,42.68843281,1.60503348
WZL_1701,160,3,2024-06-16T09:06:17.126Z,english_135.wav,0,1,305,25,4,chinese,m,2,0.2,87.27237188,0.22265806
WZL_1701,160,3,2024-06-16T09:06:17.126Z,english_135.wav,0,1,305,25,4,chinese,m,3,0.3,-70.62725941,0.4233462
WZL_1701,160,3,2024-06-16T09:06:17.126Z,english_135.wav,0,1,305,25,4,chinese,m,4,0.32341667,91.37204548,0.99500327
WZL_1701,161,3,2024-06-16T09:06:17.126Z,english_814.wav,0,1,349,25,4,chinese,m,0,0,-63.32480856,1.93717082
WZL_1701,161,3,2024-06-16T09:06:17.126Z,english_814.wav,0,1,349,25,4,chinese,m,1,0.1,34.42157774,0.66627456
WZL_1701,161,3,2024-06-16T09:06:17.126Z,english_814.wav,0,1,349,25,4,chinese,m,2,0.2,-1.27362148,1.33718687
WZL_1701,161,3,2024-06-16T09:06:17.126Z,english_814.wav,0,1,349,25,4,chinese,m,3,0.3,11.18388565,1.12749716
WZL_1701,161,3,2024-06-16T09:06:17.126Z,english_814.wav,0,1,349,25,4,chinese,m,4,0.32341667,-9.56708644,0.66623879
WZL_1701,162,3,2024-06-16T09:06:17.126Z,english_903.wav,0,1,101,25,4,chinese,m,0,0,73.58848698,0.30588109
WZL_1701,162,3,2024-06-16T09:06:17.126Z,english_903.wav,0,1,101,25,4,chinese,m,1,0.1,-95.58060262,0.88963747
WZL_1701,162,3,2024-06-16T09:06:17.126Z,english_903.wav,0,1,101,25,4,chinese,m,2,0.2,17.41642173,1.73634476
WZL_1701,162,3,2024-06-16T09:06:17.126Z,english_903.wav,0,1,101,25,4,chinese,m,3,0.3,94.35223882,0.71257749
WZL_1701,162,3,2024-06-16T09:06:17.126Z,english_903.wav,0,1,101,25,4,chinese,m,4,0.32341667,-49.48803877,1.4824474
WZL_1701,163,3,2024-06-16T09:06:17.126Z,english_1.wav,0,1,229,25,4,chinese,m,0,0,53.99031816,1.91732561
WZL_1701,163,3,2024-06-16T09:06:17.126Z,english_1.wav,0,1,229,25,4,chinese,m,1,0.1,-58.32145174,0.75352701
WZL_1701,163,3,2024-06-16T09:06:17.126Z,english_1.wav,0,1,229,25,4,chinese,m,2,0.2,-86.75659624,1.40297919
WZL_1701,163,3,2024-06-16T09:06:17.126Z,english_1.wav,0,1,229,25,4,chinese,m,3,0.3,-31.84945767,0.12157709
WZL_1701,163,3,2024-06-16T09:06:17.126Z,english_1.wav,0,1,229,25,4,chinese,m,4,0.32341667,-59.21997754,1.57687546
WZL_1701,164,3,2024-06-16T09:06:17.126Z,english_416.wav,0,1,317,25,4,chinese,m,0,0,26.92040942,0.66708871
WZL_1701,164,3,2024-06-16T09:06:17.126Z,english_416.wav,0,1,317,25,4,chinese,m,1,0.1,32.98463782,0.46140785
WZL_1701,164,3,2024-06-16T09:06:17.126Z,english_416.wav,0,1,317,25,4,chinese,m,2,0.2,94.30298269,0.4311344
WZL_1701,164,3,2024-06-16T09:06:17.126Z,english_416.wav,0,1,317,25,4,chinese,m,3,0.3,71.4008894,0.4522554
WZL_1701,164,3,2024-06-16T09:06:17.126Z,english_416.wav,0,1,317,25,4,chinese,m,4,0.32341667,-13.61584313,0.23817019
WZL_1701,165,3,2024-06-16T09:06:17.126Z,english_913.wav,0,1,401,25,4,chinese,m,0,0,27.9375346,0.72243167
WZL_1701,165,3,2024-06-16T09:06:17.126Z,english_913.wav,0,1,401,25,4,chinese,m,1,0.1,41.67879689,1.59129257
WZL_1701,165,3,2024-06-16T09:06:17.126Z,english_913.wav,0,1,401,25,4,chinese,m,2,0.2,-50.96955224,1.19382874
WZL_1701,165,3,2024-06-16T09:06:17.126Z,english_913.wav,0,1,401,25,4,chinese,m,3,0.3,93.1868058,0.86840853
WZL_1701,165,3,2024-06-16T09:06:17.126Z,english_913.wav,0,1,401,25,4,chinese,m,4,0.32341667,83.79752677,0.21021697
WZL_1701,166,3,2024-06-16T09:06:17.126Z,english_633.wav,0,1,290,25,4,chinese,m,0,0,-53.72283933,1.23998369
WZL_1701,166,3,2024-06-16T09:06:17.126Z,english_633.wav,0,1,290,25,4,chinese,m,1,0.1,14.71438877,1.35266241
WZL_1701,166,3,2024-06-16T09:06:17.126Z,english_633.wav,0,1,290,25,4,chinese,m,2,0.2,95.18630031,0.66132985
WZL_1701,166,3,2024-06-16T09:06:17.126Z,english_633.wav,0,1,290,25,4,chinese,m,3,0.3,96.89096157,0.52728002
WZL_1701,166,3,2024-06-16T09:06:17.126Z,english_633.wav,0,1,290,25,4,chinese,m,4,0.32341667,8.38596779,1.4824282
WZL_1701,167,3,2024-06-16T09:06:17.126Z,english_755.wav,0,1,285,25,4,chinese,m,0,0,-15.85533995,0.06987403
WZL_1701,167,3,2024-06-16T09:06:17.126Z,english_755.wav,0,1,285,25,4,chinese,m,1,0.1,-97.95934782,0.83204773
WZL_1701,167,3,2024-06-16T09:06:17.126Z,english_755.wav,0,1,285,25,4,chinese,m,2,0.2,-5.14559719,1.06816443
WZL_1701,167,3,2024-06-16T09:06:17.126Z,english_755.wav,0,1,285,25,4,chinese,m,3,0.3,32.74087849,1.42856986
WZL_1701,167,3,2024-06-16T09:06:17.126Z,english_755.wav,0,1,285,25,4,chinese,m,4,0.32341667,-56.93437429,0.58130438
WZL_1701,168,3,2024-06-16T09:06:17.126Z,english_255.wav,0,1,189,25,4,chinese,m,0,0,-42.74550593,1.65518669
WZL_1701,168,3,2024-06-16T09:06:17.126Z,english_255.wav,0,1,189,25,4,chinese,m,1,0.1,35.44578771,1.85823386
WZL_1701,168,3,2024-06-16T09:06:17.126Z,english_255.wav,0,1,189,25,4,chinese,m,2,0.2,98.7346041,1.2123315
WZL_1701,168,3,2024-06-16T09:06:17.126Z,english_255.wav,0,1,189,25,4,chinese,m,3,0.3,14.08839822,0.62099519
WZL_1701,168,3,2024-06-16T09:06:17.126Z,english_255.wav,0,1,189,25,4,chinese,m,4,0.32341667,-55.38739786,1.08486436
WZL_1701,169,3,2024-06-16T09:06:17.126Z,english_233.wav,0,1,146,25,4,chinese,m,0,0,-3.83672366,0.89757337
WZL_1701,169,3,2024-06-16T09:06:17.126Z,english_233.wav,0,1,146,25,4,chinese,m,1,0.1,-39.8423846,0.76715273
WZL_1701,169,3,2024-06-16T09:06:17.126Z,english_233.wav,0,1,146,25,4,chinese,m,2,0.2,85.69163348,1.38961473
WZL_1701,169,3,2024-06-16T09:06:17.126Z,english_233.wav,0,1,146,25,4,chinese,m,3,0.3,40.61484277,0.78787282
WZL_1701,169,3,2024-06-16T09:06:17.126Z,english_233.wav,0,1,146,25,4,chinese,m,4,0.32341667,-44.9800047,0.48224738
WZL_1701,170,3,2024-06-16T09:06:17.126Z,english_991.wav,0,1,705,25,4,chinese,m,0,0,-73.33762004,0.7279734
WZL_1701,170,3,2024-06-16T09:06:17.126Z,english_991.wav,0,1,705,25,4,chinese,m,1,0.1,-90.08677455,0.374322
WZL_1701,170,3,2024-06-16T09:06:17.126Z,english_991.wav,0,1,705,25,4,chinese,m,2,0.2,-98.84294029,0.98894361
WZL_1701,170,3,2024-06-16T09:06:17.126Z,english_991.wav,0,1,705,25,4,chinese,m,3,0.3,59.84972986,1.07774369
WZL_1701,170,3,2024-06-16T09:06:17.126Z,english_991.wav,0,1,705,25,4,chinese,m,4,0.32341667,21.03568625,0.51480923
WZL_1701,171,3,2024-06-16T09:06:17.126Z,english_993.wav,0,1,101,25,4,chinese,m,0,0,-66.15449332,1.17508471
WZL_1701,171,3,2024-06-16T09:06:17.126Z,english_993.wav,0,1,101,25,4,chinese,m,1,0.1,33.08083728,0.94744004
WZL_1701,171,3,2024-06-16T09:06:17.126Z,english_993.wav,0,1,101,25,4,chinese,m,2,0.2,51.46479562,0.74931244
WZL_1701,171,3,2024-06-16T09:06:17.126Z,english_993.wav,0,1,101,25,4,chinese,m,3,0.3,-80.58676237,0.35628979
WZL_1701,171,3,2024-06-16T09:06:17.126Z,english_993.wav,0,1,101,25,4,chinese,m,4,0.32341667,81.97884737,1.25416847
WZL_1701,172,3,2024-06-16T09:06:17.126Z,english_543.wav,0,1,59,25,4,chinese,m,0,0,13.74009622,0.63900578
WZL_1701,172,3,2024-06-16T09:06:17.126Z,english_543.wav,0,1,59,25,4,chinese,m,1,0.1,51.80972721,1.6206981
WZL_1701,172,3,2024-06-16T09:06:17.126Z,english_543.wav,0,1,59,25,4,chinese,m,2,0.2,86.3964352,0.03304675
WZL_1701,172,3,2024-06-16T09:06:17.126Z,english_543.wav,0,1,59,25,4,chinese,m,3,0.3,-66.39783761,1.7049324
WZL_1701,172,3,2024-06-16T09:06:17.126Z,english_543.wav,0,1,59,25,4,chinese,m,4,0.32341667,31.11863834,1.46507556
WZL_1701,173,3,2024-06-16T09:06:17.126Z,english_497.wav,0,1,1882,25,4,chinese,m,0,0,3.92391523,0.25005623
WZL_1701,173,3,2024-06-16T09:06:17.126Z,english_497.wav,0,1,1882,25,4,chinese,m,1,0.1,-39.44421726,1.18920756
WZL_1701,173,3,2024-06-16T09:06:17.126Z,english_497.wav,0,1,1882,25,4,chinese,m,2,0.2,-70.21843081,1.75478959
WZL_1701,173,3,2024-06-16T09:06:17.126Z,english_497.wav,0,1,1882,25,4,chinese,m,3,0.3,-95.13281119,0.47878412
WZL_1701,173,3,2024-06-16T09:06:17.126Z,english_497.wav,0,1,1882,25,4,chinese,m,4,0.32341667,-23.7064256,0.88125504
WZL_1701,174,3,2024-06-16T09:06:17.126Z,english_500.wav,0,1,5,25,4,chinese,m,0,0,34.07818593,1.14050746
WZL_1701,174,3,2024-06-16T09:06:17.126Z,english_500.wav,0,1,5,25,4,chinese,m,1,0.1,31.06479142,1.87458021
WZL_1701,174,3,2024-06-16T09:06:17.126Z,english_500.wav,0,1,5,25,4,chinese,m,2,0.2,-63.34751057,0.77467433
WZL_1701,174,3,2024-06-16T09:06:17.126Z,english_500.wav,0,1,5,25,4,chinese,m,3,0.3,36.97827554,1.278432
WZL_1701,174,3,2024-06-16T09:06:17.126Z,english_500.wav,0,1,5,25,4,chinese,m,4,0.32341667,96.68235718,0.68469821
WZL_1701,175,3,2024-06-16T09:06:17.126Z,english_820.wav,0,1,7,25,4,chinese,m,0,0,-46.83321603,0.84618107
WZL_1701,175,3,2024-06-16T09:06:17.126Z,english_820.wav,0,1,7,25,4,chinese,m,1,0.1,41.6487922,0.98544532
WZL_1701,175,3,2024-06-16T09:06:17.126Z,english_820.wav,0,1,7,25,4,chinese,m,2,0.2,8.4156442,0.7701051
WZL_1701,175,3,2024-06-16T09:06:17.126Z,english_820.wav,0,1,7,25,4,chinese,m,3,0.3,-54.82963666,1.20043732
WZL_1701,175,3,2024-06-16T09:06:17.126Z,english_820.wav,0,1,7,25,4,chinese,m,4,0.32341667,30.43602938,1.85489027
WZL_1701,176,3,2024-06-16T09:06:17.126Z,english_443.wav,0,1,196,25,4,chinese,m,0,0,0.608638,1.06022382
WZL_1701,176,3,2024-06-16T09:06:17.126Z,english_443.wav,0,1,196,25,4,chinese,m,1,0.1,15.80398242,1.02694767
WZL_1701,176,3,2024-06-16T09:06:17.126Z,english_443.wav,0,1,196,25,4,chinese,m,2,0.2,-53.8454718,0.72801533
WZL_1701,176,3,2024-06-16T09:06:17.126Z,english_443.wav,0,1,196,25,4,chinese,m,3,0.3,32.36058062,1.22153209
WZL_1701,176,3,2024-06-16T09:06:17.126Z,english_443.wav,0,1,196,25,4,chinese,m,4,0.32341667,41.23353215,0.58841963
WZL_1701,177,3,2024-06-16T09:06:17.126Z,english_999.wav,0,1,233,25,4,chinese,m,0,0,-43.88463807,1.5561212
WZL_1701,177,3,2024-06-16T09:06:17.126Z,english_999.wav,0,1,233,25,4,chinese,m,1,0.1,-19.69329198,1.76032244
WZL_1701,177,3,2024-06-16T09:06:17.126Z,english_999.wav,0,1,233,25,4,chinese,m,2,0.2,-16.47401585,0.67323911
WZL_1701,177,3,2024-06-16T09:06:17.126Z,english_999.wav,0,1,233,25,4,chinese,m,3,0.3,-27.91485083,0.0725875
WZL_1701,177,3,2024-06-16T09:06:17.126Z,english_999.wav,0,1,233,25,4,chinese,m,4,0.32341667,-38.65265262,0.89314247
WZL_1701,178,3,2024-06-16T09:06:17.126Z,english_920.wav,0,1,177,25,4,chinese,m,0,0,95.7501832,1.54313256
WZL_1701,178,3,2024-06-16T09:06:17.126Z,english_920.wav,0,1,177,25,4,chinese,m,1,0.1,-3.19831823,1.33500472
WZL_1701,178,3,2024-06-16T09:06:17.126Z,english_920.wav,0,1,177,25,4,chinese,m,2,0.2,-16.96134457,1.12819963
WZL_1701,178,3,2024-06-16T09:06:17.126Z,english_920.wav,0,1,177,25,4,chinese,m,3,0.3,-28.81747413,1.72147256
WZL_1701,178,3,2024-06-16T09:06:17.126Z,english_920.wav,0,1,177,25,4,chinese,m,4,0.32341667,42.63505928,0.57593815
WZL_1701,179,3,2024-06-16T09:06:17.126Z,english_273.wav,0,1,18,25,4,chinese,m,0,0,-44.98289573,1.94838534
WZL_1701,179,3,2024-06-16T09:06:17.126Z,english_273.wav,0,1,18,25,4,chinese,m,1,0.1,24.32546199,0.68888608
WZL_1701,179,3,2024-06-16T09:06:17.126Z,english_273.wav,0,1,18,25,4,chinese,m,2,0.2,61.84573583,1.95265796
WZL_1701,179,3,2024-06-16T09:06:17.126Z,english_273.wav,0,1,18,25,4,chinese,m,3,0.3,-1.88803465,1.62060328
WZL_1701,179,3,2024-06-16T09:06:17.126Z,english_273.wav,0,1,18,25,4,chinese,m,4,0.32341667,57.02125087,0.94638053
WZL_1701,180,3,2024-06-16T09:06:17.126Z,english_455.wav,0,1,159,25,4,chinese,m,0,0,16.09493262,0.21208686
WZL_1701,180,3,2024-06-16T09:06:17.126Z,english_455.wav,0,1,159,25,4,chinese,m,1,0.1,24.58982,1.0305564
WZL_1701,180,3,2024-06-16T09:06:17.126Z,english_455.wav,0,1,159,25,4,chinese,m,2,0.2,-59.31201859,1.53057992
WZL_1701,180,3,2024-06-16T09:06:17.126Z,english_455.wav,0,1,159,25,4,chinese,m,3,0.3,40.79603426,0.62599766
WZL_1701,180,3,2024-06-16T09:06:17.126Z,english_455.wav,0,1,159,25,4,chinese,m,4,0.32341667,-39.30035714,1.43054244
WZL_1701,181,3,2024-06-16T09:06:17.126Z,english_798.wav,0,1,1455,25,4,chinese,m,0,0,-16.40769998,1.85457914
WZL_1701,181,3,2024-06-16T09:06:17.126Z,english_798.wav,0,1,1455,25,4,chinese,m,1,0.1,3.00381127,1.50219522
WZL_1701,181,3,2024-06-16T09:06:17.126Z,english_798.wav,0,1,1455,25,4,chinese,m,2,0.2,-31.24410556,0.78751403
WZL_1701,181,3,2024-06-16T09:06:17.126Z,english_798.wav,0,1,1455,25,4,chinese,m,3,0.3,-53.27973877,1.17339142
WZL_1701,181,3,2024-06-16T09:06:17.126Z,english_798.wav,0,1,1455,25,4,chinese,m,4,0.32341667,91.43563813,1.30184409
WZL_1701,182,3,2024-06-16T09:06:17.126Z,english_947.wav,0,1,3511,25,4,chinese,m,0,0,73.13113362,0.1925557
WZL_1701,182,3,2024-06-16T09:06:17.126Z,english_947.wav,0,1,3511,25,4,chinese,m,1,0.1,-55.13077299,1.89478059
WZL_1701,182,3,2024-06-16T09:06:17.126Z,english_947.wav,0,1,3511,25,4,chinese,m,2,0.2,59.32217849,0.99662771
WZL_1701,182,3,2024-06-16T09:06:17.126Z,english_947.wav,0,1,3511,25,4,chinese,m,3,0.3,-71.25946194,0.61263341
WZL_1701,182,3,2024-06-16T09:06:17.126Z,english_947.wav,0,1,3511,25,4,chinese,m,4,0.32341667,39.2274254,0.46373334
WZL_1701,183,3,2024-06-16T09:06:17.126Z,english_968.wav,0,1,164,25,4,chinese,m,0,0,-36.76350372,0.52322451
WZL_1701,183,3,2024-06-16T09:06:17.126Z,english_968.wav,0,1,164,25,4,chinese,m,1,0.1,-99.8991193,0.66419732
WZL_1701,183,3,2024-06-16T09:06:17.126Z,english_968.wav,0,1,164,25,4,chinese,m,2,0.2,27.503089,0.44232096
