subj,trial,block,date,stim,stim_order,response,rt,age,english,language,sex,param_index,segment,pitch,stretch
JYS,0,0,2024-06-13T06:01:30.082Z,english_213.wav,0,1,5170,,,,,0,0,-29.91874444,1.42031243
JYS,0,0,2024-06-13T06:01:30.082Z,english_213.wav,0,1,5170,,,,,1,0.1,41.64704809,0.59218852
JYS,0,0,2024-06-13T06:01:30.082Z,english_213.wav,0,1,5170,,,,,2,0.2,-87.11075848,1.10576613
JYS,0,0,2024-06-13T06:01:30.082Z,english_213.wav,0,1,5170,,,,,3,0.3,-61.54877495,0.09529021
JYS,0,0,2024-06-13T06:01:30.082Z,english_213.wav,0,1,5170,,,,,4,0.32341667,-34.29429643,1.15583312
JYS,1,0,2024-06-13T06:01:30.082Z,english_179.wav,0,0,2464,,,,,0,0,76.93131114,0.23318107
JYS,1,0,2024-06-13T06:01:30.082Z,english_179.wav,0,0,2464,,,,,1,0.1,5.5150778,0.47080089
JYS,1,0,2024-06-13T06:01:30.082Z,english_179.wav,0,0,2464,,,,,2,0.2,3.89208722,1.31062884
JYS,1,0,2024-06-13T06:01:30.082Z,english_179.wav,0,0,2464,,,,,3,0.3,-8.47825544,0.27743795
JYS,1,0,2024-06-13T06:01:30.082Z,english_179.wav,0,0,2464,,,,,4,0.32341667,50.73924617,0.83516241
JYS,2,0,2024-06-13T06:01:30.082Z,english_662.wav,0,0,4563,,,,,0,0,-34.20942979,0.58122658
JYS,2,0,2024-06-13T06:01:30.082Z,english_662.wav,0,0,4563,,,,,1,0.1,-64.9220759,0.35407044
JYS,2,0,2024-06-13T06:01:30.082Z,english_662.wav,0,0,4563,,,,,2,0.2,-46.13526655,1.02300599
JYS,2,0,2024-06-13T06:01:30.082Z,english_662.wav,0,0,4563,,,,,3,0.3,16.61128262,0.09808433
JYS,2,0,2024-06-13T06:01:30.082Z,english_662.wav,0,0,4563,,,,,4,0.32341667,-72.42442326,0.71975239
JYS,3,0,2024-06-13T06:01:30.082Z,english_811.wav,0,1,2044,,,,,0,0,-51.03425556,1.55055496
JYS,3,0,2024-06-13T06:01:30.082Z,english_811.wav,0,1,2044,,,,,1,0.1,22.81695275,1.74830484
JYS,3,0,2024-06-13T06:01:30.082Z,english_811.wav,0,1,2044,,,,,2,0.2,73.06623682,1.24661488
JYS,3,0,2024-06-13T06:01:30.082Z,english_811.wav,0,1,2044,,,,,3,0.3,-9.17693151,0.09792889
JYS,3,0,2024-06-13T06:01:30.082Z,english_811.wav,0,1,2044,,,,,4,0.32341667,79.97760745,0.03735929
JYS,4,0,2024-06-13T06:01:30.082Z,english_800.wav,0,0,1630,,,,,0,0,-9.91001254,0.13142639
JYS,4,0,2024-06-13T06:01:30.082Z,english_800.wav,0,0,1630,,,,,1,0.1,-86.79409322,1.71040153
JYS,4,0,2024-06-13T06:01:30.082Z,english_800.wav,0,0,1630,,,,,2,0.2,-27.39997365,0.18637657
JYS,4,0,2024-06-13T06:01:30.082Z,english_800.wav,0,0,1630,,,,,3,0.3,13.46737707,1.09766523
JYS,4,0,2024-06-13T06:01:30.082Z,english_800.wav,0,0,1630,,,,,4,0.32341667,-32.56208711,1.57940615
JYS,5,0,2024-06-13T06:01:30.082Z,english_94.wav,0,1,1235,,,,,0,0,-78.50776969,1.58967719
JYS,5,0,2024-06-13T06:01:30.082Z,english_94.wav,0,1,1235,,,,,1,0.1,21.81048112,0.88841047
JYS,5,0,2024-06-13T06:01:30.082Z,english_94.wav,0,1,1235,,,,,2,0.2,76.78230264,1.12549424
JYS,5,0,2024-06-13T06:01:30.082Z,english_94.wav,0,1,1235,,,,,3,0.3,-35.62145712,1.80621507
JYS,5,0,2024-06-13T06:01:30.082Z,english_94.wav,0,1,1235,,,,,4,0.32341667,-71.39427505,1.00879957
JYS,6,0,2024-06-13T06:01:30.082Z,english_769.wav,0,0,1497,,,,,0,0,-12.68288087,1.59358978
JYS,6,0,2024-06-13T06:01:30.082Z,english_769.wav,0,0,1497,,,,,1,0.1,13.58895245,0.16681031
JYS,6,0,2024-06-13T06:01:30.082Z,english_769.wav,0,0,1497,,,,,2,0.2,-5.57429841,0.74292099
JYS,6,0,2024-06-13T06:01:30.082Z,english_769.wav,0,0,1497,,,,,3,0.3,-26.44516544,0.17250104
JYS,6,0,2024-06-13T06:01:30.082Z,english_769.wav,0,0,1497,,,,,4,0.32341667,85.93285426,0.16730253
JYS,7,0,2024-06-13T06:01:30.082Z,english_442.wav,0,1,2495,,,,,0,0,-5.21319176,1.35819452
JYS,7,0,2024-06-13T06:01:30.082Z,english_442.wav,0,1,2495,,,,,1,0.1,-16.23989513,1.66019663
JYS,7,0,2024-06-13T06:01:30.082Z,english_442.wav,0,1,2495,,,,,2,0.2,-36.77315909,0.51170704
JYS,7,0,2024-06-13T06:01:30.082Z,english_442.wav,0,1,2495,,,,,3,0.3,-33.51446291,1.6590932
JYS,7,0,2024-06-13T06:01:30.082Z,english_442.wav,0,1,2495,,,,,4,0.32341667,-25.07447919,0.97998973
JYS,8,0,2024-06-13T06:01:30.082Z,english_616.wav,0,1,1400,,,,,0,0,-71.12360497,0.83412473
JYS,8,0,2024-06-13T06:01:30.082Z,english_616.wav,0,1,1400,,,,,1,0.1,55.35355355,1.49185731
JYS,8,0,2024-06-13T06:01:30.082Z,english_616.wav,0,1,1400,,,,,2,0.2,-15.85026512,1.32170209
JYS,8,0,2024-06-13T06:01:30.082Z,english_616.wav,0,1,1400,,,,,3,0.3,-22.60587367,0.90458331
JYS,8,0,2024-06-13T06:01:30.082Z,english_616.wav,0,1,1400,,,,,4,0.32341667,-45.64131884,1.17134835
JYS,9,0,2024-06-13T06:01:30.082Z,english_915.wav,0,0,1148,,,,,0,0,40.39704719,0.11203387
JYS,9,0,2024-06-13T06:01:30.082Z,english_915.wav,0,0,1148,,,,,1,0.1,-77.86782689,0.449249
JYS,9,0,2024-06-13T06:01:30.082Z,english_915.wav,0,0,1148,,,,,2,0.2,21.84672988,0.02407483
JYS,9,0,2024-06-13T06:01:30.082Z,english_915.wav,0,0,1148,,,,,3,0.3,-56.0972156,1.6502756
JYS,9,0,2024-06-13T06:01:30.082Z,english_915.wav,0,0,1148,,,,,4,0.32341667,65.00594456,0.65362707
JYS,10,0,2024-06-13T06:01:30.082Z,english_407.wav,0,1,1022,,,,,0,0,-13.68776922,0.77658743
JYS,10,0,2024-06-13T06:01:30.082Z,english_407.wav,0,1,1022,,,,,1,0.1,-57.11899702,1.53398674
JYS,10,0,2024-06-13T06:01:30.082Z,english_407.wav,0,1,1022,,,,,2,0.2,62.94325807,0.70379875
JYS,10,0,2024-06-13T06:01:30.082Z,english_407.wav,0,1,1022,,,,,3,0.3,-27.77030003,0.72470084
JYS,10,0,2024-06-13T06:01:30.082Z,english_407.wav,0,1,1022,,,,,4,0.32341667,-61.90605897,0.771678
JYS,11,0,2024-06-13T06:01:30.082Z,english_266.wav,0,1,980,,,,,0,0,16.70772117,0.81064175
JYS,11,0,2024-06-13T06:01:30.082Z,english_266.wav,0,1,980,,,,,1,0.1,-61.82971906,1.48442032
JYS,11,0,2024-06-13T06:01:30.082Z,english_266.wav,0,1,980,,,,,2,0.2,-31.41060896,1.39445033
JYS,11,0,2024-06-13T06:01:30.082Z,english_266.wav,0,1,980,,,,,3,0.3,-8.94045194,1.01594082
JYS,11,0,2024-06-13T06:01:30.082Z,english_266.wav,0,1,980,,,,,4,0.32341667,-27.43066022,0.75934284
JYS,12,0,2024-06-13T06:01:30.082Z,english_393.wav,0,0,2552,,,,,0,0,3.63201436,1.68653621
JYS,12,0,2024-06-13T06:01:30.082Z,english_393.wav,0,0,2552,,,,,1,0.1,64.52667935,0.22518435
JYS,12,0,2024-06-13T06:01:30.082Z,english_393.wav,0,0,2552,,,,,2,0.2,-51.23523019,0.07728703
JYS,12,0,2024-06-13T06:01:30.082Z,english_393.wav,0,0,2552,,,,,3,0.3,-89.75219839,0.70962284
JYS,12,0,2024-06-13T06:01:30.082Z,english_393.wav,0,0,2552,,,,,4,0.32341667,-66.06218428,0.7432397
JYS,13,0,2024-06-13T06:01:30.082Z,english_309.wav,0,0,1403,,,,,0,0,59.8258624,0.58100331
JYS,13,0,2024-06-13T06:01:30.082Z,english_309.wav,0,0,1403,,,,,1,0.1,73.70427758,0.81024997
JYS,13,0,2024-06-13T06:01:30.082Z,english_309.wav,0,0,1403,,,,,2,0.2,-8.71125849,0.10827203
JYS,13,0,2024-06-13T06:01:30.082Z,english_309.wav,0,0,1403,,,,,3,0.3,-86.6882155,0.09670208
JYS,13,0,2024-06-13T06:01:30.082Z,english_309.wav,0,0,1403,,,,,4,0.32341667,-90.77340978,1.53063904
JYS,14,0,2024-06-13T06:01:30.082Z,english_21.wav,0,1,1927,,,,,0,0,-21.85116114,1.17417274
JYS,14,0,2024-06-13T06:01:30.082Z,english_21.wav,0,1,1927,,,,,1,0.1,-94.69976897,0.84289237
JYS,14,0,2024-06-13T06:01:30.082Z,english_21.wav,0,1,1927,,,,,2,0.2,59.00053046,1.58737119
JYS,14,0,2024-06-13T06:01:30.082Z,english_21.wav,0,1,1927,,,,,3,0.3,-81.44868512,0.70500889
JYS,14,0,2024-06-13T06:01:30.082Z,english_21.wav,0,1,1927,,,,,4,0.32341667,-68.72650823,1.41810016
JYS,15,0,2024-06-13T06:01:30.082Z,english_271.wav,0,1,1245,,,,,0,0,24.41564841,0.25667552
JYS,15,0,2024-06-13T06:01:30.082Z,english_271.wav,0,1,1245,,,,,1,0.1,-64.42577909,1.20221217
JYS,15,0,2024-06-13T06:01:30.082Z,english_271.wav,0,1,1245,,,,,2,0.2,32.27025317,0.24658485
JYS,15,0,2024-06-13T06:01:30.082Z,english_271.wav,0,1,1245,,,,,3,0.3,58.71212772,1.57844265
JYS,15,0,2024-06-13T06:01:30.082Z,english_271.wav,0,1,1245,,,,,4,0.32341667,46.7300547,1.00400066
JYS,16,0,2024-06-13T06:01:30.082Z,english_768.wav,0,0,4566,,,,,0,0,-28.93145359,1.5002074
JYS,16,0,2024-06-13T06:01:30.082Z,english_768.wav,0,0,4566,,,,,1,0.1,59.49166151,1.15432208
JYS,16,0,2024-06-13T06:01:30.082Z,english_768.wav,0,0,4566,,,,,2,0.2,41.87955621,0.01731471
JYS,16,0,2024-06-13T06:01:30.082Z,english_768.wav,0,0,4566,,,,,3,0.3,-92.17589111,0.98337229
JYS,16,0,2024-06-13T06:01:30.082Z,english_768.wav,0,0,4566,,,,,4,0.32341667,15.2364545,0.4381055
JYS,17,0,2024-06-13T06:01:30.082Z,english_557.wav,0,1,1203,,,,,0,0,43.94308994,0.38165316
JYS,17,0,2024-06-13T06:01:30.082Z,english_557.wav,0,1,1203,,,,,1,0.1,84.77773598,1.19567933
JYS,17,0,2024-06-13T06:01:30.082Z,english_557.wav,0,1,1203,,,,,2,0.2,-14.75143777,1.35103773
JYS,17,0,2024-06-13T06:01:30.082Z,english_557.wav,0,1,1203,,,,,3,0.3,-37.76141322,1.69174007
JYS,17,0,2024-06-13T06:01:30.082Z,english_557.wav,0,1,1203,,,,,4,0.32341667,-5.99076179,0.4334092
JYS,18,0,2024-06-13T06:01:30.082Z,english_86.wav,0,1,991,,,,,0,0,-48.59393833,1.45450552
JYS,18,0,2024-06-13T06:01:30.082Z,english_86.wav,0,1,991,,,,,1,0.1,77.37095157,1.8635573
JYS,18,0,2024-06-13T06:01:30.082Z,english_86.wav,0,1,991,,,,,2,0.2,44.19816726,1.174515
JYS,18,0,2024-06-13T06:01:30.082Z,english_86.wav,0,1,991,,,,,3,0.3,-99.780271,1.46785746
JYS,18,0,2024-06-13T06:01:30.082Z,english_86.wav,0,1,991,,,,,4,0.32341667,38.96545556,0.99607158
JYS,19,0,2024-06-13T06:01:30.082Z,english_262.wav,0,1,1099,,,,,0,0,-55.0240476,0.91992097
JYS,19,0,2024-06-13T06:01:30.082Z,english_262.wav,0,1,1099,,,,,1,0.1,46.31562141,0.94194362
JYS,19,0,2024-06-13T06:01:30.082Z,english_262.wav,0,1,1099,,,,,2,0.2,62.5855756,1.80305422
JYS,19,0,2024-06-13T06:01:30.082Z,english_262.wav,0,1,1099,,,,,3,0.3,-4.25909078,0.51544707
JYS,19,0,2024-06-13T06:01:30.082Z,english_262.wav,0,1,1099,,,,,4,0.32341667,16.27030636,1.47198659
JYS,20,0,2024-06-13T06:01:30.082Z,english_151.wav,0,1,760,,,,,0,0,-8.78950662,1.36403682
JYS,20,0,2024-06-13T06:01:30.082Z,english_151.wav,0,1,760,,,,,1,0.1,-1.70650264,1.76375426
JYS,20,0,2024-06-13T06:01:30.082Z,english_151.wav,0,1,760,,,,,2,0.2,-17.50286784,1.43087438
JYS,20,0,2024-06-13T06:01:30.082Z,english_151.wav,0,1,760,,,,,3,0.3,88.78233286,1.18017331
JYS,20,0,2024-06-13T06:01:30.082Z,english_151.wav,0,1,760,,,,,4,0.32341667,55.08117545,1.30400061
JYS,21,0,2024-06-13T06:01:30.082Z,english_156.wav,0,1,1044,,,,,0,0,93.86570948,0.27803573
JYS,21,0,2024-06-13T06:01:30.082Z,english_156.wav,0,1,1044,,,,,1,0.1,63.74639013,0.76121308
JYS,21,0,2024-06-13T06:01:30.082Z,english_156.wav,0,1,1044,,,,,2,0.2,-97.10775444,0.98438609
JYS,21,0,2024-06-13T06:01:30.082Z,english_156.wav,0,1,1044,,,,,3,0.3,99.76737427,0.34877861
JYS,21,0,2024-06-13T06:01:30.082Z,english_156.wav,0,1,1044,,,,,4,0.32341667,11.29868277,0.58154428
JYS,22,0,2024-06-13T06:01:30.082Z,english_831.wav,0,1,939,,,,,0,0,-7.33710711,1.53159971
JYS,22,0,2024-06-13T06:01:30.082Z,english_831.wav,0,1,939,,,,,1,0.1,-87.69782071,1.22669962
JYS,22,0,2024-06-13T06:01:30.082Z,english_831.wav,0,1,939,,,,,2,0.2,34.03975531,0.70180407
JYS,22,0,2024-06-13T06:01:30.082Z,english_831.wav,0,1,939,,,,,3,0.3,-2.18295653,1.02244347
JYS,22,0,2024-06-13T06:01:30.082Z,english_831.wav,0,1,939,,,,,4,0.32341667,20.908766,1.06702443
JYS,23,0,2024-06-13T06:01:30.082Z,english_34.wav,0,1,915,,,,,0,0,-48.07924103,1.44836266
JYS,23,0,2024-06-13T06:01:30.082Z,english_34.wav,0,1,915,,,,,1,0.1,-64.84739183,1.89580324
JYS,23,0,2024-06-13T06:01:30.082Z,english_34.wav,0,1,915,,,,,2,0.2,-20.81716265,0.64308549
JYS,23,0,2024-06-13T06:01:30.082Z,english_34.wav,0,1,915,,,,,3,0.3,91.13652067,0.0848332
JYS,23,0,2024-06-13T06:01:30.082Z,english_34.wav,0,1,915,,,,,4,0.32341667,-54.46543937,0.8036564
JYS,24,0,2024-06-13T06:01:30.082Z,english_8.wav,0,1,1380,,,,,0,0,-11.83025711,1.51300734
JYS,24,0,2024-06-13T06:01:30.082Z,english_8.wav,0,1,1380,,,,,1,0.1,8.7470631,0.24000547
JYS,24,0,2024-06-13T06:01:30.082Z,english_8.wav,0,1,1380,,,,,2,0.2,-15.41843982,1.17952525
JYS,24,0,2024-06-13T06:01:30.082Z,english_8.wav,0,1,1380,,,,,3,0.3,-87.7437633,1.57032258
JYS,24,0,2024-06-13T06:01:30.082Z,english_8.wav,0,1,1380,,,,,4,0.32341667,-40.85253846,0.7584977
JYS,25,0,2024-06-13T06:01:30.082Z,english_139.wav,0,1,961,,,,,0,0,55.35526281,1.40478417
JYS,25,0,2024-06-13T06:01:30.082Z,english_139.wav,0,1,961,,,,,1,0.1,-66.48550036,1.12007301
JYS,25,0,2024-06-13T06:01:30.082Z,english_139.wav,0,1,961,,,,,2,0.2,21.45340352,1.58559909
JYS,25,0,2024-06-13T06:01:30.082Z,english_139.wav,0,1,961,,,,,3,0.3,-32.80413748,1.13081383
JYS,25,0,2024-06-13T06:01:30.082Z,english_139.wav,0,1,961,,,,,4,0.32341667,-77.32206638,0.38560717
JYS,26,0,2024-06-13T06:01:30.082Z,english_934.wav,0,1,882,,,,,0,0,48.23169593,1.38760579
JYS,26,0,2024-06-13T06:01:30.082Z,english_934.wav,0,1,882,,,,,1,0.1,42.81145804,1.74622613
JYS,26,0,2024-06-13T06:01:30.082Z,english_934.wav,0,1,882,,,,,2,0.2,79.06411095,0.2874918
JYS,26,0,2024-06-13T06:01:30.082Z,english_934.wav,0,1,882,,,,,3,0.3,69.44528076,1.61606763
JYS,26,0,2024-06-13T06:01:30.082Z,english_934.wav,0,1,882,,,,,4,0.32341667,88.54940569,1.62058381
JYS,27,0,2024-06-13T06:01:30.082Z,english_175.wav,0,0,3282,,,,,0,0,-88.83902874,0.00773228
JYS,27,0,2024-06-13T06:01:30.082Z,english_175.wav,0,0,3282,,,,,1,0.1,8.60564456,1.6431495
JYS,27,0,2024-06-13T06:01:30.082Z,english_175.wav,0,0,3282,,,,,2,0.2,7.189218,0.24882977
JYS,27,0,2024-06-13T06:01:30.082Z,english_175.wav,0,0,3282,,,,,3,0.3,-2.31675389,1.20663028
JYS,27,0,2024-06-13T06:01:30.082Z,english_175.wav,0,0,3282,,,,,4,0.32341667,-21.56803319,0.57172188
JYS,28,0,2024-06-13T06:01:30.082Z,english_4.wav,0,1,940,,,,,0,0,97.57442054,1.3122383
JYS,28,0,2024-06-13T06:01:30.082Z,english_4.wav,0,1,940,,,,,1,0.1,57.41970729,1.27661748
JYS,28,0,2024-06-13T06:01:30.082Z,english_4.wav,0,1,940,,,,,2,0.2,32.67065062,1.16138222
JYS,28,0,2024-06-13T06:01:30.082Z,english_4.wav,0,1,940,,,,,3,0.3,34.06011343,0.34510216
JYS,28,0,2024-06-13T06:01:30.082Z,english_4.wav,0,1,940,,,,,4,0.32341667,83.59797788,1.84938224
JYS,29,0,2024-06-13T06:01:30.082Z,english_93.wav,0,1,1424,,,,,0,0,-63.58558414,0.84265136
JYS,29,0,2024-06-13T06:01:30.082Z,english_93.wav,0,1,1424,,,,,1,0.1,47.93190562,0.45441634
JYS,29,0,2024-06-13T06:01:30.082Z,english_93.wav,0,1,1424,,,,,2,0.2,74.1463043,1.33476805
JYS,29,0,2024-06-13T06:01:30.082Z,english_93.wav,0,1,1424,,,,,3,0.3,46.42515129,0.61821532
JYS,29,0,2024-06-13T06:01:30.082Z,english_93.wav,0,1,1424,,,,,4,0.32341667,-19.17332826,1.94889868
JYS,30,0,2024-06-13T06:01:30.082Z,english_31.wav,0,1,820,,,,,0,0,21.28810337,1.2057056
JYS,30,0,2024-06-13T06:01:30.082Z,english_31.wav,0,1,820,,,,,1,0.1,68.821868,0.99381392
JYS,30,0,2024-06-13T06:01:30.082Z,english_31.wav,0,1,820,,,,,2,0.2,-73.02143346,0.87600828
JYS,30,0,2024-06-13T06:01:30.082Z,english_31.wav,0,1,820,,,,,3,0.3,68.60173581,1.15844697
JYS,30,0,2024-06-13T06:01:30.082Z,english_31.wav,0,1,820,,,,,4,0.32341667,51.47999234,1.3722803
JYS,31,0,2024-06-13T06:01:30.082Z,english_428.wav,0,1,1508,,,,,0,0,-98.34466569,1.83106884
JYS,31,0,2024-06-13T06:01:30.082Z,english_428.wav,0,1,1508,,,,,1,0.1,-10.51162175,1.34345266
JYS,31,0,2024-06-13T06:01:30.082Z,english_428.wav,0,1,1508,,,,,2,0.2,97.93427859,0.65853672
JYS,31,0,2024-06-13T06:01:30.082Z,english_428.wav,0,1,1508,,,,,3,0.3,35.61870537,1.28105878
JYS,31,0,2024-06-13T06:01:30.082Z,english_428.wav,0,1,1508,,,,,4,0.32341667,-12.49352836,0.15324236
JYS,32,0,2024-06-13T06:01:30.082Z,english_382.wav,0,1,530,,,,,0,0,-83.35497559,1.24516413
JYS,32,0,2024-06-13T06:01:30.082Z,english_382.wav,0,1,530,,,,,1,0.1,7.83115402,0.59675254
JYS,32,0,2024-06-13T06:01:30.082Z,english_382.wav,0,1,530,,,,,2,0.2,77.46115257,0.61036026
JYS,32,0,2024-06-13T06:01:30.082Z,english_382.wav,0,1,530,,,,,3,0.3,89.755233,1.95554414
JYS,32,0,2024-06-13T06:01:30.082Z,english_382.wav,0,1,530,,,,,4,0.32341667,-36.08570956,1.60845727
JYS,33,0,2024-06-13T06:01:30.082Z,english_898.wav,0,1,777,,,,,0,0,77.23607787,0.41308158
JYS,33,0,2024-06-13T06:01:30.082Z,english_898.wav,0,1,777,,,,,1,0.1,-36.99854877,1.59324842
JYS,33,0,2024-06-13T06:01:30.082Z,english_898.wav,0,1,777,,,,,2,0.2,16.09723403,1.42339693
JYS,33,0,2024-06-13T06:01:30.082Z,english_898.wav,0,1,777,,,,,3,0.3,29.12208023,1.17478291
JYS,33,0,2024-06-13T06:01:30.082Z,english_898.wav,0,1,777,,,,,4,0.32341667,-69.45423228,1.88393163
JYS,34,0,2024-06-13T06:01:30.082Z,english_252.wav,0,1,1894,,,,,0,0,79.75601627,0.77799761
JYS,34,0,2024-06-13T06:01:30.082Z,english_252.wav,0,1,1894,,,,,1,0.1,17.00183399,1.07711339
JYS,34,0,2024-06-13T06:01:30.082Z,english_252.wav,0,1,1894,,,,,2,0.2,-25.42800597,0.7917181
JYS,34,0,2024-06-13T06:01:30.082Z,english_252.wav,0,1,1894,,,,,3,0.3,-47.65138194,1.47632881
JYS,34,0,2024-06-13T06:01:30.082Z,english_252.wav,0,1,1894,,,,,4,0.32341667,35.10652067,1.65919103
JYS,35,0,2024-06-13T06:01:30.082Z,english_731.wav,0,1,1005,,,,,0,0,91.74609406,0.2840719
JYS,35,0,2024-06-13T06:01:30.082Z,english_731.wav,0,1,1005,,,,,1,0.1,96.5637085,1.75324284
JYS,35,0,2024-06-13T06:01:30.082Z,english_731.wav,0,1,1005,,,,,2,0.2,-58.02596537,1.43086201
JYS,35,0,2024-06-13T06:01:30.082Z,english_731.wav,0,1,1005,,,,,3,0.3,21.59328018,1.68336342
JYS,35,0,2024-06-13T06:01:30.082Z,english_731.wav,0,1,1005,,,,,4,0.32341667,13.26044458,0.60031718
JYS,36,0,2024-06-13T06:01:30.082Z,english_570.wav,0,1,809,,,,,0,0,79.72420881,1.67561776
JYS,36,0,2024-06-13T06:01:30.082Z,english_570.wav,0,1,809,,,,,1,0.1,-10.34227762,1.50139893
JYS,36,0,2024-06-13T06:01:30.082Z,english_570.wav,0,1,809,,,,,2,0.2,18.32754659,1.41834695
JYS,36,0,2024-06-13T06:01:30.082Z,english_570.wav,0,1,809,,,,,3,0.3,15.23919529,1.12876239
JYS,36,0,2024-06-13T06:01:30.082Z,english_570.wav,0,1,809,,,,,4,0.32341667,-28.05357781,0.72546523
JYS,37,0,2024-06-13T06:01:30.082Z,english_999.wav,0,0,2062,,,,,0,0,-43.88463807,1.5561212
JYS,37,0,2024-06-13T06:01:30.082Z,english_999.wav,0,0,2062,,,,,1,0.1,-19.69329198,1.76032244
JYS,37,0,2024-06-13T06:01:30.082Z,english_999.wav,0,0,2062,,,,,2,0.2,-16.47401585,0.67323911
JYS,37,0,2024-06-13T06:01:30.082Z,english_999.wav,0,0,2062,,,,,3,0.3,-27.91485083,0.0725875
JYS,37,0,2024-06-13T06:01:30.082Z,english_999.wav,0,0,2062,,,,,4,0.32341667,-38.65265262,0.89314247
JYS,38,0,2024-06-13T06:01:30.082Z,english_646.wav,0,1,942,,,,,0,0,65.65927644,1.85038449
JYS,38,0,2024-06-13T06:01:30.082Z,english_646.wav,0,1,942,,,,,1,0.1,-31.23211399,1.10748568
JYS,38,0,2024-06-13T06:01:30.082Z,english_646.wav,0,1,942,,,,,2,0.2,62.59110385,1.14052106
JYS,38,0,2024-06-13T06:01:30.082Z,english_646.wav,0,1,942,,,,,3,0.3,-86.43369357,1.38971404
JYS,38,0,2024-06-13T06:01:30.082Z,english_646.wav,0,1,942,,,,,4,0.32341667,41.84315348,0.49971738
JYS,39,0,2024-06-13T06:01:30.082Z,english_82.wav,0,0,4056,,,,,0,0,-21.02351082,0.76668052
JYS,39,0,2024-06-13T06:01:30.082Z,english_82.wav,0,0,4056,,,,,1,0.1,1.53612588,0.94640395
JYS,39,0,2024-06-13T06:01:30.082Z,english_82.wav,0,0,4056,,,,,2,0.2,82.9198569,1.02754902
JYS,39,0,2024-06-13T06:01:30.082Z,english_82.wav,0,0,4056,,,,,3,0.3,67.34737065,1.57368428
JYS,39,0,2024-06-13T06:01:30.082Z,english_82.wav,0,0,4056,,,,,4,0.32341667,-34.9418752,0.67195212
JYS,40,0,2024-06-13T06:01:30.082Z,english_403.wav,0,1,1560,,,,,0,0,-92.65414009,1.93574734
JYS,40,0,2024-06-13T06:01:30.082Z,english_403.wav,0,1,1560,,,,,1,0.1,75.99659731,0.36447309
JYS,40,0,2024-06-13T06:01:30.082Z,english_403.wav,0,1,1560,,,,,2,0.2,-27.37801557,1.02888701
JYS,40,0,2024-06-13T06:01:30.082Z,english_403.wav,0,1,1560,,,,,3,0.3,-80.04540334,0.02385722
JYS,40,0,2024-06-13T06:01:30.082Z,english_403.wav,0,1,1560,,,,,4,0.32341667,30.50648557,1.40553938
JYS,41,0,2024-06-13T06:01:30.082Z,english_818.wav,0,0,2563,,,,,0,0,88.49542613,1.4873036
JYS,41,0,2024-06-13T06:01:30.082Z,english_818.wav,0,0,2563,,,,,1,0.1,-7.37005163,1.25102077
JYS,41,0,2024-06-13T06:01:30.082Z,english_818.wav,0,0,2563,,,,,2,0.2,-1.58613611,0.80764036
JYS,41,0,2024-06-13T06:01:30.082Z,english_818.wav,0,0,2563,,,,,3,0.3,-69.41222379,0.80656775
JYS,41,0,2024-06-13T06:01:30.082Z,english_818.wav,0,0,2563,,,,,4,0.32341667,14.01707612,1.41859799
JYS,42,0,2024-06-13T06:01:30.082Z,english_927.wav,0,0,3434,,,,,0,0,81.66311017,1.3783001
JYS,42,0,2024-06-13T06:01:30.082Z,english_927.wav,0,0,3434,,,,,1,0.1,0.87570902,0.51323502
JYS,42,0,2024-06-13T06:01:30.082Z,english_927.wav,0,0,3434,,,,,2,0.2,-59.21619647,0.98265958
JYS,42,0,2024-06-13T06:01:30.082Z,english_927.wav,0,0,3434,,,,,3,0.3,-57.6787773,0.30790993
JYS,42,0,2024-06-13T06:01:30.082Z,english_927.wav,0,0,3434,,,,,4,0.32341667,-30.87043146,1.17222751
JYS,43,0,2024-06-13T06:01:30.082Z,english_909.wav,0,1,761,,,,,0,0,-19.4205152,0.17681169
JYS,43,0,2024-06-13T06:01:30.082Z,english_909.wav,0,1,761,,,,,1,0.1,-31.830868,1.02014656
JYS,43,0,2024-06-13T06:01:30.082Z,english_909.wav,0,1,761,,,,,2,0.2,71.05598051,1.59945112
JYS,43,0,2024-06-13T06:01:30.082Z,english_909.wav,0,1,761,,,,,3,0.3,-13.09259164,1.33685121
JYS,43,0,2024-06-13T06:01:30.082Z,english_909.wav,0,1,761,,,,,4,0.32341667,-99.47743822,0.41114962
JYS,44,0,2024-06-13T06:01:30.082Z,english_814.wav,0,1,3774,,,,,0,0,-63.32480856,1.93717082
JYS,44,0,2024-06-13T06:01:30.082Z,english_814.wav,0,1,3774,,,,,1,0.1,34.42157774,0.66627456
JYS,44,0,2024-06-13T06:01:30.082Z,english_814.wav,0,1,3774,,,,,2,0.2,-1.27362148,1.33718687
JYS,44,0,2024-06-13T06:01:30.082Z,english_814.wav,0,1,3774,,,,,3,0.3,11.18388565,1.12749716
JYS,44,0,2024-06-13T06:01:30.082Z,english_814.wav,0,1,3774,,,,,4,0.32341667,-9.56708644,0.66623879
JYS,45,0,2024-06-13T06:01:30.082Z,english_396.wav,0,1,2480,,,,,0,0,2.39126912,1.48231007
JYS,45,0,2024-06-13T06:01:30.082Z,english_396.wav,0,1,2480,,,,,1,0.1,-38.95035948,0.85829723
JYS,45,0,2024-06-13T06:01:30.082Z,english_396.wav,0,1,2480,,,,,2,0.2,78.31320688,1.16655306
JYS,45,0,2024-06-13T06:01:30.082Z,english_396.wav,0,1,2480,,,,,3,0.3,16.98024706,0.51680164
JYS,45,0,2024-06-13T06:01:30.082Z,english_396.wav,0,1,2480,,,,,4,0.32341667,44.66397079,1.5133775
JYS,46,0,2024-06-13T06:01:30.082Z,english_694.wav,0,0,1360,,,,,0,0,-79.88370205,0.99496101
JYS,46,0,2024-06-13T06:01:30.082Z,english_694.wav,0,0,1360,,,,,1,0.1,-58.02841319,0.06406007
JYS,46,0,2024-06-13T06:01:30.082Z,english_694.wav,0,0,1360,,,,,2,0.2,-50.54988317,0.5055253
JYS,46,0,2024-06-13T06:01:30.082Z,english_694.wav,0,0,1360,,,,,3,0.3,-20.79864769,0.19498426
JYS,46,0,2024-06-13T06:01:30.082Z,english_694.wav,0,0,1360,,,,,4,0.32341667,-73.64916114,0.36410653
JYS,47,0,2024-06-13T06:01:30.082Z,english_760.wav,0,1,818,,,,,0,0,24.3902693,0.67210823
JYS,47,0,2024-06-13T06:01:30.082Z,english_760.wav,0,1,818,,,,,1,0.1,-0.0247174936,1.89588113
JYS,47,0,2024-06-13T06:01:30.082Z,english_760.wav,0,1,818,,,,,2,0.2,82.8662613,0.23432987
JYS,47,0,2024-06-13T06:01:30.082Z,english_760.wav,0,1,818,,,,,3,0.3,-7.97314524,1.20797246
JYS,47,0,2024-06-13T06:01:30.082Z,english_760.wav,0,1,818,,,,,4,0.323416667,-6.32438983,1.72866971
JYS,48,0,2024-06-13T06:01:30.082Z,english_254.wav,0,1,987,,,,,0,0,-9.19838866,1.99657173
JYS,48,0,2024-06-13T06:01:30.082Z,english_254.wav,0,1,987,,,,,1,0.1,15.86633291,1.39044581
JYS,48,0,2024-06-13T06:01:30.082Z,english_254.wav,0,1,987,,,,,2,0.2,-42.67167238,1.09933375
JYS,48,0,2024-06-13T06:01:30.082Z,english_254.wav,0,1,987,,,,,3,0.3,-11.53254556,0.78821302
JYS,48,0,2024-06-13T06:01:30.082Z,english_254.wav,0,1,987,,,,,4,0.32341667,-12.27536806,0.39297423
JYS,49,0,2024-06-13T06:01:30.082Z,english_340.wav,0,1,987,,,,,0,0,42.62794877,1.44385011
JYS,49,0,2024-06-13T06:01:30.082Z,english_340.wav,0,1,987,,,,,1,0.1,67.09042835,1.29329602
JYS,49,0,2024-06-13T06:01:30.082Z,english_340.wav,0,1,987,,,,,2,0.2,-80.28719593,1.71068781
JYS,49,0,2024-06-13T06:01:30.082Z,english_340.wav,0,1,987,,,,,3,0.3,-47.97556268,0.48872717
JYS,49,0,2024-06-13T06:01:30.082Z,english_340.wav,0,1,987,,,,,4,0.32341667,32.7013797,1.09000269
JYS,50,1,2024-06-13T06:01:30.082Z,english_147.wav,0,0,2564,,,,,0,0,-14.37625717,1.08714974
JYS,50,1,2024-06-13T06:01:30.082Z,english_147.wav,0,0,2564,,,,,1,0.1,-48.99147792,1.05600262
JYS,50,1,2024-06-13T06:01:30.082Z,english_147.wav,0,0,2564,,,,,2,0.2,-76.025031,0.62193731
JYS,50,1,2024-06-13T06:01:30.082Z,english_147.wav,0,0,2564,,,,,3,0.3,-4.271985,1.23272935
JYS,50,1,2024-06-13T06:01:30.082Z,english_147.wav,0,0,2564,,,,,4,0.32341667,90.36670579,0.90867663
JYS,51,1,2024-06-13T06:01:30.082Z,english_296.wav,0,1,2144,,,,,0,0,-4.92142852,1.99305172
JYS,51,1,2024-06-13T06:01:30.082Z,english_296.wav,0,1,2144,,,,,1,0.1,-5.74196289,0.92633133
JYS,51,1,2024-06-13T06:01:30.082Z,english_296.wav,0,1,2144,,,,,2,0.2,76.26647078,0.44879969
JYS,51,1,2024-06-13T06:01:30.082Z,english_296.wav,0,1,2144,,,,,3,0.3,-62.74030654,1.47417428
JYS,51,1,2024-06-13T06:01:30.082Z,english_296.wav,0,1,2144,,,,,4,0.32341667,-60.661992,1.05571007
JYS,52,1,2024-06-13T06:01:30.082Z,english_654.wav,0,1,1190,,,,,0,0,-97.13147194,0.91673578
JYS,52,1,2024-06-13T06:01:30.082Z,english_654.wav,0,1,1190,,,,,1,0.1,-81.37819023,1.23280851
JYS,52,1,2024-06-13T06:01:30.082Z,english_654.wav,0,1,1190,,,,,2,0.2,51.48571278,1.64688363
JYS,52,1,2024-06-13T06:01:30.082Z,english_654.wav,0,1,1190,,,,,3,0.3,54.00949099,1.75994168
JYS,52,1,2024-06-13T06:01:30.082Z,english_654.wav,0,1,1190,,,,,4,0.32341667,-95.1633683,0.20104411
JYS,53,1,2024-06-13T06:01:30.082Z,english_853.wav,0,0,2403,,,,,0,0,87.83319324,0.81037323
JYS,53,1,2024-06-13T06:01:30.082Z,english_853.wav,0,0,2403,,,,,1,0.1,64.16710312,1.2495933
JYS,53,1,2024-06-13T06:01:30.082Z,english_853.wav,0,0,2403,,,,,2,0.2,12.98667351,0.22916278
JYS,53,1,2024-06-13T06:01:30.082Z,english_853.wav,0,0,2403,,,,,3,0.3,25.03434444,0.67764146
JYS,53,1,2024-06-13T06:01:30.082Z,english_853.wav,0,0,2403,,,,,4,0.32341667,98.3458188,0.13807639
JYS,54,1,2024-06-13T06:01:30.082Z,english_165.wav,0,1,1419,,,,,0,0,-65.85966689,0.99094124
JYS,54,1,2024-06-13T06:01:30.082Z,english_165.wav,0,1,1419,,,,,1,0.1,57.4210377,1.25140592
JYS,54,1,2024-06-13T06:01:30.082Z,english_165.wav,0,1,1419,,,,,2,0.2,-53.4891742,1.66606931
JYS,54,1,2024-06-13T06:01:30.082Z,english_165.wav,0,1,1419,,,,,3,0.3,-32.80877015,0.56557264
JYS,54,1,2024-06-13T06:01:30.082Z,english_165.wav,0,1,1419,,,,,4,0.32341667,-23.63509804,1.31427626
JYS,55,1,2024-06-13T06:01:30.082Z,english_795.wav,0,1,1881,,,,,0,0,39.36518311,1.47453336
JYS,55,1,2024-06-13T06:01:30.082Z,english_795.wav,0,1,1881,,,,,1,0.1,16.50141431,0.29075574
JYS,55,1,2024-06-13T06:01:30.082Z,english_795.wav,0,1,1881,,,,,2,0.2,54.87860026,1.88174141
JYS,55,1,2024-06-13T06:01:30.082Z,english_795.wav,0,1,1881,,,,,3,0.3,61.09971909,0.27471403
JYS,55,1,2024-06-13T06:01:30.082Z,english_795.wav,0,1,1881,,,,,4,0.32341667,4.28490532,0.11399574
JYS,56,1,2024-06-13T06:01:30.082Z,english_307.wav,0,0,906,,,,,0,0,-38.93106299,1.91951228
JYS,56,1,2024-06-13T06:01:30.082Z,english_307.wav,0,0,906,,,,,1,0.1,-30.40144858,0.50419792
JYS,56,1,2024-06-13T06:01:30.082Z,english_307.wav,0,0,906,,,,,2,0.2,2.19081651,0.76602689
JYS,56,1,2024-06-13T06:01:30.082Z,english_307.wav,0,0,906,,,,,3,0.3,30.82741361,0.59904457
JYS,56,1,2024-06-13T06:01:30.082Z,english_307.wav,0,0,906,,,,,4,0.32341667,46.9007513,1.94941235
JYS,57,1,2024-06-13T06:01:30.082Z,english_23.wav,0,0,1801,,,,,0,0,-50.80982819,0.58244855
JYS,57,1,2024-06-13T06:01:30.082Z,english_23.wav,0,0,1801,,,,,1,0.1,76.10516215,1.77510268
JYS,57,1,2024-06-13T06:01:30.082Z,english_23.wav,0,0,1801,,,,,2,0.2,-90.32463898,0.60847707
JYS,57,1,2024-06-13T06:01:30.082Z,english_23.wav,0,0,1801,,,,,3,0.3,15.76928166,0.62114149
JYS,57,1,2024-06-13T06:01:30.082Z,english_23.wav,0,0,1801,,,,,4,0.32341667,-7.56392806,1.60162938
JYS,58,1,2024-06-13T06:01:30.082Z,english_288.wav,0,1,1122,,,,,0,0,35.15100251,1.01330681
JYS,58,1,2024-06-13T06:01:30.082Z,english_288.wav,0,1,1122,,,,,1,0.1,49.55485069,0.90213232
JYS,58,1,2024-06-13T06:01:30.082Z,english_288.wav,0,1,1122,,,,,2,0.2,28.604189,1.8181607
JYS,58,1,2024-06-13T06:01:30.082Z,english_288.wav,0,1,1122,,,,,3,0.3,38.59633835,1.82579698
JYS,58,1,2024-06-13T06:01:30.082Z,english_288.wav,0,1,1122,,,,,4,0.32341667,-98.9026904,0.14571105
JYS,59,1,2024-06-13T06:01:30.082Z,english_299.wav,0,1,1855,,,,,0,0,-2.55977829,0.95716625
JYS,59,1,2024-06-13T06:01:30.082Z,english_299.wav,0,1,1855,,,,,1,0.1,1.77446255,1.43363845
JYS,59,1,2024-06-13T06:01:30.082Z,english_299.wav,0,1,1855,,,,,2,0.2,-18.83457859,1.1421669
JYS,59,1,2024-06-13T06:01:30.082Z,english_299.wav,0,1,1855,,,,,3,0.3,-71.88845024,1.57148089
JYS,59,1,2024-06-13T06:01:30.082Z,english_299.wav,0,1,1855,,,,,4,0.32341667,99.76623745,1.70410623
JYS,60,1,2024-06-13T06:01:30.082Z,english_113.wav,0,1,593,,,,,0,0,8.7952765,0.51001639
JYS,60,1,2024-06-13T06:01:30.082Z,english_113.wav,0,1,593,,,,,1,0.1,91.94692023,1.45766025
JYS,60,1,2024-06-13T06:01:30.082Z,english_113.wav,0,1,593,,,,,2,0.2,-6.68088057,1.25674442
JYS,60,1,2024-06-13T06:01:30.082Z,english_113.wav,0,1,593,,,,,3,0.3,38.28142065,1.93213547
JYS,60,1,2024-06-13T06:01:30.082Z,english_113.wav,0,1,593,,,,,4,0.32341667,-37.19939988,0.45590133
JYS,61,1,2024-06-13T06:01:30.082Z,english_670.wav,0,0,1123,,,,,0,0,64.75672565,1.5535903
JYS,61,1,2024-06-13T06:01:30.082Z,english_670.wav,0,0,1123,,,,,1,0.1,85.95156369,0.12522594
JYS,61,1,2024-06-13T06:01:30.082Z,english_670.wav,0,0,1123,,,,,2,0.2,-44.32949438,0.22842632
JYS,61,1,2024-06-13T06:01:30.082Z,english_670.wav,0,0,1123,,,,,3,0.3,22.57192219,0.17636502
JYS,61,1,2024-06-13T06:01:30.082Z,english_670.wav,0,0,1123,,,,,4,0.32341667,34.74005277,0.16208776
JYS,62,1,2024-06-13T06:01:30.082Z,english_667.wav,0,1,782,,,,,0,0,-36.96649028,1.3014101
JYS,62,1,2024-06-13T06:01:30.082Z,english_667.wav,0,1,782,,,,,1,0.1,9.08709827,0.05882523
JYS,62,1,2024-06-13T06:01:30.082Z,english_667.wav,0,1,782,,,,,2,0.2,85.36553945,1.428997
JYS,62,1,2024-06-13T06:01:30.082Z,english_667.wav,0,1,782,,,,,3,0.3,-41.19556041,1.2429303
JYS,62,1,2024-06-13T06:01:30.082Z,english_667.wav,0,1,782,,,,,4,0.32341667,-31.79783786,0.97363261
JYS,63,1,2024-06-13T06:01:30.082Z,english_160.wav,0,1,996,,,,,0,0,2.54964477,0.54357393
JYS,63,1,2024-06-13T06:01:30.082Z,english_160.wav,0,1,996,,,,,1,0.1,26.84692557,1.29343216
JYS,63,1,2024-06-13T06:01:30.082Z,english_160.wav,0,1,996,,,,,2,0.2,72.58457191,0.42070854
JYS,63,1,2024-06-13T06:01:30.082Z,english_160.wav,0,1,996,,,,,3,0.3,-6.94481249,1.04489529
JYS,63,1,2024-06-13T06:01:30.082Z,english_160.wav,0,1,996,,,,,4,0.32341667,35.80656171,0.26802137
JYS,64,1,2024-06-13T06:01:30.082Z,english_110.wav,0,1,1651,,,,,0,0,87.43016285,1.84693198
JYS,64,1,2024-06-13T06:01:30.082Z,english_110.wav,0,1,1651,,,,,1,0.1,-22.53798338,0.72868036
JYS,64,1,2024-06-13T06:01:30.082Z,english_110.wav,0,1,1651,,,,,2,0.2,60.38266123,1.6889543
JYS,64,1,2024-06-13T06:01:30.082Z,english_110.wav,0,1,1651,,,,,3,0.3,50.75224473,0.97311446
JYS,64,1,2024-06-13T06:01:30.082Z,english_110.wav,0,1,1651,,,,,4,0.32341667,87.78495288,0.46157718
JYS,65,1,2024-06-13T06:01:30.082Z,english_441.wav,0,1,2680,,,,,0,0,-34.50722314,1.86415324
JYS,65,1,2024-06-13T06:01:30.082Z,english_441.wav,0,1,2680,,,,,1,0.1,91.55175756,1.34062972
JYS,65,1,2024-06-13T06:01:30.082Z,english_441.wav,0,1,2680,,,,,2,0.2,-74.07917439,1.20894222
JYS,65,1,2024-06-13T06:01:30.082Z,english_441.wav,0,1,2680,,,,,3,0.3,82.08396891,0.00248362
JYS,65,1,2024-06-13T06:01:30.082Z,english_441.wav,0,1,2680,,,,,4,0.32341667,13.2563292,0.67485278
JYS,66,1,2024-06-13T06:01:30.082Z,english_825.wav,0,1,2421,,,,,0,0,9.96211161,0.17252736
JYS,66,1,2024-06-13T06:01:30.082Z,english_825.wav,0,1,2421,,,,,1,0.1,-28.44120521,0.52830291
JYS,66,1,2024-06-13T06:01:30.082Z,english_825.wav,0,1,2421,,,,,2,0.2,58.95311712,0.51646024
JYS,66,1,2024-06-13T06:01:30.082Z,english_825.wav,0,1,2421,,,,,3,0.3,-14.85414305,0.70859388
JYS,66,1,2024-06-13T06:01:30.082Z,english_825.wav,0,1,2421,,,,,4,0.32341667,85.14956963,0.64434305
JYS,67,1,2024-06-13T06:01:30.082Z,english_112.wav,0,1,725,,,,,0,0,-98.7507832,1.62855774
JYS,67,1,2024-06-13T06:01:30.082Z,english_112.wav,0,1,725,,,,,1,0.1,-92.72198769,1.23374737
JYS,67,1,2024-06-13T06:01:30.082Z,english_112.wav,0,1,725,,,,,2,0.2,15.54821062,0.76022921
JYS,67,1,2024-06-13T06:01:30.082Z,english_112.wav,0,1,725,,,,,3,0.3,-40.54151432,0.49860071
JYS,67,1,2024-06-13T06:01:30.082Z,english_112.wav,0,1,725,,,,,4,0.32341667,-42.89167932,0.23801633
JYS,68,1,2024-06-13T06:01:30.082Z,english_80.wav,0,0,1543,,,,,0,0,33.21374474,1.09809668
JYS,68,1,2024-06-13T06:01:30.082Z,english_80.wav,0,0,1543,,,,,1,0.1,-72.2618742,1.73594877
JYS,68,1,2024-06-13T06:01:30.082Z,english_80.wav,0,0,1543,,,,,2,0.2,-29.44860443,0.30037535
JYS,68,1,2024-06-13T06:01:30.082Z,english_80.wav,0,0,1543,,,,,3,0.3,-33.36418129,0.36613598
JYS,68,1,2024-06-13T06:01:30.082Z,english_80.wav,0,0,1543,,,,,4,0.32341667,-65.11319145,0.50687614
JYS,69,1,2024-06-13T06:01:30.082Z,english_240.wav,0,1,928,,,,,0,0,-96.55121617,1.04823872
JYS,69,1,2024-06-13T06:01:30.082Z,english_240.wav,0,1,928,,,,,1,0.1,73.99435309,1.11556714
JYS,69,1,2024-06-13T06:01:30.082Z,english_240.wav,0,1,928,,,,,2,0.2,-27.17256968,0.68795106
JYS,69,1,2024-06-13T06:01:30.082Z,english_240.wav,0,1,928,,,,,3,0.3,-2.05185553,1.30325309
JYS,69,1,2024-06-13T06:01:30.082Z,english_240.wav,0,1,928,,,,,4,0.32341667,80.37406519,0.86977317
JYS,70,1,2024-06-13T06:01:30.082Z,english_738.wav,0,1,585,,,,,0,0,-37.88087101,1.83397703
JYS,70,1,2024-06-13T06:01:30.082Z,english_738.wav,0,1,585,,,,,1,0.1,-16.85966727,1.52099356
JYS,70,1,2024-06-13T06:01:30.082Z,english_738.wav,0,1,585,,,,,2,0.2,-79.76891938,1.69283951
JYS,70,1,2024-06-13T06:01:30.082Z,english_738.wav,0,1,585,,,,,3,0.3,-82.30918252,1.81957343
JYS,70,1,2024-06-13T06:01:30.082Z,english_738.wav,0,1,585,,,,,4,0.32341667,59.65991076,0.75908376
JYS,71,1,2024-06-13T06:01:30.082Z,english_520.wav,0,1,687,,,,,0,0,86.3711843,1.94117834
JYS,71,1,2024-06-13T06:01:30.082Z,english_520.wav,0,1,687,,,,,1,0.1,30.73905166,1.71866566
JYS,71,1,2024-06-13T06:01:30.082Z,english_520.wav,0,1,687,,,,,2,0.2,6.06230503,1.15295637
JYS,71,1,2024-06-13T06:01:30.082Z,english_520.wav,0,1,687,,,,,3,0.3,-72.93527416,0.80072648
JYS,71,1,2024-06-13T06:01:30.082Z,english_520.wav,0,1,687,,,,,4,0.32341667,40.17700679,1.71054199
JYS,72,1,2024-06-13T06:01:30.082Z,english_372.wav,0,1,532,,,,,0,0,-10.50721777,1.53321121
JYS,72,1,2024-06-13T06:01:30.082Z,english_372.wav,0,1,532,,,,,1,0.1,60.4890014,1.14830486
JYS,72,1,2024-06-13T06:01:30.082Z,english_372.wav,0,1,532,,,,,2,0.2,35.20626745,1.01416029
JYS,72,1,2024-06-13T06:01:30.082Z,english_372.wav,0,1,532,,,,,3,0.3,-86.52802988,1.14285759
JYS,72,1,2024-06-13T06:01:30.082Z,english_372.wav,0,1,532,,,,,4,0.32341667,85.69336351,1.69996326
JYS,73,1,2024-06-13T06:01:30.082Z,english_195.wav,0,1,587,,,,,0,0,88.76446124,0.85936173
JYS,73,1,2024-06-13T06:01:30.082Z,english_195.wav,0,1,587,,,,,1,0.1,56.50909504,1.06337161
JYS,73,1,2024-06-13T06:01:30.082Z,english_195.wav,0,1,587,,,,,2,0.2,-5.11157055,1.01766647
JYS,73,1,2024-06-13T06:01:30.082Z,english_195.wav,0,1,587,,,,,3,0.3,14.19517065,1.03928052
JYS,73,1,2024-06-13T06:01:30.082Z,english_195.wav,0,1,587,,,,,4,0.32341667,67.19148892,1.18131313
JYS,74,1,2024-06-13T06:01:30.082Z,english_994.wav,0,1,609,,,,,0,0,53.6083957,1.72152032
JYS,74,1,2024-06-13T06:01:30.082Z,english_994.wav,0,1,609,,,,,1,0.1,62.5650281,0.97077126
JYS,74,1,2024-06-13T06:01:30.082Z,english_994.wav,0,1,609,,,,,2,0.2,91.00734213,1.1154275
JYS,74,1,2024-06-13T06:01:30.082Z,english_994.wav,0,1,609,,,,,3,0.3,-14.6853323,0.93534142
JYS,74,1,2024-06-13T06:01:30.082Z,english_994.wav,0,1,609,,,,,4,0.32341667,42.94025292,1.51312842
JYS,75,1,2024-06-13T06:01:30.082Z,english_666.wav,0,1,1238,,,,,0,0,-6.63307831,0.44221414
JYS,75,1,2024-06-13T06:01:30.082Z,english_666.wav,0,1,1238,,,,,1,0.1,-47.66524373,1.62559692
JYS,75,1,2024-06-13T06:01:30.082Z,english_666.wav,0,1,1238,,,,,2,0.2,66.93817534,0.27313334
JYS,75,1,2024-06-13T06:01:30.082Z,english_666.wav,0,1,1238,,,,,3,0.3,-1.338646,0.46846925
JYS,75,1,2024-06-13T06:01:30.082Z,english_666.wav,0,1,1238,,,,,4,0.32341667,-14.31927765,1.08883823
JYS,76,1,2024-06-13T06:01:30.082Z,english_400.wav,0,1,1280,,,,,0,0,-9.17924521,1.06898792
JYS,76,1,2024-06-13T06:01:30.082Z,english_400.wav,0,1,1280,,,,,1,0.1,-51.0410118,0.05890524
JYS,76,1,2024-06-13T06:01:30.082Z,english_400.wav,0,1,1280,,,,,2,0.2,66.2548805,1.54728483
JYS,76,1,2024-06-13T06:01:30.082Z,english_400.wav,0,1,1280,,,,,3,0.3,92.33374018,1.43953162
JYS,76,1,2024-06-13T06:01:30.082Z,english_400.wav,0,1,1280,,,,,4,0.32341667,-60.80730989,1.12546459
JYS,77,1,2024-06-13T06:01:30.082Z,english_848.wav,0,1,788,,,,,0,0,43.30233352,0.12582596
JYS,77,1,2024-06-13T06:01:30.082Z,english_848.wav,0,1,788,,,,,1,0.1,-77.77691247,1.72621372
JYS,77,1,2024-06-13T06:01:30.082Z,english_848.wav,0,1,788,,,,,2,0.2,-68.99020863,1.753656
JYS,77,1,2024-06-13T06:01:30.082Z,english_848.wav,0,1,788,,,,,3,0.3,-43.68641023,1.37442753
JYS,77,1,2024-06-13T06:01:30.082Z,english_848.wav,0,1,788,,,,,4,0.32341667,-14.19502025,1.04930351
JYS,78,1,2024-06-13T06:01:30.082Z,english_158.wav,0,1,674,,,,,0,0,33.09785739,1.71128449
JYS,78,1,2024-06-13T06:01:30.082Z,english_158.wav,0,1,674,,,,,1,0.1,-85.08083727,1.56145129
JYS,78,1,2024-06-13T06:01:30.082Z,english_158.wav,0,1,674,,,,,2,0.2,97.70701203,0.69707892
JYS,78,1,2024-06-13T06:01:30.082Z,english_158.wav,0,1,674,,,,,3,0.3,2.54261044,1.19647348
JYS,78,1,2024-06-13T06:01:30.082Z,english_158.wav,0,1,674,,,,,4,0.32341667,-59.73934841,1.17782448
JYS,79,1,2024-06-13T06:01:30.082Z,english_806.wav,0,1,763,,,,,0,0,17.38837614,1.03842349
JYS,79,1,2024-06-13T06:01:30.082Z,english_806.wav,0,1,763,,,,,1,0.1,50.31160736,1.08461549
JYS,79,1,2024-06-13T06:01:30.082Z,english_806.wav,0,1,763,,,,,2,0.2,74.21499327,1.8436814
JYS,79,1,2024-06-13T06:01:30.082Z,english_806.wav,0,1,763,,,,,3,0.3,16.647622,1.85846725
JYS,79,1,2024-06-13T06:01:30.082Z,english_806.wav,0,1,763,,,,,4,0.32341667,27.12519974,1.15820289
JYS,80,1,2024-06-13T06:01:30.082Z,english_628.wav,0,1,726,,,,,0,0,-19.71295886,0.8960583
JYS,80,1,2024-06-13T06:01:30.082Z,english_628.wav,0,1,726,,,,,1,0.1,-79.294697,1.61949508
JYS,80,1,2024-06-13T06:01:30.082Z,english_628.wav,0,1,726,,,,,2,0.2,-59.93256946,0.65483299
JYS,80,1,2024-06-13T06:01:30.082Z,english_628.wav,0,1,726,,,,,3,0.3,-18.46863719,0.12001531
JYS,80,1,2024-06-13T06:01:30.082Z,english_628.wav,0,1,726,,,,,4,0.32341667,53.30350975,0.85308449
JYS,81,1,2024-06-13T06:01:30.082Z,english_516.wav,0,1,667,,,,,0,0,-37.49134217,0.47483782
JYS,81,1,2024-06-13T06:01:30.082Z,english_516.wav,0,1,667,,,,,1,0.1,56.61653956,1.0523806
JYS,81,1,2024-06-13T06:01:30.082Z,english_516.wav,0,1,667,,,,,2,0.2,60.98574822,0.59798137
JYS,81,1,2024-06-13T06:01:30.082Z,english_516.wav,0,1,667,,,,,3,0.3,-0.52682824,0.6957238
JYS,81,1,2024-06-13T06:01:30.082Z,english_516.wav,0,1,667,,,,,4,0.32341667,-50.41932267,1.76373844
JYS,82,1,2024-06-13T06:01:30.082Z,english_884.wav,0,1,675,,,,,0,0,77.1498115,1.83268558
JYS,82,1,2024-06-13T06:01:30.082Z,english_884.wav,0,1,675,,,,,1,0.1,10.32602389,0.76817862
JYS,82,1,2024-06-13T06:01:30.082Z,english_884.wav,0,1,675,,,,,2,0.2,4.15464736,1.59331573
JYS,82,1,2024-06-13T06:01:30.082Z,english_884.wav,0,1,675,,,,,3,0.3,21.19252889,0.58913169
JYS,82,1,2024-06-13T06:01:30.082Z,english_884.wav,0,1,675,,,,,4,0.32341667,-7.11336122,0.81393531
JYS,83,1,2024-06-13T06:01:30.082Z,english_878.wav,0,0,1690,,,,,0,0,84.19501339,0.22676298
JYS,83,1,2024-06-13T06:01:30.082Z,english_878.wav,0,0,1690,,,,,1,0.1,76.71234668,0.28568495
JYS,83,1,2024-06-13T06:01:30.082Z,english_878.wav,0,0,1690,,,,,2,0.2,-74.61835319,0.74220819
JYS,83,1,2024-06-13T06:01:30.082Z,english_878.wav,0,0,1690,,,,,3,0.3,83.79758366,1.72755148
JYS,83,1,2024-06-13T06:01:30.082Z,english_878.wav,0,0,1690,,,,,4,0.32341667,-29.32243698,1.88938616
JYS,84,1,2024-06-13T06:01:30.082Z,english_279.wav,0,1,943,,,,,0,0,-20.90398108,0.60114424
JYS,84,1,2024-06-13T06:01:30.082Z,english_279.wav,0,1,943,,,,,1,0.1,98.83098338,0.92336304
JYS,84,1,2024-06-13T06:01:30.082Z,english_279.wav,0,1,943,,,,,2,0.2,-95.37608427,1.39045705
JYS,84,1,2024-06-13T06:01:30.082Z,english_279.wav,0,1,943,,,,,3,0.3,-52.65380993,0.64938935
JYS,84,1,2024-06-13T06:01:30.082Z,english_279.wav,0,1,943,,,,,4,0.32341667,47.72500112,1.57478054
JYS,85,1,2024-06-13T06:01:30.082Z,english_555.wav,0,1,1071,,,,,0,0,69.49762262,1.08530069
JYS,85,1,2024-06-13T06:01:30.082Z,english_555.wav,0,1,1071,,,,,1,0.1,42.72159746,0.99979939
JYS,85,1,2024-06-13T06:01:30.082Z,english_555.wav,0,1,1071,,,,,2,0.2,96.74773092,1.75882447
JYS,85,1,2024-06-13T06:01:30.082Z,english_555.wav,0,1,1071,,,,,3,0.3,-27.92411753,1.36775981
JYS,85,1,2024-06-13T06:01:30.082Z,english_555.wav,0,1,1071,,,,,4,0.32341667,33.93273626,0.90104071
JYS,86,1,2024-06-13T06:01:30.082Z,english_804.wav,0,1,663,,,,,0,0,11.23319328,0.16159815
JYS,86,1,2024-06-13T06:01:30.082Z,english_804.wav,0,1,663,,,,,1,0.1,-75.15189859,1.76023076
JYS,86,1,2024-06-13T06:01:30.082Z,english_804.wav,0,1,663,,,,,2,0.2,5.39397939,0.7355024
JYS,86,1,2024-06-13T06:01:30.082Z,english_804.wav,0,1,663,,,,,3,0.3,42.92141331,1.74636497
JYS,86,1,2024-06-13T06:01:30.082Z,english_804.wav,0,1,663,,,,,4,0.32341667,-79.84726866,1.05562007
JYS,87,1,2024-06-13T06:01:30.082Z,english_410.wav,0,1,623,,,,,0,0,-74.64506245,0.42358098
JYS,87,1,2024-06-13T06:01:30.082Z,english_410.wav,0,1,623,,,,,1,0.1,65.24401488,0.42526697
JYS,87,1,2024-06-13T06:01:30.082Z,english_410.wav,0,1,623,,,,,2,0.2,-65.86471953,1.12385183
JYS,87,1,2024-06-13T06:01:30.082Z,english_410.wav,0,1,623,,,,,3,0.3,98.79489106,0.33588109
JYS,87,1,2024-06-13T06:01:30.082Z,english_410.wav,0,1,623,,,,,4,0.32341667,14.95451541,1.7246864
JYS,88,1,2024-06-13T06:01:30.082Z,english_582.wav,0,1,490,,,,,0,0,-29.81423477,0.27230029
JYS,88,1,2024-06-13T06:01:30.082Z,english_582.wav,0,1,490,,,,,1,0.1,37.42565533,0.84765039
JYS,88,1,2024-06-13T06:01:30.082Z,english_582.wav,0,1,490,,,,,2,0.2,79.58894888,1.99526631
JYS,88,1,2024-06-13T06:01:30.082Z,english_582.wav,0,1,490,,,,,3,0.3,49.55779855,1.55519667
JYS,88,1,2024-06-13T06:01:30.082Z,english_582.wav,0,1,490,,,,,4,0.32341667,54.00509918,1.66653349
JYS,89,1,2024-06-13T06:01:30.082Z,english_25.wav,0,1,600,,,,,0,0,-93.68210842,1.14210865
JYS,89,1,2024-06-13T06:01:30.082Z,english_25.wav,0,1,600,,,,,1,0.1,-14.41268038,1.90089654
JYS,89,1,2024-06-13T06:01:30.082Z,english_25.wav,0,1,600,,,,,2,0.2,72.93230065,0.61137859
JYS,89,1,2024-06-13T06:01:30.082Z,english_25.wav,0,1,600,,,,,3,0.3,23.28545759,1.93042398
JYS,89,1,2024-06-13T06:01:30.082Z,english_25.wav,0,1,600,,,,,4,0.32341667,18.09953767,1.11869114
JYS,90,1,2024-06-13T06:01:30.082Z,english_862.wav,0,0,920,,,,,0,0,97.17644144,0.51253178
JYS,90,1,2024-06-13T06:01:30.082Z,english_862.wav,0,0,920,,,,,1,0.1,26.34966999,0.21080737
JYS,90,1,2024-06-13T06:01:30.082Z,english_862.wav,0,0,920,,,,,2,0.2,-21.73584106,0.27401534
JYS,90,1,2024-06-13T06:01:30.082Z,english_862.wav,0,0,920,,,,,3,0.3,70.49109419,1.91980484
JYS,90,1,2024-06-13T06:01:30.082Z,english_862.wav,0,0,920,,,,,4,0.32341667,43.48373212,0.96077188
JYS,91,1,2024-06-13T06:01:30.082Z,english_991.wav,0,0,901,,,,,0,0,-73.33762004,0.7279734
JYS,91,1,2024-06-13T06:01:30.082Z,english_991.wav,0,0,901,,,,,1,0.1,-90.08677455,0.374322
JYS,91,1,2024-06-13T06:01:30.082Z,english_991.wav,0,0,901,,,,,2,0.2,-98.84294029,0.98894361
JYS,91,1,2024-06-13T06:01:30.082Z,english_991.wav,0,0,901,,,,,3,0.3,59.84972986,1.07774369
JYS,91,1,2024-06-13T06:01:30.082Z,english_991.wav,0,0,901,,,,,4,0.32341667,21.03568625,0.51480923
JYS,92,1,2024-06-13T06:01:30.082Z,english_917.wav,0,0,544,,,,,0,0,-2.28432431,0.51220006
JYS,92,1,2024-06-13T06:01:30.082Z,english_917.wav,0,0,544,,,,,1,0.1,-50.4941454,0.3783057
JYS,92,1,2024-06-13T06:01:30.082Z,english_917.wav,0,0,544,,,,,2,0.2,86.41176613,0.52629226
JYS,92,1,2024-06-13T06:01:30.082Z,english_917.wav,0,0,544,,,,,3,0.3,-50.97734163,0.68389314
JYS,92,1,2024-06-13T06:01:30.082Z,english_917.wav,0,0,544,,,,,4,0.32341667,97.13453513,1.73708117
JYS,93,1,2024-06-13T06:01:30.082Z,english_456.wav,0,0,635,,,,,0,0,43.57092671,0.12750432
JYS,93,1,2024-06-13T06:01:30.082Z,english_456.wav,0,0,635,,,,,1,0.1,59.73787768,0.97340157
JYS,93,1,2024-06-13T06:01:30.082Z,english_456.wav,0,0,635,,,,,2,0.2,82.18665257,0.43547726
JYS,93,1,2024-06-13T06:01:30.082Z,english_456.wav,0,0,635,,,,,3,0.3,84.09992258,1.17970357
JYS,93,1,2024-06-13T06:01:30.082Z,english_456.wav,0,0,635,,,,,4,0.32341667,14.68455092,0.64309566
JYS,94,1,2024-06-13T06:01:30.082Z,english_610.wav,0,0,439,,,,,0,0,-14.96432812,0.5672697
JYS,94,1,2024-06-13T06:01:30.082Z,english_610.wav,0,0,439,,,,,1,0.1,48.51886955,0.75156182
JYS,94,1,2024-06-13T06:01:30.082Z,english_610.wav,0,0,439,,,,,2,0.2,47.07358548,0.38846335
JYS,94,1,2024-06-13T06:01:30.082Z,english_610.wav,0,0,439,,,,,3,0.3,17.30383174,1.52072292
JYS,94,1,2024-06-13T06:01:30.082Z,english_610.wav,0,0,439,,,,,4,0.32341667,1.51764356,1.56024836
JYS,95,1,2024-06-13T06:01:30.082Z,english_556.wav,0,1,2118,,,,,0,0,35.62658416,1.88481821
JYS,95,1,2024-06-13T06:01:30.082Z,english_556.wav,0,1,2118,,,,,1,0.1,28.75181601,0.4023528
JYS,95,1,2024-06-13T06:01:30.082Z,english_556.wav,0,1,2118,,,,,2,0.2,-2.62389444,1.49364055
JYS,95,1,2024-06-13T06:01:30.082Z,english_556.wav,0,1,2118,,,,,3,0.3,64.03572584,1.54190039
JYS,95,1,2024-06-13T06:01:30.082Z,english_556.wav,0,1,2118,,,,,4,0.32341667,72.79696002,0.53435232
JYS,96,1,2024-06-13T06:01:30.082Z,english_817.wav,0,1,869,,,,,0,0,58.06319333,0.77394069
JYS,96,1,2024-06-13T06:01:30.082Z,english_817.wav,0,1,869,,,,,1,0.1,0.91206114,0.81778066
JYS,96,1,2024-06-13T06:01:30.082Z,english_817.wav,0,1,869,,,,,2,0.2,-27.80824757,1.48752315
JYS,96,1,2024-06-13T06:01:30.082Z,english_817.wav,0,1,869,,,,,3,0.3,-73.7491051,0.41888886
JYS,96,1,2024-06-13T06:01:30.082Z,english_817.wav,0,1,869,,,,,4,0.32341667,69.75698508,0.93012443
JYS,97,1,2024-06-13T06:01:30.082Z,english_182.wav,0,1,772,,,,,0,0,57.43769915,0.89919812
JYS,97,1,2024-06-13T06:01:30.082Z,english_182.wav,0,1,772,,,,,1,0.1,-87.06676545,1.25243937
JYS,97,1,2024-06-13T06:01:30.082Z,english_182.wav,0,1,772,,,,,2,0.2,-91.52107401,1.35021358
JYS,97,1,2024-06-13T06:01:30.082Z,english_182.wav,0,1,772,,,,,3,0.3,52.0843588,0.52787795
JYS,97,1,2024-06-13T06:01:30.082Z,english_182.wav,0,1,772,,,,,4,0.32341667,18.07264914,0.72620624
JYS,98,1,2024-06-13T06:01:30.082Z,english_199.wav,0,1,1573,,,,,0,0,-24.89956817,0.07306367
JYS,98,1,2024-06-13T06:01:30.082Z,english_199.wav,0,1,1573,,,,,1,0.1,-48.49200931,0.10334581
JYS,98,1,2024-06-13T06:01:30.082Z,english_199.wav,0,1,1573,,,,,2,0.2,-89.66548778,1.49062114
JYS,98,1,2024-06-13T06:01:30.082Z,english_199.wav,0,1,1573,,,,,3,0.3,29.20785813,0.36717513
JYS,98,1,2024-06-13T06:01:30.082Z,english_199.wav,0,1,1573,,,,,4,0.32341667,-88.68286362,1.33179809
JYS,99,1,2024-06-13T06:01:30.082Z,english_100.wav,0,1,764,,,,,0,0,-66.86198445,0.79522553
JYS,99,1,2024-06-13T06:01:30.082Z,english_100.wav,0,1,764,,,,,1,0.1,32.23990363,0.27784591
JYS,99,1,2024-06-13T06:01:30.082Z,english_100.wav,0,1,764,,,,,2,0.2,-63.31896149,1.76330212
JYS,99,1,2024-06-13T06:01:30.082Z,english_100.wav,0,1,764,,,,,3,0.3,-73.00038049,0.60946618
JYS,99,1,2024-06-13T06:01:30.082Z,english_100.wav,0,1,764,,,,,4,0.32341667,32.15710315,0.42695433
JYS,100,2,2024-06-13T06:01:30.082Z,english_953.wav,0,1,1111,,,,,0,0,-16.02430182,0.31806788
JYS,100,2,2024-06-13T06:01:30.082Z,english_953.wav,0,1,1111,,,,,1,0.1,29.58660593,0.5983964
JYS,100,2,2024-06-13T06:01:30.082Z,english_953.wav,0,1,1111,,,,,2,0.2,-69.77021268,1.47459901
JYS,100,2,2024-06-13T06:01:30.082Z,english_953.wav,0,1,1111,,,,,3,0.3,10.24378989,1.63555671
JYS,100,2,2024-06-13T06:01:30.082Z,english_953.wav,0,1,1111,,,,,4,0.32341667,-68.66835117,1.74756834
JYS,101,2,2024-06-13T06:01:30.082Z,english_29.wav,0,0,1064,,,,,0,0,-2.71310826,1.50712016
JYS,101,2,2024-06-13T06:01:30.082Z,english_29.wav,0,0,1064,,,,,1,0.1,17.7201972,0.83644439
JYS,101,2,2024-06-13T06:01:30.082Z,english_29.wav,0,0,1064,,,,,2,0.2,-20.17501418,0.76078741
JYS,101,2,2024-06-13T06:01:30.082Z,english_29.wav,0,0,1064,,,,,3,0.3,12.48271646,0.17009155
JYS,101,2,2024-06-13T06:01:30.082Z,english_29.wav,0,0,1064,,,,,4,0.32341667,29.42079391,1.26727983
JYS,102,2,2024-06-13T06:01:30.082Z,english_62.wav,0,1,1133,,,,,0,0,17.28527913,1.12530616
JYS,102,2,2024-06-13T06:01:30.082Z,english_62.wav,0,1,1133,,,,,1,0.1,8.63936001,1.09357984
JYS,102,2,2024-06-13T06:01:30.082Z,english_62.wav,0,1,1133,,,,,2,0.2,-69.0074729,1.07648496
JYS,102,2,2024-06-13T06:01:30.082Z,english_62.wav,0,1,1133,,,,,3,0.3,-18.85502465,0.36768209
JYS,102,2,2024-06-13T06:01:30.082Z,english_62.wav,0,1,1133,,,,,4,0.32341667,59.46739627,0.39033463
JYS,103,2,2024-06-13T06:01:30.082Z,english_882.wav,0,1,894,,,,,0,0,-42.93700265,1.06489748
JYS,103,2,2024-06-13T06:01:30.082Z,english_882.wav,0,1,894,,,,,1,0.1,-62.35786663,1.38883859
JYS,103,2,2024-06-13T06:01:30.082Z,english_882.wav,0,1,894,,,,,2,0.2,-16.20482572,0.28843799
JYS,103,2,2024-06-13T06:01:30.082Z,english_882.wav,0,1,894,,,,,3,0.3,-46.49020195,1.05408179
JYS,103,2,2024-06-13T06:01:30.082Z,english_882.wav,0,1,894,,,,,4,0.32341667,-64.89408339,1.78517837
JYS,104,2,2024-06-13T06:01:30.082Z,english_161.wav,0,1,684,,,,,0,0,16.17182642,0.80971259
JYS,104,2,2024-06-13T06:01:30.082Z,english_161.wav,0,1,684,,,,,1,0.1,51.23408036,1.56168911
JYS,104,2,2024-06-13T06:01:30.082Z,english_161.wav,0,1,684,,,,,2,0.2,56.55598601,0.91666403
JYS,104,2,2024-06-13T06:01:30.082Z,english_161.wav,0,1,684,,,,,3,0.3,-25.08054758,1.93998208
JYS,104,2,2024-06-13T06:01:30.082Z,english_161.wav,0,1,684,,,,,4,0.32341667,-70.36900789,0.76147365
JYS,105,2,2024-06-13T06:01:30.082Z,english_476.wav,0,0,736,,,,,0,0,67.27413703,1.71507594
JYS,105,2,2024-06-13T06:01:30.082Z,english_476.wav,0,0,736,,,,,1,0.1,-35.99891676,1.5691203
JYS,105,2,2024-06-13T06:01:30.082Z,english_476.wav,0,0,736,,,,,2,0.2,53.1347651,0.1869461
JYS,105,2,2024-06-13T06:01:30.082Z,english_476.wav,0,0,736,,,,,3,0.3,-27.53585108,0.94822926
JYS,105,2,2024-06-13T06:01:30.082Z,english_476.wav,0,0,736,,,,,4,0.32341667,13.88563074,1.63186757
JYS,106,2,2024-06-13T06:01:30.082Z,english_693.wav,0,1,436,,,,,0,0,-83.71635172,0.35753224
JYS,106,2,2024-06-13T06:01:30.082Z,english_693.wav,0,1,436,,,,,1,0.1,32.46406691,1.09553371
JYS,106,2,2024-06-13T06:01:30.082Z,english_693.wav,0,1,436,,,,,2,0.2,8.27548994,1.67166692
JYS,106,2,2024-06-13T06:01:30.082Z,english_693.wav,0,1,436,,,,,3,0.3,15.80660539,1.61413862
JYS,106,2,2024-06-13T06:01:30.082Z,english_693.wav,0,1,436,,,,,4,0.32341667,74.32681132,1.90943184
JYS,107,2,2024-06-13T06:01:30.082Z,english_465.wav,0,1,1013,,,,,0,0,40.04056426,1.33778995
JYS,107,2,2024-06-13T06:01:30.082Z,english_465.wav,0,1,1013,,,,,1,0.1,-97.28817369,0.1899685
JYS,107,2,2024-06-13T06:01:30.082Z,english_465.wav,0,1,1013,,,,,2,0.2,-58.72937184,1.35609136
JYS,107,2,2024-06-13T06:01:30.082Z,english_465.wav,0,1,1013,,,,,3,0.3,82.2448524,1.94032164
JYS,107,2,2024-06-13T06:01:30.082Z,english_465.wav,0,1,1013,,,,,4,0.32341667,-29.20233879,0.27858753
JYS,108,2,2024-06-13T06:01:30.082Z,english_937.wav,0,1,712,,,,,0,0,76.77394395,1.55370699
JYS,108,2,2024-06-13T06:01:30.082Z,english_937.wav,0,1,712,,,,,1,0.1,49.33576264,1.82028848
JYS,108,2,2024-06-13T06:01:30.082Z,english_937.wav,0,1,712,,,,,2,0.2,-87.39935237,1.42487505
JYS,108,2,2024-06-13T06:01:30.082Z,english_937.wav,0,1,712,,,,,3,0.3,11.02170053,0.87896062
JYS,108,2,2024-06-13T06:01:30.082Z,english_937.wav,0,1,712,,,,,4,0.32341667,91.99381322,0.96516852
JYS,109,2,2024-06-13T06:01:30.082Z,english_796.wav,0,0,967,,,,,0,0,57.52331511,0.93419081
JYS,109,2,2024-06-13T06:01:30.082Z,english_796.wav,0,0,967,,,,,1,0.1,-53.71774571,0.77950231
JYS,109,2,2024-06-13T06:01:30.082Z,english_796.wav,0,0,967,,,,,2,0.2,-36.09214461,0.54947466
JYS,109,2,2024-06-13T06:01:30.082Z,english_796.wav,0,0,967,,,,,3,0.3,23.21783142,1.69054841
JYS,109,2,2024-06-13T06:01:30.082Z,english_796.wav,0,0,967,,,,,4,0.32341667,-74.52171885,0.76047802
JYS,110,2,2024-06-13T06:01:30.082Z,english_587.wav,0,1,594,,,,,0,0,-33.32102811,0.7972352
JYS,110,2,2024-06-13T06:01:30.082Z,english_587.wav,0,1,594,,,,,1,0.1,46.1287001,1.97425238
JYS,110,2,2024-06-13T06:01:30.082Z,english_587.wav,0,1,594,,,,,2,0.2,-62.23894368,0.99609006
JYS,110,2,2024-06-13T06:01:30.082Z,english_587.wav,0,1,594,,,,,3,0.3,36.67711132,1.18577707
JYS,110,2,2024-06-13T06:01:30.082Z,english_587.wav,0,1,594,,,,,4,0.32341667,-11.53320103,1.64089558
JYS,111,2,2024-06-13T06:01:30.082Z,english_289.wav,0,1,2132,,,,,0,0,-55.97739865,0.95213243
JYS,111,2,2024-06-13T06:01:30.082Z,english_289.wav,0,1,2132,,,,,1,0.1,-97.9801122,0.81858491
JYS,111,2,2024-06-13T06:01:30.082Z,english_289.wav,0,1,2132,,,,,2,0.2,44.28679287,1.16094748
JYS,111,2,2024-06-13T06:01:30.082Z,english_289.wav,0,1,2132,,,,,3,0.3,-74.0895039,0.92969459
JYS,111,2,2024-06-13T06:01:30.082Z,english_289.wav,0,1,2132,,,,,4,0.32341667,-44.25845537,0.41504245
JYS,112,2,2024-06-13T06:01:30.082Z,english_533.wav,0,1,623,,,,,0,0,-10.36570298,0.10013008
JYS,112,2,2024-06-13T06:01:30.082Z,english_533.wav,0,1,623,,,,,1,0.1,-67.04420928,1.73583104
JYS,112,2,2024-06-13T06:01:30.082Z,english_533.wav,0,1,623,,,,,2,0.2,-31.24691396,1.00550506
JYS,112,2,2024-06-13T06:01:30.082Z,english_533.wav,0,1,623,,,,,3,0.3,-22.73912087,1.21009828
JYS,112,2,2024-06-13T06:01:30.082Z,english_533.wav,0,1,623,,,,,4,0.32341667,-4.63915005,1.69946188
JYS,113,2,2024-06-13T06:01:30.082Z,english_451.wav,0,0,1057,,,,,0,0,-87.31297583,0.44823779
JYS,113,2,2024-06-13T06:01:30.082Z,english_451.wav,0,0,1057,,,,,1,0.1,-44.51362963,0.44678563
JYS,113,2,2024-06-13T06:01:30.082Z,english_451.wav,0,0,1057,,,,,2,0.2,-15.52945473,1.69444841
JYS,113,2,2024-06-13T06:01:30.082Z,english_451.wav,0,0,1057,,,,,3,0.3,11.70886435,0.18586344
JYS,113,2,2024-06-13T06:01:30.082Z,english_451.wav,0,0,1057,,,,,4,0.32341667,82.84342256,0.9677256
JYS,114,2,2024-06-13T06:01:30.082Z,english_317.wav,0,1,2675,,,,,0,0,-26.75650792,1.75672771
JYS,114,2,2024-06-13T06:01:30.082Z,english_317.wav,0,1,2675,,,,,1,0.1,9.07297032,1.82949168
JYS,114,2,2024-06-13T06:01:30.082Z,english_317.wav,0,1,2675,,,,,2,0.2,17.58512652,1.6954519
JYS,114,2,2024-06-13T06:01:30.082Z,english_317.wav,0,1,2675,,,,,3,0.3,29.57201507,0.7122411
JYS,114,2,2024-06-13T06:01:30.082Z,english_317.wav,0,1,2675,,,,,4,0.32341667,56.4667582,1.26753728
JYS,115,2,2024-06-13T06:01:30.082Z,english_77.wav,0,0,1114,,,,,0,0,-72.40491727,0.02183184
JYS,115,2,2024-06-13T06:01:30.082Z,english_77.wav,0,0,1114,,,,,1,0.1,8.82020558,1.36505393
JYS,115,2,2024-06-13T06:01:30.082Z,english_77.wav,0,0,1114,,,,,2,0.2,89.28229375,1.34112472
JYS,115,2,2024-06-13T06:01:30.082Z,english_77.wav,0,0,1114,,,,,3,0.3,-14.39120814,0.45737201
JYS,115,2,2024-06-13T06:01:30.082Z,english_77.wav,0,0,1114,,,,,4,0.32341667,0.18022976,1.1673494
JYS,116,2,2024-06-13T06:01:30.082Z,english_290.wav,0,0,991,,,,,0,0,73.71968657,0.30552726
JYS,116,2,2024-06-13T06:01:30.082Z,english_290.wav,0,0,991,,,,,1,0.1,-59.85317413,1.31636279
JYS,116,2,2024-06-13T06:01:30.082Z,english_290.wav,0,0,991,,,,,2,0.2,71.1426587,0.54925413
JYS,116,2,2024-06-13T06:01:30.082Z,english_290.wav,0,0,991,,,,,3,0.3,-18.50007061,1.26204455
JYS,116,2,2024-06-13T06:01:30.082Z,english_290.wav,0,0,991,,,,,4,0.32341667,-65.91143137,0.60528556
JYS,117,2,2024-06-13T06:01:30.082Z,english_728.wav,0,1,1552,,,,,0,0,-6.4565561,1.7247049
JYS,117,2,2024-06-13T06:01:30.082Z,english_728.wav,0,1,1552,,,,,1,0.1,2.02882612,1.95158608
JYS,117,2,2024-06-13T06:01:30.082Z,english_728.wav,0,1,1552,,,,,2,0.2,-40.29513079,0.21085377
JYS,117,2,2024-06-13T06:01:30.082Z,english_728.wav,0,1,1552,,,,,3,0.3,-29.37287389,0.85434083
JYS,117,2,2024-06-13T06:01:30.082Z,english_728.wav,0,1,1552,,,,,4,0.32341667,-32.17490136,1.52436666
JYS,118,2,2024-06-13T06:01:30.082Z,english_128.wav,0,0,2146,,,,,0,0,-84.07301703,0.96445051
JYS,118,2,2024-06-13T06:01:30.082Z,english_128.wav,0,0,2146,,,,,1,0.1,0.2051398,0.77165422
JYS,118,2,2024-06-13T06:01:30.082Z,english_128.wav,0,0,2146,,,,,2,0.2,50.77588291,0.60279997
JYS,118,2,2024-06-13T06:01:30.082Z,english_128.wav,0,0,2146,,,,,3,0.3,3.27834455,0.59915485
JYS,118,2,2024-06-13T06:01:30.082Z,english_128.wav,0,0,2146,,,,,4,0.32341667,59.5943459,0.43521132
JYS,119,2,2024-06-13T06:01:30.082Z,english_980.wav,0,0,804,,,,,0,0,-32.33629208,1.21290567
JYS,119,2,2024-06-13T06:01:30.082Z,english_980.wav,0,0,804,,,,,1,0.1,-4.4140807,0.22350007
JYS,119,2,2024-06-13T06:01:30.082Z,english_980.wav,0,0,804,,,,,2,0.2,76.81412515,1.68078519
JYS,119,2,2024-06-13T06:01:30.082Z,english_980.wav,0,0,804,,,,,3,0.3,-16.24877133,0.16816052
JYS,119,2,2024-06-13T06:01:30.082Z,english_980.wav,0,0,804,,,,,4,0.32341667,-26.44128118,1.48722631
JYS,120,2,2024-06-13T06:01:30.082Z,english_906.wav,0,1,637,,,,,0,0,-40.48589107,1.22436898
JYS,120,2,2024-06-13T06:01:30.082Z,english_906.wav,0,1,637,,,,,1,0.1,47.48995475,1.54823641
JYS,120,2,2024-06-13T06:01:30.082Z,english_906.wav,0,1,637,,,,,2,0.2,-46.73743802,1.02590908
JYS,120,2,2024-06-13T06:01:30.082Z,english_906.wav,0,1,637,,,,,3,0.3,-97.96557374,1.74877791
JYS,120,2,2024-06-13T06:01:30.082Z,english_906.wav,0,1,637,,,,,4,0.32341667,18.48293991,0.76585735
JYS,121,2,2024-06-13T06:01:30.082Z,english_552.wav,0,1,536,,,,,0,0,-54.22317773,0.14479657
JYS,121,2,2024-06-13T06:01:30.082Z,english_552.wav,0,1,536,,,,,1,0.1,23.75537749,1.96762023
JYS,121,2,2024-06-13T06:01:30.082Z,english_552.wav,0,1,536,,,,,2,0.2,-67.43154965,0.75812729
JYS,121,2,2024-06-13T06:01:30.082Z,english_552.wav,0,1,536,,,,,3,0.3,-83.62242399,0.84420129
JYS,121,2,2024-06-13T06:01:30.082Z,english_552.wav,0,1,536,,,,,4,0.32341667,64.2322812,0.73382384
JYS,122,2,2024-06-13T06:01:30.082Z,english_328.wav,0,1,980,,,,,0,0,-24.96515822,0.68772771
JYS,122,2,2024-06-13T06:01:30.082Z,english_328.wav,0,1,980,,,,,1,0.1,36.64267249,0.30369637
JYS,122,2,2024-06-13T06:01:30.082Z,english_328.wav,0,1,980,,,,,2,0.2,-93.60804347,1.16330199
JYS,122,2,2024-06-13T06:01:30.082Z,english_328.wav,0,1,980,,,,,3,0.3,9.86556644,0.69001341
JYS,122,2,2024-06-13T06:01:30.082Z,english_328.wav,0,1,980,,,,,4,0.32341667,-17.13685423,0.54642887
JYS,123,2,2024-06-13T06:01:30.082Z,english_793.wav,0,0,1101,,,,,0,0,-3.59370976,0.95327953
JYS,123,2,2024-06-13T06:01:30.082Z,english_793.wav,0,0,1101,,,,,1,0.1,-92.44382947,0.8890172
JYS,123,2,2024-06-13T06:01:30.082Z,english_793.wav,0,0,1101,,,,,2,0.2,-89.84008222,0.47547445
JYS,123,2,2024-06-13T06:01:30.082Z,english_793.wav,0,0,1101,,,,,3,0.3,96.09352514,1.09208031
JYS,123,2,2024-06-13T06:01:30.082Z,english_793.wav,0,0,1101,,,,,4,0.32341667,42.94050617,0.63383093
JYS,124,2,2024-06-13T06:01:30.082Z,english_231.wav,0,1,519,,,,,0,0,-57.04299033,1.30850831
JYS,124,2,2024-06-13T06:01:30.082Z,english_231.wav,0,1,519,,,,,1,0.1,-61.30294243,1.06317761
JYS,124,2,2024-06-13T06:01:30.082Z,english_231.wav,0,1,519,,,,,2,0.2,11.10207427,1.86768436
JYS,124,2,2024-06-13T06:01:30.082Z,english_231.wav,0,1,519,,,,,3,0.3,-1.38864911,1.42169342
JYS,124,2,2024-06-13T06:01:30.082Z,english_231.wav,0,1,519,,,,,4,0.32341667,-40.37897369,0.58634772
JYS,125,2,2024-06-13T06:01:30.082Z,english_508.wav,0,0,515,,,,,0,0,-21.23116318,1.79614382
JYS,125,2,2024-06-13T06:01:30.082Z,english_508.wav,0,0,515,,,,,1,0.1,-27.56583205,0.60449395
JYS,125,2,2024-06-13T06:01:30.082Z,english_508.wav,0,0,515,,,,,2,0.2,64.21774851,0.56582153
JYS,125,2,2024-06-13T06:01:30.082Z,english_508.wav,0,0,515,,,,,3,0.3,-9.24056951,1.01665474
JYS,125,2,2024-06-13T06:01:30.082Z,english_508.wav,0,0,515,,,,,4,0.32341667,-9.74670904,0.78905044
JYS,126,2,2024-06-13T06:01:30.082Z,english_676.wav,0,1,1811,,,,,0,0,3.93099148,1.7716209
JYS,126,2,2024-06-13T06:01:30.082Z,english_676.wav,0,1,1811,,,,,1,0.1,73.76311644,1.97281878
JYS,126,2,2024-06-13T06:01:30.082Z,english_676.wav,0,1,1811,,,,,2,0.2,-26.92634129,1.42487848
JYS,126,2,2024-06-13T06:01:30.082Z,english_676.wav,0,1,1811,,,,,3,0.3,51.70874443,1.45099775
JYS,126,2,2024-06-13T06:01:30.082Z,english_676.wav,0,1,1811,,,,,4,0.32341667,-48.7675791,1.84822532
JYS,127,2,2024-06-13T06:01:30.082Z,english_560.wav,0,1,577,,,,,0,0,6.26341837,1.61909233
JYS,127,2,2024-06-13T06:01:30.082Z,english_560.wav,0,1,577,,,,,1,0.1,-94.10474965,0.93851614
JYS,127,2,2024-06-13T06:01:30.082Z,english_560.wav,0,1,577,,,,,2,0.2,-43.88069215,1.37910144
JYS,127,2,2024-06-13T06:01:30.082Z,english_560.wav,0,1,577,,,,,3,0.3,-26.3559156,1.10578935
JYS,127,2,2024-06-13T06:01:30.082Z,english_560.wav,0,1,577,,,,,4,0.32341667,-91.38105747,0.02070647
JYS,128,2,2024-06-13T06:01:30.082Z,english_37.wav,0,1,623,,,,,0,0,-5.54999706,1.12257854
JYS,128,2,2024-06-13T06:01:30.082Z,english_37.wav,0,1,623,,,,,1,0.1,23.22206304,1.8669628
JYS,128,2,2024-06-13T06:01:30.082Z,english_37.wav,0,1,623,,,,,2,0.2,-57.36481589,0.39386712
JYS,128,2,2024-06-13T06:01:30.082Z,english_37.wav,0,1,623,,,,,3,0.3,58.0578648,1.21765674
JYS,128,2,2024-06-13T06:01:30.082Z,english_37.wav,0,1,623,,,,,4,0.32341667,66.03280024,0.74428952
JYS,129,2,2024-06-13T06:01:30.082Z,english_135.wav,0,1,662,,,,,0,0,92.53632507,0.8813083
JYS,129,2,2024-06-13T06:01:30.082Z,english_135.wav,0,1,662,,,,,1,0.1,42.68843281,1.60503348
JYS,129,2,2024-06-13T06:01:30.082Z,english_135.wav,0,1,662,,,,,2,0.2,87.27237188,0.22265806
JYS,129,2,2024-06-13T06:01:30.082Z,english_135.wav,0,1,662,,,,,3,0.3,-70.62725941,0.4233462
JYS,129,2,2024-06-13T06:01:30.082Z,english_135.wav,0,1,662,,,,,4,0.32341667,91.37204548,0.99500327
JYS,130,2,2024-06-13T06:01:30.082Z,english_982.wav,0,1,1974,,,,,0,0,12.44046596,0.81508625
JYS,130,2,2024-06-13T06:01:30.082Z,english_982.wav,0,1,1974,,,,,1,0.1,-60.41666302,0.92712357
JYS,130,2,2024-06-13T06:01:30.082Z,english_982.wav,0,1,1974,,,,,2,0.2,-35.31499742,0.77678916
JYS,130,2,2024-06-13T06:01:30.082Z,english_982.wav,0,1,1974,,,,,3,0.3,-10.96739076,1.0294352
JYS,130,2,2024-06-13T06:01:30.082Z,english_982.wav,0,1,1974,,,,,4,0.32341667,44.50624474,1.1322674
JYS,131,2,2024-06-13T06:01:30.082Z,english_880.wav,0,1,541,,,,,0,0,3.17154152,0.81183988
JYS,131,2,2024-06-13T06:01:30.082Z,english_880.wav,0,1,541,,,,,1,0.1,-74.02271749,1.44061269
JYS,131,2,2024-06-13T06:01:30.082Z,english_880.wav,0,1,541,,,,,2,0.2,46.15952764,0.42884863
JYS,131,2,2024-06-13T06:01:30.082Z,english_880.wav,0,1,541,,,,,3,0.3,4.14106927,1.93838261
JYS,131,2,2024-06-13T06:01:30.082Z,english_880.wav,0,1,541,,,,,4,0.32341667,26.36707366,1.4503687
JYS,132,2,2024-06-13T06:01:30.082Z,english_847.wav,0,1,689,,,,,0,0,76.45550118,0.38890762
JYS,132,2,2024-06-13T06:01:30.082Z,english_847.wav,0,1,689,,,,,1,0.1,-18.38123868,1.01718805
JYS,132,2,2024-06-13T06:01:30.082Z,english_847.wav,0,1,689,,,,,2,0.2,18.403778,1.24872656
JYS,132,2,2024-06-13T06:01:30.082Z,english_847.wav,0,1,689,,,,,3,0.3,57.196546,0.81951257
JYS,132,2,2024-06-13T06:01:30.082Z,english_847.wav,0,1,689,,,,,4,0.32341667,32.99763753,0.74194876
JYS,133,2,2024-06-13T06:01:30.082Z,english_395.wav,0,1,2530,,,,,0,0,12.69072165,1.18485033
JYS,133,2,2024-06-13T06:01:30.082Z,english_395.wav,0,1,2530,,,,,1,0.1,16.88915645,0.64230571
JYS,133,2,2024-06-13T06:01:30.082Z,english_395.wav,0,1,2530,,,,,2,0.2,49.23789678,0.95454364
JYS,133,2,2024-06-13T06:01:30.082Z,english_395.wav,0,1,2530,,,,,3,0.3,39.87613746,0.75997929
JYS,133,2,2024-06-13T06:01:30.082Z,english_395.wav,0,1,2530,,,,,4,0.32341667,70.90138048,1.50770695
JYS,134,2,2024-06-13T06:01:30.082Z,english_685.wav,0,1,677,,,,,0,0,91.61032892,0.4504418
JYS,134,2,2024-06-13T06:01:30.082Z,english_685.wav,0,1,677,,,,,1,0.1,39.6206555,1.04279806
JYS,134,2,2024-06-13T06:01:30.082Z,english_685.wav,0,1,677,,,,,2,0.2,-3.19880539,1.33634651
JYS,134,2,2024-06-13T06:01:30.082Z,english_685.wav,0,1,677,,,,,3,0.3,-72.84721689,1.25094987
JYS,134,2,2024-06-13T06:01:30.082Z,english_685.wav,0,1,677,,,,,4,0.32341667,98.11411302,0.37726169
JYS,135,2,2024-06-13T06:01:30.082Z,english_461.wav,0,1,574,,,,,0,0,-99.86661298,0.04975834
JYS,135,2,2024-06-13T06:01:30.082Z,english_461.wav,0,1,574,,,,,1,0.1,65.11959058,1.27856071
JYS,135,2,2024-06-13T06:01:30.082Z,english_461.wav,0,1,574,,,,,2,0.2,-96.19635976,1.53618081
JYS,135,2,2024-06-13T06:01:30.082Z,english_461.wav,0,1,574,,,,,3,0.3,56.69155656,1.97602464
JYS,135,2,2024-06-13T06:01:30.082Z,english_461.wav,0,1,574,,,,,4,0.32341667,-82.13106063,1.41647384
JYS,136,2,2024-06-13T06:01:30.082Z,english_388.wav,0,1,681,,,,,0,0,17.9760939,0.95494184
JYS,136,2,2024-06-13T06:01:30.082Z,english_388.wav,0,1,681,,,,,1,0.1,-43.00340989,0.10281418
JYS,136,2,2024-06-13T06:01:30.082Z,english_388.wav,0,1,681,,,,,2,0.2,-30.55059063,1.52164503
JYS,136,2,2024-06-13T06:01:30.082Z,english_388.wav,0,1,681,,,,,3,0.3,-92.55876504,1.24827519
JYS,136,2,2024-06-13T06:01:30.082Z,english_388.wav,0,1,681,,,,,4,0.32341667,-64.21175873,0.08180338
JYS,137,2,2024-06-13T06:01:30.082Z,english_419.wav,0,1,729,,,,,0,0,74.10926047,0.423980314
JYS,137,2,2024-06-13T06:01:30.082Z,english_419.wav,0,1,729,,,,,1,0.1,-50.44969368,1.12483838
JYS,137,2,2024-06-13T06:01:30.082Z,english_419.wav,0,1,729,,,,,2,0.2,-38.37630765,0.473465541
JYS,137,2,2024-06-13T06:01:30.082Z,english_419.wav,0,1,729,,,,,3,0.3,-57.54140712,0.000838613621
JYS,137,2,2024-06-13T06:01:30.082Z,english_419.wav,0,1,729,,,,,4,0.32341667,48.12555486,0.389285402
JYS,138,2,2024-06-13T06:01:30.082Z,english_886.wav,0,0,409,,,,,0,0,52.0334205,0.43451348
JYS,138,2,2024-06-13T06:01:30.082Z,english_886.wav,0,0,409,,,,,1,0.1,-34.60142464,1.57387994
JYS,138,2,2024-06-13T06:01:30.082Z,english_886.wav,0,0,409,,,,,2,0.2,77.69993065,1.05416836
JYS,138,2,2024-06-13T06:01:30.082Z,english_886.wav,0,0,409,,,,,3,0.3,29.08950905,0.32554246
JYS,138,2,2024-06-13T06:01:30.082Z,english_886.wav,0,0,409,,,,,4,0.32341667,-98.8324779,1.85669509
JYS,139,2,2024-06-13T06:01:30.082Z,english_622.wav,0,1,1249,,,,,0,0,-46.49267806,1.425187
JYS,139,2,2024-06-13T06:01:30.082Z,english_622.wav,0,1,1249,,,,,1,0.1,-80.07623079,0.61910367
JYS,139,2,2024-06-13T06:01:30.082Z,english_622.wav,0,1,1249,,,,,2,0.2,-28.70131311,1.30297951
JYS,139,2,2024-06-13T06:01:30.082Z,english_622.wav,0,1,1249,,,,,3,0.3,-26.89352847,1.73248838
JYS,139,2,2024-06-13T06:01:30.082Z,english_622.wav,0,1,1249,,,,,4,0.32341667,-24.31243398,0.85523545
JYS,140,2,2024-06-13T06:01:30.082Z,english_767.wav,0,1,806,,,,,0,0,29.63321135,0.17563718
JYS,140,2,2024-06-13T06:01:30.082Z,english_767.wav,0,1,806,,,,,1,0.1,-31.63783795,0.61981002
JYS,140,2,2024-06-13T06:01:30.082Z,english_767.wav,0,1,806,,,,,2,0.2,56.53254366,1.38773128
JYS,140,2,2024-06-13T06:01:30.082Z,english_767.wav,0,1,806,,,,,3,0.3,52.69149806,1.37795514
JYS,140,2,2024-06-13T06:01:30.082Z,english_767.wav,0,1,806,,,,,4,0.32341667,-0.8536295,1.97315338
JYS,141,2,2024-06-13T06:01:30.082Z,english_43.wav,0,0,2346,,,,,0,0,22.40064366,1.74132857
JYS,141,2,2024-06-13T06:01:30.082Z,english_43.wav,0,0,2346,,,,,1,0.1,-68.20152198,0.12763156
JYS,141,2,2024-06-13T06:01:30.082Z,english_43.wav,0,0,2346,,,,,2,0.2,62.56231291,0.31420738
JYS,141,2,2024-06-13T06:01:30.082Z,english_43.wav,0,0,2346,,,,,3,0.3,45.0736378,0.98572154
JYS,141,2,2024-06-13T06:01:30.082Z,english_43.wav,0,0,2346,,,,,4,0.32341667,-36.46791656,0.91325677
JYS,142,2,2024-06-13T06:01:30.082Z,english_634.wav,0,1,728,,,,,0,0,-94.29539956,0.6011183
JYS,142,2,2024-06-13T06:01:30.082Z,english_634.wav,0,1,728,,,,,1,0.1,28.41708136,1.15242669
JYS,142,2,2024-06-13T06:01:30.082Z,english_634.wav,0,1,728,,,,,2,0.2,-99.13935281,0.68826906
JYS,142,2,2024-06-13T06:01:30.082Z,english_634.wav,0,1,728,,,,,3,0.3,-78.11216949,1.44169335
JYS,142,2,2024-06-13T06:01:30.082Z,english_634.wav,0,1,728,,,,,4,0.32341667,-54.5881907,0.90266094
JYS,143,2,2024-06-13T06:01:30.082Z,english_154.wav,0,1,1343,,,,,0,0,69.79630433,0.95543174
JYS,143,2,2024-06-13T06:01:30.082Z,english_154.wav,0,1,1343,,,,,1,0.1,-67.81892388,1.87835363
JYS,143,2,2024-06-13T06:01:30.082Z,english_154.wav,0,1,1343,,,,,2,0.2,14.97335347,1.19287874
JYS,143,2,2024-06-13T06:01:30.082Z,english_154.wav,0,1,1343,,,,,3,0.3,8.47433965,1.12321966
JYS,143,2,2024-06-13T06:01:30.082Z,english_154.wav,0,1,1343,,,,,4,0.32341667,32.47098569,0.66995817
JYS,144,2,2024-06-13T06:01:30.082Z,english_16.wav,0,1,608,,,,,0,0,-86.84797814,0.47796166
JYS,144,2,2024-06-13T06:01:30.082Z,english_16.wav,0,1,608,,,,,1,0.1,29.78439304,1.82902446
JYS,144,2,2024-06-13T06:01:30.082Z,english_16.wav,0,1,608,,,,,2,0.2,93.37667148,1.57835565
JYS,144,2,2024-06-13T06:01:30.082Z,english_16.wav,0,1,608,,,,,3,0.3,-84.28086854,0.98546729
JYS,144,2,2024-06-13T06:01:30.082Z,english_16.wav,0,1,608,,,,,4,0.32341667,-8.77302982,0.88950072
JYS,145,2,2024-06-13T06:01:30.082Z,english_374.wav,0,1,1076,,,,,0,0,-43.98521466,1.11607514
JYS,145,2,2024-06-13T06:01:30.082Z,english_374.wav,0,1,1076,,,,,1,0.1,-24.87181663,0.38249505
JYS,145,2,2024-06-13T06:01:30.082Z,english_374.wav,0,1,1076,,,,,2,0.2,-29.31566683,1.56774755
JYS,145,2,2024-06-13T06:01:30.082Z,english_374.wav,0,1,1076,,,,,3,0.3,-43.36019392,1.33837662
JYS,145,2,2024-06-13T06:01:30.082Z,english_374.wav,0,1,1076,,,,,4,0.32341667,-35.5175379,0.68793086
JYS,146,2,2024-06-13T06:01:30.082Z,english_864.wav,0,1,607,,,,,0,0,-41.66547405,0.15536101
JYS,146,2,2024-06-13T06:01:30.082Z,english_864.wav,0,1,607,,,,,1,0.1,47.36949562,1.78739046
JYS,146,2,2024-06-13T06:01:30.082Z,english_864.wav,0,1,607,,,,,2,0.2,87.97635609,1.48310956
JYS,146,2,2024-06-13T06:01:30.082Z,english_864.wav,0,1,607,,,,,3,0.3,-18.88921291,0.35838492
JYS,146,2,2024-06-13T06:01:30.082Z,english_864.wav,0,1,607,,,,,4,0.32341667,13.88839096,0.21709894
JYS,147,2,2024-06-13T06:01:30.082Z,english_930.wav,0,1,716,,,,,0,0,-52.65701122,0.60066533
JYS,147,2,2024-06-13T06:01:30.082Z,english_930.wav,0,1,716,,,,,1,0.1,-24.36484499,1.33650528
JYS,147,2,2024-06-13T06:01:30.082Z,english_930.wav,0,1,716,,,,,2,0.2,4.10813066,0.15979886
JYS,147,2,2024-06-13T06:01:30.082Z,english_930.wav,0,1,716,,,,,3,0.3,93.74919515,1.46288505
JYS,147,2,2024-06-13T06:01:30.082Z,english_930.wav,0,1,716,,,,,4,0.32341667,66.31726896,0.93993915
JYS,148,2,2024-06-13T06:01:30.082Z,english_997.wav,0,1,1016,,,,,0,0,93.4252615,0.4603395
JYS,148,2,2024-06-13T06:01:30.082Z,english_997.wav,0,1,1016,,,,,1,0.1,62.16088314,0.21654412
JYS,148,2,2024-06-13T06:01:30.082Z,english_997.wav,0,1,1016,,,,,2,0.2,-26.38638022,1.36234896
JYS,148,2,2024-06-13T06:01:30.082Z,english_997.wav,0,1,1016,,,,,3,0.3,89.15363163,1.07462804
JYS,148,2,2024-06-13T06:01:30.082Z,english_997.wav,0,1,1016,,,,,4,0.32341667,-25.83137337,0.84007196
JYS,149,2,2024-06-13T06:01:30.082Z,english_815.wav,0,0,1173,,,,,0,0,-76.1669867,0.29426078
JYS,149,2,2024-06-13T06:01:30.082Z,english_815.wav,0,0,1173,,,,,1,0.1,-40.517901,0.96858733
JYS,149,2,2024-06-13T06:01:30.082Z,english_815.wav,0,0,1173,,,,,2,0.2,-46.68959253,0.83382199
JYS,149,2,2024-06-13T06:01:30.082Z,english_815.wav,0,0,1173,,,,,3,0.3,-79.23468646,1.13727176
JYS,149,2,2024-06-13T06:01:30.082Z,english_815.wav,0,0,1173,,,,,4,0.32341667,-63.63497058,0.09357312
JYS,150,3,2024-06-13T06:01:30.082Z,english_819.wav,0,1,1889,,,,,0,0,56.56933068,1.61805944
JYS,150,3,2024-06-13T06:01:30.082Z,english_819.wav,0,1,1889,,,,,1,0.1,16.98960986,1.69207785
JYS,150,3,2024-06-13T06:01:30.082Z,english_819.wav,0,1,1889,,,,,2,0.2,-13.59600893,1.33633205
JYS,150,3,2024-06-13T06:01:30.082Z,english_819.wav,0,1,1889,,,,,3,0.3,79.1710335,0.49452457
JYS,150,3,2024-06-13T06:01:30.082Z,english_819.wav,0,1,1889,,,,,4,0.32341667,25.34620926,1.97134574
JYS,151,3,2024-06-13T06:01:30.082Z,english_714.wav,0,1,609,,,,,0,0,6.62463448,0.98205871
JYS,151,3,2024-06-13T06:01:30.082Z,english_714.wav,0,1,609,,,,,1,0.1,-7.37775178,1.90018259
JYS,151,3,2024-06-13T06:01:30.082Z,english_714.wav,0,1,609,,,,,2,0.2,-58.74003357,1.33033281
JYS,151,3,2024-06-13T06:01:30.082Z,english_714.wav,0,1,609,,,,,3,0.3,-38.84014254,0.20009115
JYS,151,3,2024-06-13T06:01:30.082Z,english_714.wav,0,1,609,,,,,4,0.32341667,-23.67047323,0.44650169
JYS,152,3,2024-06-13T06:01:30.082Z,english_514.wav,0,0,1081,,,,,0,0,-61.65105701,1.12509033
JYS,152,3,2024-06-13T06:01:30.082Z,english_514.wav,0,0,1081,,,,,1,0.1,49.84264816,0.78701739
JYS,152,3,2024-06-13T06:01:30.082Z,english_514.wav,0,0,1081,,,,,2,0.2,14.14440898,0.37052689
JYS,152,3,2024-06-13T06:01:30.082Z,english_514.wav,0,0,1081,,,,,3,0.3,-30.10662908,1.42053426
JYS,152,3,2024-06-13T06:01:30.082Z,english_514.wav,0,0,1081,,,,,4,0.32341667,90.48337022,1.94621598
JYS,153,3,2024-06-13T06:01:30.082Z,english_105.wav,0,0,689,,,,,0,0,15.80659439,1.08535851
JYS,153,3,2024-06-13T06:01:30.082Z,english_105.wav,0,0,689,,,,,1,0.1,42.66899606,0.24895576
JYS,153,3,2024-06-13T06:01:30.082Z,english_105.wav,0,0,689,,,,,2,0.2,70.76731416,1.16165898
JYS,153,3,2024-06-13T06:01:30.082Z,english_105.wav,0,0,689,,,,,3,0.3,70.45261783,1.37248151
JYS,153,3,2024-06-13T06:01:30.082Z,english_105.wav,0,0,689,,,,,4,0.32341667,38.01355443,0.81952348
JYS,154,3,2024-06-13T06:01:30.082Z,english_473.wav,0,0,629,,,,,0,0,2.94536382,1.14273616
JYS,154,3,2024-06-13T06:01:30.082Z,english_473.wav,0,0,629,,,,,1,0.1,67.15962,0.71228689
JYS,154,3,2024-06-13T06:01:30.082Z,english_473.wav,0,0,629,,,,,2,0.2,-20.48190634,1.20280034
JYS,154,3,2024-06-13T06:01:30.082Z,english_473.wav,0,0,629,,,,,3,0.3,20.58811131,0.94325649
JYS,154,3,2024-06-13T06:01:30.082Z,english_473.wav,0,0,629,,,,,4,0.32341667,-71.10919795,1.82149668
JYS,155,3,2024-06-13T06:01:30.082Z,english_219.wav,0,0,568,,,,,0,0,38.40040381,1.09142553
JYS,155,3,2024-06-13T06:01:30.082Z,english_219.wav,0,0,568,,,,,1,0.1,-26.23926727,0.5740428
JYS,155,3,2024-06-13T06:01:30.082Z,english_219.wav,0,0,568,,,,,2,0.2,-57.67558578,1.19056911
JYS,155,3,2024-06-13T06:01:30.082Z,english_219.wav,0,0,568,,,,,3,0.3,50.56926795,1.87089358
JYS,155,3,2024-06-13T06:01:30.082Z,english_219.wav,0,0,568,,,,,4,0.32341667,64.39220397,1.06933149
JYS,156,3,2024-06-13T06:01:30.082Z,english_458.wav,0,0,597,,,,,0,0,-49.69821038,0.39452057
JYS,156,3,2024-06-13T06:01:30.082Z,english_458.wav,0,0,597,,,,,1,0.1,-49.80647014,1.24604375
JYS,156,3,2024-06-13T06:01:30.082Z,english_458.wav,0,0,597,,,,,2,0.2,11.98261521,0.42272405
JYS,156,3,2024-06-13T06:01:30.082Z,english_458.wav,0,0,597,,,,,3,0.3,59.43319096,0.21259233
JYS,156,3,2024-06-13T06:01:30.082Z,english_458.wav,0,0,597,,,,,4,0.32341667,-34.5671642,1.13235362
JYS,157,3,2024-06-13T06:01:30.082Z,english_329.wav,0,0,472,,,,,0,0,-48.89108629,1.2424848
JYS,157,3,2024-06-13T06:01:30.082Z,english_329.wav,0,0,472,,,,,1,0.1,55.67852038,1.73811564
JYS,157,3,2024-06-13T06:01:30.082Z,english_329.wav,0,0,472,,,,,2,0.2,48.16827585,0.4928271
JYS,157,3,2024-06-13T06:01:30.082Z,english_329.wav,0,0,472,,,,,3,0.3,73.70818564,0.68407289
JYS,157,3,2024-06-13T06:01:30.082Z,english_329.wav,0,0,472,,,,,4,0.32341667,85.70797026,1.92917435
JYS,158,3,2024-06-13T06:01:30.082Z,english_637.wav,0,0,1463,,,,,0,0,-1.71458324,1.21739028
JYS,158,3,2024-06-13T06:01:30.082Z,english_637.wav,0,0,1463,,,,,1,0.1,-8.03758275,0.51882016
JYS,158,3,2024-06-13T06:01:30.082Z,english_637.wav,0,0,1463,,,,,2,0.2,-8.49550443,1.63519413
JYS,158,3,2024-06-13T06:01:30.082Z,english_637.wav,0,0,1463,,,,,3,0.3,-8.27727969,1.34863813
JYS,158,3,2024-06-13T06:01:30.082Z,english_637.wav,0,0,1463,,,,,4,0.32341667,64.42471467,1.93003029
JYS,159,3,2024-06-13T06:01:30.082Z,english_265.wav,0,1,1112,,,,,0,0,-30.2287418,1.31067296
JYS,159,3,2024-06-13T06:01:30.082Z,english_265.wav,0,1,1112,,,,,1,0.1,86.62283936,0.87427745
JYS,159,3,2024-06-13T06:01:30.082Z,english_265.wav,0,1,1112,,,,,2,0.2,-21.47577863,1.37620008
JYS,159,3,2024-06-13T06:01:30.082Z,english_265.wav,0,1,1112,,,,,3,0.3,84.9300577,0.45825557
JYS,159,3,2024-06-13T06:01:30.082Z,english_265.wav,0,1,1112,,,,,4,0.32341667,59.52250756,1.13518739
JYS,160,3,2024-06-13T06:01:30.082Z,english_30.wav,0,1,563,,,,,0,0,-18.5398728,0.31748681
JYS,160,3,2024-06-13T06:01:30.082Z,english_30.wav,0,1,563,,,,,1,0.1,-67.34991207,1.82477139
JYS,160,3,2024-06-13T06:01:30.082Z,english_30.wav,0,1,563,,,,,2,0.2,65.54879707,1.59992979
JYS,160,3,2024-06-13T06:01:30.082Z,english_30.wav,0,1,563,,,,,3,0.3,30.88088319,0.89523729
JYS,160,3,2024-06-13T06:01:30.082Z,english_30.wav,0,1,563,,,,,4,0.32341667,50.60550813,1.02052202
JYS,161,3,2024-06-13T06:01:30.082Z,english_972.wav,0,1,604,,,,,0,0,-87.82800068,1.28286493
JYS,161,3,2024-06-13T06:01:30.082Z,english_972.wav,0,1,604,,,,,1,0.1,-25.45661385,0.89058027
JYS,161,3,2024-06-13T06:01:30.082Z,english_972.wav,0,1,604,,,,,2,0.2,2.95853851,1.4716374
JYS,161,3,2024-06-13T06:01:30.082Z,english_972.wav,0,1,604,,,,,3,0.3,84.61583696,0.6386035
JYS,161,3,2024-06-13T06:01:30.082Z,english_972.wav,0,1,604,,,,,4,0.32341667,42.95706616,1.51056083
JYS,162,3,2024-06-13T06:01:30.082Z,english_479.wav,0,0,1243,,,,,0,0,74.98268857,0.98081986
JYS,162,3,2024-06-13T06:01:30.082Z,english_479.wav,0,0,1243,,,,,1,0.1,16.03290679,0.71187618
JYS,162,3,2024-06-13T06:01:30.082Z,english_479.wav,0,0,1243,,,,,2,0.2,78.97784812,0.27050369
JYS,162,3,2024-06-13T06:01:30.082Z,english_479.wav,0,0,1243,,,,,3,0.3,-15.63843586,1.15797271
JYS,162,3,2024-06-13T06:01:30.082Z,english_479.wav,0,0,1243,,,,,4,0.32341667,42.04802753,1.51318639
JYS,163,3,2024-06-13T06:01:30.082Z,english_905.wav,0,0,535,,,,,0,0,73.76258642,1.30259847
JYS,163,3,2024-06-13T06:01:30.082Z,english_905.wav,0,0,535,,,,,1,0.1,49.84186991,0.15786419
JYS,163,3,2024-06-13T06:01:30.082Z,english_905.wav,0,0,535,,,,,2,0.2,-84.55275191,0.47562292
JYS,163,3,2024-06-13T06:01:30.082Z,english_905.wav,0,0,535,,,,,3,0.3,70.45460649,1.69272047
JYS,163,3,2024-06-13T06:01:30.082Z,english_905.wav,0,0,535,,,,,4,0.32341667,-84.87734561,1.28570309
JYS,164,3,2024-06-13T06:01:30.082Z,english_985.wav,0,0,422,,,,,0,0,31.76144354,0.46805505
JYS,164,3,2024-06-13T06:01:30.082Z,english_985.wav,0,0,422,,,,,1,0.1,49.0534069,1.72857245
JYS,164,3,2024-06-13T06:01:30.082Z,english_985.wav,0,0,422,,,,,2,0.2,-59.14058353,0.05336254
JYS,164,3,2024-06-13T06:01:30.082Z,english_985.wav,0,0,422,,,,,3,0.3,-36.25561351,0.45417652
JYS,164,3,2024-06-13T06:01:30.082Z,english_985.wav,0,0,422,,,,,4,0.32341667,-53.50268286,1.33850641
JYS,165,3,2024-06-13T06:01:30.082Z,english_205.wav,0,1,1300,,,,,0,0,55.03693902,1.41699591
JYS,165,3,2024-06-13T06:01:30.082Z,english_205.wav,0,1,1300,,,,,1,0.1,59.05347117,0.25749205
JYS,165,3,2024-06-13T06:01:30.082Z,english_205.wav,0,1,1300,,,,,2,0.2,-51.93258482,1.78695407
JYS,165,3,2024-06-13T06:01:30.082Z,english_205.wav,0,1,1300,,,,,3,0.3,-18.66886592,0.11157042
JYS,165,3,2024-06-13T06:01:30.082Z,english_205.wav,0,1,1300,,,,,4,0.32341667,-25.16213195,1.74030417
JYS,166,3,2024-06-13T06:01:30.082Z,english_699.wav,0,1,815,,,,,0,0,-21.84844695,0.55007596
JYS,166,3,2024-06-13T06:01:30.082Z,english_699.wav,0,1,815,,,,,1,0.1,-20.61050251,0.98595355
JYS,166,3,2024-06-13T06:01:30.082Z,english_699.wav,0,1,815,,,,,2,0.2,-7.57046677,1.16771202
JYS,166,3,2024-06-13T06:01:30.082Z,english_699.wav,0,1,815,,,,,3,0.3,-90.18255135,0.60930532
JYS,166,3,2024-06-13T06:01:30.082Z,english_699.wav,0,1,815,,,,,4,0.32341667,-39.12532958,1.39260434
JYS,167,3,2024-06-13T06:01:30.082Z,english_507.wav,0,1,517,,,,,0,0,-61.1842488,1.97653192
JYS,167,3,2024-06-13T06:01:30.082Z,english_507.wav,0,1,517,,,,,1,0.1,-67.40048172,1.52355847
JYS,167,3,2024-06-13T06:01:30.082Z,english_507.wav,0,1,517,,,,,2,0.2,12.41471853,0.98006415
JYS,167,3,2024-06-13T06:01:30.082Z,english_507.wav,0,1,517,,,,,3,0.3,-23.82579329,0.44372312
JYS,167,3,2024-06-13T06:01:30.082Z,english_507.wav,0,1,517,,,,,4,0.32341667,9.53005369,0.65281453
JYS,168,3,2024-06-13T06:01:30.082Z,english_259.wav,0,1,776,,,,,0,0,7.90187791,1.3064553
JYS,168,3,2024-06-13T06:01:30.082Z,english_259.wav,0,1,776,,,,,1,0.1,31.67295647,1.01100372
JYS,168,3,2024-06-13T06:01:30.082Z,english_259.wav,0,1,776,,,,,2,0.2,-53.65780041,0.35520266
JYS,168,3,2024-06-13T06:01:30.082Z,english_259.wav,0,1,776,,,,,3,0.3,-72.94929757,1.35187683
JYS,168,3,2024-06-13T06:01:30.082Z,english_259.wav,0,1,776,,,,,4,0.32341667,58.35152721,1.39599087
JYS,169,3,2024-06-13T06:01:30.082Z,english_355.wav,0,1,1096,,,,,0,0,33.6784286,1.28512049
JYS,169,3,2024-06-13T06:01:30.082Z,english_355.wav,0,1,1096,,,,,1,0.1,30.74796889,1.04729355
JYS,169,3,2024-06-13T06:01:30.082Z,english_355.wav,0,1,1096,,,,,2,0.2,71.39310534,0.74339822
JYS,169,3,2024-06-13T06:01:30.082Z,english_355.wav,0,1,1096,,,,,3,0.3,38.16266559,0.86152361
JYS,169,3,2024-06-13T06:01:30.082Z,english_355.wav,0,1,1096,,,,,4,0.32341667,-39.8799084,1.83215587
JYS,170,3,2024-06-13T06:01:30.082Z,english_869.wav,0,1,1012,,,,,0,0,31.82870938,0.91730192
JYS,170,3,2024-06-13T06:01:30.082Z,english_869.wav,0,1,1012,,,,,1,0.1,55.69153841,1.54634356
JYS,170,3,2024-06-13T06:01:30.082Z,english_869.wav,0,1,1012,,,,,2,0.2,44.83997999,0.32401745
JYS,170,3,2024-06-13T06:01:30.082Z,english_869.wav,0,1,1012,,,,,3,0.3,-64.6596515,1.34292926
JYS,170,3,2024-06-13T06:01:30.082Z,english_869.wav,0,1,1012,,,,,4,0.32341667,-51.58434075,0.99771643
JYS,171,3,2024-06-13T06:01:30.082Z,english_671.wav,0,0,1411,,,,,0,0,32.91930287,1.74193101
JYS,171,3,2024-06-13T06:01:30.082Z,english_671.wav,0,0,1411,,,,,1,0.1,6.16976114,0.51820224
JYS,171,3,2024-06-13T06:01:30.082Z,english_671.wav,0,0,1411,,,,,2,0.2,-34.00390264,0.07120536
JYS,171,3,2024-06-13T06:01:30.082Z,english_671.wav,0,0,1411,,,,,3,0.3,18.374511,0.3828633
JYS,171,3,2024-06-13T06:01:30.082Z,english_671.wav,0,0,1411,,,,,4,0.32341667,-2.98713897,1.2592669
JYS,172,3,2024-06-13T06:01:30.082Z,english_576.wav,0,1,1174,,,,,0,0,70.71636046,1.40655209
JYS,172,3,2024-06-13T06:01:30.082Z,english_576.wav,0,1,1174,,,,,1,0.1,-53.10414049,0.7609351
JYS,172,3,2024-06-13T06:01:30.082Z,english_576.wav,0,1,1174,,,,,2,0.2,34.4374047,1.0155723
JYS,172,3,2024-06-13T06:01:30.082Z,english_576.wav,0,1,1174,,,,,3,0.3,19.64113521,1.45906276
JYS,172,3,2024-06-13T06:01:30.082Z,english_576.wav,0,1,1174,,,,,4,0.32341667,36.63265498,1.49724695
JYS,173,3,2024-06-13T06:01:30.082Z,english_919.wav,0,1,650,,,,,0,0,-78.03270024,1.18744007
JYS,173,3,2024-06-13T06:01:30.082Z,english_919.wav,0,1,650,,,,,1,0.1,24.9634274,0.32639994
JYS,173,3,2024-06-13T06:01:30.082Z,english_919.wav,0,1,650,,,,,2,0.2,-36.24618286,1.14830442
JYS,173,3,2024-06-13T06:01:30.082Z,english_919.wav,0,1,650,,,,,3,0.3,-67.38261266,0.75322619
JYS,173,3,2024-06-13T06:01:30.082Z,english_919.wav,0,1,650,,,,,4,0.32341667,86.21803917,0.69239757
JYS,174,3,2024-06-13T06:01:30.082Z,english_624.wav,0,1,696,,,,,0,0,-66.94889137,0.79130031
JYS,174,3,2024-06-13T06:01:30.082Z,english_624.wav,0,1,696,,,,,1,0.1,-6.87427926,1.85178888
JYS,174,3,2024-06-13T06:01:30.082Z,english_624.wav,0,1,696,,,,,2,0.2,69.52298075,0.79988954
JYS,174,3,2024-06-13T06:01:30.082Z,english_624.wav,0,1,696,,,,,3,0.3,-45.26015132,0.87521033
JYS,174,3,2024-06-13T06:01:30.082Z,english_624.wav,0,1,696,,,,,4,0.32341667,-50.37935108,1.50754026
JYS,175,3,2024-06-13T06:01:30.082Z,english_599.wav,0,1,428,,,,,0,0,-57.09760884,1.03382432
JYS,175,3,2024-06-13T06:01:30.082Z,english_599.wav,0,1,428,,,,,1,0.1,31.85682387,1.26885403
JYS,175,3,2024-06-13T06:01:30.082Z,english_599.wav,0,1,428,,,,,2,0.2,-6.73425875,1.24717465
JYS,175,3,2024-06-13T06:01:30.082Z,english_599.wav,0,1,428,,,,,3,0.3,47.95830633,1.34338376
JYS,175,3,2024-06-13T06:01:30.082Z,english_599.wav,0,1,428,,,,,4,0.32341667,-83.8084816,0.34550335
JYS,176,3,2024-06-13T06:01:30.082Z,english_74.wav,0,1,543,,,,,0,0,86.29588785,1.196208
JYS,176,3,2024-06-13T06:01:30.082Z,english_74.wav,0,1,543,,,,,1,0.1,-14.52381687,1.63208143
JYS,176,3,2024-06-13T06:01:30.082Z,english_74.wav,0,1,543,,,,,2,0.2,77.94321906,0.46125368
JYS,176,3,2024-06-13T06:01:30.082Z,english_74.wav,0,1,543,,,,,3,0.3,-32.33104188,1.38278461
JYS,176,3,2024-06-13T06:01:30.082Z,english_74.wav,0,1,543,,,,,4,0.32341667,9.46602754,0.83147108
JYS,177,3,2024-06-13T06:01:30.082Z,english_781.wav,0,1,590,,,,,0,0,22.64916165,0.31928057
JYS,177,3,2024-06-13T06:01:30.082Z,english_781.wav,0,1,590,,,,,1,0.1,6.89582518,1.4040275
JYS,177,3,2024-06-13T06:01:30.082Z,english_781.wav,0,1,590,,,,,2,0.2,-79.07711894,0.86558079
JYS,177,3,2024-06-13T06:01:30.082Z,english_781.wav,0,1,590,,,,,3,0.3,66.534152,0.14510309
JYS,177,3,2024-06-13T06:01:30.082Z,english_781.wav,0,1,590,,,,,4,0.32341667,93.30494506,0.79620595
JYS,178,3,2024-06-13T06:01:30.082Z,english_47.wav,0,1,649,,,,,0,0,70.62381491,1.36620222
JYS,178,3,2024-06-13T06:01:30.082Z,english_47.wav,0,1,649,,,,,1,0.1,-43.60565268,0.47559644
JYS,178,3,2024-06-13T06:01:30.082Z,english_47.wav,0,1,649,,,,,2,0.2,29.54670776,0.92078875
JYS,178,3,2024-06-13T06:01:30.082Z,english_47.wav,0,1,649,,,,,3,0.3,95.208653,0.83015506
JYS,178,3,2024-06-13T06:01:30.082Z,english_47.wav,0,1,649,,,,,4,0.32341667,-87.83630424,1.40747595
JYS,179,3,2024-06-13T06:01:30.082Z,english_95.wav,0,1,915,,,,,0,0,-9.17523314,0.73915747
JYS,179,3,2024-06-13T06:01:30.082Z,english_95.wav,0,1,915,,,,,1,0.1,-95.16832451,1.01172325
JYS,179,3,2024-06-13T06:01:30.082Z,english_95.wav,0,1,915,,,,,2,0.2,-21.6130257,1.19817679
JYS,179,3,2024-06-13T06:01:30.082Z,english_95.wav,0,1,915,,,,,3,0.3,0.51006416,1.53285694
JYS,179,3,2024-06-13T06:01:30.082Z,english_95.wav,0,1,915,,,,,4,0.32341667,43.00131518,1.08383215
JYS,180,3,2024-06-13T06:01:30.082Z,english_38.wav,0,1,778,,,,,0,0,-2.78484508,0.45448836
JYS,180,3,2024-06-13T06:01:30.082Z,english_38.wav,0,1,778,,,,,1,0.1,-57.68912839,0.86252605
JYS,180,3,2024-06-13T06:01:30.082Z,english_38.wav,0,1,778,,,,,2,0.2,-17.27242754,1.61904865
JYS,180,3,2024-06-13T06:01:30.082Z,english_38.wav,0,1,778,,,,,3,0.3,-2.64514482,1.39130822
JYS,180,3,2024-06-13T06:01:30.082Z,english_38.wav,0,1,778,,,,,4,0.32341667,55.14373267,1.59066599
JYS,181,3,2024-06-13T06:01:30.082Z,english_643.wav,0,1,650,,,,,0,0,-40.15003434,1.60262153
JYS,181,3,2024-06-13T06:01:30.082Z,english_643.wav,0,1,650,,,,,1,0.1,-24.12893917,1.7682358
JYS,181,3,2024-06-13T06:01:30.082Z,english_643.wav,0,1,650,,,,,2,0.2,-40.66556796,0.31725537
JYS,181,3,2024-06-13T06:01:30.082Z,english_643.wav,0,1,650,,,,,3,0.3,75.01987067,0.56722121
JYS,181,3,2024-06-13T06:01:30.082Z,english_643.wav,0,1,650,,,,,4,0.32341667,29.71481383,1.87277365
JYS,182,3,2024-06-13T06:01:30.082Z,english_50.wav,0,1,571,,,,,0,0,-72.72872807,1.68140442
JYS,182,3,2024-06-13T06:01:30.082Z,english_50.wav,0,1,571,,,,,1,0.1,-88.33626222,1.82728433
JYS,182,3,2024-06-13T06:01:30.082Z,english_50.wav,0,1,571,,,,,2,0.2,-2.18882928,0.80476824
JYS,182,3,2024-06-13T06:01:30.082Z,english_50.wav,0,1,571,,,,,3,0.3,60.61456424,0.21215651
JYS,182,3,2024-06-13T06:01:30.082Z,english_50.wav,0,1,571,,,,,4,0.32341667,95.28335061,1.87644163
JYS,183,3,2024-06-13T06:01:30.082Z,english_67.wav,0,1,616,,,,,0,0,70.16279698,0.73199358
JYS,183,3,2024-06-13T06:01:30.082Z,english_67.wav,0,1,616,,,,,1,0.1,33.8182948,0.88382403
JYS,183,3,2024-06-13T06:01:30.082Z,english_67.wav,0,1,616,,,,,2,0.2,-49.10498957,1.67993254
JYS,183,3,2024-06-13T06:01:30.082Z,english_67.wav,0,1,616,,,,,3,0.3,-4.93823124,0.24455532
JYS,183,3,2024-06-13T06:01:30.082Z,english_67.wav,0,1,616,,,,,4,0.32341667,24.09614703,1.99747442
JYS,184,3,2024-06-13T06:01:30.082Z,english_144.wav,0,0,1149,,,,,0,0,-68.95587174,0.23806678
JYS,184,3,2024-06-13T06:01:30.082Z,english_144.wav,0,0,1149,,,,,1,0.1,-74.16141139,0.77020267
JYS,184,3,2024-06-13T06:01:30.082Z,english_144.wav,0,0,1149,,,,,2,0.2,-19.31034794,0.33858197
JYS,184,3,2024-06-13T06:01:30.082Z,english_144.wav,0,0,1149,,,,,3,0.3,-77.96768175,1.42512122
JYS,184,3,2024-06-13T06:01:30.082Z,english_144.wav,0,0,1149,,,,,4,0.32341667,3.46911061,0.57629619
JYS,185,3,2024-06-13T06:01:30.082Z,english_325.wav,0,1,1030,,,,,0,0,-36.86035688,0.2784687
JYS,185,3,2024-06-13T06:01:30.082Z,english_325.wav,0,1,1030,,,,,1,0.1,-55.38569655,1.41229923
JYS,185,3,2024-06-13T06:01:30.082Z,english_325.wav,0,1,1030,,,,,2,0.2,-56.86017215,0.83316938
JYS,185,3,2024-06-13T06:01:30.082Z,english_325.wav,0,1,1030,,,,,3,0.3,-98.19449268,0.3465596
JYS,185,3,2024-06-13T06:01:30.082Z,english_325.wav,0,1,1030,,,,,4,0.32341667,-6.42447902,1.41863786
JYS,186,3,2024-06-13T06:01:30.082Z,english_832.wav,0,1,504,,,,,0,0,-21.62855277,1.31372842
JYS,186,3,2024-06-13T06:01:30.082Z,english_832.wav,0,1,504,,,,,1,0.1,-35.3834786,1.55258378
JYS,186,3,2024-06-13T06:01:30.082Z,english_832.wav,0,1,504,,,,,2,0.2,52.65867494,1.50567803
JYS,186,3,2024-06-13T06:01:30.082Z,english_832.wav,0,1,504,,,,,3,0.3,62.52082964,1.2163301
JYS,186,3,2024-06-13T06:01:30.082Z,english_832.wav,0,1,504,,,,,4,0.32341667,46.66062952,1.20100353
JYS,187,3,2024-06-13T06:01:30.082Z,english_187.wav,0,1,619,,,,,0,0,-18.35695568,0.61755768
JYS,187,3,2024-06-13T06:01:30.082Z,english_187.wav,0,1,619,,,,,1,0.1,10.21632188,1.6626445
JYS,187,3,2024-06-13T06:01:30.082Z,english_187.wav,0,1,619,,,,,2,0.2,0.69047377,0.70950015
JYS,187,3,2024-06-13T06:01:30.082Z,english_187.wav,0,1,619,,,,,3,0.3,67.68385624,0.8856252
JYS,187,3,2024-06-13T06:01:30.082Z,english_187.wav,0,1,619,,,,,4,0.32341667,48.15291114,1.92627472
JYS,188,3,2024-06-13T06:01:30.082Z,english_237.wav,0,1,636,,,,,0,0,-40.35335157,0.42178982
JYS,188,3,2024-06-13T06:01:30.082Z,english_237.wav,0,1,636,,,,,1,0.1,42.86374565,0.6060796
JYS,188,3,2024-06-13T06:01:30.082Z,english_237.wav,0,1,636,,,,,2,0.2,7.79480372,0.58312984
JYS,188,3,2024-06-13T06:01:30.082Z,english_237.wav,0,1,636,,,,,3,0.3,-48.50613844,1.50499267
JYS,188,3,2024-06-13T06:01:30.082Z,english_237.wav,0,1,636,,,,,4,0.32341667,17.78174719,1.72211243
JYS,189,3,2024-06-13T06:01:30.082Z,english_752.wav,0,1,601,,,,,0,0,-89.50526135,1.26833375
JYS,189,3,2024-06-13T06:01:30.082Z,english_752.wav,0,1,601,,,,,1,0.1,16.42916277,1.25445964
JYS,189,3,2024-06-13T06:01:30.082Z,english_752.wav,0,1,601,,,,,2,0.2,-62.11724863,1.84048801
JYS,189,3,2024-06-13T06:01:30.082Z,english_752.wav,0,1,601,,,,,3,0.3,-22.7839786,0.96813738
JYS,189,3,2024-06-13T06:01:30.082Z,english_752.wav,0,1,601,,,,,4,0.32341667,21.77934146,1.95604557
JYS,190,3,2024-06-13T06:01:30.082Z,english_870.wav,0,1,664,,,,,0,0,-85.66751388,1.70746054
JYS,190,3,2024-06-13T06:01:30.082Z,english_870.wav,0,1,664,,,,,1,0.1,30.55194498,0.68953906
JYS,190,3,2024-06-13T06:01:30.082Z,english_870.wav,0,1,664,,,,,2,0.2,-98.28008273,1.62274852
JYS,190,3,2024-06-13T06:01:30.082Z,english_870.wav,0,1,664,,,,,3,0.3,-58.1418371,0.74531017
JYS,190,3,2024-06-13T06:01:30.082Z,english_870.wav,0,1,664,,,,,4,0.32341667,81.20200135,1.06596266
JYS,191,3,2024-06-13T06:01:30.082Z,english_294.wav,0,1,504,,,,,0,0,-92.15775888,0.74816787
JYS,191,3,2024-06-13T06:01:30.082Z,english_294.wav,0,1,504,,,,,1,0.1,71.96645866,1.71916745
JYS,191,3,2024-06-13T06:01:30.082Z,english_294.wav,0,1,504,,,,,2,0.2,-25.46852775,1.7524902
JYS,191,3,2024-06-13T06:01:30.082Z,english_294.wav,0,1,504,,,,,3,0.3,17.21488016,0.9780509
JYS,191,3,2024-06-13T06:01:30.082Z,english_294.wav,0,1,504,,,,,4,0.32341667,-10.41176069,1.21177262
JYS,192,3,2024-06-13T06:01:30.082Z,english_295.wav,0,1,951,,,,,0,0,-76.51454746,1.12273409
JYS,192,3,2024-06-13T06:01:30.082Z,english_295.wav,0,1,951,,,,,1,0.1,-96.9380047,0.2018376
JYS,192,3,2024-06-13T06:01:30.082Z,english_295.wav,0,1,951,,,,,2,0.2,-72.79782389,1.81703153
JYS,192,3,2024-06-13T06:01:30.082Z,english_295.wav,0,1,951,,,,,3,0.3,-31.86888898,0.31799467
JYS,192,3,2024-06-13T06:01:30.082Z,english_295.wav,0,1,951,,,,,4,0.32341667,-51.47839766,0.71777059
JYS,193,3,2024-06-13T06:01:30.082Z,english_801.wav,0,0,1255,,,,,0,0,66.50571345,0.19311528
JYS,193,3,2024-06-13T06:01:30.082Z,english_801.wav,0,0,1255,,,,,1,0.1,-53.03260979,0.48683601
JYS,193,3,2024-06-13T06:01:30.082Z,english_801.wav,0,0,1255,,,,,2,0.2,-3.89459646,1.16293258
JYS,193,3,2024-06-13T06:01:30.082Z,english_801.wav,0,0,1255,,,,,3,0.3,8.32951864,1.55734707
JYS,193,3,2024-06-13T06:01:30.082Z,english_801.wav,0,0,1255,,,,,4,0.32341667,-87.46806733,0.63471681
JYS,194,3,2024-06-13T06:01:30.082Z,english_98.wav,0,0,605,,,,,0,0,-23.07451683,0.55932234
JYS,194,3,2024-06-13T06:01:30.082Z,english_98.wav,0,0,605,,,,,1,0.1,58.83766866,1.03192869
JYS,194,3,2024-06-13T06:01:30.082Z,english_98.wav,0,0,605,,,,,2,0.2,75.90401246,1.16154403
JYS,194,3,2024-06-13T06:01:30.082Z,english_98.wav,0,0,605,,,,,3,0.3,-86.31256295,0.50819795
JYS,194,3,2024-06-13T06:01:30.082Z,english_98.wav,0,0,605,,,,,4,0.32341667,26.17624316,1.94690859
JYS,195,3,2024-06-13T06:01:30.082Z,english_104.wav,0,0,695,,,,,0,0,42.44693926,0.1741435
JYS,195,3,2024-06-13T06:01:30.082Z,english_104.wav,0,0,695,,,,,1,0.1,82.22484934,0.11379641
JYS,195,3,2024-06-13T06:01:30.082Z,english_104.wav,0,0,695,,,,,2,0.2,7.21737924,1.60376175
JYS,195,3,2024-06-13T06:01:30.082Z,english_104.wav,0,0,695,,,,,3,0.3,26.54640215,1.08059257
JYS,195,3,2024-06-13T06:01:30.082Z,english_104.wav,0,0,695,,,,,4,0.32341667,-33.4974026,1.8061622
JYS,196,3,2024-06-13T06:01:30.082Z,english_708.wav,0,0,502,,,,,0,0,-27.19248895,0.74061838
JYS,196,3,2024-06-13T06:01:30.082Z,english_708.wav,0,0,502,,,,,1,0.1,84.25795725,1.13599963
JYS,196,3,2024-06-13T06:01:30.082Z,english_708.wav,0,0,502,,,,,2,0.2,-19.19551503,1.10086254
JYS,196,3,2024-06-13T06:01:30.082Z,english_708.wav,0,0,502,,,,,3,0.3,29.88012033,0.53054382
JYS,196,3,2024-06-13T06:01:30.082Z,english_708.wav,0,0,502,,,,,4,0.32341667,46.0858662,1.51974387
JYS,197,3,2024-06-13T06:01:30.082Z,english_625.wav,0,0,764,,,,,0,0,25.70847239,1.1960971
JYS,197,3,2024-06-13T06:01:30.082Z,english_625.wav,0,0,764,,,,,1,0.1,-37.82303983,0.02795501
JYS,197,3,2024-06-13T06:01:30.082Z,english_625.wav,0,0,764,,,,,2,0.2,38.52328891,1.10198652
JYS,197,3,2024-06-13T06:01:30.082Z,english_625.wav,0,0,764,,,,,3,0.3,-23.93667478,0.08852642
JYS,197,3,2024-06-13T06:01:30.082Z,english_625.wav,0,0,764,,,,,4,0.32341667,-53.98326942,1.59813041
JYS,198,3,2024-06-13T06:01:30.082Z,english_779.wav,0,1,753,,,,,0,0,-66.48303018,1.22216448
JYS,198,3,2024-06-13T06:01:30.082Z,english_779.wav,0,1,753,,,,,1,0.1,55.33592885,1.30288261
JYS,198,3,2024-06-13T06:01:30.082Z,english_779.wav,0,1,753,,,,,2,0.2,67.38671669,0.25409759
JYS,198,3,2024-06-13T06:01:30.082Z,english_779.wav,0,1,753,,,,,3,0.3,65.49052189,1.76174581
JYS,198,3,2024-06-13T06:01:30.082Z,english_779.wav,0,1,753,,,,,4,0.32341667,-12.12955258,0.12280057
JYS,199,3,2024-06-13T06:01:30.082Z,english_755.wav,0,1,1197,,,,,0,0,-15.85533995,0.06987403
JYS,199,3,2024-06-13T06:01:30.082Z,english_755.wav,0,1,1197,,,,,1,0.1,-97.95934782,0.83204773
JYS,199,3,2024-06-13T06:01:30.082Z,english_755.wav,0,1,1197,,,,,2,0.2,-5.14559719,1.06816443
JYS,199,3,2024-06-13T06:01:30.082Z,english_755.wav,0,1,1197,,,,,3,0.3,32.74087849,1.42856986
JYS,199,3,2024-06-13T06:01:30.082Z,english_755.wav,0,1,1197,,,,,4,0.32341667,-56.93437429,0.58130438
JYS,200,4,2024-06-13T06:01:30.082Z,english_968.wav,0,0,1854,,,,,0,0,-36.76350372,0.52322451
JYS,200,4,2024-06-13T06:01:30.082Z,english_968.wav,0,0,1854,,,,,1,0.1,-99.8991193,0.66419732
JYS,200,4,2024-06-13T06:01:30.082Z,english_968.wav,0,0,1854,,,,,2,0.2,27.503089,0.44232096
JYS,200,4,2024-06-13T06:01:30.082Z,english_968.wav,0,0,1854,,,,,3,0.3,-34.85106147,1.90778707
JYS,200,4,2024-06-13T06:01:30.082Z,english_968.wav,0,0,1854,,,,,4,0.32341667,68.2869663,0.59652698
JYS,201,4,2024-06-13T06:01:30.082Z,english_840.wav,0,0,1237,,,,,0,0,-27.11425843,1.31301797
JYS,201,4,2024-06-13T06:01:30.082Z,english_840.wav,0,0,1237,,,,,1,0.1,-47.31494811,0.54280133
JYS,201,4,2024-06-13T06:01:30.082Z,english_840.wav,0,0,1237,,,,,2,0.2,-88.66887426,0.14090987
JYS,201,4,2024-06-13T06:01:30.082Z,english_840.wav,0,0,1237,,,,,3,0.3,7.86940595,0.11950116
JYS,201,4,2024-06-13T06:01:30.082Z,english_840.wav,0,0,1237,,,,,4,0.32341667,87.61758205,1.48166624
JYS,202,4,2024-06-13T06:01:30.082Z,english_986.wav,0,1,1393,,,,,0,0,36.93997263,1.7539978
JYS,202,4,2024-06-13T06:01:30.082Z,english_986.wav,0,1,1393,,,,,1,0.1,-76.80061303,1.40735445
JYS,202,4,2024-06-13T06:01:30.082Z,english_986.wav,0,1,1393,,,,,2,0.2,60.8418497,0.62226098
JYS,202,4,2024-06-13T06:01:30.082Z,english_986.wav,0,1,1393,,,,,3,0.3,-27.90828951,0.48175931
JYS,202,4,2024-06-13T06:01:30.082Z,english_986.wav,0,1,1393,,,,,4,0.32341667,99.51838141,1.5918282
JYS,203,4,2024-06-13T06:01:30.082Z,english_108.wav,0,1,1635,,,,,0,0,-20.69942707,0.77052949
JYS,203,4,2024-06-13T06:01:30.082Z,english_108.wav,0,1,1635,,,,,1,0.1,-59.42152954,1.01445352
JYS,203,4,2024-06-13T06:01:30.082Z,english_108.wav,0,1,1635,,,,,2,0.2,-8.09170222,0.42363715
JYS,203,4,2024-06-13T06:01:30.082Z,english_108.wav,0,1,1635,,,,,3,0.3,21.99826779,1.45799831
JYS,203,4,2024-06-13T06:01:30.082Z,english_108.wav,0,1,1635,,,,,4,0.32341667,56.38973361,1.71498507
JYS,204,4,2024-06-13T06:01:30.082Z,english_652.wav,0,1,743,,,,,0,0,4.27736911,0.30427218
JYS,204,4,2024-06-13T06:01:30.082Z,english_652.wav,0,1,743,,,,,1,0.1,18.79087972,0.67520162
JYS,204,4,2024-06-13T06:01:30.082Z,english_652.wav,0,1,743,,,,,2,0.2,61.32163128,0.66270689
JYS,204,4,2024-06-13T06:01:30.082Z,english_652.wav,0,1,743,,,,,3,0.3,45.76092148,0.93987847
JYS,204,4,2024-06-13T06:01:30.082Z,english_652.wav,0,1,743,,,,,4,0.32341667,-45.08671386,1.10617978
JYS,205,4,2024-06-13T06:01:30.082Z,english_92.wav,0,1,705,,,,,0,0,31.88505953,1.50112375
JYS,205,4,2024-06-13T06:01:30.082Z,english_92.wav,0,1,705,,,,,1,0.1,-5.62534355,0.35596674
JYS,205,4,2024-06-13T06:01:30.082Z,english_92.wav,0,1,705,,,,,2,0.2,-66.19250112,1.12270031
JYS,205,4,2024-06-13T06:01:30.082Z,english_92.wav,0,1,705,,,,,3,0.3,-77.62644198,1.09837269
JYS,205,4,2024-06-13T06:01:30.082Z,english_92.wav,0,1,705,,,,,4,0.32341667,-66.61656061,1.16274455
JYS,206,4,2024-06-13T06:01:30.082Z,english_343.wav,0,1,536,,,,,0,0,-26.15456552,0.99905336
JYS,206,4,2024-06-13T06:01:30.082Z,english_343.wav,0,1,536,,,,,1,0.1,-4.26522308,0.59066439
JYS,206,4,2024-06-13T06:01:30.082Z,english_343.wav,0,1,536,,,,,2,0.2,55.3227334,1.69088488
JYS,206,4,2024-06-13T06:01:30.082Z,english_343.wav,0,1,536,,,,,3,0.3,-26.26518208,1.70645599
JYS,206,4,2024-06-13T06:01:30.082Z,english_343.wav,0,1,536,,,,,4,0.32341667,-18.3065251,0.13143106
JYS,207,4,2024-06-13T06:01:30.082Z,english_359.wav,0,1,685,,,,,0,0,95.13315851,1.5844105
JYS,207,4,2024-06-13T06:01:30.082Z,english_359.wav,0,1,685,,,,,1,0.1,95.71495863,0.46491803
JYS,207,4,2024-06-13T06:01:30.082Z,english_359.wav,0,1,685,,,,,2,0.2,4.56295435,1.17107987
JYS,207,4,2024-06-13T06:01:30.082Z,english_359.wav,0,1,685,,,,,3,0.3,-11.93773809,0.63485582
JYS,207,4,2024-06-13T06:01:30.082Z,english_359.wav,0,1,685,,,,,4,0.32341667,-75.72789111,0.10666132
JYS,208,4,2024-06-13T06:01:30.082Z,english_500.wav,0,1,452,,,,,0,0,34.07818593,1.14050746
JYS,208,4,2024-06-13T06:01:30.082Z,english_500.wav,0,1,452,,,,,1,0.1,31.06479142,1.87458021
JYS,208,4,2024-06-13T06:01:30.082Z,english_500.wav,0,1,452,,,,,2,0.2,-63.34751057,0.77467433
JYS,208,4,2024-06-13T06:01:30.082Z,english_500.wav,0,1,452,,,,,3,0.3,36.97827554,1.278432
JYS,208,4,2024-06-13T06:01:30.082Z,english_500.wav,0,1,452,,,,,4,0.32341667,96.68235718,0.68469821
JYS,209,4,2024-06-13T06:01:30.082Z,english_103.wav,0,1,396,,,,,0,0,-79.54710498,0.84178061
JYS,209,4,2024-06-13T06:01:30.082Z,english_103.wav,0,1,396,,,,,1,0.1,-41.31314025,1.9706485
JYS,209,4,2024-06-13T06:01:30.082Z,english_103.wav,0,1,396,,,,,2,0.2,-48.58046961,1.55059924
JYS,209,4,2024-06-13T06:01:30.082Z,english_103.wav,0,1,396,,,,,3,0.3,50.88097047,1.14550684
JYS,209,4,2024-06-13T06:01:30.082Z,english_103.wav,0,1,396,,,,,4,0.32341667,21.22320476,1.67039139
JYS,210,4,2024-06-13T06:01:30.082Z,english_660.wav,0,0,1100,,,,,0,0,-18.17224728,0.25133372
JYS,210,4,2024-06-13T06:01:30.082Z,english_660.wav,0,0,1100,,,,,1,0.1,-51.94390165,0.1756709
JYS,210,4,2024-06-13T06:01:30.082Z,english_660.wav,0,0,1100,,,,,2,0.2,-79.57293034,0.660284
JYS,210,4,2024-06-13T06:01:30.082Z,english_660.wav,0,0,1100,,,,,3,0.3,67.99606973,1.08301436
JYS,210,4,2024-06-13T06:01:30.082Z,english_660.wav,0,0,1100,,,,,4,0.32341667,-2.00416122,0.81155284
JYS,211,4,2024-06-13T06:01:30.082Z,english_375.wav,0,1,929,,,,,0,0,18.096335,0.30735121
JYS,211,4,2024-06-13T06:01:30.082Z,english_375.wav,0,1,929,,,,,1,0.1,-55.77885891,1.17808606
JYS,211,4,2024-06-13T06:01:30.082Z,english_375.wav,0,1,929,,,,,2,0.2,-79.80603762,1.03107785
JYS,211,4,2024-06-13T06:01:30.082Z,english_375.wav,0,1,929,,,,,3,0.3,-57.7566014,0.46519988
JYS,211,4,2024-06-13T06:01:30.082Z,english_375.wav,0,1,929,,,,,4,0.32341667,74.14673873,1.41875211
JYS,212,4,2024-06-13T06:01:30.082Z,english_141.wav,0,1,625,,,,,0,0,-85.83390244,1.36546316
JYS,212,4,2024-06-13T06:01:30.082Z,english_141.wav,0,1,625,,,,,1,0.1,-83.68236309,0.39424104
JYS,212,4,2024-06-13T06:01:30.082Z,english_141.wav,0,1,625,,,,,2,0.2,-69.95552588,1.31629396
JYS,212,4,2024-06-13T06:01:30.082Z,english_141.wav,0,1,625,,,,,3,0.3,-14.67715053,0.23786768
JYS,212,4,2024-06-13T06:01:30.082Z,english_141.wav,0,1,625,,,,,4,0.32341667,73.76142723,0.2069198
JYS,213,4,2024-06-13T06:01:30.082Z,english_489.wav,0,1,857,,,,,0,0,5.7057461,0.60142671
JYS,213,4,2024-06-13T06:01:30.082Z,english_489.wav,0,1,857,,,,,1,0.1,-88.87009038,1.38499056
JYS,213,4,2024-06-13T06:01:30.082Z,english_489.wav,0,1,857,,,,,2,0.2,73.69789316,0.38073994
JYS,213,4,2024-06-13T06:01:30.082Z,english_489.wav,0,1,857,,,,,3,0.3,8.66804208,0.90212706
JYS,213,4,2024-06-13T06:01:30.082Z,english_489.wav,0,1,857,,,,,4,0.32341667,-19.53009002,1.00729778
JYS,214,4,2024-06-13T06:01:30.082Z,english_722.wav,0,1,789,,,,,0,0,56.33358757,0.09194264
JYS,214,4,2024-06-13T06:01:30.082Z,english_722.wav,0,1,789,,,,,1,0.1,-63.11389498,1.89550133
JYS,214,4,2024-06-13T06:01:30.082Z,english_722.wav,0,1,789,,,,,2,0.2,65.64746862,0.18403216
JYS,214,4,2024-06-13T06:01:30.082Z,english_722.wav,0,1,789,,,,,3,0.3,-93.10605514,1.23223326
