subj,trial,block,date,stim,stim_order,response,rt,age,english,language,sex,param_index,segment,pitch,stretch
LG,0,0,2024-06-14T13:33:32.853Z,english_49.wav,0,1,860,,,,,0,0,-6.08822071,0.36436507
LG,0,0,2024-06-14T13:33:32.853Z,english_49.wav,0,1,860,,,,,1,0.1,-56.0367764,1.66948988
LG,0,0,2024-06-14T13:33:32.853Z,english_49.wav,0,1,860,,,,,2,0.2,-51.95657584,1.20554654
LG,0,0,2024-06-14T13:33:32.853Z,english_49.wav,0,1,860,,,,,3,0.3,-59.93208112,0.31084089
LG,0,0,2024-06-14T13:33:32.853Z,english_49.wav,0,1,860,,,,,4,0.32341667,-7.85847813,0.44223059
LG,1,0,2024-06-14T13:33:32.853Z,english_457.wav,0,1,1860,,,,,0,0,-73.30847947,0.35525387
LG,1,0,2024-06-14T13:33:32.853Z,english_457.wav,0,1,1860,,,,,1,0.1,-25.74413936,0.90483023
LG,1,0,2024-06-14T13:33:32.853Z,english_457.wav,0,1,1860,,,,,2,0.2,8.82772976,1.30004432
LG,1,0,2024-06-14T13:33:32.853Z,english_457.wav,0,1,1860,,,,,3,0.3,-2.30416086,0.93422762
LG,1,0,2024-06-14T13:33:32.853Z,english_457.wav,0,1,1860,,,,,4,0.32341667,-34.04493945,1.31504388
LG,2,0,2024-06-14T13:33:32.853Z,english_691.wav,0,0,389,,,,,0,0,28.79078449,1.07683297
LG,2,0,2024-06-14T13:33:32.853Z,english_691.wav,0,0,389,,,,,1,0.1,99.1184909,1.07376069
LG,2,0,2024-06-14T13:33:32.853Z,english_691.wav,0,0,389,,,,,2,0.2,-54.13985733,0.28522735
LG,2,0,2024-06-14T13:33:32.853Z,english_691.wav,0,0,389,,,,,3,0.3,-85.36319246,0.85701066
LG,2,0,2024-06-14T13:33:32.853Z,english_691.wav,0,0,389,,,,,4,0.32341667,-73.61621094,1.71165398
LG,3,0,2024-06-14T13:33:32.853Z,english_957.wav,0,1,564,,,,,0,0,-8.34255742,0.77577071
LG,3,0,2024-06-14T13:33:32.853Z,english_957.wav,0,1,564,,,,,1,0.1,-36.8236739,1.35435363
LG,3,0,2024-06-14T13:33:32.853Z,english_957.wav,0,1,564,,,,,2,0.2,6.68978896,0.94592229
LG,3,0,2024-06-14T13:33:32.853Z,english_957.wav,0,1,564,,,,,3,0.3,-85.51463088,0.8988777
LG,3,0,2024-06-14T13:33:32.853Z,english_957.wav,0,1,564,,,,,4,0.32341667,-16.82289389,0.34403417
LG,4,0,2024-06-14T13:33:32.853Z,english_255.wav,0,1,762,,,,,0,0,-42.74550593,1.65518669
LG,4,0,2024-06-14T13:33:32.853Z,english_255.wav,0,1,762,,,,,1,0.1,35.44578771,1.85823386
LG,4,0,2024-06-14T13:33:32.853Z,english_255.wav,0,1,762,,,,,2,0.2,98.7346041,1.2123315
LG,4,0,2024-06-14T13:33:32.853Z,english_255.wav,0,1,762,,,,,3,0.3,14.08839822,0.62099519
LG,4,0,2024-06-14T13:33:32.853Z,english_255.wav,0,1,762,,,,,4,0.32341667,-55.38739786,1.08486436
LG,5,0,2024-06-14T13:33:32.853Z,english_757.wav,0,1,577,,,,,0,0,-71.37581006,0.57944866
LG,5,0,2024-06-14T13:33:32.853Z,english_757.wav,0,1,577,,,,,1,0.1,-34.89028362,1.76833087
LG,5,0,2024-06-14T13:33:32.853Z,english_757.wav,0,1,577,,,,,2,0.2,97.72444176,0.43040584
LG,5,0,2024-06-14T13:33:32.853Z,english_757.wav,0,1,577,,,,,3,0.3,8.64322444,1.84780211
LG,5,0,2024-06-14T13:33:32.853Z,english_757.wav,0,1,577,,,,,4,0.32341667,-59.15215987,0.21714226
LG,6,0,2024-06-14T13:33:32.853Z,english_358.wav,0,0,280,,,,,0,0,-24.40280242,0.64702298
LG,6,0,2024-06-14T13:33:32.853Z,english_358.wav,0,0,280,,,,,1,0.1,62.18566088,0.86836285
LG,6,0,2024-06-14T13:33:32.853Z,english_358.wav,0,0,280,,,,,2,0.2,5.26675109,1.05826104
LG,6,0,2024-06-14T13:33:32.853Z,english_358.wav,0,0,280,,,,,3,0.3,-31.91571391,1.98011631
LG,6,0,2024-06-14T13:33:32.853Z,english_358.wav,0,0,280,,,,,4,0.32341667,27.35112364,0.35058307
LG,7,0,2024-06-14T13:33:32.853Z,english_554.wav,0,1,533,,,,,0,0,9.57607907,1.93967122
LG,7,0,2024-06-14T13:33:32.853Z,english_554.wav,0,1,533,,,,,1,0.1,29.37398753,1.74360796
LG,7,0,2024-06-14T13:33:32.853Z,english_554.wav,0,1,533,,,,,2,0.2,-58.71210794,0.37945994
LG,7,0,2024-06-14T13:33:32.853Z,english_554.wav,0,1,533,,,,,3,0.3,-10.7927705,1.56347046
LG,7,0,2024-06-14T13:33:32.853Z,english_554.wav,0,1,533,,,,,4,0.32341667,21.8128915,1.38248676
LG,8,0,2024-06-14T13:33:32.853Z,english_901.wav,0,1,264,,,,,0,0,-14.81770559,1.5194741
LG,8,0,2024-06-14T13:33:32.853Z,english_901.wav,0,1,264,,,,,1,0.1,-27.73561163,1.98674938
LG,8,0,2024-06-14T13:33:32.853Z,english_901.wav,0,1,264,,,,,2,0.2,-22.44015454,0.54356598
LG,8,0,2024-06-14T13:33:32.853Z,english_901.wav,0,1,264,,,,,3,0.3,-41.34815185,1.30497628
LG,8,0,2024-06-14T13:33:32.853Z,english_901.wav,0,1,264,,,,,4,0.32341667,10.13492358,0.61526789
LG,9,0,2024-06-14T13:33:32.853Z,english_154.wav,0,1,315,,,,,0,0,69.79630433,0.95543174
LG,9,0,2024-06-14T13:33:32.853Z,english_154.wav,0,1,315,,,,,1,0.1,-67.81892388,1.87835363
LG,9,0,2024-06-14T13:33:32.853Z,english_154.wav,0,1,315,,,,,2,0.2,14.97335347,1.19287874
LG,9,0,2024-06-14T13:33:32.853Z,english_154.wav,0,1,315,,,,,3,0.3,8.47433965,1.12321966
LG,9,0,2024-06-14T13:33:32.853Z,english_154.wav,0,1,315,,,,,4,0.32341667,32.47098569,0.66995817
LG,10,0,2024-06-14T13:33:32.853Z,english_300.wav,0,1,158,,,,,0,0,-57.32903368,1.31106943
LG,10,0,2024-06-14T13:33:32.853Z,english_300.wav,0,1,158,,,,,1,0.1,-14.80176218,1.36432179
LG,10,0,2024-06-14T13:33:32.853Z,english_300.wav,0,1,158,,,,,2,0.2,17.32090115,1.9756976
LG,10,0,2024-06-14T13:33:32.853Z,english_300.wav,0,1,158,,,,,3,0.3,9.38584248,1.38621255
LG,10,0,2024-06-14T13:33:32.853Z,english_300.wav,0,1,158,,,,,4,0.32341667,-54.58865419,1.60203422
LG,11,0,2024-06-14T13:33:32.853Z,english_220.wav,0,0,566,,,,,0,0,-49.83323752,1.6244524
LG,11,0,2024-06-14T13:33:32.853Z,english_220.wav,0,0,566,,,,,1,0.1,49.13629021,0.7812698
LG,11,0,2024-06-14T13:33:32.853Z,english_220.wav,0,0,566,,,,,2,0.2,10.673463,1.29736816
LG,11,0,2024-06-14T13:33:32.853Z,english_220.wav,0,0,566,,,,,3,0.3,-2.35218347,1.3419496
LG,11,0,2024-06-14T13:33:32.853Z,english_220.wav,0,0,566,,,,,4,0.32341667,-2.61587219,1.06575232
LG,12,0,2024-06-14T13:33:32.853Z,english_987.wav,0,0,595,,,,,0,0,91.33137772,1.82656395
LG,12,0,2024-06-14T13:33:32.853Z,english_987.wav,0,0,595,,,,,1,0.1,-39.20299527,1.12122948
LG,12,0,2024-06-14T13:33:32.853Z,english_987.wav,0,0,595,,,,,2,0.2,78.9852337,1.12025045
LG,12,0,2024-06-14T13:33:32.853Z,english_987.wav,0,0,595,,,,,3,0.3,-94.66209845,1.02557261
LG,12,0,2024-06-14T13:33:32.853Z,english_987.wav,0,0,595,,,,,4,0.32341667,-71.76730894,1.06580695
LG,13,0,2024-06-14T13:33:32.853Z,english_517.wav,0,0,516,,,,,0,0,11.23661905,0.76208972
LG,13,0,2024-06-14T13:33:32.853Z,english_517.wav,0,0,516,,,,,1,0.1,58.81241605,0.18193562
LG,13,0,2024-06-14T13:33:32.853Z,english_517.wav,0,0,516,,,,,2,0.2,38.38790279,1.85963831
LG,13,0,2024-06-14T13:33:32.853Z,english_517.wav,0,0,516,,,,,3,0.3,-74.61462092,0.20223028
LG,13,0,2024-06-14T13:33:32.853Z,english_517.wav,0,0,516,,,,,4,0.32341667,-36.69086471,1.46287498
LG,14,0,2024-06-14T13:33:32.853Z,english_158.wav,0,1,596,,,,,0,0,33.09785739,1.71128449
LG,14,0,2024-06-14T13:33:32.853Z,english_158.wav,0,1,596,,,,,1,0.1,-85.08083727,1.56145129
LG,14,0,2024-06-14T13:33:32.853Z,english_158.wav,0,1,596,,,,,2,0.2,97.70701203,0.69707892
LG,14,0,2024-06-14T13:33:32.853Z,english_158.wav,0,1,596,,,,,3,0.3,2.54261044,1.19647348
LG,14,0,2024-06-14T13:33:32.853Z,english_158.wav,0,1,596,,,,,4,0.32341667,-59.73934841,1.17782448
LG,15,0,2024-06-14T13:33:32.853Z,english_329.wav,0,1,1774,,,,,0,0,-48.89108629,1.2424848
LG,15,0,2024-06-14T13:33:32.853Z,english_329.wav,0,1,1774,,,,,1,0.1,55.67852038,1.73811564
LG,15,0,2024-06-14T13:33:32.853Z,english_329.wav,0,1,1774,,,,,2,0.2,48.16827585,0.4928271
LG,15,0,2024-06-14T13:33:32.853Z,english_329.wav,0,1,1774,,,,,3,0.3,73.70818564,0.68407289
LG,15,0,2024-06-14T13:33:32.853Z,english_329.wav,0,1,1774,,,,,4,0.32341667,85.70797026,1.92917435
LG,16,0,2024-06-14T13:33:32.853Z,english_772.wav,0,1,233,,,,,0,0,-76.23750274,0.54712598
LG,16,0,2024-06-14T13:33:32.853Z,english_772.wav,0,1,233,,,,,1,0.1,54.42820472,1.66698734
LG,16,0,2024-06-14T13:33:32.853Z,english_772.wav,0,1,233,,,,,2,0.2,26.41325181,1.761061
LG,16,0,2024-06-14T13:33:32.853Z,english_772.wav,0,1,233,,,,,3,0.3,14.10037165,1.80899506
LG,16,0,2024-06-14T13:33:32.853Z,english_772.wav,0,1,233,,,,,4,0.32341667,-75.83605273,1.29882268
LG,17,0,2024-06-14T13:33:32.853Z,english_436.wav,0,0,470,,,,,0,0,58.73131257,0.30497449
LG,17,0,2024-06-14T13:33:32.853Z,english_436.wav,0,0,470,,,,,1,0.1,65.29204538,1.04665744
LG,17,0,2024-06-14T13:33:32.853Z,english_436.wav,0,0,470,,,,,2,0.2,7.63213906,1.03883923
LG,17,0,2024-06-14T13:33:32.853Z,english_436.wav,0,0,470,,,,,3,0.3,-2.54756362,0.97345352
LG,17,0,2024-06-14T13:33:32.853Z,english_436.wav,0,0,470,,,,,4,0.32341667,-11.40614268,0.16121918
LG,18,0,2024-06-14T13:33:32.853Z,english_74.wav,0,1,839,,,,,0,0,86.29588785,1.196208
LG,18,0,2024-06-14T13:33:32.853Z,english_74.wav,0,1,839,,,,,1,0.1,-14.52381687,1.63208143
LG,18,0,2024-06-14T13:33:32.853Z,english_74.wav,0,1,839,,,,,2,0.2,77.94321906,0.46125368
LG,18,0,2024-06-14T13:33:32.853Z,english_74.wav,0,1,839,,,,,3,0.3,-32.33104188,1.38278461
LG,18,0,2024-06-14T13:33:32.853Z,english_74.wav,0,1,839,,,,,4,0.32341667,9.46602754,0.83147108
LG,19,0,2024-06-14T13:33:32.853Z,english_565.wav,0,0,367,,,,,0,0,-89.95965492,1.93181176
LG,19,0,2024-06-14T13:33:32.853Z,english_565.wav,0,0,367,,,,,1,0.1,67.55938023,1.29027557
LG,19,0,2024-06-14T13:33:32.853Z,english_565.wav,0,0,367,,,,,2,0.2,26.6208604,0.36054668
LG,19,0,2024-06-14T13:33:32.853Z,english_565.wav,0,0,367,,,,,3,0.3,-54.20230035,1.25973455
LG,19,0,2024-06-14T13:33:32.853Z,english_565.wav,0,0,367,,,,,4,0.32341667,-98.16020256,0.92743077
LG,20,0,2024-06-14T13:33:32.853Z,english_838.wav,0,0,748,,,,,0,0,-46.43239877,0.57293762
LG,20,0,2024-06-14T13:33:32.853Z,english_838.wav,0,0,748,,,,,1,0.1,-0.77549132,1.65450135
LG,20,0,2024-06-14T13:33:32.853Z,english_838.wav,0,0,748,,,,,2,0.2,-47.56158581,0.30574951
LG,20,0,2024-06-14T13:33:32.853Z,english_838.wav,0,0,748,,,,,3,0.3,7.18116474,0.96315644
LG,20,0,2024-06-14T13:33:32.853Z,english_838.wav,0,0,748,,,,,4,0.32341667,-87.38880816,0.83017899
LG,21,0,2024-06-14T13:33:32.853Z,english_347.wav,0,0,522,,,,,0,0,34.89178431,1.32203506
LG,21,0,2024-06-14T13:33:32.853Z,english_347.wav,0,0,522,,,,,1,0.1,53.24978685,0.28714436
LG,21,0,2024-06-14T13:33:32.853Z,english_347.wav,0,0,522,,,,,2,0.2,4.11185022,1.66093526
LG,21,0,2024-06-14T13:33:32.853Z,english_347.wav,0,0,522,,,,,3,0.3,89.26663646,1.29826057
LG,21,0,2024-06-14T13:33:32.853Z,english_347.wav,0,0,522,,,,,4,0.32341667,-53.02646266,0.05504814
LG,22,0,2024-06-14T13:33:32.853Z,english_390.wav,0,0,138,,,,,0,0,-50.40750922,1.41643644
LG,22,0,2024-06-14T13:33:32.853Z,english_390.wav,0,0,138,,,,,1,0.1,-38.67641955,0.84399933
LG,22,0,2024-06-14T13:33:32.853Z,english_390.wav,0,0,138,,,,,2,0.2,-37.03459725,1.67796426
LG,22,0,2024-06-14T13:33:32.853Z,english_390.wav,0,0,138,,,,,3,0.3,-24.07335547,0.43781117
LG,22,0,2024-06-14T13:33:32.853Z,english_390.wav,0,0,138,,,,,4,0.32341667,75.09366884,0.01225463
LG,23,0,2024-06-14T13:33:32.853Z,english_482.wav,0,1,488,,,,,0,0,-75.58658814,1.00366747
LG,23,0,2024-06-14T13:33:32.853Z,english_482.wav,0,1,488,,,,,1,0.1,-97.88900999,1.47597923
LG,23,0,2024-06-14T13:33:32.853Z,english_482.wav,0,1,488,,,,,2,0.2,-4.46161317,1.10854794
LG,23,0,2024-06-14T13:33:32.853Z,english_482.wav,0,1,488,,,,,3,0.3,31.34799552,1.07348452
LG,23,0,2024-06-14T13:33:32.853Z,english_482.wav,0,1,488,,,,,4,0.32341667,-51.80510351,0.67390339
LG,24,0,2024-06-14T13:33:32.853Z,english_903.wav,0,0,419,,,,,0,0,73.58848698,0.30588109
LG,24,0,2024-06-14T13:33:32.853Z,english_903.wav,0,0,419,,,,,1,0.1,-95.58060262,0.88963747
LG,24,0,2024-06-14T13:33:32.853Z,english_903.wav,0,0,419,,,,,2,0.2,17.41642173,1.73634476
LG,24,0,2024-06-14T13:33:32.853Z,english_903.wav,0,0,419,,,,,3,0.3,94.35223882,0.71257749
LG,24,0,2024-06-14T13:33:32.853Z,english_903.wav,0,0,419,,,,,4,0.32341667,-49.48803877,1.4824474
LG,25,0,2024-06-14T13:33:32.853Z,english_685.wav,0,0,343,,,,,0,0,91.61032892,0.4504418
LG,25,0,2024-06-14T13:33:32.853Z,english_685.wav,0,0,343,,,,,1,0.1,39.6206555,1.04279806
LG,25,0,2024-06-14T13:33:32.853Z,english_685.wav,0,0,343,,,,,2,0.2,-3.19880539,1.33634651
LG,25,0,2024-06-14T13:33:32.853Z,english_685.wav,0,0,343,,,,,3,0.3,-72.84721689,1.25094987
LG,25,0,2024-06-14T13:33:32.853Z,english_685.wav,0,0,343,,,,,4,0.32341667,98.11411302,0.37726169
LG,26,0,2024-06-14T13:33:32.853Z,english_663.wav,0,0,1198,,,,,0,0,55.84438863,1.29444713
LG,26,0,2024-06-14T13:33:32.853Z,english_663.wav,0,0,1198,,,,,1,0.1,-89.02249371,0.90215198
LG,26,0,2024-06-14T13:33:32.853Z,english_663.wav,0,0,1198,,,,,2,0.2,-13.61345685,1.61104603
LG,26,0,2024-06-14T13:33:32.853Z,english_663.wav,0,0,1198,,,,,3,0.3,14.50375693,0.31375715
LG,26,0,2024-06-14T13:33:32.853Z,english_663.wav,0,0,1198,,,,,4,0.32341667,80.63633164,1.01784406
LG,27,0,2024-06-14T13:33:32.853Z,english_406.wav,0,0,2286,,,,,0,0,28.09923375,1.43312072
LG,27,0,2024-06-14T13:33:32.853Z,english_406.wav,0,0,2286,,,,,1,0.1,-15.10813675,0.8890381
LG,27,0,2024-06-14T13:33:32.853Z,english_406.wav,0,0,2286,,,,,2,0.2,-12.43931725,0.60560557
LG,27,0,2024-06-14T13:33:32.853Z,english_406.wav,0,0,2286,,,,,3,0.3,-27.33468297,1.13565345
LG,27,0,2024-06-14T13:33:32.853Z,english_406.wav,0,0,2286,,,,,4,0.32341667,-62.66931892,1.8467177
LG,28,0,2024-06-14T13:33:32.853Z,english_435.wav,0,1,534,,,,,0,0,-61.49548479,0.36819492
LG,28,0,2024-06-14T13:33:32.853Z,english_435.wav,0,1,534,,,,,1,0.1,18.53940612,1.77990606
LG,28,0,2024-06-14T13:33:32.853Z,english_435.wav,0,1,534,,,,,2,0.2,-39.20879804,1.09377229
LG,28,0,2024-06-14T13:33:32.853Z,english_435.wav,0,1,534,,,,,3,0.3,-30.66509024,1.98213584
LG,28,0,2024-06-14T13:33:32.853Z,english_435.wav,0,1,534,,,,,4,0.32341667,7.07056367,0.5936591
LG,29,0,2024-06-14T13:33:32.853Z,english_225.wav,0,0,1040,,,,,0,0,66.72796839,1.97535322
LG,29,0,2024-06-14T13:33:32.853Z,english_225.wav,0,0,1040,,,,,1,0.1,3.03768966,1.18784527
LG,29,0,2024-06-14T13:33:32.853Z,english_225.wav,0,0,1040,,,,,2,0.2,-45.96345052,1.58393351
LG,29,0,2024-06-14T13:33:32.853Z,english_225.wav,0,0,1040,,,,,3,0.3,-88.14676012,1.17885171
LG,29,0,2024-06-14T13:33:32.853Z,english_225.wav,0,0,1040,,,,,4,0.32341667,46.76760659,1.387907
LG,30,0,2024-06-14T13:33:32.853Z,english_216.wav,0,0,612,,,,,0,0,-62.2888105,1.07577895
LG,30,0,2024-06-14T13:33:32.853Z,english_216.wav,0,0,612,,,,,1,0.1,-52.19325919,1.07125686
LG,30,0,2024-06-14T13:33:32.853Z,english_216.wav,0,0,612,,,,,2,0.2,-77.81566322,1.51342084
LG,30,0,2024-06-14T13:33:32.853Z,english_216.wav,0,0,612,,,,,3,0.3,73.5246301,1.37714716
LG,30,0,2024-06-14T13:33:32.853Z,english_216.wav,0,0,612,,,,,4,0.32341667,73.4409389,1.55456291
LG,31,0,2024-06-14T13:33:32.853Z,english_81.wav,0,1,368,,,,,0,0,-8.99652005,1.6890162
LG,31,0,2024-06-14T13:33:32.853Z,english_81.wav,0,1,368,,,,,1,0.1,37.2959996,1.86826101
LG,31,0,2024-06-14T13:33:32.853Z,english_81.wav,0,1,368,,,,,2,0.2,56.49217416,0.68929954
LG,31,0,2024-06-14T13:33:32.853Z,english_81.wav,0,1,368,,,,,3,0.3,99.31521879,0.22383451
LG,31,0,2024-06-14T13:33:32.853Z,english_81.wav,0,1,368,,,,,4,0.32341667,-25.36881215,0.930773
LG,32,0,2024-06-14T13:33:32.853Z,english_125.wav,0,0,332,,,,,0,0,-5.59692586,0.61478703
LG,32,0,2024-06-14T13:33:32.853Z,english_125.wav,0,0,332,,,,,1,0.1,45.61970603,0.5852269
LG,32,0,2024-06-14T13:33:32.853Z,english_125.wav,0,0,332,,,,,2,0.2,-80.48713695,1.26290546
LG,32,0,2024-06-14T13:33:32.853Z,english_125.wav,0,0,332,,,,,3,0.3,76.65956808,1.54178375
LG,32,0,2024-06-14T13:33:32.853Z,english_125.wav,0,0,332,,,,,4,0.32341667,-9.14506838,0.79261171
LG,33,0,2024-06-14T13:33:32.853Z,english_712.wav,0,0,456,,,,,0,0,-69.83835125,1.15670948
LG,33,0,2024-06-14T13:33:32.853Z,english_712.wav,0,0,456,,,,,1,0.1,-89.98535393,0.40201287
LG,33,0,2024-06-14T13:33:32.853Z,english_712.wav,0,0,456,,,,,2,0.2,47.33040466,0.06412681
LG,33,0,2024-06-14T13:33:32.853Z,english_712.wav,0,0,456,,,,,3,0.3,-32.03166139,1.50973484
LG,33,0,2024-06-14T13:33:32.853Z,english_712.wav,0,0,456,,,,,4,0.32341667,-5.29851616,1.18377017
LG,34,0,2024-06-14T13:33:32.853Z,english_827.wav,0,1,841,,,,,0,0,-49.24128803,1.70838213
LG,34,0,2024-06-14T13:33:32.853Z,english_827.wav,0,1,841,,,,,1,0.1,62.6158679,0.88048656
LG,34,0,2024-06-14T13:33:32.853Z,english_827.wav,0,1,841,,,,,2,0.2,-85.72053716,1.47530841
LG,34,0,2024-06-14T13:33:32.853Z,english_827.wav,0,1,841,,,,,3,0.3,-65.54354982,0.04991031
LG,34,0,2024-06-14T13:33:32.853Z,english_827.wav,0,1,841,,,,,4,0.32341667,-42.30235352,0.1531298
LG,35,0,2024-06-14T13:33:32.853Z,english_619.wav,0,0,1146,,,,,0,0,38.53351318,1.25542912
LG,35,0,2024-06-14T13:33:32.853Z,english_619.wav,0,0,1146,,,,,1,0.1,-11.21157995,0.83005785
LG,35,0,2024-06-14T13:33:32.853Z,english_619.wav,0,0,1146,,,,,2,0.2,29.79887689,1.51254928
LG,35,0,2024-06-14T13:33:32.853Z,english_619.wav,0,0,1146,,,,,3,0.3,48.6384615,0.37972577
LG,35,0,2024-06-14T13:33:32.853Z,english_619.wav,0,0,1146,,,,,4,0.32341667,-66.5905708,0.44889873
LG,36,0,2024-06-14T13:33:32.853Z,english_266.wav,0,1,416,,,,,0,0,16.70772117,0.81064175
LG,36,0,2024-06-14T13:33:32.853Z,english_266.wav,0,1,416,,,,,1,0.1,-61.82971906,1.48442032
LG,36,0,2024-06-14T13:33:32.853Z,english_266.wav,0,1,416,,,,,2,0.2,-31.41060896,1.39445033
LG,36,0,2024-06-14T13:33:32.853Z,english_266.wav,0,1,416,,,,,3,0.3,-8.94045194,1.01594082
LG,36,0,2024-06-14T13:33:32.853Z,english_266.wav,0,1,416,,,,,4,0.32341667,-27.43066022,0.75934284
LG,37,0,2024-06-14T13:33:32.853Z,english_68.wav,0,1,431,,,,,0,0,-23.38152803,1.83565324
LG,37,0,2024-06-14T13:33:32.853Z,english_68.wav,0,1,431,,,,,1,0.1,-36.0918901,0.35162477
LG,37,0,2024-06-14T13:33:32.853Z,english_68.wav,0,1,431,,,,,2,0.2,65.46592862,1.10705723
LG,37,0,2024-06-14T13:33:32.853Z,english_68.wav,0,1,431,,,,,3,0.3,48.57602628,1.09550925
LG,37,0,2024-06-14T13:33:32.853Z,english_68.wav,0,1,431,,,,,4,0.32341667,-93.64245591,0.05753383
LG,38,0,2024-06-14T13:33:32.853Z,english_670.wav,0,0,429,,,,,0,0,64.75672565,1.5535903
LG,38,0,2024-06-14T13:33:32.853Z,english_670.wav,0,0,429,,,,,1,0.1,85.95156369,0.12522594
LG,38,0,2024-06-14T13:33:32.853Z,english_670.wav,0,0,429,,,,,2,0.2,-44.32949438,0.22842632
LG,38,0,2024-06-14T13:33:32.853Z,english_670.wav,0,0,429,,,,,3,0.3,22.57192219,0.17636502
LG,38,0,2024-06-14T13:33:32.853Z,english_670.wav,0,0,429,,,,,4,0.32341667,34.74005277,0.16208776
LG,39,0,2024-06-14T13:33:32.853Z,english_672.wav,0,1,738,,,,,0,0,30.04022321,0.7872581
LG,39,0,2024-06-14T13:33:32.853Z,english_672.wav,0,1,738,,,,,1,0.1,-49.20146972,1.24822874
LG,39,0,2024-06-14T13:33:32.853Z,english_672.wav,0,1,738,,,,,2,0.2,68.57510342,1.0921985
LG,39,0,2024-06-14T13:33:32.853Z,english_672.wav,0,1,738,,,,,3,0.3,46.99705545,1.42682896
LG,39,0,2024-06-14T13:33:32.853Z,english_672.wav,0,1,738,,,,,4,0.32341667,-96.75951233,0.39437363
LG,40,0,2024-06-14T13:33:32.853Z,english_994.wav,0,1,882,,,,,0,0,53.6083957,1.72152032
LG,40,0,2024-06-14T13:33:32.853Z,english_994.wav,0,1,882,,,,,1,0.1,62.5650281,0.97077126
LG,40,0,2024-06-14T13:33:32.853Z,english_994.wav,0,1,882,,,,,2,0.2,91.00734213,1.1154275
LG,40,0,2024-06-14T13:33:32.853Z,english_994.wav,0,1,882,,,,,3,0.3,-14.6853323,0.93534142
LG,40,0,2024-06-14T13:33:32.853Z,english_994.wav,0,1,882,,,,,4,0.32341667,42.94025292,1.51312842
LG,41,0,2024-06-14T13:33:32.853Z,english_1000.wav,0,0,594,,,,,0,0,27.35321797,1.01803417
LG,41,0,2024-06-14T13:33:32.853Z,english_1000.wav,0,0,594,,,,,1,0.1,42.13438871,0.4558176
LG,41,0,2024-06-14T13:33:32.853Z,english_1000.wav,0,0,594,,,,,2,0.2,95.34760893,0.52251179
LG,41,0,2024-06-14T13:33:32.853Z,english_1000.wav,0,0,594,,,,,3,0.3,-34.10168873,0.90165507
LG,41,0,2024-06-14T13:33:32.853Z,english_1000.wav,0,0,594,,,,,4,0.32341667,64.49689477,0.38395199
LG,42,0,2024-06-14T13:33:32.853Z,english_865.wav,0,0,589,,,,,0,0,57.45647421,1.64387024
LG,42,0,2024-06-14T13:33:32.853Z,english_865.wav,0,0,589,,,,,1,0.1,-62.30549211,0.05749027
LG,42,0,2024-06-14T13:33:32.853Z,english_865.wav,0,0,589,,,,,2,0.2,-35.85649312,0.09554773
LG,42,0,2024-06-14T13:33:32.853Z,english_865.wav,0,0,589,,,,,3,0.3,55.00701181,1.62598434
LG,42,0,2024-06-14T13:33:32.853Z,english_865.wav,0,0,589,,,,,4,0.32341667,-39.97662747,0.71232625
LG,43,0,2024-06-14T13:33:32.853Z,english_893.wav,0,1,411,,,,,0,0,17.19699967,0.82427167
LG,43,0,2024-06-14T13:33:32.853Z,english_893.wav,0,1,411,,,,,1,0.1,57.52525856,1.49866988
LG,43,0,2024-06-14T13:33:32.853Z,english_893.wav,0,1,411,,,,,2,0.2,13.30661706,0.84536161
LG,43,0,2024-06-14T13:33:32.853Z,english_893.wav,0,1,411,,,,,3,0.3,33.02687073,0.10168024
LG,43,0,2024-06-14T13:33:32.853Z,english_893.wav,0,1,411,,,,,4,0.32341667,-64.43392463,0.7117056
LG,44,0,2024-06-14T13:33:32.853Z,english_817.wav,0,1,826,,,,,0,0,58.06319333,0.77394069
LG,44,0,2024-06-14T13:33:32.853Z,english_817.wav,0,1,826,,,,,1,0.1,0.91206114,0.81778066
LG,44,0,2024-06-14T13:33:32.853Z,english_817.wav,0,1,826,,,,,2,0.2,-27.80824757,1.48752315
LG,44,0,2024-06-14T13:33:32.853Z,english_817.wav,0,1,826,,,,,3,0.3,-73.7491051,0.41888886
LG,44,0,2024-06-14T13:33:32.853Z,english_817.wav,0,1,826,,,,,4,0.32341667,69.75698508,0.93012443
LG,45,0,2024-06-14T13:33:32.853Z,english_286.wav,0,0,459,,,,,0,0,-94.9495111,0.49849168
LG,45,0,2024-06-14T13:33:32.853Z,english_286.wav,0,0,459,,,,,1,0.1,-25.05656786,1.27672914
LG,45,0,2024-06-14T13:33:32.853Z,english_286.wav,0,0,459,,,,,2,0.2,59.61150177,0.14515846
LG,45,0,2024-06-14T13:33:32.853Z,english_286.wav,0,0,459,,,,,3,0.3,-32.97544875,1.67164973
LG,45,0,2024-06-14T13:33:32.853Z,english_286.wav,0,0,459,,,,,4,0.32341667,7.58095242,0.86492177
LG,46,0,2024-06-14T13:33:32.853Z,english_20.wav,0,1,435,,,,,0,0,-56.6830557,0.06363068
LG,46,0,2024-06-14T13:33:32.853Z,english_20.wav,0,1,435,,,,,1,0.1,50.66790367,1.80739158
LG,46,0,2024-06-14T13:33:32.853Z,english_20.wav,0,1,435,,,,,2,0.2,-18.96445326,1.41045117
LG,46,0,2024-06-14T13:33:32.853Z,english_20.wav,0,1,435,,,,,3,0.3,-25.44345058,0.2049667
LG,46,0,2024-06-14T13:33:32.853Z,english_20.wav,0,1,435,,,,,4,0.32341667,12.75548414,0.27136646
LG,47,0,2024-06-14T13:33:32.853Z,english_667.wav,0,0,592,,,,,0,0,-36.96649028,1.3014101
LG,47,0,2024-06-14T13:33:32.853Z,english_667.wav,0,0,592,,,,,1,0.1,9.08709827,0.05882523
LG,47,0,2024-06-14T13:33:32.853Z,english_667.wav,0,0,592,,,,,2,0.2,85.36553945,1.428997
LG,47,0,2024-06-14T13:33:32.853Z,english_667.wav,0,0,592,,,,,3,0.3,-41.19556041,1.2429303
LG,47,0,2024-06-14T13:33:32.853Z,english_667.wav,0,0,592,,,,,4,0.32341667,-31.79783786,0.97363261
LG,48,0,2024-06-14T13:33:32.853Z,english_786.wav,0,0,550,,,,,0,0,50.77560123,0.9907589
LG,48,0,2024-06-14T13:33:32.853Z,english_786.wav,0,0,550,,,,,1,0.1,-87.08435808,0.48193409
LG,48,0,2024-06-14T13:33:32.853Z,english_786.wav,0,0,550,,,,,2,0.2,-36.07136163,1.01949061
LG,48,0,2024-06-14T13:33:32.853Z,english_786.wav,0,0,550,,,,,3,0.3,98.77618087,1.06334926
LG,48,0,2024-06-14T13:33:32.853Z,english_786.wav,0,0,550,,,,,4,0.32341667,86.70070823,0.94164836
LG,49,0,2024-06-14T13:33:32.853Z,english_450.wav,0,1,236,,,,,0,0,32.75253923,1.28767958
LG,49,0,2024-06-14T13:33:32.853Z,english_450.wav,0,1,236,,,,,1,0.1,-95.51335644,1.7262356
LG,49,0,2024-06-14T13:33:32.853Z,english_450.wav,0,1,236,,,,,2,0.2,34.87485597,0.97567272
LG,49,0,2024-06-14T13:33:32.853Z,english_450.wav,0,1,236,,,,,3,0.3,-23.91285283,1.94639387
LG,49,0,2024-06-14T13:33:32.853Z,english_450.wav,0,1,236,,,,,4,0.32341667,-8.67870007,1.78958339
LG,50,1,2024-06-14T13:33:32.853Z,english_394.wav,0,0,953,,,,,0,0,73.08757955,1.29313131
LG,50,1,2024-06-14T13:33:32.853Z,english_394.wav,0,0,953,,,,,1,0.1,5.60908311,0.62691873
LG,50,1,2024-06-14T13:33:32.853Z,english_394.wav,0,0,953,,,,,2,0.2,76.56705043,1.4938005
LG,50,1,2024-06-14T13:33:32.853Z,english_394.wav,0,0,953,,,,,3,0.3,18.85166324,1.2266925
LG,50,1,2024-06-14T13:33:32.853Z,english_394.wav,0,0,953,,,,,4,0.32341667,8.45052692,0.67844158
LG,51,1,2024-06-14T13:33:32.853Z,english_59.wav,0,0,609,,,,,0,0,30.26604033,1.5973148
LG,51,1,2024-06-14T13:33:32.853Z,english_59.wav,0,0,609,,,,,1,0.1,25.69112756,0.24758472
LG,51,1,2024-06-14T13:33:32.853Z,english_59.wav,0,0,609,,,,,2,0.2,-24.85549033,0.1547886
LG,51,1,2024-06-14T13:33:32.853Z,english_59.wav,0,0,609,,,,,3,0.3,-31.2790444,0.30754036
LG,51,1,2024-06-14T13:33:32.853Z,english_59.wav,0,0,609,,,,,4,0.32341667,86.30355152,0.40312024
LG,52,1,2024-06-14T13:33:32.853Z,english_333.wav,0,1,464,,,,,0,0,61.26933292,0.50090252
LG,52,1,2024-06-14T13:33:32.853Z,english_333.wav,0,1,464,,,,,1,0.1,38.65533839,1.61630161
LG,52,1,2024-06-14T13:33:32.853Z,english_333.wav,0,1,464,,,,,2,0.2,-27.91605269,1.73322278
LG,52,1,2024-06-14T13:33:32.853Z,english_333.wav,0,1,464,,,,,3,0.3,36.00101096,0.67742762
LG,52,1,2024-06-14T13:33:32.853Z,english_333.wav,0,1,464,,,,,4,0.32341667,-78.35943708,0.46993908
LG,53,1,2024-06-14T13:33:32.853Z,english_749.wav,0,0,416,,,,,0,0,-84.66020389,1.10062914
LG,53,1,2024-06-14T13:33:32.853Z,english_749.wav,0,0,416,,,,,1,0.1,45.42505651,0.81865822
LG,53,1,2024-06-14T13:33:32.853Z,english_749.wav,0,0,416,,,,,2,0.2,27.47623271,1.25164699
LG,53,1,2024-06-14T13:33:32.853Z,english_749.wav,0,0,416,,,,,3,0.3,44.62305857,1.77685805
LG,53,1,2024-06-14T13:33:32.853Z,english_749.wav,0,0,416,,,,,4,0.32341667,-87.62087265,0.97343419
LG,54,1,2024-06-14T13:33:32.853Z,english_562.wav,0,0,762,,,,,0,0,-40.22672309,0.64031882
LG,54,1,2024-06-14T13:33:32.853Z,english_562.wav,0,0,762,,,,,1,0.1,77.961849,0.7637006
LG,54,1,2024-06-14T13:33:32.853Z,english_562.wav,0,0,762,,,,,2,0.2,25.52463525,0.87632482
LG,54,1,2024-06-14T13:33:32.853Z,english_562.wav,0,0,762,,,,,3,0.3,84.62788358,0.98972612
LG,54,1,2024-06-14T13:33:32.853Z,english_562.wav,0,0,762,,,,,4,0.32341667,-53.67427145,0.74010285
LG,55,1,2024-06-14T13:33:32.853Z,english_704.wav,0,1,725,,,,,0,0,-24.48288207,0.92043902
LG,55,1,2024-06-14T13:33:32.853Z,english_704.wav,0,1,725,,,,,1,0.1,-9.94163531,0.96595902
LG,55,1,2024-06-14T13:33:32.853Z,english_704.wav,0,1,725,,,,,2,0.2,74.85271107,1.40327859
LG,55,1,2024-06-14T13:33:32.853Z,english_704.wav,0,1,725,,,,,3,0.3,-38.44921803,1.07325586
LG,55,1,2024-06-14T13:33:32.853Z,english_704.wav,0,1,725,,,,,4,0.32341667,-21.20994959,1.87555588
LG,56,1,2024-06-14T13:33:32.853Z,english_616.wav,0,1,373,,,,,0,0,-71.12360497,0.83412473
LG,56,1,2024-06-14T13:33:32.853Z,english_616.wav,0,1,373,,,,,1,0.1,55.35355355,1.49185731
LG,56,1,2024-06-14T13:33:32.853Z,english_616.wav,0,1,373,,,,,2,0.2,-15.85026512,1.32170209
LG,56,1,2024-06-14T13:33:32.853Z,english_616.wav,0,1,373,,,,,3,0.3,-22.60587367,0.90458331
LG,56,1,2024-06-14T13:33:32.853Z,english_616.wav,0,1,373,,,,,4,0.32341667,-45.64131884,1.17134835
LG,57,1,2024-06-14T13:33:32.853Z,english_91.wav,0,0,549,,,,,0,0,-67.73951944,0.2772338
LG,57,1,2024-06-14T13:33:32.853Z,english_91.wav,0,0,549,,,,,1,0.1,83.83337034,0.0816757
LG,57,1,2024-06-14T13:33:32.853Z,english_91.wav,0,0,549,,,,,2,0.2,-12.75649653,0.92538416
LG,57,1,2024-06-14T13:33:32.853Z,english_91.wav,0,0,549,,,,,3,0.3,5.95502951,0.40714056
LG,57,1,2024-06-14T13:33:32.853Z,english_91.wav,0,0,549,,,,,4,0.32341667,59.56964586,1.8717525
LG,58,1,2024-06-14T13:33:32.853Z,english_26.wav,0,1,611,,,,,0,0,54.38966875,1.86679487
LG,58,1,2024-06-14T13:33:32.853Z,english_26.wav,0,1,611,,,,,1,0.1,0.3460174,0.79762949
LG,58,1,2024-06-14T13:33:32.853Z,english_26.wav,0,1,611,,,,,2,0.2,-72.33258957,0.93682052
LG,58,1,2024-06-14T13:33:32.853Z,english_26.wav,0,1,611,,,,,3,0.3,67.09142092,1.42469209
LG,58,1,2024-06-14T13:33:32.853Z,english_26.wav,0,1,611,,,,,4,0.32341667,16.00565239,1.17807545
LG,59,1,2024-06-14T13:33:32.853Z,english_374.wav,0,1,1196,,,,,0,0,-43.98521466,1.11607514
LG,59,1,2024-06-14T13:33:32.853Z,english_374.wav,0,1,1196,,,,,1,0.1,-24.87181663,0.38249505
LG,59,1,2024-06-14T13:33:32.853Z,english_374.wav,0,1,1196,,,,,2,0.2,-29.31566683,1.56774755
LG,59,1,2024-06-14T13:33:32.853Z,english_374.wav,0,1,1196,,,,,3,0.3,-43.36019392,1.33837662
LG,59,1,2024-06-14T13:33:32.853Z,english_374.wav,0,1,1196,,,,,4,0.32341667,-35.5175379,0.68793086
LG,60,1,2024-06-14T13:33:32.853Z,english_810.wav,0,0,494,,,,,0,0,44.6757801,0.77700382
LG,60,1,2024-06-14T13:33:32.853Z,english_810.wav,0,0,494,,,,,1,0.1,-98.4252216,1.25917073
LG,60,1,2024-06-14T13:33:32.853Z,english_810.wav,0,0,494,,,,,2,0.2,55.4106213,0.78203472
LG,60,1,2024-06-14T13:33:32.853Z,english_810.wav,0,0,494,,,,,3,0.3,-18.4676839,1.13021068
LG,60,1,2024-06-14T13:33:32.853Z,english_810.wav,0,0,494,,,,,4,0.323416667,0.0259169543,0.14578676
LG,61,1,2024-06-14T13:33:32.853Z,english_572.wav,0,1,418,,,,,0,0,-16.16189062,1.82210005
LG,61,1,2024-06-14T13:33:32.853Z,english_572.wav,0,1,418,,,,,1,0.1,-40.8511413,0.80249033
LG,61,1,2024-06-14T13:33:32.853Z,english_572.wav,0,1,418,,,,,2,0.2,-77.3747243,0.69959732
LG,61,1,2024-06-14T13:33:32.853Z,english_572.wav,0,1,418,,,,,3,0.3,87.62803369,0.43311894
LG,61,1,2024-06-14T13:33:32.853Z,english_572.wav,0,1,418,,,,,4,0.32341667,81.6005998,1.25204325
LG,62,1,2024-06-14T13:33:32.853Z,english_748.wav,0,1,497,,,,,0,0,0.23647087,0.91094575
LG,62,1,2024-06-14T13:33:32.853Z,english_748.wav,0,1,497,,,,,1,0.1,45.60572596,1.68800655
LG,62,1,2024-06-14T13:33:32.853Z,english_748.wav,0,1,497,,,,,2,0.2,6.14588966,1.37684191
LG,62,1,2024-06-14T13:33:32.853Z,english_748.wav,0,1,497,,,,,3,0.3,-10.39850874,0.70556294
LG,62,1,2024-06-14T13:33:32.853Z,english_748.wav,0,1,497,,,,,4,0.32341667,-7.86503132,1.52987196
LG,63,1,2024-06-14T13:33:32.853Z,english_912.wav,0,1,579,,,,,0,0,-43.64864707,0.87210048
LG,63,1,2024-06-14T13:33:32.853Z,english_912.wav,0,1,579,,,,,1,0.1,94.54433808,1.43243955
LG,63,1,2024-06-14T13:33:32.853Z,english_912.wav,0,1,579,,,,,2,0.2,67.98324072,1.49899487
LG,63,1,2024-06-14T13:33:32.853Z,english_912.wav,0,1,579,,,,,3,0.3,9.27329172,0.42663795
LG,63,1,2024-06-14T13:33:32.853Z,english_912.wav,0,1,579,,,,,4,0.32341667,-55.44973818,0.19299009
LG,64,1,2024-06-14T13:33:32.853Z,english_808.wav,0,1,346,,,,,0,0,23.02589628,1.07384277
LG,64,1,2024-06-14T13:33:32.853Z,english_808.wav,0,1,346,,,,,1,0.1,10.58817829,1.3919179
LG,64,1,2024-06-14T13:33:32.853Z,english_808.wav,0,1,346,,,,,2,0.2,36.77134597,0.54960524
LG,64,1,2024-06-14T13:33:32.853Z,english_808.wav,0,1,346,,,,,3,0.3,-30.31603221,1.95871365
LG,64,1,2024-06-14T13:33:32.853Z,english_808.wav,0,1,346,,,,,4,0.32341667,9.74764343,0.79150541
LG,65,1,2024-06-14T13:33:32.853Z,english_307.wav,0,0,516,,,,,0,0,-38.93106299,1.91951228
LG,65,1,2024-06-14T13:33:32.853Z,english_307.wav,0,0,516,,,,,1,0.1,-30.40144858,0.50419792
LG,65,1,2024-06-14T13:33:32.853Z,english_307.wav,0,0,516,,,,,2,0.2,2.19081651,0.76602689
LG,65,1,2024-06-14T13:33:32.853Z,english_307.wav,0,0,516,,,,,3,0.3,30.82741361,0.59904457
LG,65,1,2024-06-14T13:33:32.853Z,english_307.wav,0,0,516,,,,,4,0.32341667,46.9007513,1.94941235
LG,66,1,2024-06-14T13:33:32.853Z,english_701.wav,0,1,675,,,,,0,0,87.15265727,1.41120649
LG,66,1,2024-06-14T13:33:32.853Z,english_701.wav,0,1,675,,,,,1,0.1,38.39882515,0.44004622
LG,66,1,2024-06-14T13:33:32.853Z,english_701.wav,0,1,675,,,,,2,0.2,64.60201562,1.15462264
LG,66,1,2024-06-14T13:33:32.853Z,english_701.wav,0,1,675,,,,,3,0.3,12.58613119,1.17454355
LG,66,1,2024-06-14T13:33:32.853Z,english_701.wav,0,1,675,,,,,4,0.32341667,46.94968762,1.38716818
LG,67,1,2024-06-14T13:33:32.853Z,english_545.wav,0,0,208,,,,,0,0,42.99494118,1.37740168
LG,67,1,2024-06-14T13:33:32.853Z,english_545.wav,0,0,208,,,,,1,0.1,72.53025652,0.91972232
LG,67,1,2024-06-14T13:33:32.853Z,english_545.wav,0,0,208,,,,,2,0.2,4.60849844,0.73226975
LG,67,1,2024-06-14T13:33:32.853Z,english_545.wav,0,0,208,,,,,3,0.3,9.93291538,1.52934768
LG,67,1,2024-06-14T13:33:32.853Z,english_545.wav,0,0,208,,,,,4,0.32341667,-11.25611892,0.18478607
LG,68,1,2024-06-14T13:33:32.853Z,english_9.wav,0,1,6958,,,,,0,0,24.77706225,1.13145128
LG,68,1,2024-06-14T13:33:32.853Z,english_9.wav,0,1,6958,,,,,1,0.1,91.05524194,1.19326311
LG,68,1,2024-06-14T13:33:32.853Z,english_9.wav,0,1,6958,,,,,2,0.2,30.20964975,1.50029029
LG,68,1,2024-06-14T13:33:32.853Z,english_9.wav,0,1,6958,,,,,3,0.3,-69.66301283,1.4622179
LG,68,1,2024-06-14T13:33:32.853Z,english_9.wav,0,1,6958,,,,,4,0.32341667,-3.83240646,1.9316504
LG,69,1,2024-06-14T13:33:32.853Z,english_208.wav,0,0,306,,,,,0,0,-16.36413188,1.19542909
LG,69,1,2024-06-14T13:33:32.853Z,english_208.wav,0,0,306,,,,,1,0.1,25.67725806,0.42717457
LG,69,1,2024-06-14T13:33:32.853Z,english_208.wav,0,0,306,,,,,2,0.2,15.43722313,1.01088833
LG,69,1,2024-06-14T13:33:32.853Z,english_208.wav,0,0,306,,,,,3,0.3,-39.3158007,1.09044814
LG,69,1,2024-06-14T13:33:32.853Z,english_208.wav,0,0,306,,,,,4,0.32341667,38.48956167,1.60091335
LG,70,1,2024-06-14T13:33:32.853Z,english_99.wav,0,0,337,,,,,0,0,9.75149611,0.79411887
LG,70,1,2024-06-14T13:33:32.853Z,english_99.wav,0,0,337,,,,,1,0.1,-7.37998228,0.53064308
LG,70,1,2024-06-14T13:33:32.853Z,english_99.wav,0,0,337,,,,,2,0.2,29.15889261,0.10254027
LG,70,1,2024-06-14T13:33:32.853Z,english_99.wav,0,0,337,,,,,3,0.3,-23.23230809,0.53999741
LG,70,1,2024-06-14T13:33:32.853Z,english_99.wav,0,0,337,,,,,4,0.32341667,51.25937721,0.74302856
LG,71,1,2024-06-14T13:33:32.853Z,english_6.wav,0,1,493,,,,,0,0,-8.2116192,1.24832701
LG,71,1,2024-06-14T13:33:32.853Z,english_6.wav,0,1,493,,,,,1,0.1,-28.50933877,0.74984456
LG,71,1,2024-06-14T13:33:32.853Z,english_6.wav,0,1,493,,,,,2,0.2,-90.20174912,1.37568362
LG,71,1,2024-06-14T13:33:32.853Z,english_6.wav,0,1,493,,,,,3,0.3,-7.18062469,0.47637706
LG,71,1,2024-06-14T13:33:32.853Z,english_6.wav,0,1,493,,,,,4,0.32341667,-36.83558467,0.68255954
LG,72,1,2024-06-14T13:33:32.853Z,english_746.wav,0,1,169,,,,,0,0,-1.32395796,1.72273729
LG,72,1,2024-06-14T13:33:32.853Z,english_746.wav,0,1,169,,,,,1,0.1,-67.07117971,1.22961235
LG,72,1,2024-06-14T13:33:32.853Z,english_746.wav,0,1,169,,,,,2,0.2,75.09604974,1.29107068
LG,72,1,2024-06-14T13:33:32.853Z,english_746.wav,0,1,169,,,,,3,0.3,-48.59278454,1.34694816
LG,72,1,2024-06-14T13:33:32.853Z,english_746.wav,0,1,169,,,,,4,0.32341667,-6.52080997,0.94274536
LG,73,1,2024-06-14T13:33:32.853Z,english_586.wav,0,0,522,,,,,0,0,-62.23642036,1.06144709
LG,73,1,2024-06-14T13:33:32.853Z,english_586.wav,0,0,522,,,,,1,0.1,79.13201234,0.54207142
LG,73,1,2024-06-14T13:33:32.853Z,english_586.wav,0,0,522,,,,,2,0.2,-89.54923437,0.72134233
LG,73,1,2024-06-14T13:33:32.853Z,english_586.wav,0,0,522,,,,,3,0.3,-19.27573078,0.33417878
LG,73,1,2024-06-14T13:33:32.853Z,english_586.wav,0,0,522,,,,,4,0.32341667,-62.71214645,1.54129631
LG,74,1,2024-06-14T13:33:32.853Z,english_946.wav,0,0,446,,,,,0,0,-74.23479435,1.22824298
LG,74,1,2024-06-14T13:33:32.853Z,english_946.wav,0,0,446,,,,,1,0.1,-11.3601526,0.85784227
LG,74,1,2024-06-14T13:33:32.853Z,english_946.wav,0,0,446,,,,,2,0.2,36.50675361,0.09585286
LG,74,1,2024-06-14T13:33:32.853Z,english_946.wav,0,0,446,,,,,3,0.3,-13.94845552,0.43829102
LG,74,1,2024-06-14T13:33:32.853Z,english_946.wav,0,0,446,,,,,4,0.32341667,-6.97265347,0.86422506
LG,75,1,2024-06-14T13:33:32.853Z,english_993.wav,0,0,529,,,,,0,0,-66.15449332,1.17508471
LG,75,1,2024-06-14T13:33:32.853Z,english_993.wav,0,0,529,,,,,1,0.1,33.08083728,0.94744004
LG,75,1,2024-06-14T13:33:32.853Z,english_993.wav,0,0,529,,,,,2,0.2,51.46479562,0.74931244
LG,75,1,2024-06-14T13:33:32.853Z,english_993.wav,0,0,529,,,,,3,0.3,-80.58676237,0.35628979
LG,75,1,2024-06-14T13:33:32.853Z,english_993.wav,0,0,529,,,,,4,0.32341667,81.97884737,1.25416847
LG,76,1,2024-06-14T13:33:32.853Z,english_264.wav,0,1,444,,,,,0,0,16.10521774,1.02407609
LG,76,1,2024-06-14T13:33:32.853Z,english_264.wav,0,1,444,,,,,1,0.1,-43.55481907,1.4393598
LG,76,1,2024-06-14T13:33:32.853Z,english_264.wav,0,1,444,,,,,2,0.2,-16.87093852,1.31552174
LG,76,1,2024-06-14T13:33:32.853Z,english_264.wav,0,1,444,,,,,3,0.3,-81.41755984,1.17516842
LG,76,1,2024-06-14T13:33:32.853Z,english_264.wav,0,1,444,,,,,4,0.32341667,-76.00277997,0.613195
LG,77,1,2024-06-14T13:33:32.853Z,english_134.wav,0,1,329,,,,,0,0,70.72156413,1.84700732
LG,77,1,2024-06-14T13:33:32.853Z,english_134.wav,0,1,329,,,,,1,0.1,-64.20531103,1.20878884
LG,77,1,2024-06-14T13:33:32.853Z,english_134.wav,0,1,329,,,,,2,0.2,35.7891913,0.51924654
LG,77,1,2024-06-14T13:33:32.853Z,english_134.wav,0,1,329,,,,,3,0.3,-77.33475241,1.95615398
LG,77,1,2024-06-14T13:33:32.853Z,english_134.wav,0,1,329,,,,,4,0.32341667,85.6978336,1.72102519
LG,78,1,2024-06-14T13:33:32.853Z,english_217.wav,0,0,456,,,,,0,0,-87.44045162,1.20965721
LG,78,1,2024-06-14T13:33:32.853Z,english_217.wav,0,0,456,,,,,1,0.1,26.67222095,0.05295089
LG,78,1,2024-06-14T13:33:32.853Z,english_217.wav,0,0,456,,,,,2,0.2,97.90977363,1.23557872
LG,78,1,2024-06-14T13:33:32.853Z,english_217.wav,0,0,456,,,,,3,0.3,4.49718441,1.80752812
LG,78,1,2024-06-14T13:33:32.853Z,english_217.wav,0,0,456,,,,,4,0.32341667,13.31384309,1.57586313
LG,79,1,2024-06-14T13:33:32.853Z,english_80.wav,0,1,939,,,,,0,0,33.21374474,1.09809668
LG,79,1,2024-06-14T13:33:32.853Z,english_80.wav,0,1,939,,,,,1,0.1,-72.2618742,1.73594877
LG,79,1,2024-06-14T13:33:32.853Z,english_80.wav,0,1,939,,,,,2,0.2,-29.44860443,0.30037535
LG,79,1,2024-06-14T13:33:32.853Z,english_80.wav,0,1,939,,,,,3,0.3,-33.36418129,0.36613598
LG,79,1,2024-06-14T13:33:32.853Z,english_80.wav,0,1,939,,,,,4,0.32341667,-65.11319145,0.50687614
LG,80,1,2024-06-14T13:33:32.853Z,english_872.wav,0,1,615,,,,,0,0,0.56374655,0.10935802
LG,80,1,2024-06-14T13:33:32.853Z,english_872.wav,0,1,615,,,,,1,0.1,-70.88107799,0.91778609
LG,80,1,2024-06-14T13:33:32.853Z,english_872.wav,0,1,615,,,,,2,0.2,6.46677515,1.38740199
LG,80,1,2024-06-14T13:33:32.853Z,english_872.wav,0,1,615,,,,,3,0.3,-23.51354109,0.12682507
LG,80,1,2024-06-14T13:33:32.853Z,english_872.wav,0,1,615,,,,,4,0.32341667,81.64578493,0.71067476
LG,81,1,2024-06-14T13:33:32.853Z,english_160.wav,0,1,539,,,,,0,0,2.54964477,0.54357393
LG,81,1,2024-06-14T13:33:32.853Z,english_160.wav,0,1,539,,,,,1,0.1,26.84692557,1.29343216
LG,81,1,2024-06-14T13:33:32.853Z,english_160.wav,0,1,539,,,,,2,0.2,72.58457191,0.42070854
LG,81,1,2024-06-14T13:33:32.853Z,english_160.wav,0,1,539,,,,,3,0.3,-6.94481249,1.04489529
LG,81,1,2024-06-14T13:33:32.853Z,english_160.wav,0,1,539,,,,,4,0.32341667,35.80656171,0.26802137
LG,82,1,2024-06-14T13:33:32.853Z,english_431.wav,0,1,357,,,,,0,0,-28.91437381,1.3282391
LG,82,1,2024-06-14T13:33:32.853Z,english_431.wav,0,1,357,,,,,1,0.1,30.6479342,1.9405757
LG,82,1,2024-06-14T13:33:32.853Z,english_431.wav,0,1,357,,,,,2,0.2,41.25713347,1.67607787
LG,82,1,2024-06-14T13:33:32.853Z,english_431.wav,0,1,357,,,,,3,0.3,9.19018397,0.62213613
LG,82,1,2024-06-14T13:33:32.853Z,english_431.wav,0,1,357,,,,,4,0.32341667,-61.77590044,0.50881411
LG,83,1,2024-06-14T13:33:32.853Z,english_813.wav,0,1,351,,,,,0,0,55.66932548,1.32885027
LG,83,1,2024-06-14T13:33:32.853Z,english_813.wav,0,1,351,,,,,1,0.1,81.68960615,1.76450173
LG,83,1,2024-06-14T13:33:32.853Z,english_813.wav,0,1,351,,,,,2,0.2,55.75765178,0.71046445
LG,83,1,2024-06-14T13:33:32.853Z,english_813.wav,0,1,351,,,,,3,0.3,-1.25572602,1.00431818
LG,83,1,2024-06-14T13:33:32.853Z,english_813.wav,0,1,351,,,,,4,0.32341667,95.15429199,0.60962601
LG,84,1,2024-06-14T13:33:32.853Z,english_789.wav,0,0,328,,,,,0,0,70.69388181,1.62690516
LG,84,1,2024-06-14T13:33:32.853Z,english_789.wav,0,0,328,,,,,1,0.1,-91.45782136,1.02092359
LG,84,1,2024-06-14T13:33:32.853Z,english_789.wav,0,0,328,,,,,2,0.2,-94.67801392,0.93437639
LG,84,1,2024-06-14T13:33:32.853Z,english_789.wav,0,0,328,,,,,3,0.3,83.76501612,1.8239896
LG,84,1,2024-06-14T13:33:32.853Z,english_789.wav,0,0,328,,,,,4,0.32341667,-4.60584958,1.29596798
LG,85,1,2024-06-14T13:33:32.853Z,english_595.wav,0,1,358,,,,,0,0,-39.84727911,1.6526444
LG,85,1,2024-06-14T13:33:32.853Z,english_595.wav,0,1,358,,,,,1,0.1,-68.85607622,1.11711065
LG,85,1,2024-06-14T13:33:32.853Z,english_595.wav,0,1,358,,,,,2,0.2,23.68364187,1.96516016
LG,85,1,2024-06-14T13:33:32.853Z,english_595.wav,0,1,358,,,,,3,0.3,-80.51887658,0.34053421
LG,85,1,2024-06-14T13:33:32.853Z,english_595.wav,0,1,358,,,,,4,0.32341667,-94.66311932,1.22603371
LG,86,1,2024-06-14T13:33:32.853Z,english_829.wav,0,1,228,,,,,0,0,60.30417439,0.94286345
LG,86,1,2024-06-14T13:33:32.853Z,english_829.wav,0,1,228,,,,,1,0.1,-26.87459656,0.76756767
LG,86,1,2024-06-14T13:33:32.853Z,english_829.wav,0,1,228,,,,,2,0.2,59.05286014,1.50609211
LG,86,1,2024-06-14T13:33:32.853Z,english_829.wav,0,1,228,,,,,3,0.3,-38.64739237,0.33518122
LG,86,1,2024-06-14T13:33:32.853Z,english_829.wav,0,1,228,,,,,4,0.32341667,68.61732932,1.40687349
LG,87,1,2024-06-14T13:33:32.853Z,english_867.wav,0,1,538,,,,,0,0,9.0283109,0.25019481
LG,87,1,2024-06-14T13:33:32.853Z,english_867.wav,0,1,538,,,,,1,0.1,6.96107974,0.62311927
LG,87,1,2024-06-14T13:33:32.853Z,english_867.wav,0,1,538,,,,,2,0.2,14.88339172,1.78918939
LG,87,1,2024-06-14T13:33:32.853Z,english_867.wav,0,1,538,,,,,3,0.3,-2.73093064,1.34945049
LG,87,1,2024-06-14T13:33:32.853Z,english_867.wav,0,1,538,,,,,4,0.32341667,-85.27526638,0.75720604
LG,88,1,2024-06-14T13:33:32.853Z,english_292.wav,0,1,88,,,,,0,0,-39.45275529,0.85174507
LG,88,1,2024-06-14T13:33:32.853Z,english_292.wav,0,1,88,,,,,1,0.1,-35.03464337,0.73996191
LG,88,1,2024-06-14T13:33:32.853Z,english_292.wav,0,1,88,,,,,2,0.2,31.68370279,1.42892595
LG,88,1,2024-06-14T13:33:32.853Z,english_292.wav,0,1,88,,,,,3,0.3,-53.75991965,0.04968332
LG,88,1,2024-06-14T13:33:32.853Z,english_292.wav,0,1,88,,,,,4,0.32341667,12.49992629,0.58931553
LG,89,1,2024-06-14T13:33:32.853Z,english_467.wav,0,1,1294,,,,,0,0,-0.54983343,1.824027
LG,89,1,2024-06-14T13:33:32.853Z,english_467.wav,0,1,1294,,,,,1,0.1,-84.54516502,1.06295632
LG,89,1,2024-06-14T13:33:32.853Z,english_467.wav,0,1,1294,,,,,2,0.2,54.30123894,1.09976952
LG,89,1,2024-06-14T13:33:32.853Z,english_467.wav,0,1,1294,,,,,3,0.3,-82.00368026,1.11766566
LG,89,1,2024-06-14T13:33:32.853Z,english_467.wav,0,1,1294,,,,,4,0.32341667,-54.10816942,0.44824559
LG,90,1,2024-06-14T13:33:32.853Z,english_540.wav,0,1,978,,,,,0,0,-46.6752609,1.16352469
LG,90,1,2024-06-14T13:33:32.853Z,english_540.wav,0,1,978,,,,,1,0.1,-93.20209644,0.0234781
LG,90,1,2024-06-14T13:33:32.853Z,english_540.wav,0,1,978,,,,,2,0.2,64.96419662,0.05926191
LG,90,1,2024-06-14T13:33:32.853Z,english_540.wav,0,1,978,,,,,3,0.3,-12.16484387,1.47406284
LG,90,1,2024-06-14T13:33:32.853Z,english_540.wav,0,1,978,,,,,4,0.32341667,-44.34688232,0.60104864
LG,91,1,2024-06-14T13:33:32.853Z,english_876.wav,0,0,221,,,,,0,0,-20.36884991,0.97958319
LG,91,1,2024-06-14T13:33:32.853Z,english_876.wav,0,0,221,,,,,1,0.1,-12.16725052,0.93484439
LG,91,1,2024-06-14T13:33:32.853Z,english_876.wav,0,0,221,,,,,2,0.2,-26.42868614,0.43422731
LG,91,1,2024-06-14T13:33:32.853Z,english_876.wav,0,0,221,,,,,3,0.3,-15.16942384,0.12359811
LG,91,1,2024-06-14T13:33:32.853Z,english_876.wav,0,0,221,,,,,4,0.32341667,-52.65446315,1.31629037
LG,92,1,2024-06-14T13:33:32.853Z,english_801.wav,0,1,63,,,,,0,0,66.50571345,0.19311528
LG,92,1,2024-06-14T13:33:32.853Z,english_801.wav,0,1,63,,,,,1,0.1,-53.03260979,0.48683601
LG,92,1,2024-06-14T13:33:32.853Z,english_801.wav,0,1,63,,,,,2,0.2,-3.89459646,1.16293258
LG,92,1,2024-06-14T13:33:32.853Z,english_801.wav,0,1,63,,,,,3,0.3,8.32951864,1.55734707
LG,92,1,2024-06-14T13:33:32.853Z,english_801.wav,0,1,63,,,,,4,0.32341667,-87.46806733,0.63471681
LG,93,1,2024-06-14T13:33:32.853Z,english_195.wav,0,1,488,,,,,0,0,88.76446124,0.85936173
LG,93,1,2024-06-14T13:33:32.853Z,english_195.wav,0,1,488,,,,,1,0.1,56.50909504,1.06337161
LG,93,1,2024-06-14T13:33:32.853Z,english_195.wav,0,1,488,,,,,2,0.2,-5.11157055,1.01766647
LG,93,1,2024-06-14T13:33:32.853Z,english_195.wav,0,1,488,,,,,3,0.3,14.19517065,1.03928052
LG,93,1,2024-06-14T13:33:32.853Z,english_195.wav,0,1,488,,,,,4,0.32341667,67.19148892,1.18131313
LG,94,1,2024-06-14T13:33:32.853Z,english_843.wav,0,1,434,,,,,0,0,-34.38568909,1.38988397
LG,94,1,2024-06-14T13:33:32.853Z,english_843.wav,0,1,434,,,,,1,0.1,91.48235516,0.61638546
LG,94,1,2024-06-14T13:33:32.853Z,english_843.wav,0,1,434,,,,,2,0.2,45.43581208,1.5800421
LG,94,1,2024-06-14T13:33:32.853Z,english_843.wav,0,1,434,,,,,3,0.3,47.04005582,1.07327256
LG,94,1,2024-06-14T13:33:32.853Z,english_843.wav,0,1,434,,,,,4,0.32341667,30.80916685,0.46994626
LG,95,1,2024-06-14T13:33:32.853Z,english_711.wav,0,1,4276,,,,,0,0,40.88671478,0.99029016
LG,95,1,2024-06-14T13:33:32.853Z,english_711.wav,0,1,4276,,,,,1,0.1,9.07407961,0.54320223
LG,95,1,2024-06-14T13:33:32.853Z,english_711.wav,0,1,4276,,,,,2,0.2,-23.01321115,1.60107
LG,95,1,2024-06-14T13:33:32.853Z,english_711.wav,0,1,4276,,,,,3,0.3,-10.85681813,1.574764
LG,95,1,2024-06-14T13:33:32.853Z,english_711.wav,0,1,4276,,,,,4,0.32341667,87.87195083,1.34863725
LG,96,1,2024-06-14T13:33:32.853Z,english_879.wav,0,1,85,,,,,0,0,-56.32485069,0.53184386
LG,96,1,2024-06-14T13:33:32.853Z,english_879.wav,0,1,85,,,,,1,0.1,64.67592183,1.34296213
LG,96,1,2024-06-14T13:33:32.853Z,english_879.wav,0,1,85,,,,,2,0.2,25.82204554,0.44649674
LG,96,1,2024-06-14T13:33:32.853Z,english_879.wav,0,1,85,,,,,3,0.3,5.66794257,0.79707043
LG,96,1,2024-06-14T13:33:32.853Z,english_879.wav,0,1,85,,,,,4,0.32341667,-31.65503708,1.19804995
LG,97,1,2024-06-14T13:33:32.853Z,english_383.wav,0,0,622,,,,,0,0,-1.49759031,0.61403304
LG,97,1,2024-06-14T13:33:32.853Z,english_383.wav,0,0,622,,,,,1,0.1,48.0809444,0.69225556
LG,97,1,2024-06-14T13:33:32.853Z,english_383.wav,0,0,622,,,,,2,0.2,-84.09524499,0.33452268
LG,97,1,2024-06-14T13:33:32.853Z,english_383.wav,0,0,622,,,,,3,0.3,95.23220486,1.06792504
LG,97,1,2024-06-14T13:33:32.853Z,english_383.wav,0,0,622,,,,,4,0.32341667,64.91086902,0.58483827
LG,98,1,2024-06-14T13:33:32.853Z,english_791.wav,0,1,390,,,,,0,0,65.91759783,1.00744019
LG,98,1,2024-06-14T13:33:32.853Z,english_791.wav,0,1,390,,,,,1,0.1,-36.70731143,0.67929445
LG,98,1,2024-06-14T13:33:32.853Z,english_791.wav,0,1,390,,,,,2,0.2,67.54354156,0.95779159
LG,98,1,2024-06-14T13:33:32.853Z,english_791.wav,0,1,390,,,,,3,0.3,2.89249458,1.93585264
LG,98,1,2024-06-14T13:33:32.853Z,english_791.wav,0,1,390,,,,,4,0.32341667,-55.92630603,0.7587469
LG,99,1,2024-06-14T13:33:32.853Z,english_468.wav,0,0,639,,,,,0,0,-33.82586043,0.35164089
LG,99,1,2024-06-14T13:33:32.853Z,english_468.wav,0,0,639,,,,,1,0.1,-42.55840131,0.20114733
LG,99,1,2024-06-14T13:33:32.853Z,english_468.wav,0,0,639,,,,,2,0.2,-36.6492295,1.40729654
LG,99,1,2024-06-14T13:33:32.853Z,english_468.wav,0,0,639,,,,,3,0.3,39.91321296,0.04300573
LG,99,1,2024-06-14T13:33:32.853Z,english_468.wav,0,0,639,,,,,4,0.32341667,54.14936319,1.79642733
LG,100,2,2024-06-14T13:33:32.853Z,english_159.wav,0,1,1034,,,,,0,0,-83.7072706,0.09138871
LG,100,2,2024-06-14T13:33:32.853Z,english_159.wav,0,1,1034,,,,,1,0.1,-62.69238784,0.63335487
LG,100,2,2024-06-14T13:33:32.853Z,english_159.wav,0,1,1034,,,,,2,0.2,22.09248507,1.23550763
LG,100,2,2024-06-14T13:33:32.853Z,english_159.wav,0,1,1034,,,,,3,0.3,-80.94681782,1.83356136
LG,100,2,2024-06-14T13:33:32.853Z,english_159.wav,0,1,1034,,,,,4,0.32341667,-55.76861956,0.76796393
LG,101,2,2024-06-14T13:33:32.853Z,english_780.wav,0,0,747,,,,,0,0,-15.29393571,0.99089132
LG,101,2,2024-06-14T13:33:32.853Z,english_780.wav,0,0,747,,,,,1,0.1,-51.86215325,0.3216491
LG,101,2,2024-06-14T13:33:32.853Z,english_780.wav,0,0,747,,,,,2,0.2,-27.43889325,1.38797184
LG,101,2,2024-06-14T13:33:32.853Z,english_780.wav,0,0,747,,,,,3,0.3,37.56841363,0.96060741
LG,101,2,2024-06-14T13:33:32.853Z,english_780.wav,0,0,747,,,,,4,0.32341667,-40.51855496,0.89048449
LG,102,2,2024-06-14T13:33:32.853Z,english_968.wav,0,0,356,,,,,0,0,-36.76350372,0.52322451
LG,102,2,2024-06-14T13:33:32.853Z,english_968.wav,0,0,356,,,,,1,0.1,-99.8991193,0.66419732
LG,102,2,2024-06-14T13:33:32.853Z,english_968.wav,0,0,356,,,,,2,0.2,27.503089,0.44232096
LG,102,2,2024-06-14T13:33:32.853Z,english_968.wav,0,0,356,,,,,3,0.3,-34.85106147,1.90778707
LG,102,2,2024-06-14T13:33:32.853Z,english_968.wav,0,0,356,,,,,4,0.32341667,68.2869663,0.59652698
LG,103,2,2024-06-14T13:33:32.853Z,english_66.wav,0,0,268,,,,,0,0,16.07147303,1.75051971
LG,103,2,2024-06-14T13:33:32.853Z,english_66.wav,0,0,268,,,,,1,0.1,50.76577123,0.02971233
LG,103,2,2024-06-14T13:33:32.853Z,english_66.wav,0,0,268,,,,,2,0.2,-29.1595681,0.63583886
LG,103,2,2024-06-14T13:33:32.853Z,english_66.wav,0,0,268,,,,,3,0.3,-80.89120138,1.46734397
LG,103,2,2024-06-14T13:33:32.853Z,english_66.wav,0,0,268,,,,,4,0.32341667,-8.46229461,1.61280944
LG,104,2,2024-06-14T13:33:32.853Z,english_636.wav,0,1,450,,,,,0,0,-20.37295141,1.69276631
LG,104,2,2024-06-14T13:33:32.853Z,english_636.wav,0,1,450,,,,,1,0.1,-84.7288786,1.69908726
LG,104,2,2024-06-14T13:33:32.853Z,english_636.wav,0,1,450,,,,,2,0.2,24.84265136,1.44836333
LG,104,2,2024-06-14T13:33:32.853Z,english_636.wav,0,1,450,,,,,3,0.3,-9.2443485,1.36647816
LG,104,2,2024-06-14T13:33:32.853Z,english_636.wav,0,1,450,,,,,4,0.32341667,49.04875774,0.88112598
LG,105,2,2024-06-14T13:33:32.853Z,english_338.wav,0,1,232,,,,,0,0,-22.40965878,1.93572195
LG,105,2,2024-06-14T13:33:32.853Z,english_338.wav,0,1,232,,,,,1,0.1,-10.16153496,1.78994992
LG,105,2,2024-06-14T13:33:32.853Z,english_338.wav,0,1,232,,,,,2,0.2,-50.2449588,1.38134059
LG,105,2,2024-06-14T13:33:32.853Z,english_338.wav,0,1,232,,,,,3,0.3,14.05674122,1.78462007
LG,105,2,2024-06-14T13:33:32.853Z,english_338.wav,0,1,232,,,,,4,0.32341667,-78.35339858,1.2607094
LG,106,2,2024-06-14T13:33:32.853Z,english_649.wav,0,0,460,,,,,0,0,65.82222467,0.56154429
LG,106,2,2024-06-14T13:33:32.853Z,english_649.wav,0,0,460,,,,,1,0.1,-9.35575527,0.64767017
LG,106,2,2024-06-14T13:33:32.853Z,english_649.wav,0,0,460,,,,,2,0.2,-91.83315911,0.84538271
LG,106,2,2024-06-14T13:33:32.853Z,english_649.wav,0,0,460,,,,,3,0.3,79.30022345,0.4979411
LG,106,2,2024-06-14T13:33:32.853Z,english_649.wav,0,0,460,,,,,4,0.32341667,45.86180924,0.89353148
LG,107,2,2024-06-14T13:33:32.853Z,english_54.wav,0,1,72,,,,,0,0,1.86764875,1.47639799
LG,107,2,2024-06-14T13:33:32.853Z,english_54.wav,0,1,72,,,,,1,0.1,-1.78672474,1.92944336
LG,107,2,2024-06-14T13:33:32.853Z,english_54.wav,0,1,72,,,,,2,0.2,-26.58380414,0.76292987
LG,107,2,2024-06-14T13:33:32.853Z,english_54.wav,0,1,72,,,,,3,0.3,-2.56688864,1.78735236
LG,107,2,2024-06-14T13:33:32.853Z,english_54.wav,0,1,72,,,,,4,0.32341667,-76.29238916,0.80366269
LG,108,2,2024-06-14T13:33:32.853Z,english_44.wav,0,0,727,,,,,0,0,-68.86201344,1.38154723
LG,108,2,2024-06-14T13:33:32.853Z,english_44.wav,0,0,727,,,,,1,0.1,36.61833882,0.11193842
LG,108,2,2024-06-14T13:33:32.853Z,english_44.wav,0,0,727,,,,,2,0.2,-60.65796264,0.83798569
LG,108,2,2024-06-14T13:33:32.853Z,english_44.wav,0,0,727,,,,,3,0.3,-99.582901,0.3073865
LG,108,2,2024-06-14T13:33:32.853Z,english_44.wav,0,0,727,,,,,4,0.32341667,68.59920212,1.10922951
LG,109,2,2024-06-14T13:33:32.853Z,english_501.wav,0,1,108,,,,,0,0,-7.07122187,1.4737248
LG,109,2,2024-06-14T13:33:32.853Z,english_501.wav,0,1,108,,,,,1,0.1,10.00250781,1.10212017
LG,109,2,2024-06-14T13:33:32.853Z,english_501.wav,0,1,108,,,,,2,0.2,-21.98285256,1.65595948
LG,109,2,2024-06-14T13:33:32.853Z,english_501.wav,0,1,108,,,,,3,0.3,46.16062549,0.64757112
LG,109,2,2024-06-14T13:33:32.853Z,english_501.wav,0,1,108,,,,,4,0.32341667,41.01655214,0.36171009
LG,110,2,2024-06-14T13:33:32.853Z,english_409.wav,0,1,208,,,,,0,0,-24.04105399,0.29560797
LG,110,2,2024-06-14T13:33:32.853Z,english_409.wav,0,1,208,,,,,1,0.1,-26.67389605,1.53762848
LG,110,2,2024-06-14T13:33:32.853Z,english_409.wav,0,1,208,,,,,2,0.2,23.9966363,0.34602898
LG,110,2,2024-06-14T13:33:32.853Z,english_409.wav,0,1,208,,,,,3,0.3,16.61705293,1.21824435
LG,110,2,2024-06-14T13:33:32.853Z,english_409.wav,0,1,208,,,,,4,0.32341667,73.09980407,1.55330233
LG,111,2,2024-06-14T13:33:32.853Z,english_124.wav,0,1,326,,,,,0,0,-16.92140416,1.25482105
LG,111,2,2024-06-14T13:33:32.853Z,english_124.wav,0,1,326,,,,,1,0.1,97.41289205,1.97830042
LG,111,2,2024-06-14T13:33:32.853Z,english_124.wav,0,1,326,,,,,2,0.2,-78.49167412,1.09846955
LG,111,2,2024-06-14T13:33:32.853Z,english_124.wav,0,1,326,,,,,3,0.3,-3.48618202,0.36540564
LG,111,2,2024-06-14T13:33:32.853Z,english_124.wav,0,1,326,,,,,4,0.32341667,5.32047068,0.96325389
LG,112,2,2024-06-14T13:33:32.853Z,english_152.wav,0,1,164,,,,,0,0,-21.97873044,1.75752799
LG,112,2,2024-06-14T13:33:32.853Z,english_152.wav,0,1,164,,,,,1,0.1,85.66675034,1.21467008
LG,112,2,2024-06-14T13:33:32.853Z,english_152.wav,0,1,164,,,,,2,0.2,-66.57447909,0.82299352
LG,112,2,2024-06-14T13:33:32.853Z,english_152.wav,0,1,164,,,,,3,0.3,-33.8772441,0.48869868
LG,112,2,2024-06-14T13:33:32.853Z,english_152.wav,0,1,164,,,,,4,0.32341667,-46.50239179,0.31705885
LG,113,2,2024-06-14T13:33:32.853Z,english_880.wav,0,0,256,,,,,0,0,3.17154152,0.81183988
LG,113,2,2024-06-14T13:33:32.853Z,english_880.wav,0,0,256,,,,,1,0.1,-74.02271749,1.44061269
LG,113,2,2024-06-14T13:33:32.853Z,english_880.wav,0,0,256,,,,,2,0.2,46.15952764,0.42884863
LG,113,2,2024-06-14T13:33:32.853Z,english_880.wav,0,0,256,,,,,3,0.3,4.14106927,1.93838261
LG,113,2,2024-06-14T13:33:32.853Z,english_880.wav,0,0,256,,,,,4,0.32341667,26.36707366,1.4503687
LG,114,2,2024-06-14T13:33:32.853Z,english_114.wav,0,1,20,,,,,0,0,32.66189176,0.56529239
LG,114,2,2024-06-14T13:33:32.853Z,english_114.wav,0,1,20,,,,,1,0.1,11.50533392,1.79520186
LG,114,2,2024-06-14T13:33:32.853Z,english_114.wav,0,1,20,,,,,2,0.2,-73.58201401,1.4619954
LG,114,2,2024-06-14T13:33:32.853Z,english_114.wav,0,1,20,,,,,3,0.3,-8.93644113,0.78288211
LG,114,2,2024-06-14T13:33:32.853Z,english_114.wav,0,1,20,,,,,4,0.32341667,-2.4794064,0.66376764
LG,115,2,2024-06-14T13:33:32.853Z,english_277.wav,0,0,679,,,,,0,0,57.10742469,0.00973607
LG,115,2,2024-06-14T13:33:32.853Z,english_277.wav,0,0,679,,,,,1,0.1,-91.86277199,0.30409245
LG,115,2,2024-06-14T13:33:32.853Z,english_277.wav,0,0,679,,,,,2,0.2,15.18492706,1.04533503
LG,115,2,2024-06-14T13:33:32.853Z,english_277.wav,0,0,679,,,,,3,0.3,-70.52173838,1.32138987
LG,115,2,2024-06-14T13:33:32.853Z,english_277.wav,0,0,679,,,,,4,0.32341667,87.41438228,0.22027268
LG,116,2,2024-06-14T13:33:32.853Z,english_765.wav,0,1,2019,,,,,0,0,-52.71695997,0.24697616
LG,116,2,2024-06-14T13:33:32.853Z,english_765.wav,0,1,2019,,,,,1,0.1,-0.72548599,1.34458244
LG,116,2,2024-06-14T13:33:32.853Z,english_765.wav,0,1,2019,,,,,2,0.2,-25.46106624,0.2833524
LG,116,2,2024-06-14T13:33:32.853Z,english_765.wav,0,1,2019,,,,,3,0.3,-15.36834083,0.99517128
LG,116,2,2024-06-14T13:33:32.853Z,english_765.wav,0,1,2019,,,,,4,0.32341667,-34.08212533,0.81265208
LG,117,2,2024-06-14T13:33:32.853Z,english_165.wav,0,1,370,,,,,0,0,-65.85966689,0.99094124
LG,117,2,2024-06-14T13:33:32.853Z,english_165.wav,0,1,370,,,,,1,0.1,57.4210377,1.25140592
LG,117,2,2024-06-14T13:33:32.853Z,english_165.wav,0,1,370,,,,,2,0.2,-53.4891742,1.66606931
LG,117,2,2024-06-14T13:33:32.853Z,english_165.wav,0,1,370,,,,,3,0.3,-32.80877015,0.56557264
LG,117,2,2024-06-14T13:33:32.853Z,english_165.wav,0,1,370,,,,,4,0.32341667,-23.63509804,1.31427626
LG,118,2,2024-06-14T13:33:32.853Z,english_386.wav,0,0,456,,,,,0,0,74.56899624,1.79299743
LG,118,2,2024-06-14T13:33:32.853Z,english_386.wav,0,0,456,,,,,1,0.1,25.94107183,0.16071221
LG,118,2,2024-06-14T13:33:32.853Z,english_386.wav,0,0,456,,,,,2,0.2,41.2839149,0.21721497
LG,118,2,2024-06-14T13:33:32.853Z,english_386.wav,0,0,456,,,,,3,0.3,14.47866495,1.22036918
LG,118,2,2024-06-14T13:33:32.853Z,english_386.wav,0,0,456,,,,,4,0.32341667,-14.73959674,1.81871952
LG,119,2,2024-06-14T13:33:32.853Z,english_892.wav,0,0,454,,,,,0,0,38.63128374,0.97893944
LG,119,2,2024-06-14T13:33:32.853Z,english_892.wav,0,0,454,,,,,1,0.1,22.49899687,0.66551001
LG,119,2,2024-06-14T13:33:32.853Z,english_892.wav,0,0,454,,,,,2,0.2,28.84135264,0.36795179
LG,119,2,2024-06-14T13:33:32.853Z,english_892.wav,0,0,454,,,,,3,0.3,81.19740532,1.0840826
LG,119,2,2024-06-14T13:33:32.853Z,english_892.wav,0,0,454,,,,,4,0.32341667,22.37782167,0.83637256
LG,120,2,2024-06-14T13:33:32.853Z,english_635.wav,0,1,939,,,,,0,0,27.7169436,1.98702335
LG,120,2,2024-06-14T13:33:32.853Z,english_635.wav,0,1,939,,,,,1,0.1,-44.8292656,1.27737447
LG,120,2,2024-06-14T13:33:32.853Z,english_635.wav,0,1,939,,,,,2,0.2,67.97685769,0.57401651
LG,120,2,2024-06-14T13:33:32.853Z,english_635.wav,0,1,939,,,,,3,0.3,82.0264667,0.46134276
LG,120,2,2024-06-14T13:33:32.853Z,english_635.wav,0,1,939,,,,,4,0.32341667,84.34985253,0.71235155
LG,121,2,2024-06-14T13:33:32.853Z,english_278.wav,0,1,382,,,,,0,0,-49.55521664,0.96598769
LG,121,2,2024-06-14T13:33:32.853Z,english_278.wav,0,1,382,,,,,1,0.1,60.24292507,1.32709354
LG,121,2,2024-06-14T13:33:32.853Z,english_278.wav,0,1,382,,,,,2,0.2,34.32984246,0.84496159
LG,121,2,2024-06-14T13:33:32.853Z,english_278.wav,0,1,382,,,,,3,0.3,91.69210883,1.50157491
LG,121,2,2024-06-14T13:33:32.853Z,english_278.wav,0,1,382,,,,,4,0.32341667,78.84715657,1.85534648
LG,122,2,2024-06-14T13:33:32.853Z,english_83.wav,0,1,547,,,,,0,0,98.86804112,0.82381457
LG,122,2,2024-06-14T13:33:32.853Z,english_83.wav,0,1,547,,,,,1,0.1,-37.42051535,1.26275754
LG,122,2,2024-06-14T13:33:32.853Z,english_83.wav,0,1,547,,,,,2,0.2,23.85234946,0.74836396
LG,122,2,2024-06-14T13:33:32.853Z,english_83.wav,0,1,547,,,,,3,0.3,28.05435803,0.41584898
LG,122,2,2024-06-14T13:33:32.853Z,english_83.wav,0,1,547,,,,,4,0.32341667,2.44147447,1.88336536
LG,123,2,2024-06-14T13:33:32.853Z,english_528.wav,0,1,808,,,,,0,0,34.31610554,1.55529168
LG,123,2,2024-06-14T13:33:32.853Z,english_528.wav,0,1,808,,,,,1,0.1,28.08911917,0.29936297
LG,123,2,2024-06-14T13:33:32.853Z,english_528.wav,0,1,808,,,,,2,0.2,-86.77613696,0.95155831
LG,123,2,2024-06-14T13:33:32.853Z,english_528.wav,0,1,808,,,,,3,0.3,-45.45420678,1.46511459
LG,123,2,2024-06-14T13:33:32.853Z,english_528.wav,0,1,808,,,,,4,0.32341667,-58.86275596,0.63923396
LG,124,2,2024-06-14T13:33:32.853Z,english_89.wav,0,0,370,,,,,0,0,-42.28936571,1.68633095
LG,124,2,2024-06-14T13:33:32.853Z,english_89.wav,0,0,370,,,,,1,0.1,12.96738115,0.49078122
LG,124,2,2024-06-14T13:33:32.853Z,english_89.wav,0,0,370,,,,,2,0.2,-0.92476461,0.75584791
LG,124,2,2024-06-14T13:33:32.853Z,english_89.wav,0,0,370,,,,,3,0.3,54.46155283,1.37155139
LG,124,2,2024-06-14T13:33:32.853Z,english_89.wav,0,0,370,,,,,4,0.32341667,-5.27724964,0.6613642
LG,125,2,2024-06-14T13:33:32.853Z,english_279.wav,0,1,1242,,,,,0,0,-20.90398108,0.60114424
LG,125,2,2024-06-14T13:33:32.853Z,english_279.wav,0,1,1242,,,,,1,0.1,98.83098338,0.92336304
LG,125,2,2024-06-14T13:33:32.853Z,english_279.wav,0,1,1242,,,,,2,0.2,-95.37608427,1.39045705
LG,125,2,2024-06-14T13:33:32.853Z,english_279.wav,0,1,1242,,,,,3,0.3,-52.65380993,0.64938935
LG,125,2,2024-06-14T13:33:32.853Z,english_279.wav,0,1,1242,,,,,4,0.32341667,47.72500112,1.57478054
LG,126,2,2024-06-14T13:33:32.853Z,english_402.wav,0,1,456,,,,,0,0,-69.75327375,0.88104294
LG,126,2,2024-06-14T13:33:32.853Z,english_402.wav,0,1,456,,,,,1,0.1,-37.13247603,1.50830761
LG,126,2,2024-06-14T13:33:32.853Z,english_402.wav,0,1,456,,,,,2,0.2,95.06865819,0.86613458
LG,126,2,2024-06-14T13:33:32.853Z,english_402.wav,0,1,456,,,,,3,0.3,-83.65219271,1.46195184
LG,126,2,2024-06-14T13:33:32.853Z,english_402.wav,0,1,456,,,,,4,0.32341667,-39.65623645,1.78030697
LG,127,2,2024-06-14T13:33:32.853Z,english_526.wav,0,0,372,,,,,0,0,-32.34532461,0.924261
LG,127,2,2024-06-14T13:33:32.853Z,english_526.wav,0,0,372,,,,,1,0.1,-46.6208459,0.25414499
LG,127,2,2024-06-14T13:33:32.853Z,english_526.wav,0,0,372,,,,,2,0.2,-42.84927068,1.01925886
LG,127,2,2024-06-14T13:33:32.853Z,english_526.wav,0,0,372,,,,,3,0.3,3.47643827,0.65966822
LG,127,2,2024-06-14T13:33:32.853Z,english_526.wav,0,0,372,,,,,4,0.32341667,52.79087598,1.50872035
LG,128,2,2024-06-14T13:33:32.853Z,english_771.wav,0,1,180,,,,,0,0,52.29619013,1.65909918
LG,128,2,2024-06-14T13:33:32.853Z,english_771.wav,0,1,180,,,,,1,0.1,55.26271333,1.05958749
LG,128,2,2024-06-14T13:33:32.853Z,english_771.wav,0,1,180,,,,,2,0.2,49.2587818,1.33758239
LG,128,2,2024-06-14T13:33:32.853Z,english_771.wav,0,1,180,,,,,3,0.3,48.45532009,1.75478958
LG,128,2,2024-06-14T13:33:32.853Z,english_771.wav,0,1,180,,,,,4,0.32341667,-98.45631565,0.37013483
LG,129,2,2024-06-14T13:33:32.853Z,english_359.wav,0,1,346,,,,,0,0,95.13315851,1.5844105
LG,129,2,2024-06-14T13:33:32.853Z,english_359.wav,0,1,346,,,,,1,0.1,95.71495863,0.46491803
LG,129,2,2024-06-14T13:33:32.853Z,english_359.wav,0,1,346,,,,,2,0.2,4.56295435,1.17107987
LG,129,2,2024-06-14T13:33:32.853Z,english_359.wav,0,1,346,,,,,3,0.3,-11.93773809,0.63485582
LG,129,2,2024-06-14T13:33:32.853Z,english_359.wav,0,1,346,,,,,4,0.32341667,-75.72789111,0.10666132
LG,130,2,2024-06-14T13:33:32.853Z,english_561.wav,0,1,129,,,,,0,0,62.21065415,1.32725493
LG,130,2,2024-06-14T13:33:32.853Z,english_561.wav,0,1,129,,,,,1,0.1,-9.84770717,1.15871491
LG,130,2,2024-06-14T13:33:32.853Z,english_561.wav,0,1,129,,,,,2,0.2,-12.92274306,0.82816789
LG,130,2,2024-06-14T13:33:32.853Z,english_561.wav,0,1,129,,,,,3,0.3,16.08334811,1.72308293
LG,130,2,2024-06-14T13:33:32.853Z,english_561.wav,0,1,129,,,,,4,0.32341667,-22.38830035,0.72943893
LG,131,2,2024-06-14T13:33:32.853Z,english_521.wav,0,1,220,,,,,0,0,-39.78859965,1.84590666
LG,131,2,2024-06-14T13:33:32.853Z,english_521.wav,0,1,220,,,,,1,0.1,94.65680132,0.33665341
LG,131,2,2024-06-14T13:33:32.853Z,english_521.wav,0,1,220,,,,,2,0.2,-68.68225016,1.01474729
LG,131,2,2024-06-14T13:33:32.853Z,english_521.wav,0,1,220,,,,,3,0.3,19.56493677,0.73624599
LG,131,2,2024-06-14T13:33:32.853Z,english_521.wav,0,1,220,,,,,4,0.32341667,69.42990376,1.4391639
LG,132,2,2024-06-14T13:33:32.853Z,english_687.wav,0,0,596,,,,,0,0,86.90300909,0.475784
LG,132,2,2024-06-14T13:33:32.853Z,english_687.wav,0,0,596,,,,,1,0.1,79.71843279,0.40603367
LG,132,2,2024-06-14T13:33:32.853Z,english_687.wav,0,0,596,,,,,2,0.2,34.94433723,0.97706088
LG,132,2,2024-06-14T13:33:32.853Z,english_687.wav,0,0,596,,,,,3,0.3,-45.53952821,0.65075382
LG,132,2,2024-06-14T13:33:32.853Z,english_687.wav,0,0,596,,,,,4,0.32341667,63.0204093,0.93918167
LG,133,2,2024-06-14T13:33:32.853Z,english_529.wav,0,0,461,,,,,0,0,13.90759343,0.83001961
LG,133,2,2024-06-14T13:33:32.853Z,english_529.wav,0,0,461,,,,,1,0.1,-33.526088,0.02518437
LG,133,2,2024-06-14T13:33:32.853Z,english_529.wav,0,0,461,,,,,2,0.2,-34.32120589,1.61112877
LG,133,2,2024-06-14T13:33:32.853Z,english_529.wav,0,0,461,,,,,3,0.3,-18.30112723,0.91948239
LG,133,2,2024-06-14T13:33:32.853Z,english_529.wav,0,0,461,,,,,4,0.32341667,16.4796061,0.33204613
LG,134,2,2024-06-14T13:33:32.853Z,english_811.wav,0,1,180,,,,,0,0,-51.03425556,1.55055496
LG,134,2,2024-06-14T13:33:32.853Z,english_811.wav,0,1,180,,,,,1,0.1,22.81695275,1.74830484
LG,134,2,2024-06-14T13:33:32.853Z,english_811.wav,0,1,180,,,,,2,0.2,73.06623682,1.24661488
LG,134,2,2024-06-14T13:33:32.853Z,english_811.wav,0,1,180,,,,,3,0.3,-9.17693151,0.09792889
LG,134,2,2024-06-14T13:33:32.853Z,english_811.wav,0,1,180,,,,,4,0.32341667,79.97760745,0.03735929
LG,135,2,2024-06-14T13:33:32.853Z,english_930.wav,0,1,758,,,,,0,0,-52.65701122,0.60066533
LG,135,2,2024-06-14T13:33:32.853Z,english_930.wav,0,1,758,,,,,1,0.1,-24.36484499,1.33650528
LG,135,2,2024-06-14T13:33:32.853Z,english_930.wav,0,1,758,,,,,2,0.2,4.10813066,0.15979886
LG,135,2,2024-06-14T13:33:32.853Z,english_930.wav,0,1,758,,,,,3,0.3,93.74919515,1.46288505
LG,135,2,2024-06-14T13:33:32.853Z,english_930.wav,0,1,758,,,,,4,0.32341667,66.31726896,0.93993915
LG,136,2,2024-06-14T13:33:32.853Z,english_673.wav,0,1,367,,,,,0,0,-57.74220233,1.16794182
LG,136,2,2024-06-14T13:33:32.853Z,english_673.wav,0,1,367,,,,,1,0.1,51.69168463,0.24005868
LG,136,2,2024-06-14T13:33:32.853Z,english_673.wav,0,1,367,,,,,2,0.2,32.71998218,1.1491536
LG,136,2,2024-06-14T13:33:32.853Z,english_673.wav,0,1,367,,,,,3,0.3,1.53841214,1.59180477
LG,136,2,2024-06-14T13:33:32.853Z,english_673.wav,0,1,367,,,,,4,0.32341667,-95.68622946,1.00634228
LG,137,2,2024-06-14T13:33:32.853Z,english_887.wav,0,0,571,,,,,0,0,21.36154006,0.58574694
LG,137,2,2024-06-14T13:33:32.853Z,english_887.wav,0,0,571,,,,,1,0.1,-21.46213737,0.48413962
LG,137,2,2024-06-14T13:33:32.853Z,english_887.wav,0,0,571,,,,,2,0.2,-45.53850124,1.16923549
LG,137,2,2024-06-14T13:33:32.853Z,english_887.wav,0,0,571,,,,,3,0.3,-75.36110743,1.46190157
LG,137,2,2024-06-14T13:33:32.853Z,english_887.wav,0,0,571,,,,,4,0.32341667,-96.67184991,0.00789239
LG,138,2,2024-06-14T13:33:32.853Z,english_720.wav,0,0,269,,,,,0,0,85.23240719,1.23446246
LG,138,2,2024-06-14T13:33:32.853Z,english_720.wav,0,0,269,,,,,1,0.1,78.65958559,0.77382892
LG,138,2,2024-06-14T13:33:32.853Z,english_720.wav,0,0,269,,,,,2,0.2,-56.45174874,0.48705718
LG,138,2,2024-06-14T13:33:32.853Z,english_720.wav,0,0,269,,,,,3,0.3,71.88898266,1.42335328
LG,138,2,2024-06-14T13:33:32.853Z,english_720.wav,0,0,269,,,,,4,0.32341667,-9.13482,1.32495619
LG,139,2,2024-06-14T13:33:32.853Z,english_484.wav,0,1,564,,,,,0,0,79.97188672,0.20745104
LG,139,2,2024-06-14T13:33:32.853Z,english_484.wav,0,1,564,,,,,1,0.1,-84.58904822,1.46214797
LG,139,2,2024-06-14T13:33:32.853Z,english_484.wav,0,1,564,,,,,2,0.2,70.2960477,0.40821612
LG,139,2,2024-06-14T13:33:32.853Z,english_484.wav,0,1,564,,,,,3,0.3,-66.44520929,1.23203415
LG,139,2,2024-06-14T13:33:32.853Z,english_484.wav,0,1,564,,,,,4,0.32341667,-78.91715359,1.26593617
LG,140,2,2024-06-14T13:33:32.853Z,english_698.wav,0,1,487,,,,,0,0,-86.30999669,1.66322514
LG,140,2,2024-06-14T13:33:32.853Z,english_698.wav,0,1,487,,,,,1,0.1,-91.60158578,1.16924533
LG,140,2,2024-06-14T13:33:32.853Z,english_698.wav,0,1,487,,,,,2,0.2,-41.16326515,1.29610919
LG,140,2,2024-06-14T13:33:32.853Z,english_698.wav,0,1,487,,,,,3,0.3,7.86252123,1.21006153
LG,140,2,2024-06-14T13:33:32.853Z,english_698.wav,0,1,487,,,,,4,0.32341667,25.04181708,1.83628755
LG,141,2,2024-06-14T13:33:32.853Z,english_770.wav,0,1,276,,,,,0,0,-33.21947329,1.48551245
LG,141,2,2024-06-14T13:33:32.853Z,english_770.wav,0,1,276,,,,,1,0.1,63.53746239,1.21485607
LG,141,2,2024-06-14T13:33:32.853Z,english_770.wav,0,1,276,,,,,2,0.2,-62.38231874,1.11129762
LG,141,2,2024-06-14T13:33:32.853Z,english_770.wav,0,1,276,,,,,3,0.3,57.5515188,1.59702794
LG,141,2,2024-06-14T13:33:32.853Z,english_770.wav,0,1,276,,,,,4,0.32341667,-11.94001254,1.16110171
LG,142,2,2024-06-14T13:33:32.853Z,english_728.wav,0,1,530,,,,,0,0,-6.4565561,1.7247049
LG,142,2,2024-06-14T13:33:32.853Z,english_728.wav,0,1,530,,,,,1,0.1,2.02882612,1.95158608
LG,142,2,2024-06-14T13:33:32.853Z,english_728.wav,0,1,530,,,,,2,0.2,-40.29513079,0.21085377
LG,142,2,2024-06-14T13:33:32.853Z,english_728.wav,0,1,530,,,,,3,0.3,-29.37287389,0.85434083
LG,142,2,2024-06-14T13:33:32.853Z,english_728.wav,0,1,530,,,,,4,0.32341667,-32.17490136,1.52436666
LG,143,2,2024-06-14T13:33:32.853Z,english_842.wav,0,0,509,,,,,0,0,-48.5952207,0.12382156
LG,143,2,2024-06-14T13:33:32.853Z,english_842.wav,0,0,509,,,,,1,0.1,29.19485822,1.75564688
LG,143,2,2024-06-14T13:33:32.853Z,english_842.wav,0,0,509,,,,,2,0.2,84.54328152,0.24815543
LG,143,2,2024-06-14T13:33:32.853Z,english_842.wav,0,0,509,,,,,3,0.3,69.99994667,1.2885643
LG,143,2,2024-06-14T13:33:32.853Z,english_842.wav,0,0,509,,,,,4,0.32341667,56.72069463,0.70518165
LG,144,2,2024-06-14T13:33:32.853Z,english_897.wav,0,1,152,,,,,0,0,-6.17515852,1.45954458
LG,144,2,2024-06-14T13:33:32.853Z,english_897.wav,0,1,152,,,,,1,0.1,-25.56252799,1.4662158
LG,144,2,2024-06-14T13:33:32.853Z,english_897.wav,0,1,152,,,,,2,0.2,-51.51756482,1.09304129
LG,144,2,2024-06-14T13:33:32.853Z,english_897.wav,0,1,152,,,,,3,0.3,-57.3776393,1.17713492
LG,144,2,2024-06-14T13:33:32.853Z,english_897.wav,0,1,152,,,,,4,0.32341667,-65.82780913,1.23726335
LG,145,2,2024-06-14T13:33:32.853Z,english_275.wav,0,1,768,,,,,0,0,-1.14725012,0.71691039
LG,145,2,2024-06-14T13:33:32.853Z,english_275.wav,0,1,768,,,,,1,0.1,-90.43848863,0.74614953
LG,145,2,2024-06-14T13:33:32.853Z,english_275.wav,0,1,768,,,,,2,0.2,-40.03711279,1.94843862
LG,145,2,2024-06-14T13:33:32.853Z,english_275.wav,0,1,768,,,,,3,0.3,-29.12549604,0.32495742
LG,145,2,2024-06-14T13:33:32.853Z,english_275.wav,0,1,768,,,,,4,0.32341667,77.33253221,0.61649877
LG,146,2,2024-06-14T13:33:32.853Z,english_967.wav,0,1,269,,,,,0,0,-33.19777689,0.76720641
LG,146,2,2024-06-14T13:33:32.853Z,english_967.wav,0,1,269,,,,,1,0.1,83.84847924,1.4094361
LG,146,2,2024-06-14T13:33:32.853Z,english_967.wav,0,1,269,,,,,2,0.2,81.27362124,0.74435637
LG,146,2,2024-06-14T13:33:32.853Z,english_967.wav,0,1,269,,,,,3,0.3,22.78466805,0.29904584
LG,146,2,2024-06-14T13:33:32.853Z,english_967.wav,0,1,269,,,,,4,0.32341667,16.56894366,0.47687807
LG,147,2,2024-06-14T13:33:32.853Z,english_237.wav,0,1,103,,,,,0,0,-40.35335157,0.42178982
LG,147,2,2024-06-14T13:33:32.853Z,english_237.wav,0,1,103,,,,,1,0.1,42.86374565,0.6060796
LG,147,2,2024-06-14T13:33:32.853Z,english_237.wav,0,1,103,,,,,2,0.2,7.79480372,0.58312984
LG,147,2,2024-06-14T13:33:32.853Z,english_237.wav,0,1,103,,,,,3,0.3,-48.50613844,1.50499267
LG,147,2,2024-06-14T13:33:32.853Z,english_237.wav,0,1,103,,,,,4,0.32341667,17.78174719,1.72211243
LG,148,2,2024-06-14T13:33:32.853Z,english_884.wav,0,0,167,,,,,0,0,77.1498115,1.83268558
LG,148,2,2024-06-14T13:33:32.853Z,english_884.wav,0,0,167,,,,,1,0.1,10.32602389,0.76817862
LG,148,2,2024-06-14T13:33:32.853Z,english_884.wav,0,0,167,,,,,2,0.2,4.15464736,1.59331573
LG,148,2,2024-06-14T13:33:32.853Z,english_884.wav,0,0,167,,,,,3,0.3,21.19252889,0.58913169
LG,148,2,2024-06-14T13:33:32.853Z,english_884.wav,0,0,167,,,,,4,0.32341667,-7.11336122,0.81393531
LG,149,2,2024-06-14T13:33:32.853Z,english_858.wav,0,1,296,,,,,0,0,45.12570132,0.50395823
LG,149,2,2024-06-14T13:33:32.853Z,english_858.wav,0,1,296,,,,,1,0.1,-46.71359417,1.50658612
LG,149,2,2024-06-14T13:33:32.853Z,english_858.wav,0,1,296,,,,,2,0.2,-60.32464978,0.86887416
LG,149,2,2024-06-14T13:33:32.853Z,english_858.wav,0,1,296,,,,,3,0.3,-70.46241098,0.20520469
LG,149,2,2024-06-14T13:33:32.853Z,english_858.wav,0,1,296,,,,,4,0.32341667,76.51169453,1.05885662
LG,150,3,2024-06-14T13:33:32.853Z,english_135.wav,0,0,590,,,,,0,0,92.53632507,0.8813083
LG,150,3,2024-06-14T13:33:32.853Z,english_135.wav,0,0,590,,,,,1,0.1,42.68843281,1.60503348
LG,150,3,2024-06-14T13:33:32.853Z,english_135.wav,0,0,590,,,,,2,0.2,87.27237188,0.22265806
LG,150,3,2024-06-14T13:33:32.853Z,english_135.wav,0,0,590,,,,,3,0.3,-70.62725941,0.4233462
LG,150,3,2024-06-14T13:33:32.853Z,english_135.wav,0,0,590,,,,,4,0.32341667,91.37204548,0.99500327
LG,151,3,2024-06-14T13:33:32.853Z,english_739.wav,0,1,171,,,,,0,0,-30.44662447,1.4086692
LG,151,3,2024-06-14T13:33:32.853Z,english_739.wav,0,1,171,,,,,1,0.1,-27.69908881,0.95518545
LG,151,3,2024-06-14T13:33:32.853Z,english_739.wav,0,1,171,,,,,2,0.2,25.08576745,1.0815723
LG,151,3,2024-06-14T13:33:32.853Z,english_739.wav,0,1,171,,,,,3,0.3,-20.92476775,0.08724184
LG,151,3,2024-06-14T13:33:32.853Z,english_739.wav,0,1,171,,,,,4,0.32341667,-46.92266257,1.12979104
LG,152,3,2024-06-14T13:33:32.853Z,english_882.wav,0,1,275,,,,,0,0,-42.93700265,1.06489748
LG,152,3,2024-06-14T13:33:32.853Z,english_882.wav,0,1,275,,,,,1,0.1,-62.35786663,1.38883859
LG,152,3,2024-06-14T13:33:32.853Z,english_882.wav,0,1,275,,,,,2,0.2,-16.20482572,0.28843799
LG,152,3,2024-06-14T13:33:32.853Z,english_882.wav,0,1,275,,,,,3,0.3,-46.49020195,1.05408179
LG,152,3,2024-06-14T13:33:32.853Z,english_882.wav,0,1,275,,,,,4,0.32341667,-64.89408339,1.78517837
LG,153,3,2024-06-14T13:33:32.853Z,english_14.wav,0,0,646,,,,,0,0,98.00979643,0.92494293
LG,153,3,2024-06-14T13:33:32.853Z,english_14.wav,0,0,646,,,,,1,0.1,-39.90204919,0.80403915
LG,153,3,2024-06-14T13:33:32.853Z,english_14.wav,0,0,646,,,,,2,0.2,51.0517473,0.29426005
LG,153,3,2024-06-14T13:33:32.853Z,english_14.wav,0,0,646,,,,,3,0.3,-8.39716694,0.14957292
LG,153,3,2024-06-14T13:33:32.853Z,english_14.wav,0,0,646,,,,,4,0.32341667,82.54419716,0.1717279
LG,154,3,2024-06-14T13:33:32.853Z,english_235.wav,0,0,560,,,,,0,0,-1.09951899,1.56432712
LG,154,3,2024-06-14T13:33:32.853Z,english_235.wav,0,0,560,,,,,1,0.1,-96.83918407,0.18127978
LG,154,3,2024-06-14T13:33:32.853Z,english_235.wav,0,0,560,,,,,2,0.2,96.22116446,1.26168206
LG,154,3,2024-06-14T13:33:32.853Z,english_235.wav,0,0,560,,,,,3,0.3,48.9502898,1.98140435
LG,154,3,2024-06-14T13:33:32.853Z,english_235.wav,0,0,560,,,,,4,0.32341667,38.18641725,0.52366779
LG,155,3,2024-06-14T13:33:32.853Z,english_850.wav,0,0,500,,,,,0,0,79.79173837,1.46721922
LG,155,3,2024-06-14T13:33:32.853Z,english_850.wav,0,0,500,,,,,1,0.1,-44.24877139,0.57242606
LG,155,3,2024-06-14T13:33:32.853Z,english_850.wav,0,0,500,,,,,2,0.2,74.77623955,0.15597525
LG,155,3,2024-06-14T13:33:32.853Z,english_850.wav,0,0,500,,,,,3,0.3,-86.32612653,1.3358867
LG,155,3,2024-06-14T13:33:32.853Z,english_850.wav,0,0,500,,,,,4,0.32341667,-11.10230867,1.14618682
LG,156,3,2024-06-14T13:33:32.853Z,english_43.wav,0,0,362,,,,,0,0,22.40064366,1.74132857
LG,156,3,2024-06-14T13:33:32.853Z,english_43.wav,0,0,362,,,,,1,0.1,-68.20152198,0.12763156
LG,156,3,2024-06-14T13:33:32.853Z,english_43.wav,0,0,362,,,,,2,0.2,62.56231291,0.31420738
LG,156,3,2024-06-14T13:33:32.853Z,english_43.wav,0,0,362,,,,,3,0.3,45.0736378,0.98572154
LG,156,3,2024-06-14T13:33:32.853Z,english_43.wav,0,0,362,,,,,4,0.32341667,-36.46791656,0.91325677
LG,157,3,2024-06-14T13:33:32.853Z,english_550.wav,0,0,454,,,,,0,0,19.46608022,0.78600887
LG,157,3,2024-06-14T13:33:32.853Z,english_550.wav,0,0,454,,,,,1,0.1,-94.3556307,1.03273328
LG,157,3,2024-06-14T13:33:32.853Z,english_550.wav,0,0,454,,,,,2,0.2,-80.90695222,0.36941932
LG,157,3,2024-06-14T13:33:32.853Z,english_550.wav,0,0,454,,,,,3,0.3,-65.36230075,0.47038634
LG,157,3,2024-06-14T13:33:32.853Z,english_550.wav,0,0,454,,,,,4,0.32341667,-18.45722395,0.11798167
LG,158,3,2024-06-14T13:33:32.853Z,english_224.wav,0,1,1017,,,,,0,0,-3.31597843,0.45157501
LG,158,3,2024-06-14T13:33:32.853Z,english_224.wav,0,1,1017,,,,,1,0.1,-35.19448657,1.77513434
LG,158,3,2024-06-14T13:33:32.853Z,english_224.wav,0,1,1017,,,,,2,0.2,-54.62049262,0.36912314
LG,158,3,2024-06-14T13:33:32.853Z,english_224.wav,0,1,1017,,,,,3,0.3,50.12510099,1.67171916
LG,158,3,2024-06-14T13:33:32.853Z,english_224.wav,0,1,1017,,,,,4,0.32341667,96.66013203,1.16069525
LG,159,3,2024-06-14T13:33:32.853Z,english_750.wav,0,1,478,,,,,0,0,54.68497377,0.76623701
LG,159,3,2024-06-14T13:33:32.853Z,english_750.wav,0,1,478,,,,,1,0.1,0.91792919,1.58478782
LG,159,3,2024-06-14T13:33:32.853Z,english_750.wav,0,1,478,,,,,2,0.2,-67.69423006,0.74884996
LG,159,3,2024-06-14T13:33:32.853Z,english_750.wav,0,1,478,,,,,3,0.3,20.92985273,0.15814923
LG,159,3,2024-06-14T13:33:32.853Z,english_750.wav,0,1,478,,,,,4,0.32341667,-39.60032316,1.58320499
LG,160,3,2024-06-14T13:33:32.853Z,english_551.wav,0,0,576,,,,,0,0,51.69986033,0.0331047
LG,160,3,2024-06-14T13:33:32.853Z,english_551.wav,0,0,576,,,,,1,0.1,-91.31948841,0.51079487
LG,160,3,2024-06-14T13:33:32.853Z,english_551.wav,0,0,576,,,,,2,0.2,12.24586311,1.83581854
LG,160,3,2024-06-14T13:33:32.853Z,english_551.wav,0,0,576,,,,,3,0.3,-52.90680215,0.12201236
LG,160,3,2024-06-14T13:33:32.853Z,english_551.wav,0,0,576,,,,,4,0.32341667,-27.23325687,1.55189277
LG,161,3,2024-06-14T13:33:32.853Z,english_781.wav,0,1,2001,,,,,0,0,22.64916165,0.31928057
LG,161,3,2024-06-14T13:33:32.853Z,english_781.wav,0,1,2001,,,,,1,0.1,6.89582518,1.4040275
LG,161,3,2024-06-14T13:33:32.853Z,english_781.wav,0,1,2001,,,,,2,0.2,-79.07711894,0.86558079
LG,161,3,2024-06-14T13:33:32.853Z,english_781.wav,0,1,2001,,,,,3,0.3,66.534152,0.14510309
LG,161,3,2024-06-14T13:33:32.853Z,english_781.wav,0,1,2001,,,,,4,0.32341667,93.30494506,0.79620595
LG,162,3,2024-06-14T13:33:32.853Z,english_339.wav,0,0,407,,,,,0,0,-58.67599578,0.13141934
LG,162,3,2024-06-14T13:33:32.853Z,english_339.wav,0,0,407,,,,,1,0.1,-13.30258388,0.16133177
LG,162,3,2024-06-14T13:33:32.853Z,english_339.wav,0,0,407,,,,,2,0.2,-52.40820381,1.13500643
LG,162,3,2024-06-14T13:33:32.853Z,english_339.wav,0,0,407,,,,,3,0.3,11.33062491,0.98717522
LG,162,3,2024-06-14T13:33:32.853Z,english_339.wav,0,0,407,,,,,4,0.32341667,9.6385593,0.10332776
LG,163,3,2024-06-14T13:33:32.853Z,english_384.wav,0,0,715,,,,,0,0,-38.96228733,0.34616893
LG,163,3,2024-06-14T13:33:32.853Z,english_384.wav,0,0,715,,,,,1,0.1,2.386347,0.04115024
LG,163,3,2024-06-14T13:33:32.853Z,english_384.wav,0,0,715,,,,,2,0.2,48.26486793,0.35900131
LG,163,3,2024-06-14T13:33:32.853Z,english_384.wav,0,0,715,,,,,3,0.3,-48.11903655,1.58519606
LG,163,3,2024-06-14T13:33:32.853Z,english_384.wav,0,0,715,,,,,4,0.32341667,19.29531145,0.95531857
LG,164,3,2024-06-14T13:33:32.853Z,english_783.wav,0,1,410,,,,,0,0,23.05268069,1.49549247
LG,164,3,2024-06-14T13:33:32.853Z,english_783.wav,0,1,410,,,,,1,0.1,9.36005369,0.13797177
LG,164,3,2024-06-14T13:33:32.853Z,english_783.wav,0,1,410,,,,,2,0.2,62.81522218,1.80236654
LG,164,3,2024-06-14T13:33:32.853Z,english_783.wav,0,1,410,,,,,3,0.3,67.71456376,0.33800471
LG,164,3,2024-06-14T13:33:32.853Z,english_783.wav,0,1,410,,,,,4,0.32341667,77.96788237,1.97708045
LG,165,3,2024-06-14T13:33:32.853Z,english_223.wav,0,1,154,,,,,0,0,-51.58222533,0.62889348
LG,165,3,2024-06-14T13:33:32.853Z,english_223.wav,0,1,154,,,,,1,0.1,-36.02700064,1.73736573
LG,165,3,2024-06-14T13:33:32.853Z,english_223.wav,0,1,154,,,,,2,0.2,-35.4915315,1.20130681
LG,165,3,2024-06-14T13:33:32.853Z,english_223.wav,0,1,154,,,,,3,0.3,1.26892628,0.53176439
LG,165,3,2024-06-14T13:33:32.853Z,english_223.wav,0,1,154,,,,,4,0.32341667,72.37143842,1.24562253
LG,166,3,2024-06-14T13:33:32.853Z,english_145.wav,0,0,644,,,,,0,0,-29.75830226,1.9441914
LG,166,3,2024-06-14T13:33:32.853Z,english_145.wav,0,0,644,,,,,1,0.1,0.94664025,0.04744273
LG,166,3,2024-06-14T13:33:32.853Z,english_145.wav,0,0,644,,,,,2,0.2,-55.39340023,1.27144901
LG,166,3,2024-06-14T13:33:32.853Z,english_145.wav,0,0,644,,,,,3,0.3,-49.58722608,0.20842421
LG,166,3,2024-06-14T13:33:32.853Z,english_145.wav,0,0,644,,,,,4,0.32341667,-83.35110665,0.85478836
LG,167,3,2024-06-14T13:33:32.853Z,english_716.wav,0,1,197,,,,,0,0,-41.01159081,1.70683796
LG,167,3,2024-06-14T13:33:32.853Z,english_716.wav,0,1,197,,,,,1,0.1,-51.78631031,1.57787804
LG,167,3,2024-06-14T13:33:32.853Z,english_716.wav,0,1,197,,,,,2,0.2,-25.7252513,1.76538287
LG,167,3,2024-06-14T13:33:32.853Z,english_716.wav,0,1,197,,,,,3,0.3,78.18950514,1.34280163
LG,167,3,2024-06-14T13:33:32.853Z,english_716.wav,0,1,197,,,,,4,0.32341667,-26.78025651,1.89346788
LG,168,3,2024-06-14T13:33:32.853Z,english_833.wav,0,0,385,,,,,0,0,18.29317799,0.49951345
LG,168,3,2024-06-14T13:33:32.853Z,english_833.wav,0,0,385,,,,,1,0.1,20.01945042,1.12176851
LG,168,3,2024-06-14T13:33:32.853Z,english_833.wav,0,0,385,,,,,2,0.2,-77.99741705,0.59960618
LG,168,3,2024-06-14T13:33:32.853Z,english_833.wav,0,0,385,,,,,3,0.3,19.36192697,0.50557433
LG,168,3,2024-06-14T13:33:32.853Z,english_833.wav,0,0,385,,,,,4,0.32341667,43.06785988,0.3288339
LG,169,3,2024-06-14T13:33:32.853Z,english_130.wav,0,1,599,,,,,0,0,-27.4951122,0.83907871
LG,169,3,2024-06-14T13:33:32.853Z,english_130.wav,0,1,599,,,,,1,0.1,-38.07775804,1.38560413
LG,169,3,2024-06-14T13:33:32.853Z,english_130.wav,0,1,599,,,,,2,0.2,-9.69340922,0.50531735
LG,169,3,2024-06-14T13:33:32.853Z,english_130.wav,0,1,599,,,,,3,0.3,-88.09187015,0.53414674
LG,169,3,2024-06-14T13:33:32.853Z,english_130.wav,0,1,599,,,,,4,0.32341667,-47.45461314,1.10107345
LG,170,3,2024-06-14T13:33:32.853Z,english_487.wav,0,0,506,,,,,0,0,57.34447058,0.27098038
LG,170,3,2024-06-14T13:33:32.853Z,english_487.wav,0,0,506,,,,,1,0.1,-38.59224607,1.03105808
LG,170,3,2024-06-14T13:33:32.853Z,english_487.wav,0,0,506,,,,,2,0.2,-30.93562102,0.17810411
LG,170,3,2024-06-14T13:33:32.853Z,english_487.wav,0,0,506,,,,,3,0.3,-21.39452484,0.81608244
LG,170,3,2024-06-14T13:33:32.853Z,english_487.wav,0,0,506,,,,,4,0.32341667,-98.93333205,1.1056793
LG,171,3,2024-06-14T13:33:32.853Z,english_311.wav,0,0,490,,,,,0,0,-35.59355899,0.16094856
LG,171,3,2024-06-14T13:33:32.853Z,english_311.wav,0,0,490,,,,,1,0.1,-50.39310557,1.33895436
LG,171,3,2024-06-14T13:33:32.853Z,english_311.wav,0,0,490,,,,,2,0.2,-53.37222601,0.01028283
LG,171,3,2024-06-14T13:33:32.853Z,english_311.wav,0,0,490,,,,,3,0.3,72.25802658,0.48497386
LG,171,3,2024-06-14T13:33:32.853Z,english_311.wav,0,0,490,,,,,4,0.32341667,48.72421008,0.48591183
LG,172,3,2024-06-14T13:33:32.853Z,english_737.wav,0,0,4897,,,,,0,0,21.35751723,1.17499048
LG,172,3,2024-06-14T13:33:32.853Z,english_737.wav,0,0,4897,,,,,1,0.1,61.52152077,1.09581395
LG,172,3,2024-06-14T13:33:32.853Z,english_737.wav,0,0,4897,,,,,2,0.2,-29.75610596,0.62940412
LG,172,3,2024-06-14T13:33:32.853Z,english_737.wav,0,0,4897,,,,,3,0.3,-39.80249708,0.11793022
LG,172,3,2024-06-14T13:33:32.853Z,english_737.wav,0,0,4897,,,,,4,0.32341667,-14.64937497,0.62377861
LG,173,3,2024-06-14T13:33:32.853Z,english_356.wav,0,1,304,,,,,0,0,87.74309864,0.22820547
LG,173,3,2024-06-14T13:33:32.853Z,english_356.wav,0,1,304,,,,,1,0.1,-4.48264388,1.49009691
LG,173,3,2024-06-14T13:33:32.853Z,english_356.wav,0,1,304,,,,,2,0.2,90.19031952,1.39023362
LG,173,3,2024-06-14T13:33:32.853Z,english_356.wav,0,1,304,,,,,3,0.3,-69.40540064,1.78473098
LG,173,3,2024-06-14T13:33:32.853Z,english_356.wav,0,1,304,,,,,4,0.32341667,65.10278108,0.80628385
LG,174,3,2024-06-14T13:33:32.853Z,english_469.wav,0,1,406,,,,,0,0,-12.92877168,0.59007764
LG,174,3,2024-06-14T13:33:32.853Z,english_469.wav,0,1,406,,,,,1,0.1,-67.35237443,1.36577084
LG,174,3,2024-06-14T13:33:32.853Z,english_469.wav,0,1,406,,,,,2,0.2,-70.76493751,1.86337992
LG,174,3,2024-06-14T13:33:32.853Z,english_469.wav,0,1,406,,,,,3,0.3,86.785725,1.85233296
LG,174,3,2024-06-14T13:33:32.853Z,english_469.wav,0,1,406,,,,,4,0.32341667,-36.33255728,1.108986
LG,175,3,2024-06-14T13:33:32.853Z,english_330.wav,0,1,184,,,,,0,0,-66.0623823,1.84658225
LG,175,3,2024-06-14T13:33:32.853Z,english_330.wav,0,1,184,,,,,1,0.1,-90.7862333,0.94726644
LG,175,3,2024-06-14T13:33:32.853Z,english_330.wav,0,1,184,,,,,2,0.2,-0.00810713819,1.52006519
LG,175,3,2024-06-14T13:33:32.853Z,english_330.wav,0,1,184,,,,,3,0.3,-61.2450651,1.63286843
LG,175,3,2024-06-14T13:33:32.853Z,english_330.wav,0,1,184,,,,,4,0.323416667,-0.344586516,1.74173618
LG,176,3,2024-06-14T13:33:32.853Z,english_995.wav,0,1,160,,,,,0,0,49.33707883,0.89732458
LG,176,3,2024-06-14T13:33:32.853Z,english_995.wav,0,1,160,,,,,1,0.1,54.78730957,0.49662083
LG,176,3,2024-06-14T13:33:32.853Z,english_995.wav,0,1,160,,,,,2,0.2,-5.99414072,0.83265132
LG,176,3,2024-06-14T13:33:32.853Z,english_995.wav,0,1,160,,,,,3,0.3,26.8687238,1.32035917
LG,176,3,2024-06-14T13:33:32.853Z,english_995.wav,0,1,160,,,,,4,0.32341667,38.3348194,1.99869744
LG,177,3,2024-06-14T13:33:32.853Z,english_831.wav,0,1,422,,,,,0,0,-7.33710711,1.53159971
LG,177,3,2024-06-14T13:33:32.853Z,english_831.wav,0,1,422,,,,,1,0.1,-87.69782071,1.22669962
LG,177,3,2024-06-14T13:33:32.853Z,english_831.wav,0,1,422,,,,,2,0.2,34.03975531,0.70180407
LG,177,3,2024-06-14T13:33:32.853Z,english_831.wav,0,1,422,,,,,3,0.3,-2.18295653,1.02244347
LG,177,3,2024-06-14T13:33:32.853Z,english_831.wav,0,1,422,,,,,4,0.32341667,20.908766,1.06702443
LG,178,3,2024-06-14T13:33:32.853Z,english_228.wav,0,1,911,,,,,0,0,10.35680964,1.81276751
LG,178,3,2024-06-14T13:33:32.853Z,english_228.wav,0,1,911,,,,,1,0.1,-84.53961792,0.9819477
LG,178,3,2024-06-14T13:33:32.853Z,english_228.wav,0,1,911,,,,,2,0.2,38.41788342,1.68506606
LG,178,3,2024-06-14T13:33:32.853Z,english_228.wav,0,1,911,,,,,3,0.3,-9.18015311,0.19219142
LG,178,3,2024-06-14T13:33:32.853Z,english_228.wav,0,1,911,,,,,4,0.32341667,-12.25744947,1.99636764
LG,179,3,2024-06-14T13:33:32.853Z,english_265.wav,0,0,526,,,,,0,0,-30.2287418,1.31067296
LG,179,3,2024-06-14T13:33:32.853Z,english_265.wav,0,0,526,,,,,1,0.1,86.62283936,0.87427745
LG,179,3,2024-06-14T13:33:32.853Z,english_265.wav,0,0,526,,,,,2,0.2,-21.47577863,1.37620008
LG,179,3,2024-06-14T13:33:32.853Z,english_265.wav,0,0,526,,,,,3,0.3,84.9300577,0.45825557
LG,179,3,2024-06-14T13:33:32.853Z,english_265.wav,0,0,526,,,,,4,0.32341667,59.52250756,1.13518739
LG,180,3,2024-06-14T13:33:32.853Z,english_543.wav,0,0,442,,,,,0,0,13.74009622,0.63900578
LG,180,3,2024-06-14T13:33:32.853Z,english_543.wav,0,0,442,,,,,1,0.1,51.80972721,1.6206981
LG,180,3,2024-06-14T13:33:32.853Z,english_543.wav,0,0,442,,,,,2,0.2,86.3964352,0.03304675
LG,180,3,2024-06-14T13:33:32.853Z,english_543.wav,0,0,442,,,,,3,0.3,-66.39783761,1.7049324
LG,180,3,2024-06-14T13:33:32.853Z,english_543.wav,0,0,442,,,,,4,0.32341667,31.11863834,1.46507556
LG,181,3,2024-06-14T13:33:32.853Z,english_925.wav,0,1,1641,,,,,0,0,-23.38055082,1.07708889
LG,181,3,2024-06-14T13:33:32.853Z,english_925.wav,0,1,1641,,,,,1,0.1,12.69502826,1.65606803
LG,181,3,2024-06-14T13:33:32.853Z,english_925.wav,0,1,1641,,,,,2,0.2,77.53463838,0.48648737
LG,181,3,2024-06-14T13:33:32.853Z,english_925.wav,0,1,1641,,,,,3,0.3,58.05299948,0.8939016
LG,181,3,2024-06-14T13:33:32.853Z,english_925.wav,0,1,1641,,,,,4,0.32341667,54.12197927,0.72199492
LG,182,3,2024-06-14T13:33:32.853Z,english_541.wav,0,0,416,,,,,0,0,-20.13323906,0.51383156
LG,182,3,2024-06-14T13:33:32.853Z,english_541.wav,0,0,416,,,,,1,0.1,2.48768759,0.65082056
LG,182,3,2024-06-14T13:33:32.853Z,english_541.wav,0,0,416,,,,,2,0.2,-86.20966861,0.48716137
LG,182,3,2024-06-14T13:33:32.853Z,english_541.wav,0,0,416,,,,,3,0.3,59.01445297,0.54905673
LG,182,3,2024-06-14T13:33:32.853Z,english_541.wav,0,0,416,,,,,4,0.32341667,61.23853539,1.76268899
LG,183,3,2024-06-14T13:33:32.853Z,english_630.wav,0,0,320,,,,,0,0,97.25925287,0.34607754
LG,183,3,2024-06-14T13:33:32.853Z,english_630.wav,0,0,320,,,,,1,0.1,76.95662127,0.15996234
LG,183,3,2024-06-14T13:33:32.853Z,english_630.wav,0,0,320,,,,,2,0.2,5.01423186,1.73874617
LG,183,3,2024-06-14T13:33:32.853Z,english_630.wav,0,0,320,,,,,3,0.3,-27.88706711,0.41181915
LG,183,3,2024-06-14T13:33:32.853Z,english_630.wav,0,0,320,,,,,4,0.32341667,90.69966072,0.77788697
LG,184,3,2024-06-14T13:33:32.853Z,english_156.wav,0,0,410,,,,,0,0,93.86570948,0.27803573
LG,184,3,2024-06-14T13:33:32.853Z,english_156.wav,0,0,410,,,,,1,0.1,63.74639013,0.76121308
LG,184,3,2024-06-14T13:33:32.853Z,english_156.wav,0,0,410,,,,,2,0.2,-97.10775444,0.98438609
LG,184,3,2024-06-14T13:33:32.853Z,english_156.wav,0,0,410,,,,,3,0.3,99.76737427,0.34877861
LG,184,3,2024-06-14T13:33:32.853Z,english_156.wav,0,0,410,,,,,4,0.32341667,11.29868277,0.58154428
LG,185,3,2024-06-14T13:33:32.853Z,english_774.wav,0,0,186,,,,,0,0,-13.3479616,1.45409172
LG,185,3,2024-06-14T13:33:32.853Z,english_774.wav,0,0,186,,,,,1,0.1,-18.75352159,1.07775337
LG,185,3,2024-06-14T13:33:32.853Z,english_774.wav,0,0,186,,,,,2,0.2,-41.83192829,0.61872946
LG,185,3,2024-06-14T13:33:32.853Z,english_774.wav,0,0,186,,,,,3,0.3,14.77986843,1.87871381
LG,185,3,2024-06-14T13:33:32.853Z,english_774.wav,0,0,186,,,,,4,0.32341667,45.85609187,1.0399825
LG,186,3,2024-06-14T13:33:32.853Z,english_846.wav,0,0,581,,,,,0,0,61.87306923,1.6800264
LG,186,3,2024-06-14T13:33:32.853Z,english_846.wav,0,0,581,,,,,1,0.1,-5.64177324,0.32387551
LG,186,3,2024-06-14T13:33:32.853Z,english_846.wav,0,0,581,,,,,2,0.2,86.75305487,0.09122421
LG,186,3,2024-06-14T13:33:32.853Z,english_846.wav,0,0,581,,,,,3,0.3,-27.71752308,0.55014386
LG,186,3,2024-06-14T13:33:32.853Z,english_846.wav,0,0,581,,,,,4,0.32341667,-26.78048177,0.82256102
LG,187,3,2024-06-14T13:33:32.853Z,english_85.wav,0,1,390,,,,,0,0,69.91092253,1.07696769
LG,187,3,2024-06-14T13:33:32.853Z,english_85.wav,0,1,390,,,,,1,0.1,90.04885235,1.65675227
LG,187,3,2024-06-14T13:33:32.853Z,english_85.wav,0,1,390,,,,,2,0.2,-54.471964,1.18566865
LG,187,3,2024-06-14T13:33:32.853Z,english_85.wav,0,1,390,,,,,3,0.3,-32.42862041,0.43131811
LG,187,3,2024-06-14T13:33:32.853Z,english_85.wav,0,1,390,,,,,4,0.32341667,-26.25094384,1.88641509
LG,188,3,2024-06-14T13:33:32.853Z,english_661.wav,0,1,749,,,,,0,0,14.15805194,1.06290545
LG,188,3,2024-06-14T13:33:32.853Z,english_661.wav,0,1,749,,,,,1,0.1,-77.97020538,1.12952287
LG,188,3,2024-06-14T13:33:32.853Z,english_661.wav,0,1,749,,,,,2,0.2,-31.78835068,1.47556517
LG,188,3,2024-06-14T13:33:32.853Z,english_661.wav,0,1,749,,,,,3,0.3,1.84085651,0.41137052
LG,188,3,2024-06-14T13:33:32.853Z,english_661.wav,0,1,749,,,,,4,0.32341667,31.49677972,1.48872703
LG,189,3,2024-06-14T13:33:32.853Z,english_5.wav,0,0,401,,,,,0,0,-15.92383461,0.27445408
LG,189,3,2024-06-14T13:33:32.853Z,english_5.wav,0,0,401,,,,,1,0.1,-20.01914587,0.54328549
LG,189,3,2024-06-14T13:33:32.853Z,english_5.wav,0,0,401,,,,,2,0.2,40.70457056,0.32172142
LG,189,3,2024-06-14T13:33:32.853Z,english_5.wav,0,0,401,,,,,3,0.3,-94.67131236,1.15903644
LG,189,3,2024-06-14T13:33:32.853Z,english_5.wav,0,0,401,,,,,4,0.32341667,-88.33027294,0.94870148
LG,190,3,2024-06-14T13:33:32.853Z,english_342.wav,0,1,276,,,,,0,0,78.00911228,0.99673345
LG,190,3,2024-06-14T13:33:32.853Z,english_342.wav,0,1,276,,,,,1,0.1,-28.67768894,1.80563483
LG,190,3,2024-06-14T13:33:32.853Z,english_342.wav,0,1,276,,,,,2,0.2,73.55618202,1.38552336
LG,190,3,2024-06-14T13:33:32.853Z,english_342.wav,0,1,276,,,,,3,0.3,93.0509223,0.17145116
LG,190,3,2024-06-14T13:33:32.853Z,english_342.wav,0,1,276,,,,,4,0.32341667,-2.74816459,0.15059009
LG,191,3,2024-06-14T13:33:32.853Z,english_475.wav,0,1,272,,,,,0,0,-68.25626322,0.40988158
LG,191,3,2024-06-14T13:33:32.853Z,english_475.wav,0,1,272,,,,,1,0.1,-56.46648788,1.90107213
LG,191,3,2024-06-14T13:33:32.853Z,english_475.wav,0,1,272,,,,,2,0.2,49.77560279,0.54721615
LG,191,3,2024-06-14T13:33:32.853Z,english_475.wav,0,1,272,,,,,3,0.3,-41.74178488,1.80730726
LG,191,3,2024-06-14T13:33:32.853Z,english_475.wav,0,1,272,,,,,4,0.32341667,-60.3255454,0.11427958
LG,192,3,2024-06-14T13:33:32.853Z,english_607.wav,0,1,554,,,,,0,0,46.6865757,1.30575186
LG,192,3,2024-06-14T13:33:32.853Z,english_607.wav,0,1,554,,,,,1,0.1,39.2269946,1.04660061
LG,192,3,2024-06-14T13:33:32.853Z,english_607.wav,0,1,554,,,,,2,0.2,9.54774619,0.88274406
LG,192,3,2024-06-14T13:33:32.853Z,english_607.wav,0,1,554,,,,,3,0.3,16.02187378,1.5824547
LG,192,3,2024-06-14T13:33:32.853Z,english_607.wav,0,1,554,,,,,4,0.32341667,75.62266759,0.67660632
LG,193,3,2024-06-14T13:33:32.853Z,english_653.wav,0,1,421,,,,,0,0,8.14815906,1.27061672
LG,193,3,2024-06-14T13:33:32.853Z,english_653.wav,0,1,421,,,,,1,0.1,4.49815435,1.37470465
LG,193,3,2024-06-14T13:33:32.853Z,english_653.wav,0,1,421,,,,,2,0.2,-96.80954485,1.57421691
LG,193,3,2024-06-14T13:33:32.853Z,english_653.wav,0,1,421,,,,,3,0.3,-0.49075979,1.39011427
LG,193,3,2024-06-14T13:33:32.853Z,english_653.wav,0,1,421,,,,,4,0.32341667,98.12577208,0.75484601
LG,194,3,2024-06-14T13:33:32.853Z,english_443.wav,0,1,1055,,,,,0,0,0.608638,1.06022382
LG,194,3,2024-06-14T13:33:32.853Z,english_443.wav,0,1,1055,,,,,1,0.1,15.80398242,1.02694767
LG,194,3,2024-06-14T13:33:32.853Z,english_443.wav,0,1,1055,,,,,2,0.2,-53.8454718,0.72801533
LG,194,3,2024-06-14T13:33:32.853Z,english_443.wav,0,1,1055,,,,,3,0.3,32.36058062,1.22153209
LG,194,3,2024-06-14T13:33:32.853Z,english_443.wav,0,1,1055,,,,,4,0.32341667,41.23353215,0.58841963
LG,195,3,2024-06-14T13:33:32.853Z,english_240.wav,0,1,970,,,,,0,0,-96.55121617,1.04823872
LG,195,3,2024-06-14T13:33:32.853Z,english_240.wav,0,1,970,,,,,1,0.1,73.99435309,1.11556714
LG,195,3,2024-06-14T13:33:32.853Z,english_240.wav,0,1,970,,,,,2,0.2,-27.17256968,0.68795106
LG,195,3,2024-06-14T13:33:32.853Z,english_240.wav,0,1,970,,,,,3,0.3,-2.05185553,1.30325309
LG,195,3,2024-06-14T13:33:32.853Z,english_240.wav,0,1,970,,,,,4,0.32341667,80.37406519,0.86977317
LG,196,3,2024-06-14T13:33:32.853Z,english_852.wav,0,0,380,,,,,0,0,-59.21906832,1.76087743
LG,196,3,2024-06-14T13:33:32.853Z,english_852.wav,0,0,380,,,,,1,0.1,5.96662808,0.85304022
LG,196,3,2024-06-14T13:33:32.853Z,english_852.wav,0,0,380,,,,,2,0.2,12.29830648,0.5029047
LG,196,3,2024-06-14T13:33:32.853Z,english_852.wav,0,0,380,,,,,3,0.3,-98.20735767,0.66544939
LG,196,3,2024-06-14T13:33:32.853Z,english_852.wav,0,0,380,,,,,4,0.32341667,-0.5186354,0.26669214
LG,197,3,2024-06-14T13:33:32.853Z,english_587.wav,0,1,457,,,,,0,0,-33.32102811,0.7972352
LG,197,3,2024-06-14T13:33:32.853Z,english_587.wav,0,1,457,,,,,1,0.1,46.1287001,1.97425238
LG,197,3,2024-06-14T13:33:32.853Z,english_587.wav,0,1,457,,,,,2,0.2,-62.23894368,0.99609006
LG,197,3,2024-06-14T13:33:32.853Z,english_587.wav,0,1,457,,,,,3,0.3,36.67711132,1.18577707
LG,197,3,2024-06-14T13:33:32.853Z,english_587.wav,0,1,457,,,,,4,0.32341667,-11.53320103,1.64089558
LG,198,3,2024-06-14T13:33:32.853Z,english_104.wav,0,0,764,,,,,0,0,42.44693926,0.1741435
LG,198,3,2024-06-14T13:33:32.853Z,english_104.wav,0,0,764,,,,,1,0.1,82.22484934,0.11379641
LG,198,3,2024-06-14T13:33:32.853Z,english_104.wav,0,0,764,,,,,2,0.2,7.21737924,1.60376175
LG,198,3,2024-06-14T13:33:32.853Z,english_104.wav,0,0,764,,,,,3,0.3,26.54640215,1.08059257
LG,198,3,2024-06-14T13:33:32.853Z,english_104.wav,0,0,764,,,,,4,0.32341667,-33.4974026,1.8061622
LG,199,3,2024-06-14T13:33:32.853Z,english_656.wav,0,1,488,,,,,0,0,-4.15957802,0.9962349
LG,199,3,2024-06-14T13:33:32.853Z,english_656.wav,0,1,488,,,,,1,0.1,-31.70283109,1.16669679
LG,199,3,2024-06-14T13:33:32.853Z,english_656.wav,0,1,488,,,,,2,0.2,-35.90055673,0.85512169
LG,199,3,2024-06-14T13:33:32.853Z,english_656.wav,0,1,488,,,,,3,0.3,-27.39202404,1.68840921
LG,199,3,2024-06-14T13:33:32.853Z,english_656.wav,0,1,488,,,,,4,0.32341667,-5.54715508,1.5699395
LG,200,4,2024-06-14T13:33:32.853Z,english_219.wav,0,1,5167,,,,,0,0,38.40040381,1.09142553
LG,200,4,2024-06-14T13:33:32.853Z,english_219.wav,0,1,5167,,,,,1,0.1,-26.23926727,0.5740428
LG,200,4,2024-06-14T13:33:32.853Z,english_219.wav,0,1,5167,,,,,2,0.2,-57.67558578,1.19056911
LG,200,4,2024-06-14T13:33:32.853Z,english_219.wav,0,1,5167,,,,,3,0.3,50.56926795,1.87089358
LG,200,4,2024-06-14T13:33:32.853Z,english_219.wav,0,1,5167,,,,,4,0.32341667,64.39220397,1.06933149
LG,201,4,2024-06-14T13:33:32.853Z,english_25.wav,0,1,216,,,,,0,0,-93.68210842,1.14210865
LG,201,4,2024-06-14T13:33:32.853Z,english_25.wav,0,1,216,,,,,1,0.1,-14.41268038,1.90089654
LG,201,4,2024-06-14T13:33:32.853Z,english_25.wav,0,1,216,,,,,2,0.2,72.93230065,0.61137859
LG,201,4,2024-06-14T13:33:32.853Z,english_25.wav,0,1,216,,,,,3,0.3,23.28545759,1.93042398
LG,201,4,2024-06-14T13:33:32.853Z,english_25.wav,0,1,216,,,,,4,0.32341667,18.09953767,1.11869114
LG,202,4,2024-06-14T13:33:32.853Z,english_717.wav,0,1,68,,,,,0,0,11.70361719,1.43236824
LG,202,4,2024-06-14T13:33:32.853Z,english_717.wav,0,1,68,,,,,1,0.1,-43.41962,0.38419888
LG,202,4,2024-06-14T13:33:32.853Z,english_717.wav,0,1,68,,,,,2,0.2,-38.6653904,1.88953633
LG,202,4,2024-06-14T13:33:32.853Z,english_717.wav,0,1,68,,,,,3,0.3,-38.11833374,1.28007762
LG,202,4,2024-06-14T13:33:32.853Z,english_717.wav,0,1,68,,,,,4,0.32341667,93.29743671,0.67082429
LG,203,4,2024-06-14T13:33:32.853Z,english_639.wav,0,0,295,,,,,0,0,-8.64176861,1.80061108
LG,203,4,2024-06-14T13:33:32.853Z,english_639.wav,0,0,295,,,,,1,0.1,-2.28240571,0.32075858
LG,203,4,2024-06-14T13:33:32.853Z,english_639.wav,0,0,295,,,,,2,0.2,61.07673865,0.35362442
LG,203,4,2024-06-14T13:33:32.853Z,english_639.wav,0,0,295,,,,,3,0.3,-20.33592136,1.48415136
LG,203,4,2024-06-14T13:33:32.853Z,english_639.wav,0,0,295,,,,,4,0.32341667,-24.05835486,0.14560931
LG,204,4,2024-06-14T13:33:32.853Z,english_93.wav,0,0,396,,,,,0,0,-63.58558414,0.84265136
LG,204,4,2024-06-14T13:33:32.853Z,english_93.wav,0,0,396,,,,,1,0.1,47.93190562,0.45441634
LG,204,4,2024-06-14T13:33:32.853Z,english_93.wav,0,0,396,,,,,2,0.2,74.1463043,1.33476805
LG,204,4,2024-06-14T13:33:32.853Z,english_93.wav,0,0,396,,,,,3,0.3,46.42515129,0.61821532
LG,204,4,2024-06-14T13:33:32.853Z,english_93.wav,0,0,396,,,,,4,0.32341667,-19.17332826,1.94889868
LG,205,4,2024-06-14T13:33:32.853Z,english_602.wav,0,1,558,,,,,0,0,-53.18857274,1.95117352
LG,205,4,2024-06-14T13:33:32.853Z,english_602.wav,0,1,558,,,,,1,0.1,-52.96167371,1.1427253
LG,205,4,2024-06-14T13:33:32.853Z,english_602.wav,0,1,558,,,,,2,0.2,38.20784676,1.10694813
LG,205,4,2024-06-14T13:33:32.853Z,english_602.wav,0,1,558,,,,,3,0.3,46.0178344,0.8717932
LG,205,4,2024-06-14T13:33:32.853Z,english_602.wav,0,1,558,,,,,4,0.32341667,78.11630752,0.71626065
LG,206,4,2024-06-14T13:33:32.853Z,english_90.wav,0,1,697,,,,,0,0,82.68866707,0.54239523
LG,206,4,2024-06-14T13:33:32.853Z,english_90.wav,0,1,697,,,,,1,0.1,-81.25370946,1.03335699
LG,206,4,2024-06-14T13:33:32.853Z,english_90.wav,0,1,697,,,,,2,0.2,56.28719083,1.93576477
LG,206,4,2024-06-14T13:33:32.853Z,english_90.wav,0,1,697,,,,,3,0.3,-46.43338119,0.74570916
LG,206,4,2024-06-14T13:33:32.853Z,english_90.wav,0,1,697,,,,,4,0.32341667,-19.93520327,1.11115504
LG,207,4,2024-06-14T13:33:32.853Z,english_937.wav,0,1,2580,,,,,0,0,76.77394395,1.55370699
LG,207,4,2024-06-14T13:33:32.853Z,english_937.wav,0,1,2580,,,,,1,0.1,49.33576264,1.82028848
LG,207,4,2024-06-14T13:33:32.853Z,english_937.wav,0,1,2580,,,,,2,0.2,-87.39935237,1.42487505
LG,207,4,2024-06-14T13:33:32.853Z,english_937.wav,0,1,2580,,,,,3,0.3,11.02170053,0.87896062
LG,207,4,2024-06-14T13:33:32.853Z,english_937.wav,0,1,2580,,,,,4,0.32341667,91.99381322,0.96516852
LG,208,4,2024-06-14T13:33:32.853Z,english_618.wav,0,0,502,,,,,0,0,58.31579708,1.46895394
LG,208,4,2024-06-14T13:33:32.853Z,english_618.wav,0,0,502,,,,,1,0.1,6.96253647,0.48660613
LG,208,4,2024-06-14T13:33:32.853Z,english_618.wav,0,0,502,,,,,2,0.2,-4.41581756,1.00963977
LG,208,4,2024-06-14T13:33:32.853Z,english_618.wav,0,0,502,,,,,3,0.3,-63.5775247,1.29399549
LG,208,4,2024-06-14T13:33:32.853Z,english_618.wav,0,0,502,,,,,4,0.32341667,97.77631762,0.84060701
LG,209,4,2024-06-14T13:33:32.853Z,english_742.wav,0,1,170,,,,,0,0,12.62363586,1.26368295
LG,209,4,2024-06-14T13:33:32.853Z,english_742.wav,0,1,170,,,,,1,0.1,23.02085171,0.7448394
LG,209,4,2024-06-14T13:33:32.853Z,english_742.wav,0,1,170,,,,,2,0.2,23.36423086,0.05261082
LG,209,4,2024-06-14T13:33:32.853Z,english_742.wav,0,1,170,,,,,3,0.3,97.70614946,1.01748925
LG,209,4,2024-06-14T13:33:32.853Z,english_742.wav,0,1,170,,,,,4,0.32341667,-25.72861775,0.88645775
LG,210,4,2024-06-14T13:33:32.853Z,english_998.wav,0,1,591,,,,,0,0,-57.03196796,0.0179282
LG,210,4,2024-06-14T13:33:32.853Z,english_998.wav,0,1,591,,,,,1,0.1,-12.93623633,1.72217412
LG,210,4,2024-06-14T13:33:32.853Z,english_998.wav,0,1,591,,,,,2,0.2,-24.63186366,0.91011795
LG,210,4,2024-06-14T13:33:32.853Z,english_998.wav,0,1,591,,,,,3,0.3,-10.49750637,1.24282972
LG,210,4,2024-06-14T13:33:32.853Z,english_998.wav,0,1,591,,,,,4,0.32341667,22.76793653,0.40520665
LG,211,4,2024-06-14T13:33:32.853Z,english_847.wav,0,1,417,,,,,0,0,76.45550118,0.38890762
LG,211,4,2024-06-14T13:33:32.853Z,english_847.wav,0,1,417,,,,,1,0.1,-18.38123868,1.01718805
LG,211,4,2024-06-14T13:33:32.853Z,english_847.wav,0,1,417,,,,,2,0.2,18.403778,1.24872656
LG,211,4,2024-06-14T13:33:32.853Z,english_847.wav,0,1,417,,,,,3,0.3,57.196546,0.81951257
LG,211,4,2024-06-14T13:33:32.853Z,english_847.wav,0,1,417,,,,,4,0.32341667,32.99763753,0.74194876
LG,212,4,2024-06-14T13:33:32.853Z,english_632.wav,0,1,1941,,,,,0,0,-56.22391322,1.21249895
LG,212,4,2024-06-14T13:33:32.853Z,english_632.wav,0,1,1941,,,,,1,0.1,-47.59423942,0.39515719
LG,212,4,2024-06-14T13:33:32.853Z,english_632.wav,0,1,1941,,,,,2,0.2,91.93727259,1.8528852
LG,212,4,2024-06-14T13:33:32.853Z,english_632.wav,0,1,1941,,,,,3,0.3,-33.89646621,1.67254104
LG,212,4,2024-06-14T13:33:32.853Z,english_632.wav,0,1,1941,,,,,4,0.32341667,46.88387871,1.21014685
LG,213,4,2024-06-14T13:33:32.853Z,english_249.wav,0,0,352,,,,,0,0,78.40227579,1.91339694
LG,213,4,2024-06-14T13:33:32.853Z,english_249.wav,0,0,352,,,,,1,0.1,-55.1129652,1.00834957
LG,213,4,2024-06-14T13:33:32.853Z,english_249.wav,0,0,352,,,,,2,0.2,6.74447168,0.29418026
LG,213,4,2024-06-14T13:33:32.853Z,english_249.wav,0,0,352,,,,,3,0.3,27.3376716,1.53256547
LG,213,4,2024-06-14T13:33:32.853Z,english_249.wav,0,0,352,,,,,4,0.32341667,-97.08031886,0.99264532
LG,214,4,2024-06-14T13:33:32.853Z,english_929.wav,0,1,72,,,,,0,0,29.19700723,1.75028237
LG,214,4,2024-06-14T13:33:32.853Z,english_929.wav,0,1,72,,,,,1,0.1,15.63825327,0.16776534
LG,214,4,2024-06-14T13:33:32.853Z,english_929.wav,0,1,72,,,,,2,0.2,3.65085895,0.15899819
LG,214,4,2024-06-14T13:33:32.853Z,english_929.wav,0,1,72,,,,,3,0.3,-91.18848108,0.41497916
LG,214,4,2024-06-14T13:33:32.853Z,english_929.wav,0,1,72,,,,,4,0.32341667,53.29025089,0.946821
LG,215,4,2024-06-14T13:33:32.853Z,english_795.wav,0,1,715,,,,,0,0,39.36518311,1.47453336
LG,215,4,2024-06-14T13:33:32.853Z,english_795.wav,0,1,715,,,,,1,0.1,16.50141431,0.29075574
LG,215,4,2024-06-14T13:33:32.853Z,english_795.wav,0,1,715,,,,,2,0.2,54.87860026,1.88174141
LG,215,4,2024-06-14T13:33:32.853Z,english_795.wav,0,1,715,,,,,3,0.3,61.09971909,0.27471403
LG,215,4,2024-06-14T13:33:32.853Z,english_795.wav,0,1,715,,,,,4,0.32341667,4.28490532,0.11399574
LG,216,4,2024-06-14T13:33:32.853Z,english_182.wav,0,1,309,,,,,0,0,57.43769915,0.89919812
LG,216,4,2024-06-14T13:33:32.853Z,english_182.wav,0,1,309,,,,,1,0.1,-87.06676545,1.25243937
LG,216,4,2024-06-14T13:33:32.853Z,english_182.wav,0,1,309,,,,,2,0.2,-91.52107401,1.35021358
LG,216,4,2024-06-14T13:33:32.853Z,english_182.wav,0,1,309,,,,,3,0.3,52.0843588,0.52787795
LG,216,4,2024-06-14T13:33:32.853Z,english_182.wav,0,1,309,,,,,4,0.32341667,18.07264914,0.72620624
LG,217,4,2024-06-14T13:33:32.853Z,english_544.wav,0,1,43,,,,,0,0,96.80704334,1.85115917
LG,217,4,2024-06-14T13:33:32.853Z,english_544.wav,0,1,43,,,,,1,0.1,70.5198752,0.8718407
LG,217,4,2024-06-14T13:33:32.853Z,english_544.wav,0,1,43,,,,,2,0.2,78.21609099,1.82238935
LG,217,4,2024-06-14T13:33:32.853Z,english_544.wav,0,1,43,,,,,3,0.3,-95.7752672,0.25719172
LG,217,4,2024-06-14T13:33:32.853Z,english_544.wav,0,1,43,,,,,4,0.32341667,-56.58918052,0.72929157
