subj,trial,block,date,stim,stim_order,response,rt,age,english,language,sex,param_index,segment,pitch,stretch
ZYX,0,0,2024-06-14T02:54:45.983Z,english_294.wav,0,1,8398,22,4,Chinese,f,0,0,-92.15775888,0.74816787
ZYX,0,0,2024-06-14T02:54:45.983Z,english_294.wav,0,1,8398,22,4,Chinese,f,1,0.1,71.96645866,1.71916745
ZYX,0,0,2024-06-14T02:54:45.983Z,english_294.wav,0,1,8398,22,4,Chinese,f,2,0.2,-25.46852775,1.7524902
ZYX,0,0,2024-06-14T02:54:45.983Z,english_294.wav,0,1,8398,22,4,Chinese,f,3,0.3,17.21488016,0.9780509
ZYX,0,0,2024-06-14T02:54:45.983Z,english_294.wav,0,1,8398,22,4,Chinese,f,4,0.32341667,-10.41176069,1.21177262
ZYX,1,0,2024-06-14T02:54:45.983Z,english_451.wav,0,1,2000,22,4,Chinese,f,0,0,-87.31297583,0.44823779
ZYX,1,0,2024-06-14T02:54:45.983Z,english_451.wav,0,1,2000,22,4,Chinese,f,1,0.1,-44.51362963,0.44678563
ZYX,1,0,2024-06-14T02:54:45.983Z,english_451.wav,0,1,2000,22,4,Chinese,f,2,0.2,-15.52945473,1.69444841
ZYX,1,0,2024-06-14T02:54:45.983Z,english_451.wav,0,1,2000,22,4,Chinese,f,3,0.3,11.70886435,0.18586344
ZYX,1,0,2024-06-14T02:54:45.983Z,english_451.wav,0,1,2000,22,4,Chinese,f,4,0.32341667,82.84342256,0.9677256
ZYX,2,0,2024-06-14T02:54:45.983Z,english_674.wav,0,0,679,22,4,Chinese,f,0,0,-38.60253285,0.25488683
ZYX,2,0,2024-06-14T02:54:45.983Z,english_674.wav,0,0,679,22,4,Chinese,f,1,0.1,46.14948962,1.80679583
ZYX,2,0,2024-06-14T02:54:45.983Z,english_674.wav,0,0,679,22,4,Chinese,f,2,0.2,-49.76414787,1.59420413
ZYX,2,0,2024-06-14T02:54:45.983Z,english_674.wav,0,0,679,22,4,Chinese,f,3,0.3,-66.16492387,1.25714797
ZYX,2,0,2024-06-14T02:54:45.983Z,english_674.wav,0,0,679,22,4,Chinese,f,4,0.32341667,28.37583826,1.20557216
ZYX,3,0,2024-06-14T02:54:45.983Z,english_914.wav,0,1,1663,22,4,Chinese,f,0,0,37.51857345,0.04486829
ZYX,3,0,2024-06-14T02:54:45.983Z,english_914.wav,0,1,1663,22,4,Chinese,f,1,0.1,-30.53068311,1.18486584
ZYX,3,0,2024-06-14T02:54:45.983Z,english_914.wav,0,1,1663,22,4,Chinese,f,2,0.2,-12.980452,1.58356311
ZYX,3,0,2024-06-14T02:54:45.983Z,english_914.wav,0,1,1663,22,4,Chinese,f,3,0.3,-99.09260462,1.35478251
ZYX,3,0,2024-06-14T02:54:45.983Z,english_914.wav,0,1,1663,22,4,Chinese,f,4,0.32341667,-34.91402533,1.16671671
ZYX,4,0,2024-06-14T02:54:45.983Z,english_824.wav,0,0,1337,22,4,Chinese,f,0,0,80.46503136,1.43025592
ZYX,4,0,2024-06-14T02:54:45.983Z,english_824.wav,0,0,1337,22,4,Chinese,f,1,0.1,-48.668347,0.89138167
ZYX,4,0,2024-06-14T02:54:45.983Z,english_824.wav,0,0,1337,22,4,Chinese,f,2,0.2,37.27765876,1.91281619
ZYX,4,0,2024-06-14T02:54:45.983Z,english_824.wav,0,0,1337,22,4,Chinese,f,3,0.3,-91.29945309,0.71335031
ZYX,4,0,2024-06-14T02:54:45.983Z,english_824.wav,0,0,1337,22,4,Chinese,f,4,0.32341667,14.46507007,0.89780818
ZYX,5,0,2024-06-14T02:54:45.983Z,english_190.wav,0,1,708,22,4,Chinese,f,0,0,81.66607819,0.126715216
ZYX,5,0,2024-06-14T02:54:45.983Z,english_190.wav,0,1,708,22,4,Chinese,f,1,0.1,-14.16938067,0.000178349903
ZYX,5,0,2024-06-14T02:54:45.983Z,english_190.wav,0,1,708,22,4,Chinese,f,2,0.2,15.7443745,1.35192229
ZYX,5,0,2024-06-14T02:54:45.983Z,english_190.wav,0,1,708,22,4,Chinese,f,3,0.3,85.77694093,1.08905811
ZYX,5,0,2024-06-14T02:54:45.983Z,english_190.wav,0,1,708,22,4,Chinese,f,4,0.32341667,33.21115004,1.75580408
ZYX,6,0,2024-06-14T02:54:45.983Z,english_37.wav,0,0,1339,22,4,Chinese,f,0,0,-5.54999706,1.12257854
ZYX,6,0,2024-06-14T02:54:45.983Z,english_37.wav,0,0,1339,22,4,Chinese,f,1,0.1,23.22206304,1.8669628
ZYX,6,0,2024-06-14T02:54:45.983Z,english_37.wav,0,0,1339,22,4,Chinese,f,2,0.2,-57.36481589,0.39386712
ZYX,6,0,2024-06-14T02:54:45.983Z,english_37.wav,0,0,1339,22,4,Chinese,f,3,0.3,58.0578648,1.21765674
ZYX,6,0,2024-06-14T02:54:45.983Z,english_37.wav,0,0,1339,22,4,Chinese,f,4,0.32341667,66.03280024,0.74428952
ZYX,7,0,2024-06-14T02:54:45.983Z,english_13.wav,0,1,1029,22,4,Chinese,f,0,0,85.79405153,0.93145275
ZYX,7,0,2024-06-14T02:54:45.983Z,english_13.wav,0,1,1029,22,4,Chinese,f,1,0.1,-22.00296346,0.69811424
ZYX,7,0,2024-06-14T02:54:45.983Z,english_13.wav,0,1,1029,22,4,Chinese,f,2,0.2,45.89988476,1.08090206
ZYX,7,0,2024-06-14T02:54:45.983Z,english_13.wav,0,1,1029,22,4,Chinese,f,3,0.3,-17.47250281,0.35305012
ZYX,7,0,2024-06-14T02:54:45.983Z,english_13.wav,0,1,1029,22,4,Chinese,f,4,0.32341667,-30.34546067,0.65915907
ZYX,8,0,2024-06-14T02:54:45.983Z,english_619.wav,0,1,321,22,4,Chinese,f,0,0,38.53351318,1.25542912
ZYX,8,0,2024-06-14T02:54:45.983Z,english_619.wav,0,1,321,22,4,Chinese,f,1,0.1,-11.21157995,0.83005785
ZYX,8,0,2024-06-14T02:54:45.983Z,english_619.wav,0,1,321,22,4,Chinese,f,2,0.2,29.79887689,1.51254928
ZYX,8,0,2024-06-14T02:54:45.983Z,english_619.wav,0,1,321,22,4,Chinese,f,3,0.3,48.6384615,0.37972577
ZYX,8,0,2024-06-14T02:54:45.983Z,english_619.wav,0,1,321,22,4,Chinese,f,4,0.32341667,-66.5905708,0.44889873
ZYX,9,0,2024-06-14T02:54:45.983Z,english_414.wav,0,0,269,22,4,Chinese,f,0,0,19.47839865,0.9434816
ZYX,9,0,2024-06-14T02:54:45.983Z,english_414.wav,0,0,269,22,4,Chinese,f,1,0.1,59.9490877,1.1146936
ZYX,9,0,2024-06-14T02:54:45.983Z,english_414.wav,0,0,269,22,4,Chinese,f,2,0.2,22.33981162,0.48476454
ZYX,9,0,2024-06-14T02:54:45.983Z,english_414.wav,0,0,269,22,4,Chinese,f,3,0.3,18.97426154,0.23554241
ZYX,9,0,2024-06-14T02:54:45.983Z,english_414.wav,0,0,269,22,4,Chinese,f,4,0.32341667,15.16306506,1.13007685
ZYX,10,0,2024-06-14T02:54:45.983Z,english_778.wav,0,1,552,22,4,Chinese,f,0,0,99.37283207,0.92158405
ZYX,10,0,2024-06-14T02:54:45.983Z,english_778.wav,0,1,552,22,4,Chinese,f,1,0.1,61.02900927,1.90392814
ZYX,10,0,2024-06-14T02:54:45.983Z,english_778.wav,0,1,552,22,4,Chinese,f,2,0.2,-43.89505842,0.34916702
ZYX,10,0,2024-06-14T02:54:45.983Z,english_778.wav,0,1,552,22,4,Chinese,f,3,0.3,-6.51139434,1.21087231
ZYX,10,0,2024-06-14T02:54:45.983Z,english_778.wav,0,1,552,22,4,Chinese,f,4,0.32341667,-98.37213751,0.72140227
ZYX,11,0,2024-06-14T02:54:45.983Z,english_357.wav,0,0,2,22,4,Chinese,f,0,0,76.35734026,1.14590216
ZYX,11,0,2024-06-14T02:54:45.983Z,english_357.wav,0,0,2,22,4,Chinese,f,1,0.1,-86.84267031,0.53472093
ZYX,11,0,2024-06-14T02:54:45.983Z,english_357.wav,0,0,2,22,4,Chinese,f,2,0.2,-64.6676431,0.54723503
ZYX,11,0,2024-06-14T02:54:45.983Z,english_357.wav,0,0,2,22,4,Chinese,f,3,0.3,-69.9472318,1.29334783
ZYX,11,0,2024-06-14T02:54:45.983Z,english_357.wav,0,0,2,22,4,Chinese,f,4,0.32341667,87.84988665,1.74725804
ZYX,12,0,2024-06-14T02:54:45.983Z,english_430.wav,0,1,142,22,4,Chinese,f,0,0,72.23510535,0.8682214
ZYX,12,0,2024-06-14T02:54:45.983Z,english_430.wav,0,1,142,22,4,Chinese,f,1,0.1,-9.56156918,0.26781202
ZYX,12,0,2024-06-14T02:54:45.983Z,english_430.wav,0,1,142,22,4,Chinese,f,2,0.2,36.71559936,1.38873793
ZYX,12,0,2024-06-14T02:54:45.983Z,english_430.wav,0,1,142,22,4,Chinese,f,3,0.3,-33.55254317,0.29076709
ZYX,12,0,2024-06-14T02:54:45.983Z,english_430.wav,0,1,142,22,4,Chinese,f,4,0.32341667,-25.71861109,0.30869259
ZYX,13,0,2024-06-14T02:54:45.983Z,english_441.wav,0,1,31,22,4,Chinese,f,0,0,-34.50722314,1.86415324
ZYX,13,0,2024-06-14T02:54:45.983Z,english_441.wav,0,1,31,22,4,Chinese,f,1,0.1,91.55175756,1.34062972
ZYX,13,0,2024-06-14T02:54:45.983Z,english_441.wav,0,1,31,22,4,Chinese,f,2,0.2,-74.07917439,1.20894222
ZYX,13,0,2024-06-14T02:54:45.983Z,english_441.wav,0,1,31,22,4,Chinese,f,3,0.3,82.08396891,0.00248362
ZYX,13,0,2024-06-14T02:54:45.983Z,english_441.wav,0,1,31,22,4,Chinese,f,4,0.32341667,13.2563292,0.67485278
ZYX,14,0,2024-06-14T02:54:45.983Z,english_478.wav,0,1,1023,22,4,Chinese,f,0,0,-70.9954821,0.91489342
ZYX,14,0,2024-06-14T02:54:45.983Z,english_478.wav,0,1,1023,22,4,Chinese,f,1,0.1,18.763036,1.0325944
ZYX,14,0,2024-06-14T02:54:45.983Z,english_478.wav,0,1,1023,22,4,Chinese,f,2,0.2,84.30682023,1.47139294
ZYX,14,0,2024-06-14T02:54:45.983Z,english_478.wav,0,1,1023,22,4,Chinese,f,3,0.3,96.70790152,0.31719256
ZYX,14,0,2024-06-14T02:54:45.983Z,english_478.wav,0,1,1023,22,4,Chinese,f,4,0.32341667,-65.75430749,1.1469235
ZYX,15,0,2024-06-14T02:54:45.983Z,english_331.wav,0,1,563,22,4,Chinese,f,0,0,12.66323204,1.93220763
ZYX,15,0,2024-06-14T02:54:45.983Z,english_331.wav,0,1,563,22,4,Chinese,f,1,0.1,-81.78605138,1.48237299
ZYX,15,0,2024-06-14T02:54:45.983Z,english_331.wav,0,1,563,22,4,Chinese,f,2,0.2,59.07546792,1.15413743
ZYX,15,0,2024-06-14T02:54:45.983Z,english_331.wav,0,1,563,22,4,Chinese,f,3,0.3,-83.73170191,1.02182823
ZYX,15,0,2024-06-14T02:54:45.983Z,english_331.wav,0,1,563,22,4,Chinese,f,4,0.32341667,3.10587362,0.81670354
ZYX,16,0,2024-06-14T02:54:45.983Z,english_210.wav,0,1,222,22,4,Chinese,f,0,0,43.03172008,0.27268056
ZYX,16,0,2024-06-14T02:54:45.983Z,english_210.wav,0,1,222,22,4,Chinese,f,1,0.1,58.48529179,0.59270989
ZYX,16,0,2024-06-14T02:54:45.983Z,english_210.wav,0,1,222,22,4,Chinese,f,2,0.2,57.29337371,1.57355776
ZYX,16,0,2024-06-14T02:54:45.983Z,english_210.wav,0,1,222,22,4,Chinese,f,3,0.3,-45.34642936,1.97663548
ZYX,16,0,2024-06-14T02:54:45.983Z,english_210.wav,0,1,222,22,4,Chinese,f,4,0.32341667,-3.49486879,1.39997912
ZYX,17,0,2024-06-14T02:54:45.983Z,english_318.wav,0,1,82,22,4,Chinese,f,0,0,40.16064427,0.11467793
ZYX,17,0,2024-06-14T02:54:45.983Z,english_318.wav,0,1,82,22,4,Chinese,f,1,0.1,-52.58874178,0.6224104
ZYX,17,0,2024-06-14T02:54:45.983Z,english_318.wav,0,1,82,22,4,Chinese,f,2,0.2,46.7653316,0.05328619
ZYX,17,0,2024-06-14T02:54:45.983Z,english_318.wav,0,1,82,22,4,Chinese,f,3,0.3,-41.44559589,0.01138238
ZYX,17,0,2024-06-14T02:54:45.983Z,english_318.wav,0,1,82,22,4,Chinese,f,4,0.32341667,-2.50443948,1.16020285
ZYX,18,0,2024-06-14T02:54:45.983Z,english_163.wav,0,1,528,22,4,Chinese,f,0,0,-28.85321754,1.43434597
ZYX,18,0,2024-06-14T02:54:45.983Z,english_163.wav,0,1,528,22,4,Chinese,f,1,0.1,9.37410395,1.75766865
ZYX,18,0,2024-06-14T02:54:45.983Z,english_163.wav,0,1,528,22,4,Chinese,f,2,0.2,-43.22266742,0.90391943
ZYX,18,0,2024-06-14T02:54:45.983Z,english_163.wav,0,1,528,22,4,Chinese,f,3,0.3,48.63715122,1.21743426
ZYX,18,0,2024-06-14T02:54:45.983Z,english_163.wav,0,1,528,22,4,Chinese,f,4,0.32341667,-94.22333204,1.8516503
ZYX,19,0,2024-06-14T02:54:45.983Z,english_339.wav,0,1,366,22,4,Chinese,f,0,0,-58.67599578,0.13141934
ZYX,19,0,2024-06-14T02:54:45.983Z,english_339.wav,0,1,366,22,4,Chinese,f,1,0.1,-13.30258388,0.16133177
ZYX,19,0,2024-06-14T02:54:45.983Z,english_339.wav,0,1,366,22,4,Chinese,f,2,0.2,-52.40820381,1.13500643
ZYX,19,0,2024-06-14T02:54:45.983Z,english_339.wav,0,1,366,22,4,Chinese,f,3,0.3,11.33062491,0.98717522
ZYX,19,0,2024-06-14T02:54:45.983Z,english_339.wav,0,1,366,22,4,Chinese,f,4,0.32341667,9.6385593,0.10332776
ZYX,20,0,2024-06-14T02:54:45.983Z,english_747.wav,0,1,949,22,4,Chinese,f,0,0,-77.73977436,1.00478752
ZYX,20,0,2024-06-14T02:54:45.983Z,english_747.wav,0,1,949,22,4,Chinese,f,1,0.1,-18.96284798,0.15717617
ZYX,20,0,2024-06-14T02:54:45.983Z,english_747.wav,0,1,949,22,4,Chinese,f,2,0.2,-36.55549612,1.90654565
ZYX,20,0,2024-06-14T02:54:45.983Z,english_747.wav,0,1,949,22,4,Chinese,f,3,0.3,89.20291952,0.7651101
ZYX,20,0,2024-06-14T02:54:45.983Z,english_747.wav,0,1,949,22,4,Chinese,f,4,0.32341667,-97.78574386,0.92755825
ZYX,21,0,2024-06-14T02:54:45.983Z,english_643.wav,0,0,430,22,4,Chinese,f,0,0,-40.15003434,1.60262153
ZYX,21,0,2024-06-14T02:54:45.983Z,english_643.wav,0,0,430,22,4,Chinese,f,1,0.1,-24.12893917,1.7682358
ZYX,21,0,2024-06-14T02:54:45.983Z,english_643.wav,0,0,430,22,4,Chinese,f,2,0.2,-40.66556796,0.31725537
ZYX,21,0,2024-06-14T02:54:45.983Z,english_643.wav,0,0,430,22,4,Chinese,f,3,0.3,75.01987067,0.56722121
ZYX,21,0,2024-06-14T02:54:45.983Z,english_643.wav,0,0,430,22,4,Chinese,f,4,0.32341667,29.71481383,1.87277365
ZYX,22,0,2024-06-14T02:54:45.983Z,english_902.wav,0,0,161,22,4,Chinese,f,0,0,-4.27617126,0.16330526
ZYX,22,0,2024-06-14T02:54:45.983Z,english_902.wav,0,0,161,22,4,Chinese,f,1,0.1,-5.01127315,0.62492789
ZYX,22,0,2024-06-14T02:54:45.983Z,english_902.wav,0,0,161,22,4,Chinese,f,2,0.2,83.22080084,1.08638924
ZYX,22,0,2024-06-14T02:54:45.983Z,english_902.wav,0,0,161,22,4,Chinese,f,3,0.3,77.56473772,1.61764227
ZYX,22,0,2024-06-14T02:54:45.983Z,english_902.wav,0,0,161,22,4,Chinese,f,4,0.32341667,-13.02741535,1.72075309
ZYX,23,0,2024-06-14T02:54:45.983Z,english_64.wav,0,1,1505,22,4,Chinese,f,0,0,-77.75081389,0.01503168
ZYX,23,0,2024-06-14T02:54:45.983Z,english_64.wav,0,1,1505,22,4,Chinese,f,1,0.1,47.79712302,0.51971923
ZYX,23,0,2024-06-14T02:54:45.983Z,english_64.wav,0,1,1505,22,4,Chinese,f,2,0.2,-98.04646937,1.01128345
ZYX,23,0,2024-06-14T02:54:45.983Z,english_64.wav,0,1,1505,22,4,Chinese,f,3,0.3,-20.17707595,0.69563875
ZYX,23,0,2024-06-14T02:54:45.983Z,english_64.wav,0,1,1505,22,4,Chinese,f,4,0.32341667,53.05828969,1.51814807
ZYX,24,0,2024-06-14T02:54:45.983Z,english_744.wav,0,1,125,22,4,Chinese,f,0,0,43.39686976,0.75505854
ZYX,24,0,2024-06-14T02:54:45.983Z,english_744.wav,0,1,125,22,4,Chinese,f,1,0.1,-61.67573043,1.01311725
ZYX,24,0,2024-06-14T02:54:45.983Z,english_744.wav,0,1,125,22,4,Chinese,f,2,0.2,0.51873183,0.73457108
ZYX,24,0,2024-06-14T02:54:45.983Z,english_744.wav,0,1,125,22,4,Chinese,f,3,0.3,12.88130512,0.90154102
ZYX,24,0,2024-06-14T02:54:45.983Z,english_744.wav,0,1,125,22,4,Chinese,f,4,0.32341667,57.31714449,1.01338509
ZYX,25,0,2024-06-14T02:54:45.983Z,english_116.wav,0,1,557,22,4,Chinese,f,0,0,47.3382154,1.30986561
ZYX,25,0,2024-06-14T02:54:45.983Z,english_116.wav,0,1,557,22,4,Chinese,f,1,0.1,-82.57412589,0.36649927
ZYX,25,0,2024-06-14T02:54:45.983Z,english_116.wav,0,1,557,22,4,Chinese,f,2,0.2,24.81754674,1.53598436
ZYX,25,0,2024-06-14T02:54:45.983Z,english_116.wav,0,1,557,22,4,Chinese,f,3,0.3,61.93416492,1.65694634
ZYX,25,0,2024-06-14T02:54:45.983Z,english_116.wav,0,1,557,22,4,Chinese,f,4,0.32341667,-97.8286579,0.40343631
ZYX,26,0,2024-06-14T03:25:42.446Z,english_383.wav,0,0,143,22,4,Chinese,f,0,0,-1.49759031,0.61403304
ZYX,26,0,2024-06-14T03:25:42.446Z,english_383.wav,0,0,143,22,4,Chinese,f,1,0.1,48.0809444,0.69225556
ZYX,26,0,2024-06-14T03:25:42.446Z,english_383.wav,0,0,143,22,4,Chinese,f,2,0.2,-84.09524499,0.33452268
ZYX,26,0,2024-06-14T03:25:42.446Z,english_383.wav,0,0,143,22,4,Chinese,f,3,0.3,95.23220486,1.06792504
ZYX,26,0,2024-06-14T03:25:42.446Z,english_383.wav,0,0,143,22,4,Chinese,f,4,0.32341667,64.91086902,0.58483827
ZYX,27,0,2024-06-14T03:25:42.446Z,english_358.wav,0,0,317,22,4,Chinese,f,0,0,-24.40280242,0.64702298
ZYX,27,0,2024-06-14T03:25:42.446Z,english_358.wav,0,0,317,22,4,Chinese,f,1,0.1,62.18566088,0.86836285
ZYX,27,0,2024-06-14T03:25:42.446Z,english_358.wav,0,0,317,22,4,Chinese,f,2,0.2,5.26675109,1.05826104
ZYX,27,0,2024-06-14T03:25:42.446Z,english_358.wav,0,0,317,22,4,Chinese,f,3,0.3,-31.91571391,1.98011631
ZYX,27,0,2024-06-14T03:25:42.446Z,english_358.wav,0,0,317,22,4,Chinese,f,4,0.32341667,27.35112364,0.35058307
ZYX,28,0,2024-06-14T03:25:42.446Z,english_252.wav,0,1,970,22,4,Chinese,f,0,0,79.75601627,0.77799761
ZYX,28,0,2024-06-14T03:25:42.446Z,english_252.wav,0,1,970,22,4,Chinese,f,1,0.1,17.00183399,1.07711339
ZYX,28,0,2024-06-14T03:25:42.446Z,english_252.wav,0,1,970,22,4,Chinese,f,2,0.2,-25.42800597,0.7917181
ZYX,28,0,2024-06-14T03:25:42.446Z,english_252.wav,0,1,970,22,4,Chinese,f,3,0.3,-47.65138194,1.47632881
ZYX,28,0,2024-06-14T03:25:42.446Z,english_252.wav,0,1,970,22,4,Chinese,f,4,0.32341667,35.10652067,1.65919103
ZYX,29,0,2024-06-14T03:25:42.446Z,english_221.wav,0,1,449,22,4,Chinese,f,0,0,85.84184869,1.38100565
ZYX,29,0,2024-06-14T03:25:42.446Z,english_221.wav,0,1,449,22,4,Chinese,f,1,0.1,-20.37513589,0.79531516
ZYX,29,0,2024-06-14T03:25:42.446Z,english_221.wav,0,1,449,22,4,Chinese,f,2,0.2,-89.75984637,0.9538446
ZYX,29,0,2024-06-14T03:25:42.446Z,english_221.wav,0,1,449,22,4,Chinese,f,3,0.3,50.66879934,1.56492426
ZYX,29,0,2024-06-14T03:25:42.446Z,english_221.wav,0,1,449,22,4,Chinese,f,4,0.32341667,20.92538743,1.60855456
ZYX,30,0,2024-06-14T03:25:42.446Z,english_404.wav,0,0,1264,22,4,Chinese,f,0,0,32.93077195,0.80618862
ZYX,30,0,2024-06-14T03:25:42.446Z,english_404.wav,0,0,1264,22,4,Chinese,f,1,0.1,51.79107477,1.03327995
ZYX,30,0,2024-06-14T03:25:42.446Z,english_404.wav,0,0,1264,22,4,Chinese,f,2,0.2,-61.91466198,1.39590152
ZYX,30,0,2024-06-14T03:25:42.446Z,english_404.wav,0,0,1264,22,4,Chinese,f,3,0.3,33.45957754,1.8615638
ZYX,30,0,2024-06-14T03:25:42.446Z,english_404.wav,0,0,1264,22,4,Chinese,f,4,0.32341667,-82.23793256,0.80137687
ZYX,31,0,2024-06-14T03:25:42.446Z,english_961.wav,0,0,1412,22,4,Chinese,f,0,0,20.81275789,1.87720953
ZYX,31,0,2024-06-14T03:25:42.446Z,english_961.wav,0,0,1412,22,4,Chinese,f,1,0.1,46.48072234,1.43497285
ZYX,31,0,2024-06-14T03:25:42.446Z,english_961.wav,0,0,1412,22,4,Chinese,f,2,0.2,79.36291712,1.9095844
ZYX,31,0,2024-06-14T03:25:42.446Z,english_961.wav,0,0,1412,22,4,Chinese,f,3,0.3,7.86976501,0.20821065
ZYX,31,0,2024-06-14T03:25:42.446Z,english_961.wav,0,0,1412,22,4,Chinese,f,4,0.32341667,-45.45751668,0.0640973
ZYX,32,0,2024-06-14T03:25:42.446Z,english_667.wav,0,0,491,22,4,Chinese,f,0,0,-36.96649028,1.3014101
ZYX,32,0,2024-06-14T03:25:42.446Z,english_667.wav,0,0,491,22,4,Chinese,f,1,0.1,9.08709827,0.05882523
ZYX,32,0,2024-06-14T03:25:42.446Z,english_667.wav,0,0,491,22,4,Chinese,f,2,0.2,85.36553945,1.428997
ZYX,32,0,2024-06-14T03:25:42.446Z,english_667.wav,0,0,491,22,4,Chinese,f,3,0.3,-41.19556041,1.2429303
ZYX,32,0,2024-06-14T03:25:42.446Z,english_667.wav,0,0,491,22,4,Chinese,f,4,0.32341667,-31.79783786,0.97363261
ZYX,33,0,2024-06-14T03:25:42.446Z,english_822.wav,0,0,543,22,4,Chinese,f,0,0,22.19463519,1.34957498
ZYX,33,0,2024-06-14T03:25:42.446Z,english_822.wav,0,0,543,22,4,Chinese,f,1,0.1,46.02970585,1.18534363
ZYX,33,0,2024-06-14T03:25:42.446Z,english_822.wav,0,0,543,22,4,Chinese,f,2,0.2,44.31281831,0.88966115
ZYX,33,0,2024-06-14T03:25:42.446Z,english_822.wav,0,0,543,22,4,Chinese,f,3,0.3,27.24156044,1.22476657
ZYX,33,0,2024-06-14T03:25:42.446Z,english_822.wav,0,0,543,22,4,Chinese,f,4,0.32341667,41.58842879,0.51847317
ZYX,34,0,2024-06-14T03:25:42.446Z,english_856.wav,0,0,360,22,4,Chinese,f,0,0,-44.08940674,1.51880133
ZYX,34,0,2024-06-14T03:25:42.446Z,english_856.wav,0,0,360,22,4,Chinese,f,1,0.1,-25.77644107,0.99524475
ZYX,34,0,2024-06-14T03:25:42.446Z,english_856.wav,0,0,360,22,4,Chinese,f,2,0.2,6.39263247,1.11391415
ZYX,34,0,2024-06-14T03:25:42.446Z,english_856.wav,0,0,360,22,4,Chinese,f,3,0.3,92.67536145,0.95575529
ZYX,34,0,2024-06-14T03:25:42.446Z,english_856.wav,0,0,360,22,4,Chinese,f,4,0.32341667,45.15991817,1.02944292
ZYX,35,0,2024-06-14T03:25:42.446Z,english_991.wav,0,0,524,22,4,Chinese,f,0,0,-73.33762004,0.7279734
ZYX,35,0,2024-06-14T03:25:42.446Z,english_991.wav,0,0,524,22,4,Chinese,f,1,0.1,-90.08677455,0.374322
ZYX,35,0,2024-06-14T03:25:42.446Z,english_991.wav,0,0,524,22,4,Chinese,f,2,0.2,-98.84294029,0.98894361
ZYX,35,0,2024-06-14T03:25:42.446Z,english_991.wav,0,0,524,22,4,Chinese,f,3,0.3,59.84972986,1.07774369
ZYX,35,0,2024-06-14T03:25:42.446Z,english_991.wav,0,0,524,22,4,Chinese,f,4,0.32341667,21.03568625,0.51480923
ZYX,36,0,2024-06-14T03:25:42.446Z,english_286.wav,0,0,559,22,4,Chinese,f,0,0,-94.9495111,0.49849168
ZYX,36,0,2024-06-14T03:25:42.446Z,english_286.wav,0,0,559,22,4,Chinese,f,1,0.1,-25.05656786,1.27672914
ZYX,36,0,2024-06-14T03:25:42.446Z,english_286.wav,0,0,559,22,4,Chinese,f,2,0.2,59.61150177,0.14515846
ZYX,36,0,2024-06-14T03:25:42.446Z,english_286.wav,0,0,559,22,4,Chinese,f,3,0.3,-32.97544875,1.67164973
ZYX,36,0,2024-06-14T03:25:42.446Z,english_286.wav,0,0,559,22,4,Chinese,f,4,0.32341667,7.58095242,0.86492177
ZYX,37,0,2024-06-14T03:25:42.446Z,english_156.wav,0,1,1402,22,4,Chinese,f,0,0,93.86570948,0.27803573
ZYX,37,0,2024-06-14T03:25:42.446Z,english_156.wav,0,1,1402,22,4,Chinese,f,1,0.1,63.74639013,0.76121308
ZYX,37,0,2024-06-14T03:25:42.446Z,english_156.wav,0,1,1402,22,4,Chinese,f,2,0.2,-97.10775444,0.98438609
ZYX,37,0,2024-06-14T03:25:42.446Z,english_156.wav,0,1,1402,22,4,Chinese,f,3,0.3,99.76737427,0.34877861
ZYX,37,0,2024-06-14T03:25:42.446Z,english_156.wav,0,1,1402,22,4,Chinese,f,4,0.32341667,11.29868277,0.58154428
ZYX,38,0,2024-06-14T03:25:42.446Z,english_731.wav,0,1,368,22,4,Chinese,f,0,0,91.74609406,0.2840719
ZYX,38,0,2024-06-14T03:25:42.446Z,english_731.wav,0,1,368,22,4,Chinese,f,1,0.1,96.5637085,1.75324284
ZYX,38,0,2024-06-14T03:25:42.446Z,english_731.wav,0,1,368,22,4,Chinese,f,2,0.2,-58.02596537,1.43086201
ZYX,38,0,2024-06-14T03:25:42.446Z,english_731.wav,0,1,368,22,4,Chinese,f,3,0.3,21.59328018,1.68336342
ZYX,38,0,2024-06-14T03:25:42.446Z,english_731.wav,0,1,368,22,4,Chinese,f,4,0.32341667,13.26044458,0.60031718
ZYX,39,0,2024-06-14T03:25:42.446Z,english_559.wav,0,0,559,22,4,Chinese,f,0,0,72.91796617,0.28347303
ZYX,39,0,2024-06-14T03:25:42.446Z,english_559.wav,0,0,559,22,4,Chinese,f,1,0.1,49.0763932,0.33705515
ZYX,39,0,2024-06-14T03:25:42.446Z,english_559.wav,0,0,559,22,4,Chinese,f,2,0.2,37.36372944,1.25665906
ZYX,39,0,2024-06-14T03:25:42.446Z,english_559.wav,0,0,559,22,4,Chinese,f,3,0.3,62.8744144,0.42135622
ZYX,39,0,2024-06-14T03:25:42.446Z,english_559.wav,0,0,559,22,4,Chinese,f,4,0.32341667,-70.24316133,0.44445559
ZYX,40,0,2024-06-14T03:25:42.446Z,english_112.wav,0,0,366,22,4,Chinese,f,0,0,-98.7507832,1.62855774
ZYX,40,0,2024-06-14T03:25:42.446Z,english_112.wav,0,0,366,22,4,Chinese,f,1,0.1,-92.72198769,1.23374737
ZYX,40,0,2024-06-14T03:25:42.446Z,english_112.wav,0,0,366,22,4,Chinese,f,2,0.2,15.54821062,0.76022921
ZYX,40,0,2024-06-14T03:25:42.446Z,english_112.wav,0,0,366,22,4,Chinese,f,3,0.3,-40.54151432,0.49860071
ZYX,40,0,2024-06-14T03:25:42.446Z,english_112.wav,0,0,366,22,4,Chinese,f,4,0.32341667,-42.89167932,0.23801633
ZYX,41,0,2024-06-14T03:25:42.446Z,english_876.wav,0,1,123,22,4,Chinese,f,0,0,-20.36884991,0.97958319
ZYX,41,0,2024-06-14T03:25:42.446Z,english_876.wav,0,1,123,22,4,Chinese,f,1,0.1,-12.16725052,0.93484439
ZYX,41,0,2024-06-14T03:25:42.446Z,english_876.wav,0,1,123,22,4,Chinese,f,2,0.2,-26.42868614,0.43422731
ZYX,41,0,2024-06-14T03:25:42.446Z,english_876.wav,0,1,123,22,4,Chinese,f,3,0.3,-15.16942384,0.12359811
ZYX,41,0,2024-06-14T03:25:42.446Z,english_876.wav,0,1,123,22,4,Chinese,f,4,0.32341667,-52.65446315,1.31629037
ZYX,42,0,2024-06-14T03:25:42.446Z,english_717.wav,0,1,442,22,4,Chinese,f,0,0,11.70361719,1.43236824
ZYX,42,0,2024-06-14T03:25:42.446Z,english_717.wav,0,1,442,22,4,Chinese,f,1,0.1,-43.41962,0.38419888
ZYX,42,0,2024-06-14T03:25:42.446Z,english_717.wav,0,1,442,22,4,Chinese,f,2,0.2,-38.6653904,1.88953633
ZYX,42,0,2024-06-14T03:25:42.446Z,english_717.wav,0,1,442,22,4,Chinese,f,3,0.3,-38.11833374,1.28007762
ZYX,42,0,2024-06-14T03:25:42.446Z,english_717.wav,0,1,442,22,4,Chinese,f,4,0.32341667,93.29743671,0.67082429
ZYX,43,0,2024-06-14T03:25:42.446Z,english_202.wav,0,1,542,22,4,Chinese,f,0,0,-30.7410802,1.48506999
ZYX,43,0,2024-06-14T03:25:42.446Z,english_202.wav,0,1,542,22,4,Chinese,f,1,0.1,-19.68361402,1.61937363
ZYX,43,0,2024-06-14T03:25:42.446Z,english_202.wav,0,1,542,22,4,Chinese,f,2,0.2,-9.93463647,0.73964021
ZYX,43,0,2024-06-14T03:25:42.446Z,english_202.wav,0,1,542,22,4,Chinese,f,3,0.3,-7.1971022,1.93955383
ZYX,43,0,2024-06-14T03:25:42.446Z,english_202.wav,0,1,542,22,4,Chinese,f,4,0.32341667,-23.97797133,1.43199581
ZYX,44,0,2024-06-14T03:25:42.446Z,english_964.wav,0,0,563,22,4,Chinese,f,0,0,11.04708611,0.74384055
ZYX,44,0,2024-06-14T03:25:42.446Z,english_964.wav,0,0,563,22,4,Chinese,f,1,0.1,-10.67848967,0.46038505
ZYX,44,0,2024-06-14T03:25:42.446Z,english_964.wav,0,0,563,22,4,Chinese,f,2,0.2,64.95328634,0.80934661
ZYX,44,0,2024-06-14T03:25:42.446Z,english_964.wav,0,0,563,22,4,Chinese,f,3,0.3,-78.10341524,1.94282647
ZYX,44,0,2024-06-14T03:25:42.446Z,english_964.wav,0,0,563,22,4,Chinese,f,4,0.32341667,-48.61651995,1.99482071
ZYX,45,0,2024-06-14T03:25:42.446Z,english_475.wav,0,0,1691,22,4,Chinese,f,0,0,-68.25626322,0.40988158
ZYX,45,0,2024-06-14T03:25:42.446Z,english_475.wav,0,0,1691,22,4,Chinese,f,1,0.1,-56.46648788,1.90107213
ZYX,45,0,2024-06-14T03:25:42.446Z,english_475.wav,0,0,1691,22,4,Chinese,f,2,0.2,49.77560279,0.54721615
ZYX,45,0,2024-06-14T03:25:42.446Z,english_475.wav,0,0,1691,22,4,Chinese,f,3,0.3,-41.74178488,1.80730726
ZYX,45,0,2024-06-14T03:25:42.446Z,english_475.wav,0,0,1691,22,4,Chinese,f,4,0.32341667,-60.3255454,0.11427958
ZYX,46,0,2024-06-14T03:25:42.446Z,english_313.wav,0,0,1212,22,4,Chinese,f,0,0,63.86599335,0.35841412
ZYX,46,0,2024-06-14T03:25:42.446Z,english_313.wav,0,0,1212,22,4,Chinese,f,1,0.1,-55.89800258,0.35021793
ZYX,46,0,2024-06-14T03:25:42.446Z,english_313.wav,0,0,1212,22,4,Chinese,f,2,0.2,90.86254046,1.77750413
ZYX,46,0,2024-06-14T03:25:42.446Z,english_313.wav,0,0,1212,22,4,Chinese,f,3,0.3,0.53087649,1.87396687
ZYX,46,0,2024-06-14T03:25:42.446Z,english_313.wav,0,0,1212,22,4,Chinese,f,4,0.32341667,-69.87913817,1.16176786
ZYX,47,0,2024-06-14T03:25:42.446Z,english_538.wav,0,0,3305,22,4,Chinese,f,0,0,2.36208538,1.54356298
ZYX,47,0,2024-06-14T03:25:42.446Z,english_538.wav,0,0,3305,22,4,Chinese,f,1,0.1,77.85923423,0.47597082
ZYX,47,0,2024-06-14T03:25:42.446Z,english_538.wav,0,0,3305,22,4,Chinese,f,2,0.2,-89.1271409,1.27977799
ZYX,47,0,2024-06-14T03:25:42.446Z,english_538.wav,0,0,3305,22,4,Chinese,f,3,0.3,-18.79772534,1.05516459
ZYX,47,0,2024-06-14T03:25:42.446Z,english_538.wav,0,0,3305,22,4,Chinese,f,4,0.32341667,87.62276495,1.20284762
ZYX,48,0,2024-06-14T03:25:42.446Z,english_583.wav,0,0,169,22,4,Chinese,f,0,0,-35.26485382,0.11557093
ZYX,48,0,2024-06-14T03:25:42.446Z,english_583.wav,0,0,169,22,4,Chinese,f,1,0.1,-69.50197994,0.9917357
ZYX,48,0,2024-06-14T03:25:42.446Z,english_583.wav,0,0,169,22,4,Chinese,f,2,0.2,73.6796048,1.33727714
ZYX,48,0,2024-06-14T03:25:42.446Z,english_583.wav,0,0,169,22,4,Chinese,f,3,0.3,-1.04664171,0.97646566
ZYX,48,0,2024-06-14T03:25:42.446Z,english_583.wav,0,0,169,22,4,Chinese,f,4,0.32341667,-55.46924107,1.06585671
ZYX,49,0,2024-06-14T03:25:42.446Z,english_842.wav,0,0,294,22,4,Chinese,f,0,0,-48.5952207,0.12382156
ZYX,49,0,2024-06-14T03:25:42.446Z,english_842.wav,0,0,294,22,4,Chinese,f,1,0.1,29.19485822,1.75564688
ZYX,49,0,2024-06-14T03:25:42.446Z,english_842.wav,0,0,294,22,4,Chinese,f,2,0.2,84.54328152,0.24815543
ZYX,49,0,2024-06-14T03:25:42.446Z,english_842.wav,0,0,294,22,4,Chinese,f,3,0.3,69.99994667,1.2885643
ZYX,49,0,2024-06-14T03:25:42.446Z,english_842.wav,0,0,294,22,4,Chinese,f,4,0.32341667,56.72069463,0.70518165
ZYX,50,1,2024-06-14T03:25:42.446Z,english_996.wav,0,0,542,22,4,Chinese,f,0,0,-71.70531914,1.36459419
ZYX,50,1,2024-06-14T03:25:42.446Z,english_996.wav,0,0,542,22,4,Chinese,f,1,0.1,-47.61419544,0.5051745
ZYX,50,1,2024-06-14T03:25:42.446Z,english_996.wav,0,0,542,22,4,Chinese,f,2,0.2,48.0330823,1.09957376
ZYX,50,1,2024-06-14T03:25:42.446Z,english_996.wav,0,0,542,22,4,Chinese,f,3,0.3,34.27821317,0.27950682
ZYX,50,1,2024-06-14T03:25:42.446Z,english_996.wav,0,0,542,22,4,Chinese,f,4,0.32341667,-72.4662587,0.22836241
ZYX,51,1,2024-06-14T03:25:42.446Z,english_486.wav,0,0,258,22,4,Chinese,f,0,0,31.41997184,1.22599644
ZYX,51,1,2024-06-14T03:25:42.446Z,english_486.wav,0,0,258,22,4,Chinese,f,1,0.1,58.03480486,1.4547445
ZYX,51,1,2024-06-14T03:25:42.446Z,english_486.wav,0,0,258,22,4,Chinese,f,2,0.2,-62.84801238,0.27967606
ZYX,51,1,2024-06-14T03:25:42.446Z,english_486.wav,0,0,258,22,4,Chinese,f,3,0.3,10.62451678,0.02065399
ZYX,51,1,2024-06-14T03:25:42.446Z,english_486.wav,0,0,258,22,4,Chinese,f,4,0.32341667,10.31835057,0.3128479
ZYX,52,1,2024-06-14T03:25:42.446Z,english_574.wav,0,0,1701,22,4,Chinese,f,0,0,53.128433,0.28349694
ZYX,52,1,2024-06-14T03:25:42.446Z,english_574.wav,0,0,1701,22,4,Chinese,f,1,0.1,70.24248151,0.66519348
ZYX,52,1,2024-06-14T03:25:42.446Z,english_574.wav,0,0,1701,22,4,Chinese,f,2,0.2,47.13290739,1.25768036
ZYX,52,1,2024-06-14T03:25:42.446Z,english_574.wav,0,0,1701,22,4,Chinese,f,3,0.3,52.31480293,1.43482954
ZYX,52,1,2024-06-14T03:25:42.446Z,english_574.wav,0,0,1701,22,4,Chinese,f,4,0.32341667,-33.06438127,1.23350688
ZYX,53,1,2024-06-14T03:25:42.446Z,english_68.wav,0,0,53,22,4,Chinese,f,0,0,-23.38152803,1.83565324
ZYX,53,1,2024-06-14T03:25:42.446Z,english_68.wav,0,0,53,22,4,Chinese,f,1,0.1,-36.0918901,0.35162477
ZYX,53,1,2024-06-14T03:25:42.446Z,english_68.wav,0,0,53,22,4,Chinese,f,2,0.2,65.46592862,1.10705723
ZYX,53,1,2024-06-14T03:25:42.446Z,english_68.wav,0,0,53,22,4,Chinese,f,3,0.3,48.57602628,1.09550925
ZYX,53,1,2024-06-14T03:25:42.446Z,english_68.wav,0,0,53,22,4,Chinese,f,4,0.32341667,-93.64245591,0.05753383
ZYX,54,1,2024-06-14T03:25:42.446Z,english_577.wav,0,0,552,22,4,Chinese,f,0,0,0.60742169,1.18439754
ZYX,54,1,2024-06-14T03:25:42.446Z,english_577.wav,0,0,552,22,4,Chinese,f,1,0.1,-16.75441018,1.17258894
ZYX,54,1,2024-06-14T03:25:42.446Z,english_577.wav,0,0,552,22,4,Chinese,f,2,0.2,32.29278586,0.00832478
ZYX,54,1,2024-06-14T03:25:42.446Z,english_577.wav,0,0,552,22,4,Chinese,f,3,0.3,94.63733595,1.24529525
ZYX,54,1,2024-06-14T03:25:42.446Z,english_577.wav,0,0,552,22,4,Chinese,f,4,0.32341667,-75.78119055,0.24980342
ZYX,55,1,2024-06-14T03:25:42.446Z,english_840.wav,0,0,896,22,4,Chinese,f,0,0,-27.11425843,1.31301797
ZYX,55,1,2024-06-14T03:25:42.446Z,english_840.wav,0,0,896,22,4,Chinese,f,1,0.1,-47.31494811,0.54280133
ZYX,55,1,2024-06-14T03:25:42.446Z,english_840.wav,0,0,896,22,4,Chinese,f,2,0.2,-88.66887426,0.14090987
ZYX,55,1,2024-06-14T03:25:42.446Z,english_840.wav,0,0,896,22,4,Chinese,f,3,0.3,7.86940595,0.11950116
ZYX,55,1,2024-06-14T03:25:42.446Z,english_840.wav,0,0,896,22,4,Chinese,f,4,0.32341667,87.61758205,1.48166624
ZYX,56,1,2024-06-14T03:25:42.446Z,english_100.wav,0,0,411,22,4,Chinese,f,0,0,-66.86198445,0.79522553
ZYX,56,1,2024-06-14T03:25:42.446Z,english_100.wav,0,0,411,22,4,Chinese,f,1,0.1,32.23990363,0.27784591
ZYX,56,1,2024-06-14T03:25:42.446Z,english_100.wav,0,0,411,22,4,Chinese,f,2,0.2,-63.31896149,1.76330212
ZYX,56,1,2024-06-14T03:25:42.446Z,english_100.wav,0,0,411,22,4,Chinese,f,3,0.3,-73.00038049,0.60946618
ZYX,56,1,2024-06-14T03:25:42.446Z,english_100.wav,0,0,411,22,4,Chinese,f,4,0.32341667,32.15710315,0.42695433
ZYX,57,1,2024-06-14T03:25:42.446Z,english_831.wav,0,0,543,22,4,Chinese,f,0,0,-7.33710711,1.53159971
ZYX,57,1,2024-06-14T03:25:42.446Z,english_831.wav,0,0,543,22,4,Chinese,f,1,0.1,-87.69782071,1.22669962
ZYX,57,1,2024-06-14T03:25:42.446Z,english_831.wav,0,0,543,22,4,Chinese,f,2,0.2,34.03975531,0.70180407
ZYX,57,1,2024-06-14T03:25:42.446Z,english_831.wav,0,0,543,22,4,Chinese,f,3,0.3,-2.18295653,1.02244347
ZYX,57,1,2024-06-14T03:25:42.446Z,english_831.wav,0,0,543,22,4,Chinese,f,4,0.32341667,20.908766,1.06702443
ZYX,58,1,2024-06-14T03:25:42.446Z,english_609.wav,0,1,495,22,4,Chinese,f,0,0,93.61263388,0.51617504
ZYX,58,1,2024-06-14T03:25:42.446Z,english_609.wav,0,1,495,22,4,Chinese,f,1,0.1,38.40290552,0.56544547
ZYX,58,1,2024-06-14T03:25:42.446Z,english_609.wav,0,1,495,22,4,Chinese,f,2,0.2,-21.94770243,0.43418402
ZYX,58,1,2024-06-14T03:25:42.446Z,english_609.wav,0,1,495,22,4,Chinese,f,3,0.3,-11.92302894,1.38818447
ZYX,58,1,2024-06-14T03:25:42.446Z,english_609.wav,0,1,495,22,4,Chinese,f,4,0.32341667,30.65806027,1.36410066
ZYX,59,1,2024-06-14T03:25:42.446Z,english_423.wav,0,1,300,22,4,Chinese,f,0,0,48.83941012,1.35290702
ZYX,59,1,2024-06-14T03:25:42.446Z,english_423.wav,0,1,300,22,4,Chinese,f,1,0.1,26.57948938,1.33919202
ZYX,59,1,2024-06-14T03:25:42.446Z,english_423.wav,0,1,300,22,4,Chinese,f,2,0.2,56.70545245,1.37149513
ZYX,59,1,2024-06-14T03:25:42.446Z,english_423.wav,0,1,300,22,4,Chinese,f,3,0.3,-62.41131033,1.11357765
ZYX,59,1,2024-06-14T03:25:42.446Z,english_423.wav,0,1,300,22,4,Chinese,f,4,0.32341667,78.49803502,1.20699722
ZYX,60,1,2024-06-14T03:25:42.446Z,english_839.wav,0,0,262,22,4,Chinese,f,0,0,48.1700809,1.1821708
ZYX,60,1,2024-06-14T03:25:42.446Z,english_839.wav,0,0,262,22,4,Chinese,f,1,0.1,-8.22030768,1.15480022
ZYX,60,1,2024-06-14T03:25:42.446Z,english_839.wav,0,0,262,22,4,Chinese,f,2,0.2,53.56121636,1.57293091
ZYX,60,1,2024-06-14T03:25:42.446Z,english_839.wav,0,0,262,22,4,Chinese,f,3,0.3,4.54416263,0.22310878
ZYX,60,1,2024-06-14T03:25:42.446Z,english_839.wav,0,0,262,22,4,Chinese,f,4,0.32341667,-19.83463627,0.67140257
ZYX,61,1,2024-06-14T03:25:42.446Z,english_605.wav,0,0,938,22,4,Chinese,f,0,0,-82.65591545,0.90945233
ZYX,61,1,2024-06-14T03:25:42.446Z,english_605.wav,0,0,938,22,4,Chinese,f,1,0.1,35.78886654,1.65178877
ZYX,61,1,2024-06-14T03:25:42.446Z,english_605.wav,0,0,938,22,4,Chinese,f,2,0.2,-36.80716754,0.21181898
ZYX,61,1,2024-06-14T03:25:42.446Z,english_605.wav,0,0,938,22,4,Chinese,f,3,0.3,-4.39131435,1.21754483
ZYX,61,1,2024-06-14T03:25:42.446Z,english_605.wav,0,0,938,22,4,Chinese,f,4,0.32341667,-17.17702763,1.60493484
ZYX,62,1,2024-06-14T03:25:42.446Z,english_275.wav,0,1,711,22,4,Chinese,f,0,0,-1.14725012,0.71691039
ZYX,62,1,2024-06-14T03:25:42.446Z,english_275.wav,0,1,711,22,4,Chinese,f,1,0.1,-90.43848863,0.74614953
ZYX,62,1,2024-06-14T03:25:42.446Z,english_275.wav,0,1,711,22,4,Chinese,f,2,0.2,-40.03711279,1.94843862
ZYX,62,1,2024-06-14T03:25:42.446Z,english_275.wav,0,1,711,22,4,Chinese,f,3,0.3,-29.12549604,0.32495742
ZYX,62,1,2024-06-14T03:25:42.446Z,english_275.wav,0,1,711,22,4,Chinese,f,4,0.32341667,77.33253221,0.61649877
ZYX,63,1,2024-06-14T03:25:42.446Z,english_212.wav,0,1,2913,22,4,Chinese,f,0,0,-8.03708838,0.69940518
ZYX,63,1,2024-06-14T03:25:42.446Z,english_212.wav,0,1,2913,22,4,Chinese,f,1,0.1,72.60121642,1.0039509
ZYX,63,1,2024-06-14T03:25:42.446Z,english_212.wav,0,1,2913,22,4,Chinese,f,2,0.2,-98.76374397,1.17731185
ZYX,63,1,2024-06-14T03:25:42.446Z,english_212.wav,0,1,2913,22,4,Chinese,f,3,0.3,31.47742107,0.88066499
ZYX,63,1,2024-06-14T03:25:42.446Z,english_212.wav,0,1,2913,22,4,Chinese,f,4,0.32341667,53.59344022,0.33624016
ZYX,64,1,2024-06-14T03:25:42.446Z,english_382.wav,0,1,503,22,4,Chinese,f,0,0,-83.35497559,1.24516413
ZYX,64,1,2024-06-14T03:25:42.446Z,english_382.wav,0,1,503,22,4,Chinese,f,1,0.1,7.83115402,0.59675254
ZYX,64,1,2024-06-14T03:25:42.446Z,english_382.wav,0,1,503,22,4,Chinese,f,2,0.2,77.46115257,0.61036026
ZYX,64,1,2024-06-14T03:25:42.446Z,english_382.wav,0,1,503,22,4,Chinese,f,3,0.3,89.755233,1.95554414
ZYX,64,1,2024-06-14T03:25:42.446Z,english_382.wav,0,1,503,22,4,Chinese,f,4,0.32341667,-36.08570956,1.60845727
ZYX,65,1,2024-06-14T03:25:42.446Z,english_366.wav,0,1,1766,22,4,Chinese,f,0,0,30.08929792,0.87054072
ZYX,65,1,2024-06-14T03:25:42.446Z,english_366.wav,0,1,1766,22,4,Chinese,f,1,0.1,-17.9139155,0.34658018
ZYX,65,1,2024-06-14T03:25:42.446Z,english_366.wav,0,1,1766,22,4,Chinese,f,2,0.2,-66.75779592,0.49970414
ZYX,65,1,2024-06-14T03:25:42.446Z,english_366.wav,0,1,1766,22,4,Chinese,f,3,0.3,77.64459909,1.94720887
ZYX,65,1,2024-06-14T03:25:42.446Z,english_366.wav,0,1,1766,22,4,Chinese,f,4,0.32341667,72.64294537,1.76390144
ZYX,66,1,2024-06-14T03:25:42.446Z,english_157.wav,0,1,1246,22,4,Chinese,f,0,0,-74.01864956,1.10168906
ZYX,66,1,2024-06-14T03:25:42.446Z,english_157.wav,0,1,1246,22,4,Chinese,f,1,0.1,1.44529667,1.71225259
ZYX,66,1,2024-06-14T03:25:42.446Z,english_157.wav,0,1,1246,22,4,Chinese,f,2,0.2,-42.76251303,1.71884561
ZYX,66,1,2024-06-14T03:25:42.446Z,english_157.wav,0,1,1246,22,4,Chinese,f,3,0.3,-49.01483239,1.47822148
ZYX,66,1,2024-06-14T03:25:42.446Z,english_157.wav,0,1,1246,22,4,Chinese,f,4,0.32341667,-96.85595697,1.36273156
ZYX,67,1,2024-06-14T03:25:42.446Z,english_182.wav,0,1,495,22,4,Chinese,f,0,0,57.43769915,0.89919812
ZYX,67,1,2024-06-14T03:25:42.446Z,english_182.wav,0,1,495,22,4,Chinese,f,1,0.1,-87.06676545,1.25243937
ZYX,67,1,2024-06-14T03:25:42.446Z,english_182.wav,0,1,495,22,4,Chinese,f,2,0.2,-91.52107401,1.35021358
ZYX,67,1,2024-06-14T03:25:42.446Z,english_182.wav,0,1,495,22,4,Chinese,f,3,0.3,52.0843588,0.52787795
ZYX,67,1,2024-06-14T03:25:42.446Z,english_182.wav,0,1,495,22,4,Chinese,f,4,0.32341667,18.07264914,0.72620624
ZYX,68,1,2024-06-14T03:25:42.446Z,english_942.wav,0,1,2261,22,4,Chinese,f,0,0,96.26286183,1.14976657
ZYX,68,1,2024-06-14T03:25:42.446Z,english_942.wav,0,1,2261,22,4,Chinese,f,1,0.1,-96.45992778,0.962364
ZYX,68,1,2024-06-14T03:25:42.446Z,english_942.wav,0,1,2261,22,4,Chinese,f,2,0.2,50.93322043,0.99280793
ZYX,68,1,2024-06-14T03:25:42.446Z,english_942.wav,0,1,2261,22,4,Chinese,f,3,0.3,14.6207779,1.92237923
ZYX,68,1,2024-06-14T03:25:42.446Z,english_942.wav,0,1,2261,22,4,Chinese,f,4,0.32341667,7.19296333,1.02094568
ZYX,69,1,2024-06-14T03:25:42.446Z,english_661.wav,0,1,208,22,4,Chinese,f,0,0,14.15805194,1.06290545
ZYX,69,1,2024-06-14T03:25:42.446Z,english_661.wav,0,1,208,22,4,Chinese,f,1,0.1,-77.97020538,1.12952287
ZYX,69,1,2024-06-14T03:25:42.446Z,english_661.wav,0,1,208,22,4,Chinese,f,2,0.2,-31.78835068,1.47556517
ZYX,69,1,2024-06-14T03:25:42.446Z,english_661.wav,0,1,208,22,4,Chinese,f,3,0.3,1.84085651,0.41137052
ZYX,69,1,2024-06-14T03:25:42.446Z,english_661.wav,0,1,208,22,4,Chinese,f,4,0.32341667,31.49677972,1.48872703
ZYX,70,1,2024-06-14T03:25:42.446Z,english_446.wav,0,1,345,22,4,Chinese,f,0,0,-50.90487531,0.84721497
ZYX,70,1,2024-06-14T03:25:42.446Z,english_446.wav,0,1,345,22,4,Chinese,f,1,0.1,77.9515464,0.90863808
ZYX,70,1,2024-06-14T03:25:42.446Z,english_446.wav,0,1,345,22,4,Chinese,f,2,0.2,12.96913102,0.45582271
ZYX,70,1,2024-06-14T03:25:42.446Z,english_446.wav,0,1,345,22,4,Chinese,f,3,0.3,31.20275809,0.65529325
ZYX,70,1,2024-06-14T03:25:42.446Z,english_446.wav,0,1,345,22,4,Chinese,f,4,0.32341667,-30.39700356,0.08422993
ZYX,71,1,2024-06-14T03:25:42.446Z,english_806.wav,0,1,17228,22,4,Chinese,f,0,0,17.38837614,1.03842349
ZYX,71,1,2024-06-14T03:25:42.446Z,english_806.wav,0,1,17228,22,4,Chinese,f,1,0.1,50.31160736,1.08461549
ZYX,71,1,2024-06-14T03:25:42.446Z,english_806.wav,0,1,17228,22,4,Chinese,f,2,0.2,74.21499327,1.8436814
ZYX,71,1,2024-06-14T03:25:42.446Z,english_806.wav,0,1,17228,22,4,Chinese,f,3,0.3,16.647622,1.85846725
ZYX,71,1,2024-06-14T03:25:42.446Z,english_806.wav,0,1,17228,22,4,Chinese,f,4,0.32341667,27.12519974,1.15820289
ZYX,72,1,2024-06-14T03:25:42.446Z,english_936.wav,0,1,101,22,4,Chinese,f,0,0,48.39129511,0.54114143
ZYX,72,1,2024-06-14T03:25:42.446Z,english_936.wav,0,1,101,22,4,Chinese,f,1,0.1,-60.21618585,1.68728974
ZYX,72,1,2024-06-14T03:25:42.446Z,english_936.wav,0,1,101,22,4,Chinese,f,2,0.2,21.92845445,1.39155326
ZYX,72,1,2024-06-14T03:25:42.446Z,english_936.wav,0,1,101,22,4,Chinese,f,3,0.3,72.85258749,0.90488419
ZYX,72,1,2024-06-14T03:25:42.446Z,english_936.wav,0,1,101,22,4,Chinese,f,4,0.32341667,60.11152814,1.20326098
ZYX,73,1,2024-06-14T03:25:42.446Z,english_715.wav,0,1,3958,22,4,Chinese,f,0,0,-64.21420564,1.80154013
ZYX,73,1,2024-06-14T03:25:42.446Z,english_715.wav,0,1,3958,22,4,Chinese,f,1,0.1,77.40813629,0.51096517
ZYX,73,1,2024-06-14T03:25:42.446Z,english_715.wav,0,1,3958,22,4,Chinese,f,2,0.2,-98.26791609,0.49870215
ZYX,73,1,2024-06-14T03:25:42.446Z,english_715.wav,0,1,3958,22,4,Chinese,f,3,0.3,-32.66334796,0.64344691
ZYX,73,1,2024-06-14T03:25:42.446Z,english_715.wav,0,1,3958,22,4,Chinese,f,4,0.32341667,93.12500574,1.17662216
ZYX,74,1,2024-06-14T03:25:42.446Z,english_399.wav,0,1,6318,22,4,Chinese,f,0,0,77.00947727,0.99570417
ZYX,74,1,2024-06-14T03:25:42.446Z,english_399.wav,0,1,6318,22,4,Chinese,f,1,0.1,68.68212777,1.08385584
ZYX,74,1,2024-06-14T03:25:42.446Z,english_399.wav,0,1,6318,22,4,Chinese,f,2,0.2,29.89909441,0.2210854
ZYX,74,1,2024-06-14T03:25:42.446Z,english_399.wav,0,1,6318,22,4,Chinese,f,3,0.3,-37.60275897,0.41623588
ZYX,74,1,2024-06-14T03:25:42.446Z,english_399.wav,0,1,6318,22,4,Chinese,f,4,0.32341667,-61.49193386,0.38461981
ZYX,75,1,2024-06-14T03:25:42.446Z,english_506.wav,0,1,3501,22,4,Chinese,f,0,0,-17.73769578,0.98447335
ZYX,75,1,2024-06-14T03:25:42.446Z,english_506.wav,0,1,3501,22,4,Chinese,f,1,0.1,-41.45582363,0.94666259
ZYX,75,1,2024-06-14T03:25:42.446Z,english_506.wav,0,1,3501,22,4,Chinese,f,2,0.2,30.66866042,0.72831062
ZYX,75,1,2024-06-14T03:25:42.446Z,english_506.wav,0,1,3501,22,4,Chinese,f,3,0.3,59.8078046,1.02790064
ZYX,75,1,2024-06-14T03:25:42.446Z,english_506.wav,0,1,3501,22,4,Chinese,f,4,0.32341667,84.38248427,0.39724826
ZYX,76,1,2024-06-14T03:25:42.446Z,english_108.wav,0,1,546,22,4,Chinese,f,0,0,-20.69942707,0.77052949
ZYX,76,1,2024-06-14T03:25:42.446Z,english_108.wav,0,1,546,22,4,Chinese,f,1,0.1,-59.42152954,1.01445352
ZYX,76,1,2024-06-14T03:25:42.446Z,english_108.wav,0,1,546,22,4,Chinese,f,2,0.2,-8.09170222,0.42363715
ZYX,76,1,2024-06-14T03:25:42.446Z,english_108.wav,0,1,546,22,4,Chinese,f,3,0.3,21.99826779,1.45799831
ZYX,76,1,2024-06-14T03:25:42.446Z,english_108.wav,0,1,546,22,4,Chinese,f,4,0.32341667,56.38973361,1.71498507
ZYX,77,1,2024-06-14T03:25:42.446Z,english_688.wav,0,1,640,22,4,Chinese,f,0,0,-45.64286614,1.06356906
ZYX,77,1,2024-06-14T03:25:42.446Z,english_688.wav,0,1,640,22,4,Chinese,f,1,0.1,39.73956276,0.85197809
ZYX,77,1,2024-06-14T03:25:42.446Z,english_688.wav,0,1,640,22,4,Chinese,f,2,0.2,40.53719602,0.68718846
ZYX,77,1,2024-06-14T03:25:42.446Z,english_688.wav,0,1,640,22,4,Chinese,f,3,0.3,-71.29470492,1.67995478
ZYX,77,1,2024-06-14T03:25:42.446Z,english_688.wav,0,1,640,22,4,Chinese,f,4,0.32341667,73.7490074,1.45979079
ZYX,78,1,2024-06-14T03:25:42.446Z,english_785.wav,0,1,1946,22,4,Chinese,f,0,0,41.51350967,0.93543931
ZYX,78,1,2024-06-14T03:25:42.446Z,english_785.wav,0,1,1946,22,4,Chinese,f,1,0.1,26.23517368,1.17819894
ZYX,78,1,2024-06-14T03:25:42.446Z,english_785.wav,0,1,1946,22,4,Chinese,f,2,0.2,-12.63822228,1.98833146
ZYX,78,1,2024-06-14T03:25:42.446Z,english_785.wav,0,1,1946,22,4,Chinese,f,3,0.3,-30.66588474,0.80021218
ZYX,78,1,2024-06-14T03:25:42.446Z,english_785.wav,0,1,1946,22,4,Chinese,f,4,0.32341667,26.08399401,1.2737519
ZYX,79,1,2024-06-14T03:25:42.446Z,english_975.wav,0,1,594,22,4,Chinese,f,0,0,30.76275893,1.75032315
ZYX,79,1,2024-06-14T03:25:42.446Z,english_975.wav,0,1,594,22,4,Chinese,f,1,0.1,-18.30184736,1.1766706
ZYX,79,1,2024-06-14T03:25:42.446Z,english_975.wav,0,1,594,22,4,Chinese,f,2,0.2,88.92209311,0.11148121
ZYX,79,1,2024-06-14T03:25:42.446Z,english_975.wav,0,1,594,22,4,Chinese,f,3,0.3,-15.78836893,1.00992181
ZYX,79,1,2024-06-14T03:25:42.446Z,english_975.wav,0,1,594,22,4,Chinese,f,4,0.32341667,81.69873146,1.08252971
ZYX,80,1,2024-06-14T03:25:42.446Z,english_627.wav,0,1,2223,22,4,Chinese,f,0,0,-53.99355102,0.04887222
ZYX,80,1,2024-06-14T03:25:42.446Z,english_627.wav,0,1,2223,22,4,Chinese,f,1,0.1,-3.03417463,0.14119608
ZYX,80,1,2024-06-14T03:25:42.446Z,english_627.wav,0,1,2223,22,4,Chinese,f,2,0.2,83.9257281,0.97350107
ZYX,80,1,2024-06-14T03:25:42.446Z,english_627.wav,0,1,2223,22,4,Chinese,f,3,0.3,52.52073868,0.6697358
ZYX,80,1,2024-06-14T03:25:42.446Z,english_627.wav,0,1,2223,22,4,Chinese,f,4,0.32341667,-13.85481025,0.92660526
ZYX,81,1,2024-06-14T03:25:42.446Z,english_332.wav,0,1,768,22,4,Chinese,f,0,0,-51.41680869,1.58782391
ZYX,81,1,2024-06-14T03:25:42.446Z,english_332.wav,0,1,768,22,4,Chinese,f,1,0.1,4.985172,0.72138411
ZYX,81,1,2024-06-14T03:25:42.446Z,english_332.wav,0,1,768,22,4,Chinese,f,2,0.2,88.20327684,1.12265768
ZYX,81,1,2024-06-14T03:25:42.446Z,english_332.wav,0,1,768,22,4,Chinese,f,3,0.3,-58.40734817,0.23569111
ZYX,81,1,2024-06-14T03:25:42.446Z,english_332.wav,0,1,768,22,4,Chinese,f,4,0.32341667,68.30800912,1.23583309
ZYX,82,1,2024-06-14T03:25:42.446Z,english_387.wav,0,1,2137,22,4,Chinese,f,0,0,14.25538659,0.59610882
ZYX,82,1,2024-06-14T03:25:42.446Z,english_387.wav,0,1,2137,22,4,Chinese,f,1,0.1,-5.8057983,0.93453474
ZYX,82,1,2024-06-14T03:25:42.446Z,english_387.wav,0,1,2137,22,4,Chinese,f,2,0.2,-2.59288607,1.87880123
ZYX,82,1,2024-06-14T03:25:42.446Z,english_387.wav,0,1,2137,22,4,Chinese,f,3,0.3,19.33055559,0.79709693
ZYX,82,1,2024-06-14T03:25:42.446Z,english_387.wav,0,1,2137,22,4,Chinese,f,4,0.32341667,-85.57173801,0.90161027
ZYX,83,1,2024-06-14T03:25:42.446Z,english_394.wav,0,1,1122,22,4,Chinese,f,0,0,73.08757955,1.29313131
ZYX,83,1,2024-06-14T03:25:42.446Z,english_394.wav,0,1,1122,22,4,Chinese,f,1,0.1,5.60908311,0.62691873
ZYX,83,1,2024-06-14T03:25:42.446Z,english_394.wav,0,1,1122,22,4,Chinese,f,2,0.2,76.56705043,1.4938005
ZYX,83,1,2024-06-14T03:25:42.446Z,english_394.wav,0,1,1122,22,4,Chinese,f,3,0.3,18.85166324,1.2266925
ZYX,83,1,2024-06-14T03:25:42.446Z,english_394.wav,0,1,1122,22,4,Chinese,f,4,0.32341667,8.45052692,0.67844158
ZYX,84,1,2024-06-14T03:25:42.446Z,english_721.wav,0,1,175,22,4,Chinese,f,0,0,-1.67193172,0.23966059
ZYX,84,1,2024-06-14T03:25:42.446Z,english_721.wav,0,1,175,22,4,Chinese,f,1,0.1,23.81304459,1.61361986
ZYX,84,1,2024-06-14T03:25:42.446Z,english_721.wav,0,1,175,22,4,Chinese,f,2,0.2,94.27532923,0.58045828
ZYX,84,1,2024-06-14T03:25:42.446Z,english_721.wav,0,1,175,22,4,Chinese,f,3,0.3,10.08520391,1.63757532
ZYX,84,1,2024-06-14T03:25:42.446Z,english_721.wav,0,1,175,22,4,Chinese,f,4,0.32341667,-26.68837018,1.4581473
ZYX,85,1,2024-06-14T03:25:42.446Z,english_916.wav,0,1,65,22,4,Chinese,f,0,0,-50.62314768,0.5519299
ZYX,85,1,2024-06-14T03:25:42.446Z,english_916.wav,0,1,65,22,4,Chinese,f,1,0.1,-52.55300278,1.16723516
ZYX,85,1,2024-06-14T03:25:42.446Z,english_916.wav,0,1,65,22,4,Chinese,f,2,0.2,54.298582,1.72376738
ZYX,85,1,2024-06-14T03:25:42.446Z,english_916.wav,0,1,65,22,4,Chinese,f,3,0.3,-23.99088857,0.41493786
ZYX,85,1,2024-06-14T03:25:42.446Z,english_916.wav,0,1,65,22,4,Chinese,f,4,0.32341667,4.88948607,1.97918138
ZYX,86,1,2024-06-14T03:25:42.446Z,english_31.wav,0,1,3186,22,4,Chinese,f,0,0,21.28810337,1.2057056
ZYX,86,1,2024-06-14T03:25:42.446Z,english_31.wav,0,1,3186,22,4,Chinese,f,1,0.1,68.821868,0.99381392
ZYX,86,1,2024-06-14T03:25:42.446Z,english_31.wav,0,1,3186,22,4,Chinese,f,2,0.2,-73.02143346,0.87600828
ZYX,86,1,2024-06-14T03:25:42.446Z,english_31.wav,0,1,3186,22,4,Chinese,f,3,0.3,68.60173581,1.15844697
ZYX,86,1,2024-06-14T03:25:42.446Z,english_31.wav,0,1,3186,22,4,Chinese,f,4,0.32341667,51.47999234,1.3722803
ZYX,87,1,2024-06-14T03:25:42.446Z,english_507.wav,0,1,160,22,4,Chinese,f,0,0,-61.1842488,1.97653192
ZYX,87,1,2024-06-14T03:25:42.446Z,english_507.wav,0,1,160,22,4,Chinese,f,1,0.1,-67.40048172,1.52355847
ZYX,87,1,2024-06-14T03:25:42.446Z,english_507.wav,0,1,160,22,4,Chinese,f,2,0.2,12.41471853,0.98006415
ZYX,87,1,2024-06-14T03:25:42.446Z,english_507.wav,0,1,160,22,4,Chinese,f,3,0.3,-23.82579329,0.44372312
ZYX,87,1,2024-06-14T03:25:42.446Z,english_507.wav,0,1,160,22,4,Chinese,f,4,0.32341667,9.53005369,0.65281453
ZYX,88,1,2024-06-14T03:25:42.446Z,english_104.wav,0,1,2817,22,4,Chinese,f,0,0,42.44693926,0.1741435
ZYX,88,1,2024-06-14T03:25:42.446Z,english_104.wav,0,1,2817,22,4,Chinese,f,1,0.1,82.22484934,0.11379641
ZYX,88,1,2024-06-14T03:25:42.446Z,english_104.wav,0,1,2817,22,4,Chinese,f,2,0.2,7.21737924,1.60376175
ZYX,88,1,2024-06-14T03:25:42.446Z,english_104.wav,0,1,2817,22,4,Chinese,f,3,0.3,26.54640215,1.08059257
ZYX,88,1,2024-06-14T03:25:42.446Z,english_104.wav,0,1,2817,22,4,Chinese,f,4,0.32341667,-33.4974026,1.8061622
ZYX,89,1,2024-06-14T03:25:42.446Z,english_228.wav,0,1,531,22,4,Chinese,f,0,0,10.35680964,1.81276751
ZYX,89,1,2024-06-14T03:25:42.446Z,english_228.wav,0,1,531,22,4,Chinese,f,1,0.1,-84.53961792,0.9819477
ZYX,89,1,2024-06-14T03:25:42.446Z,english_228.wav,0,1,531,22,4,Chinese,f,2,0.2,38.41788342,1.68506606
ZYX,89,1,2024-06-14T03:25:42.446Z,english_228.wav,0,1,531,22,4,Chinese,f,3,0.3,-9.18015311,0.19219142
ZYX,89,1,2024-06-14T03:25:42.446Z,english_228.wav,0,1,531,22,4,Chinese,f,4,0.32341667,-12.25744947,1.99636764
ZYX,90,1,2024-06-14T03:25:42.446Z,english_597.wav,0,1,1567,22,4,Chinese,f,0,0,-83.66792118,0.17389721
ZYX,90,1,2024-06-14T03:25:42.446Z,english_597.wav,0,1,1567,22,4,Chinese,f,1,0.1,-19.98744657,0.39349672
ZYX,90,1,2024-06-14T03:25:42.446Z,english_597.wav,0,1,1567,22,4,Chinese,f,2,0.2,-30.38458549,1.97590818
ZYX,90,1,2024-06-14T03:25:42.446Z,english_597.wav,0,1,1567,22,4,Chinese,f,3,0.3,-63.4406446,1.84988074
ZYX,90,1,2024-06-14T03:25:42.446Z,english_597.wav,0,1,1567,22,4,Chinese,f,4,0.32341667,25.67812426,1.17620678
ZYX,91,1,2024-06-14T03:25:42.446Z,english_169.wav,0,1,1402,22,4,Chinese,f,0,0,21.52556644,0.24747868
ZYX,91,1,2024-06-14T03:25:42.446Z,english_169.wav,0,1,1402,22,4,Chinese,f,1,0.1,-62.21960884,0.51530303
ZYX,91,1,2024-06-14T03:25:42.446Z,english_169.wav,0,1,1402,22,4,Chinese,f,2,0.2,-58.58818316,1.14352058
ZYX,91,1,2024-06-14T03:25:42.446Z,english_169.wav,0,1,1402,22,4,Chinese,f,3,0.3,14.95103608,1.46694059
ZYX,91,1,2024-06-14T03:25:42.446Z,english_169.wav,0,1,1402,22,4,Chinese,f,4,0.32341667,21.70814087,1.67980684
ZYX,92,1,2024-06-14T03:25:42.446Z,english_750.wav,0,1,1674,22,4,Chinese,f,0,0,54.68497377,0.76623701
ZYX,92,1,2024-06-14T03:25:42.446Z,english_750.wav,0,1,1674,22,4,Chinese,f,1,0.1,0.91792919,1.58478782
ZYX,92,1,2024-06-14T03:25:42.446Z,english_750.wav,0,1,1674,22,4,Chinese,f,2,0.2,-67.69423006,0.74884996
ZYX,92,1,2024-06-14T03:25:42.446Z,english_750.wav,0,1,1674,22,4,Chinese,f,3,0.3,20.92985273,0.15814923
ZYX,92,1,2024-06-14T03:25:42.446Z,english_750.wav,0,1,1674,22,4,Chinese,f,4,0.32341667,-39.60032316,1.58320499
ZYX,93,1,2024-06-14T03:25:42.446Z,english_960.wav,0,0,5260,22,4,Chinese,f,0,0,35.80457434,0.79357899
ZYX,93,1,2024-06-14T03:25:42.446Z,english_960.wav,0,0,5260,22,4,Chinese,f,1,0.1,-19.98469691,0.63900775
ZYX,93,1,2024-06-14T03:25:42.446Z,english_960.wav,0,0,5260,22,4,Chinese,f,2,0.2,-8.88025322,1.83966222
ZYX,93,1,2024-06-14T03:25:42.446Z,english_960.wav,0,0,5260,22,4,Chinese,f,3,0.3,6.59365348,1.05168668
ZYX,93,1,2024-06-14T03:25:42.446Z,english_960.wav,0,0,5260,22,4,Chinese,f,4,0.32341667,64.0885905,1.66020449
ZYX,94,1,2024-06-14T03:25:42.446Z,english_126.wav,0,0,6727,22,4,Chinese,f,0,0,-71.89060105,0.84485729
ZYX,94,1,2024-06-14T03:25:42.446Z,english_126.wav,0,0,6727,22,4,Chinese,f,1,0.1,-54.28004149,1.61340521
ZYX,94,1,2024-06-14T03:25:42.446Z,english_126.wav,0,0,6727,22,4,Chinese,f,2,0.2,67.0997098,1.10892805
ZYX,94,1,2024-06-14T03:25:42.446Z,english_126.wav,0,0,6727,22,4,Chinese,f,3,0.3,-96.31741745,1.20133652
ZYX,94,1,2024-06-14T03:25:42.446Z,english_126.wav,0,0,6727,22,4,Chinese,f,4,0.32341667,22.67293764,0.33470898
ZYX,95,1,2024-06-14T03:25:42.446Z,english_300.wav,0,1,104,22,4,Chinese,f,0,0,-57.32903368,1.31106943
ZYX,95,1,2024-06-14T03:25:42.446Z,english_300.wav,0,1,104,22,4,Chinese,f,1,0.1,-14.80176218,1.36432179
ZYX,95,1,2024-06-14T03:25:42.446Z,english_300.wav,0,1,104,22,4,Chinese,f,2,0.2,17.32090115,1.9756976
ZYX,95,1,2024-06-14T03:25:42.446Z,english_300.wav,0,1,104,22,4,Chinese,f,3,0.3,9.38584248,1.38621255
ZYX,95,1,2024-06-14T03:25:42.446Z,english_300.wav,0,1,104,22,4,Chinese,f,4,0.32341667,-54.58865419,1.60203422
ZYX,96,1,2024-06-14T03:25:42.446Z,english_8.wav,0,0,618,22,4,Chinese,f,0,0,-11.83025711,1.51300734
ZYX,96,1,2024-06-14T03:25:42.446Z,english_8.wav,0,0,618,22,4,Chinese,f,1,0.1,8.7470631,0.24000547
ZYX,96,1,2024-06-14T03:25:42.446Z,english_8.wav,0,0,618,22,4,Chinese,f,2,0.2,-15.41843982,1.17952525
ZYX,96,1,2024-06-14T03:25:42.446Z,english_8.wav,0,0,618,22,4,Chinese,f,3,0.3,-87.7437633,1.57032258
ZYX,96,1,2024-06-14T03:25:42.446Z,english_8.wav,0,0,618,22,4,Chinese,f,4,0.32341667,-40.85253846,0.7584977
ZYX,97,1,2024-06-14T03:25:42.446Z,english_660.wav,0,0,866,22,4,Chinese,f,0,0,-18.17224728,0.25133372
ZYX,97,1,2024-06-14T03:25:42.446Z,english_660.wav,0,0,866,22,4,Chinese,f,1,0.1,-51.94390165,0.1756709
ZYX,97,1,2024-06-14T03:25:42.446Z,english_660.wav,0,0,866,22,4,Chinese,f,2,0.2,-79.57293034,0.660284
ZYX,97,1,2024-06-14T03:25:42.446Z,english_660.wav,0,0,866,22,4,Chinese,f,3,0.3,67.99606973,1.08301436
ZYX,97,1,2024-06-14T03:25:42.446Z,english_660.wav,0,0,866,22,4,Chinese,f,4,0.32341667,-2.00416122,0.81155284
ZYX,98,1,2024-06-14T03:25:42.446Z,english_651.wav,0,0,3345,22,4,Chinese,f,0,0,94.66063372,0.16277223
ZYX,98,1,2024-06-14T03:25:42.446Z,english_651.wav,0,0,3345,22,4,Chinese,f,1,0.1,53.93234837,1.71236475
ZYX,98,1,2024-06-14T03:25:42.446Z,english_651.wav,0,0,3345,22,4,Chinese,f,2,0.2,-71.35755131,0.37376336
ZYX,98,1,2024-06-14T03:25:42.446Z,english_651.wav,0,0,3345,22,4,Chinese,f,3,0.3,50.84025958,0.80998932
ZYX,98,1,2024-06-14T03:25:42.446Z,english_651.wav,0,0,3345,22,4,Chinese,f,4,0.32341667,-24.67252949,0.23835763
ZYX,99,1,2024-06-14T03:25:42.446Z,english_514.wav,0,0,33,22,4,Chinese,f,0,0,-61.65105701,1.12509033
ZYX,99,1,2024-06-14T03:25:42.446Z,english_514.wav,0,0,33,22,4,Chinese,f,1,0.1,49.84264816,0.78701739
ZYX,99,1,2024-06-14T03:25:42.446Z,english_514.wav,0,0,33,22,4,Chinese,f,2,0.2,14.14440898,0.37052689
ZYX,99,1,2024-06-14T03:25:42.446Z,english_514.wav,0,0,33,22,4,Chinese,f,3,0.3,-30.10662908,1.42053426
ZYX,99,1,2024-06-14T03:25:42.446Z,english_514.wav,0,0,33,22,4,Chinese,f,4,0.32341667,90.48337022,1.94621598
ZYX,100,2,2024-06-14T03:25:42.446Z,english_603.wav,0,0,260,22,4,Chinese,f,0,0,-14.17444723,1.28295305
ZYX,100,2,2024-06-14T03:25:42.446Z,english_603.wav,0,0,260,22,4,Chinese,f,1,0.1,-4.64921339,0.35920956
ZYX,100,2,2024-06-14T03:25:42.446Z,english_603.wav,0,0,260,22,4,Chinese,f,2,0.2,-23.32469505,0.60281559
ZYX,100,2,2024-06-14T03:25:42.446Z,english_603.wav,0,0,260,22,4,Chinese,f,3,0.3,-59.01260874,0.58107079
ZYX,100,2,2024-06-14T03:25:42.446Z,english_603.wav,0,0,260,22,4,Chinese,f,4,0.32341667,88.53711532,1.19087365
ZYX,101,2,2024-06-14T03:25:42.446Z,english_148.wav,0,0,241,22,4,Chinese,f,0,0,-15.87588743,0.13468567
ZYX,101,2,2024-06-14T03:25:42.446Z,english_148.wav,0,0,241,22,4,Chinese,f,1,0.1,66.05332506,1.11017862
ZYX,101,2,2024-06-14T03:25:42.446Z,english_148.wav,0,0,241,22,4,Chinese,f,2,0.2,50.59551539,0.42983488
ZYX,101,2,2024-06-14T03:25:42.446Z,english_148.wav,0,0,241,22,4,Chinese,f,3,0.3,-59.45276716,0.2729575
ZYX,101,2,2024-06-14T03:25:42.446Z,english_148.wav,0,0,241,22,4,Chinese,f,4,0.32341667,58.4155276,0.65396017
ZYX,102,2,2024-06-14T03:25:42.446Z,english_971.wav,0,0,622,22,4,Chinese,f,0,0,27.0641734,0.01013217
ZYX,102,2,2024-06-14T03:25:42.446Z,english_971.wav,0,0,622,22,4,Chinese,f,1,0.1,-43.13434162,0.95424486
ZYX,102,2,2024-06-14T03:25:42.446Z,english_971.wav,0,0,622,22,4,Chinese,f,2,0.2,83.45364082,1.16332163
ZYX,102,2,2024-06-14T03:25:42.446Z,english_971.wav,0,0,622,22,4,Chinese,f,3,0.3,46.6736971,0.56494555
ZYX,102,2,2024-06-14T03:25:42.446Z,english_971.wav,0,0,622,22,4,Chinese,f,4,0.32341667,-28.9166607,0.73596031
ZYX,103,2,2024-06-14T03:25:42.446Z,english_189.wav,0,0,536,22,4,Chinese,f,0,0,-22.70456848,0.82906961
ZYX,103,2,2024-06-14T03:25:42.446Z,english_189.wav,0,0,536,22,4,Chinese,f,1,0.1,-12.00888723,0.58408113
ZYX,103,2,2024-06-14T03:25:42.446Z,english_189.wav,0,0,536,22,4,Chinese,f,2,0.2,15.14046376,0.19058783
ZYX,103,2,2024-06-14T03:25:42.446Z,english_189.wav,0,0,536,22,4,Chinese,f,3,0.3,-19.30106293,0.57788611
ZYX,103,2,2024-06-14T03:25:42.446Z,english_189.wav,0,0,536,22,4,Chinese,f,4,0.32341667,-20.57313834,0.32577637
ZYX,104,2,2024-06-14T03:25:42.446Z,english_716.wav,0,0,6799,22,4,Chinese,f,0,0,-41.01159081,1.70683796
ZYX,104,2,2024-06-14T03:25:42.446Z,english_716.wav,0,0,6799,22,4,Chinese,f,1,0.1,-51.78631031,1.57787804
ZYX,104,2,2024-06-14T03:25:42.446Z,english_716.wav,0,0,6799,22,4,Chinese,f,2,0.2,-25.7252513,1.76538287
ZYX,104,2,2024-06-14T03:25:42.446Z,english_716.wav,0,0,6799,22,4,Chinese,f,3,0.3,78.18950514,1.34280163
ZYX,104,2,2024-06-14T03:25:42.446Z,english_716.wav,0,0,6799,22,4,Chinese,f,4,0.32341667,-26.78025651,1.89346788
ZYX,105,2,2024-06-14T03:25:42.446Z,english_746.wav,0,1,9106,22,4,Chinese,f,0,0,-1.32395796,1.72273729
ZYX,105,2,2024-06-14T03:25:42.446Z,english_746.wav,0,1,9106,22,4,Chinese,f,1,0.1,-67.07117971,1.22961235
ZYX,105,2,2024-06-14T03:25:42.446Z,english_746.wav,0,1,9106,22,4,Chinese,f,2,0.2,75.09604974,1.29107068
ZYX,105,2,2024-06-14T03:25:42.446Z,english_746.wav,0,1,9106,22,4,Chinese,f,3,0.3,-48.59278454,1.34694816
ZYX,105,2,2024-06-14T03:25:42.446Z,english_746.wav,0,1,9106,22,4,Chinese,f,4,0.32341667,-6.52080997,0.94274536
ZYX,106,2,2024-06-14T03:25:42.446Z,english_257.wav,0,1,84,22,4,Chinese,f,0,0,-68.31428674,1.40239735
ZYX,106,2,2024-06-14T03:25:42.446Z,english_257.wav,0,1,84,22,4,Chinese,f,1,0.1,-13.90908686,1.49673114
ZYX,106,2,2024-06-14T03:25:42.446Z,english_257.wav,0,1,84,22,4,Chinese,f,2,0.2,54.08743226,1.07658057
ZYX,106,2,2024-06-14T03:25:42.446Z,english_257.wav,0,1,84,22,4,Chinese,f,3,0.3,-42.73693867,0.27427112
ZYX,106,2,2024-06-14T03:25:42.446Z,english_257.wav,0,1,84,22,4,Chinese,f,4,0.32341667,-1.03846516,1.90516482
ZYX,107,2,2024-06-14T03:25:42.446Z,english_967.wav,0,1,910,22,4,Chinese,f,0,0,-33.19777689,0.76720641
ZYX,107,2,2024-06-14T03:25:42.446Z,english_967.wav,0,1,910,22,4,Chinese,f,1,0.1,83.84847924,1.4094361
ZYX,107,2,2024-06-14T03:25:42.446Z,english_967.wav,0,1,910,22,4,Chinese,f,2,0.2,81.27362124,0.74435637
ZYX,107,2,2024-06-14T03:25:42.446Z,english_967.wav,0,1,910,22,4,Chinese,f,3,0.3,22.78466805,0.29904584
ZYX,107,2,2024-06-14T03:25:42.446Z,english_967.wav,0,1,910,22,4,Chinese,f,4,0.32341667,16.56894366,0.47687807
ZYX,108,2,2024-06-14T03:25:42.446Z,english_533.wav,0,1,112,22,4,Chinese,f,0,0,-10.36570298,0.10013008
ZYX,108,2,2024-06-14T03:25:42.446Z,english_533.wav,0,1,112,22,4,Chinese,f,1,0.1,-67.04420928,1.73583104
ZYX,108,2,2024-06-14T03:25:42.446Z,english_533.wav,0,1,112,22,4,Chinese,f,2,0.2,-31.24691396,1.00550506
ZYX,108,2,2024-06-14T03:25:42.446Z,english_533.wav,0,1,112,22,4,Chinese,f,3,0.3,-22.73912087,1.21009828
ZYX,108,2,2024-06-14T03:25:42.446Z,english_533.wav,0,1,112,22,4,Chinese,f,4,0.32341667,-4.63915005,1.69946188
ZYX,109,2,2024-06-14T03:25:42.446Z,english_832.wav,0,1,805,22,4,Chinese,f,0,0,-21.62855277,1.31372842
ZYX,109,2,2024-06-14T03:25:42.446Z,english_832.wav,0,1,805,22,4,Chinese,f,1,0.1,-35.3834786,1.55258378
ZYX,109,2,2024-06-14T03:25:42.446Z,english_832.wav,0,1,805,22,4,Chinese,f,2,0.2,52.65867494,1.50567803
ZYX,109,2,2024-06-14T03:25:42.446Z,english_832.wav,0,1,805,22,4,Chinese,f,3,0.3,62.52082964,1.2163301
ZYX,109,2,2024-06-14T03:25:42.446Z,english_832.wav,0,1,805,22,4,Chinese,f,4,0.32341667,46.66062952,1.20100353
ZYX,110,2,2024-06-14T03:25:42.446Z,english_347.wav,0,1,85,22,4,Chinese,f,0,0,34.89178431,1.32203506
ZYX,110,2,2024-06-14T03:25:42.446Z,english_347.wav,0,1,85,22,4,Chinese,f,1,0.1,53.24978685,0.28714436
ZYX,110,2,2024-06-14T03:25:42.446Z,english_347.wav,0,1,85,22,4,Chinese,f,2,0.2,4.11185022,1.66093526
ZYX,110,2,2024-06-14T03:25:42.446Z,english_347.wav,0,1,85,22,4,Chinese,f,3,0.3,89.26663646,1.29826057
ZYX,110,2,2024-06-14T03:25:42.446Z,english_347.wav,0,1,85,22,4,Chinese,f,4,0.32341667,-53.02646266,0.05504814
ZYX,111,2,2024-06-14T03:25:42.446Z,english_94.wav,0,1,580,22,4,Chinese,f,0,0,-78.50776969,1.58967719
ZYX,111,2,2024-06-14T03:25:42.446Z,english_94.wav,0,1,580,22,4,Chinese,f,1,0.1,21.81048112,0.88841047
ZYX,111,2,2024-06-14T03:25:42.446Z,english_94.wav,0,1,580,22,4,Chinese,f,2,0.2,76.78230264,1.12549424
ZYX,111,2,2024-06-14T03:25:42.446Z,english_94.wav,0,1,580,22,4,Chinese,f,3,0.3,-35.62145712,1.80621507
ZYX,111,2,2024-06-14T03:25:42.446Z,english_94.wav,0,1,580,22,4,Chinese,f,4,0.32341667,-71.39427505,1.00879957
ZYX,112,2,2024-06-14T03:25:42.446Z,english_311.wav,0,1,2798,22,4,Chinese,f,0,0,-35.59355899,0.16094856
ZYX,112,2,2024-06-14T03:25:42.446Z,english_311.wav,0,1,2798,22,4,Chinese,f,1,0.1,-50.39310557,1.33895436
ZYX,112,2,2024-06-14T03:25:42.446Z,english_311.wav,0,1,2798,22,4,Chinese,f,2,0.2,-53.37222601,0.01028283
ZYX,112,2,2024-06-14T03:25:42.446Z,english_311.wav,0,1,2798,22,4,Chinese,f,3,0.3,72.25802658,0.48497386
ZYX,112,2,2024-06-14T03:25:42.446Z,english_311.wav,0,1,2798,22,4,Chinese,f,4,0.32341667,48.72421008,0.48591183
ZYX,113,2,2024-06-14T03:25:42.446Z,english_611.wav,0,1,417,22,4,Chinese,f,0,0,4.04989913,1.48647041
ZYX,113,2,2024-06-14T03:25:42.446Z,english_611.wav,0,1,417,22,4,Chinese,f,1,0.1,-26.35519993,0.87297853
ZYX,113,2,2024-06-14T03:25:42.446Z,english_611.wav,0,1,417,22,4,Chinese,f,2,0.2,-41.22744209,0.91907267
ZYX,113,2,2024-06-14T03:25:42.446Z,english_611.wav,0,1,417,22,4,Chinese,f,3,0.3,-72.41198747,0.12624761
ZYX,113,2,2024-06-14T03:25:42.446Z,english_611.wav,0,1,417,22,4,Chinese,f,4,0.32341667,-60.09703168,0.964981
ZYX,114,2,2024-06-14T03:25:42.446Z,english_939.wav,0,1,100,22,4,Chinese,f,0,0,-23.2558256,0.1774722
ZYX,114,2,2024-06-14T03:25:42.446Z,english_939.wav,0,1,100,22,4,Chinese,f,1,0.1,-16.62065377,0.56271239
ZYX,114,2,2024-06-14T03:25:42.446Z,english_939.wav,0,1,100,22,4,Chinese,f,2,0.2,-49.54734698,1.42782479
ZYX,114,2,2024-06-14T03:25:42.446Z,english_939.wav,0,1,100,22,4,Chinese,f,3,0.3,22.82101289,0.76516147
ZYX,114,2,2024-06-14T03:25:42.446Z,english_939.wav,0,1,100,22,4,Chinese,f,4,0.32341667,28.63490654,1.70219777
ZYX,115,2,2024-06-14T03:25:42.446Z,english_97.wav,0,1,1066,22,4,Chinese,f,0,0,57.21139396,1.63402743
ZYX,115,2,2024-06-14T03:25:42.446Z,english_97.wav,0,1,1066,22,4,Chinese,f,1,0.1,-7.40408397,0.54734888
ZYX,115,2,2024-06-14T03:25:42.446Z,english_97.wav,0,1,1066,22,4,Chinese,f,2,0.2,77.7995227,1.5228594
ZYX,115,2,2024-06-14T03:25:42.446Z,english_97.wav,0,1,1066,22,4,Chinese,f,3,0.3,-51.1747528,1.13050105
ZYX,115,2,2024-06-14T03:25:42.446Z,english_97.wav,0,1,1066,22,4,Chinese,f,4,0.32341667,77.11982253,0.82586999
ZYX,116,2,2024-06-14T03:25:42.446Z,english_562.wav,0,1,161,22,4,Chinese,f,0,0,-40.22672309,0.64031882
ZYX,116,2,2024-06-14T03:25:42.446Z,english_562.wav,0,1,161,22,4,Chinese,f,1,0.1,77.961849,0.7637006
ZYX,116,2,2024-06-14T03:25:42.446Z,english_562.wav,0,1,161,22,4,Chinese,f,2,0.2,25.52463525,0.87632482
ZYX,116,2,2024-06-14T03:25:42.446Z,english_562.wav,0,1,161,22,4,Chinese,f,3,0.3,84.62788358,0.98972612
ZYX,116,2,2024-06-14T03:25:42.446Z,english_562.wav,0,1,161,22,4,Chinese,f,4,0.32341667,-53.67427145,0.74010285
ZYX,117,2,2024-06-14T03:25:42.446Z,english_440.wav,0,1,6185,22,4,Chinese,f,0,0,44.70308901,1.51497438
ZYX,117,2,2024-06-14T03:25:42.446Z,english_440.wav,0,1,6185,22,4,Chinese,f,1,0.1,-88.0257567,1.05972447
ZYX,117,2,2024-06-14T03:25:42.446Z,english_440.wav,0,1,6185,22,4,Chinese,f,2,0.2,1.19893433,0.590820378
ZYX,117,2,2024-06-14T03:25:42.446Z,english_440.wav,0,1,6185,22,4,Chinese,f,3,0.3,19.45485395,0.680586803
ZYX,117,2,2024-06-14T03:25:42.446Z,english_440.wav,0,1,6185,22,4,Chinese,f,4,0.32341667,13.00088222,0.000618341324
ZYX,118,2,2024-06-14T03:25:42.446Z,english_479.wav,0,1,380,22,4,Chinese,f,0,0,74.98268857,0.98081986
ZYX,118,2,2024-06-14T03:25:42.446Z,english_479.wav,0,1,380,22,4,Chinese,f,1,0.1,16.03290679,0.71187618
ZYX,118,2,2024-06-14T03:25:42.446Z,english_479.wav,0,1,380,22,4,Chinese,f,2,0.2,78.97784812,0.27050369
ZYX,118,2,2024-06-14T03:25:42.446Z,english_479.wav,0,1,380,22,4,Chinese,f,3,0.3,-15.63843586,1.15797271
ZYX,118,2,2024-06-14T03:25:42.446Z,english_479.wav,0,1,380,22,4,Chinese,f,4,0.32341667,42.04802753,1.51318639
ZYX,119,2,2024-06-14T03:25:42.446Z,english_5.wav,0,1,13491,22,4,Chinese,f,0,0,-15.92383461,0.27445408
ZYX,119,2,2024-06-14T03:25:42.446Z,english_5.wav,0,1,13491,22,4,Chinese,f,1,0.1,-20.01914587,0.54328549
ZYX,119,2,2024-06-14T03:25:42.446Z,english_5.wav,0,1,13491,22,4,Chinese,f,2,0.2,40.70457056,0.32172142
ZYX,119,2,2024-06-14T03:25:42.446Z,english_5.wav,0,1,13491,22,4,Chinese,f,3,0.3,-94.67131236,1.15903644
ZYX,119,2,2024-06-14T03:25:42.446Z,english_5.wav,0,1,13491,22,4,Chinese,f,4,0.32341667,-88.33027294,0.94870148
ZYX,120,2,2024-06-14T03:25:42.446Z,english_895.wav,0,1,3014,22,4,Chinese,f,0,0,-36.05432491,1.57991636
ZYX,120,2,2024-06-14T03:25:42.446Z,english_895.wav,0,1,3014,22,4,Chinese,f,1,0.1,0.27991529,1.29141926
ZYX,120,2,2024-06-14T03:25:42.446Z,english_895.wav,0,1,3014,22,4,Chinese,f,2,0.2,-68.50060493,0.78617821
ZYX,120,2,2024-06-14T03:25:42.446Z,english_895.wav,0,1,3014,22,4,Chinese,f,3,0.3,-65.34452755,0.53071912
ZYX,120,2,2024-06-14T03:25:42.446Z,english_895.wav,0,1,3014,22,4,Chinese,f,4,0.32341667,44.30205494,1.44568828
ZYX,121,2,2024-06-14T03:25:42.446Z,english_325.wav,0,1,364,22,4,Chinese,f,0,0,-36.86035688,0.2784687
ZYX,121,2,2024-06-14T03:25:42.446Z,english_325.wav,0,1,364,22,4,Chinese,f,1,0.1,-55.38569655,1.41229923
ZYX,121,2,2024-06-14T03:25:42.446Z,english_325.wav,0,1,364,22,4,Chinese,f,2,0.2,-56.86017215,0.83316938
ZYX,121,2,2024-06-14T03:25:42.446Z,english_325.wav,0,1,364,22,4,Chinese,f,3,0.3,-98.19449268,0.3465596
ZYX,121,2,2024-06-14T03:25:42.446Z,english_325.wav,0,1,364,22,4,Chinese,f,4,0.32341667,-6.42447902,1.41863786
ZYX,122,2,2024-06-14T03:25:42.446Z,english_468.wav,0,1,7237,22,4,Chinese,f,0,0,-33.82586043,0.35164089
ZYX,122,2,2024-06-14T03:25:42.446Z,english_468.wav,0,1,7237,22,4,Chinese,f,1,0.1,-42.55840131,0.20114733
ZYX,122,2,2024-06-14T03:25:42.446Z,english_468.wav,0,1,7237,22,4,Chinese,f,2,0.2,-36.6492295,1.40729654
ZYX,122,2,2024-06-14T03:25:42.446Z,english_468.wav,0,1,7237,22,4,Chinese,f,3,0.3,39.91321296,0.04300573
ZYX,122,2,2024-06-14T03:25:42.446Z,english_468.wav,0,1,7237,22,4,Chinese,f,4,0.32341667,54.14936319,1.79642733
ZYX,123,2,2024-06-14T03:25:42.446Z,english_596.wav,0,1,2115,22,4,Chinese,f,0,0,90.29147433,0.88361056
ZYX,123,2,2024-06-14T03:25:42.446Z,english_596.wav,0,1,2115,22,4,Chinese,f,1,0.1,12.52853873,0.63799557
ZYX,123,2,2024-06-14T03:25:42.446Z,english_596.wav,0,1,2115,22,4,Chinese,f,2,0.2,50.53853174,0.09787331
ZYX,123,2,2024-06-14T03:25:42.446Z,english_596.wav,0,1,2115,22,4,Chinese,f,3,0.3,-77.3590695,1.15168959
ZYX,123,2,2024-06-14T03:25:42.446Z,english_596.wav,0,1,2115,22,4,Chinese,f,4,0.32341667,-1.65440801,0.06773829
ZYX,124,2,2024-06-14T03:25:42.446Z,english_144.wav,0,1,557,22,4,Chinese,f,0,0,-68.95587174,0.23806678
ZYX,124,2,2024-06-14T03:25:42.446Z,english_144.wav,0,1,557,22,4,Chinese,f,1,0.1,-74.16141139,0.77020267
ZYX,124,2,2024-06-14T03:25:42.446Z,english_144.wav,0,1,557,22,4,Chinese,f,2,0.2,-19.31034794,0.33858197
ZYX,124,2,2024-06-14T03:25:42.446Z,english_144.wav,0,1,557,22,4,Chinese,f,3,0.3,-77.96768175,1.42512122
ZYX,124,2,2024-06-14T03:25:42.446Z,english_144.wav,0,1,557,22,4,Chinese,f,4,0.32341667,3.46911061,0.57629619
ZYX,125,2,2024-06-14T03:25:42.446Z,english_193.wav,0,1,22651,22,4,Chinese,f,0,0,98.63199606,1.10219899
ZYX,125,2,2024-06-14T03:25:42.446Z,english_193.wav,0,1,22651,22,4,Chinese,f,1,0.1,38.06859183,1.75752318
ZYX,125,2,2024-06-14T03:25:42.446Z,english_193.wav,0,1,22651,22,4,Chinese,f,2,0.2,58.19309996,1.8701857
ZYX,125,2,2024-06-14T03:25:42.446Z,english_193.wav,0,1,22651,22,4,Chinese,f,3,0.3,70.68425501,1.90449871
ZYX,125,2,2024-06-14T03:25:42.446Z,english_193.wav,0,1,22651,22,4,Chinese,f,4,0.32341667,89.06926868,1.70479661
ZYX,126,2,2024-06-14T03:25:42.446Z,english_701.wav,0,1,174,22,4,Chinese,f,0,0,87.15265727,1.41120649
ZYX,126,2,2024-06-14T03:25:42.446Z,english_701.wav,0,1,174,22,4,Chinese,f,1,0.1,38.39882515,0.44004622
ZYX,126,2,2024-06-14T03:25:42.446Z,english_701.wav,0,1,174,22,4,Chinese,f,2,0.2,64.60201562,1.15462264
ZYX,126,2,2024-06-14T03:25:42.446Z,english_701.wav,0,1,174,22,4,Chinese,f,3,0.3,12.58613119,1.17454355
ZYX,126,2,2024-06-14T03:25:42.446Z,english_701.wav,0,1,174,22,4,Chinese,f,4,0.32341667,46.94968762,1.38716818
ZYX,127,2,2024-06-14T03:25:42.446Z,english_177.wav,0,1,212,22,4,Chinese,f,0,0,87.98258728,1.54790065
ZYX,127,2,2024-06-14T03:25:42.446Z,english_177.wav,0,1,212,22,4,Chinese,f,1,0.1,87.12011565,0.90861448
ZYX,127,2,2024-06-14T03:25:42.446Z,english_177.wav,0,1,212,22,4,Chinese,f,2,0.2,-29.82518494,0.58649069
ZYX,127,2,2024-06-14T03:25:42.446Z,english_177.wav,0,1,212,22,4,Chinese,f,3,0.3,54.38835911,0.51296238
ZYX,127,2,2024-06-14T03:25:42.446Z,english_177.wav,0,1,212,22,4,Chinese,f,4,0.32341667,53.98423531,1.78492888
ZYX,128,2,2024-06-14T03:25:42.446Z,english_707.wav,0,1,5100,22,4,Chinese,f,0,0,-17.04120346,1.06535483
ZYX,128,2,2024-06-14T03:25:42.446Z,english_707.wav,0,1,5100,22,4,Chinese,f,1,0.1,-57.44917128,0.89541794
ZYX,128,2,2024-06-14T03:25:42.446Z,english_707.wav,0,1,5100,22,4,Chinese,f,2,0.2,90.75848643,1.64838001
ZYX,128,2,2024-06-14T03:25:42.446Z,english_707.wav,0,1,5100,22,4,Chinese,f,3,0.3,96.79852424,0.75431717
ZYX,128,2,2024-06-14T03:25:42.446Z,english_707.wav,0,1,5100,22,4,Chinese,f,4,0.32341667,27.01716591,0.48082071
ZYX,129,2,2024-06-14T03:25:42.446Z,english_186.wav,0,1,4905,22,4,Chinese,f,0,0,-54.7664391,1.87021502
ZYX,129,2,2024-06-14T03:25:42.446Z,english_186.wav,0,1,4905,22,4,Chinese,f,1,0.1,-8.4263529,1.36390049
ZYX,129,2,2024-06-14T03:25:42.446Z,english_186.wav,0,1,4905,22,4,Chinese,f,2,0.2,6.22451559,1.69942617
ZYX,129,2,2024-06-14T03:25:42.446Z,english_186.wav,0,1,4905,22,4,Chinese,f,3,0.3,-12.35671223,1.8066537
ZYX,129,2,2024-06-14T03:25:42.446Z,english_186.wav,0,1,4905,22,4,Chinese,f,4,0.32341667,86.21839615,1.2511354
ZYX,130,2,2024-06-14T03:25:42.446Z,english_434.wav,0,1,14797,22,4,Chinese,f,0,0,-4.12787863,0.96421208
ZYX,130,2,2024-06-14T03:25:42.446Z,english_434.wav,0,1,14797,22,4,Chinese,f,1,0.1,-30.19441281,1.08561731
ZYX,130,2,2024-06-14T03:25:42.446Z,english_434.wav,0,1,14797,22,4,Chinese,f,2,0.2,41.04377471,1.46356301
ZYX,130,2,2024-06-14T03:25:42.446Z,english_434.wav,0,1,14797,22,4,Chinese,f,3,0.3,-32.43591961,0.25116585
ZYX,130,2,2024-06-14T03:25:42.446Z,english_434.wav,0,1,14797,22,4,Chinese,f,4,0.32341667,61.53108406,0.73120458
ZYX,131,2,2024-06-14T03:25:42.446Z,english_26.wav,0,1,21059,22,4,Chinese,f,0,0,54.38966875,1.86679487
ZYX,131,2,2024-06-14T03:25:42.446Z,english_26.wav,0,1,21059,22,4,Chinese,f,1,0.1,0.3460174,0.79762949
ZYX,131,2,2024-06-14T03:25:42.446Z,english_26.wav,0,1,21059,22,4,Chinese,f,2,0.2,-72.33258957,0.93682052
ZYX,131,2,2024-06-14T03:25:42.446Z,english_26.wav,0,1,21059,22,4,Chinese,f,3,0.3,67.09142092,1.42469209
ZYX,131,2,2024-06-14T03:25:42.446Z,english_26.wav,0,1,21059,22,4,Chinese,f,4,0.32341667,16.00565239,1.17807545
ZYX,132,2,2024-06-14T03:25:42.446Z,english_77.wav,0,1,505,22,4,Chinese,f,0,0,-72.40491727,0.02183184
ZYX,132,2,2024-06-14T03:25:42.446Z,english_77.wav,0,1,505,22,4,Chinese,f,1,0.1,8.82020558,1.36505393
ZYX,132,2,2024-06-14T03:25:42.446Z,english_77.wav,0,1,505,22,4,Chinese,f,2,0.2,89.28229375,1.34112472
ZYX,132,2,2024-06-14T03:25:42.446Z,english_77.wav,0,1,505,22,4,Chinese,f,3,0.3,-14.39120814,0.45737201
ZYX,132,2,2024-06-14T03:25:42.446Z,english_77.wav,0,1,505,22,4,Chinese,f,4,0.32341667,0.18022976,1.1673494
ZYX,133,2,2024-06-14T03:25:42.446Z,english_670.wav,0,1,263,22,4,Chinese,f,0,0,64.75672565,1.5535903
ZYX,133,2,2024-06-14T03:25:42.446Z,english_670.wav,0,1,263,22,4,Chinese,f,1,0.1,85.95156369,0.12522594
ZYX,133,2,2024-06-14T03:25:42.446Z,english_670.wav,0,1,263,22,4,Chinese,f,2,0.2,-44.32949438,0.22842632
ZYX,133,2,2024-06-14T03:25:42.446Z,english_670.wav,0,1,263,22,4,Chinese,f,3,0.3,22.57192219,0.17636502
ZYX,133,2,2024-06-14T03:25:42.446Z,english_670.wav,0,1,263,22,4,Chinese,f,4,0.32341667,34.74005277,0.16208776
ZYX,134,2,2024-06-14T03:25:42.446Z,english_972.wav,0,1,40,22,4,Chinese,f,0,0,-87.82800068,1.28286493
ZYX,134,2,2024-06-14T03:25:42.446Z,english_972.wav,0,1,40,22,4,Chinese,f,1,0.1,-25.45661385,0.89058027
ZYX,134,2,2024-06-14T03:25:42.446Z,english_972.wav,0,1,40,22,4,Chinese,f,2,0.2,2.95853851,1.4716374
ZYX,134,2,2024-06-14T03:25:42.446Z,english_972.wav,0,1,40,22,4,Chinese,f,3,0.3,84.61583696,0.6386035
ZYX,134,2,2024-06-14T03:25:42.446Z,english_972.wav,0,1,40,22,4,Chinese,f,4,0.32341667,42.95706616,1.51056083
ZYX,135,2,2024-06-14T03:25:42.446Z,english_634.wav,0,1,249,22,4,Chinese,f,0,0,-94.29539956,0.6011183
ZYX,135,2,2024-06-14T03:25:42.446Z,english_634.wav,0,1,249,22,4,Chinese,f,1,0.1,28.41708136,1.15242669
ZYX,135,2,2024-06-14T03:25:42.446Z,english_634.wav,0,1,249,22,4,Chinese,f,2,0.2,-99.13935281,0.68826906
ZYX,135,2,2024-06-14T03:25:42.446Z,english_634.wav,0,1,249,22,4,Chinese,f,3,0.3,-78.11216949,1.44169335
ZYX,135,2,2024-06-14T03:25:42.446Z,english_634.wav,0,1,249,22,4,Chinese,f,4,0.32341667,-54.5881907,0.90266094
ZYX,136,2,2024-06-14T03:25:42.446Z,english_19.wav,0,1,395,22,4,Chinese,f,0,0,51.84788699,0.3981759
ZYX,136,2,2024-06-14T03:25:42.446Z,english_19.wav,0,1,395,22,4,Chinese,f,1,0.1,59.68091475,1.61217409
ZYX,136,2,2024-06-14T03:25:42.446Z,english_19.wav,0,1,395,22,4,Chinese,f,2,0.2,-27.71167756,0.35158216
ZYX,136,2,2024-06-14T03:25:42.446Z,english_19.wav,0,1,395,22,4,Chinese,f,3,0.3,-29.56443604,0.8770992
ZYX,136,2,2024-06-14T03:25:42.446Z,english_19.wav,0,1,395,22,4,Chinese,f,4,0.32341667,-58.55228515,0.51670124
ZYX,137,2,2024-06-14T03:25:42.446Z,english_550.wav,0,1,2369,22,4,Chinese,f,0,0,19.46608022,0.78600887
ZYX,137,2,2024-06-14T03:25:42.446Z,english_550.wav,0,1,2369,22,4,Chinese,f,1,0.1,-94.3556307,1.03273328
ZYX,137,2,2024-06-14T03:25:42.446Z,english_550.wav,0,1,2369,22,4,Chinese,f,2,0.2,-80.90695222,0.36941932
ZYX,137,2,2024-06-14T03:25:42.446Z,english_550.wav,0,1,2369,22,4,Chinese,f,3,0.3,-65.36230075,0.47038634
ZYX,137,2,2024-06-14T03:25:42.446Z,english_550.wav,0,1,2369,22,4,Chinese,f,4,0.32341667,-18.45722395,0.11798167
ZYX,138,2,2024-06-14T03:25:42.446Z,english_582.wav,0,1,342,22,4,Chinese,f,0,0,-29.81423477,0.27230029
ZYX,138,2,2024-06-14T03:25:42.446Z,english_582.wav,0,1,342,22,4,Chinese,f,1,0.1,37.42565533,0.84765039
ZYX,138,2,2024-06-14T03:25:42.446Z,english_582.wav,0,1,342,22,4,Chinese,f,2,0.2,79.58894888,1.99526631
ZYX,138,2,2024-06-14T03:25:42.446Z,english_582.wav,0,1,342,22,4,Chinese,f,3,0.3,49.55779855,1.55519667
ZYX,138,2,2024-06-14T03:25:42.446Z,english_582.wav,0,1,342,22,4,Chinese,f,4,0.32341667,54.00509918,1.66653349
ZYX,139,2,2024-06-14T03:25:42.446Z,english_834.wav,0,1,1867,22,4,Chinese,f,0,0,-64.94927172,0.98752234
ZYX,139,2,2024-06-14T03:25:42.446Z,english_834.wav,0,1,1867,22,4,Chinese,f,1,0.1,49.61052881,1.31122352
ZYX,139,2,2024-06-14T03:25:42.446Z,english_834.wav,0,1,1867,22,4,Chinese,f,2,0.2,-25.04715585,0.09065599
ZYX,139,2,2024-06-14T03:25:42.446Z,english_834.wav,0,1,1867,22,4,Chinese,f,3,0.3,95.09819394,1.07854905
ZYX,139,2,2024-06-14T03:25:42.446Z,english_834.wav,0,1,1867,22,4,Chinese,f,4,0.32341667,84.16953653,1.76453498
ZYX,140,2,2024-06-14T03:25:42.446Z,english_87.wav,0,1,241,22,4,Chinese,f,0,0,54.83056612,1.56132998
ZYX,140,2,2024-06-14T03:25:42.446Z,english_87.wav,0,1,241,22,4,Chinese,f,1,0.1,56.31531505,1.28614089
ZYX,140,2,2024-06-14T03:25:42.446Z,english_87.wav,0,1,241,22,4,Chinese,f,2,0.2,-65.55002777,1.44579989
ZYX,140,2,2024-06-14T03:25:42.446Z,english_87.wav,0,1,241,22,4,Chinese,f,3,0.3,-25.15788212,0.3607766
ZYX,140,2,2024-06-14T03:25:42.446Z,english_87.wav,0,1,241,22,4,Chinese,f,4,0.32341667,22.72349562,0.17745198
ZYX,141,2,2024-06-14T03:25:42.446Z,english_873.wav,0,1,1465,22,4,Chinese,f,0,0,85.43762199,1.00056931
ZYX,141,2,2024-06-14T03:25:42.446Z,english_873.wav,0,1,1465,22,4,Chinese,f,1,0.1,-27.24751419,0.47504393
ZYX,141,2,2024-06-14T03:25:42.446Z,english_873.wav,0,1,1465,22,4,Chinese,f,2,0.2,-8.79829555,0.788147
ZYX,141,2,2024-06-14T03:25:42.446Z,english_873.wav,0,1,1465,22,4,Chinese,f,3,0.3,-97.88620301,0.64075463
ZYX,141,2,2024-06-14T03:25:42.446Z,english_873.wav,0,1,1465,22,4,Chinese,f,4,0.32341667,49.57089273,0.87603086
ZYX,142,2,2024-06-14T03:25:42.446Z,english_59.wav,0,1,620,22,4,Chinese,f,0,0,30.26604033,1.5973148
ZYX,142,2,2024-06-14T03:25:42.446Z,english_59.wav,0,1,620,22,4,Chinese,f,1,0.1,25.69112756,0.24758472
ZYX,142,2,2024-06-14T03:25:42.446Z,english_59.wav,0,1,620,22,4,Chinese,f,2,0.2,-24.85549033,0.1547886
ZYX,142,2,2024-06-14T03:25:42.446Z,english_59.wav,0,1,620,22,4,Chinese,f,3,0.3,-31.2790444,0.30754036
ZYX,142,2,2024-06-14T03:25:42.446Z,english_59.wav,0,1,620,22,4,Chinese,f,4,0.32341667,86.30355152,0.40312024
ZYX,143,2,2024-06-14T03:25:42.446Z,english_935.wav,0,1,116,22,4,Chinese,f,0,0,64.39543101,0.53440609
ZYX,143,2,2024-06-14T03:25:42.446Z,english_935.wav,0,1,116,22,4,Chinese,f,1,0.1,86.95314533,0.5847186
ZYX,143,2,2024-06-14T03:25:42.446Z,english_935.wav,0,1,116,22,4,Chinese,f,2,0.2,-18.93400703,0.87093815
ZYX,143,2,2024-06-14T03:25:42.446Z,english_935.wav,0,1,116,22,4,Chinese,f,3,0.3,36.25821345,1.35336039
ZYX,143,2,2024-06-14T03:25:42.446Z,english_935.wav,0,1,116,22,4,Chinese,f,4,0.32341667,-52.75689815,1.46825192
ZYX,144,2,2024-06-14T03:25:42.446Z,english_293.wav,0,1,29,22,4,Chinese,f,0,0,-22.15906653,1.76366583
ZYX,144,2,2024-06-14T03:25:42.446Z,english_293.wav,0,1,29,22,4,Chinese,f,1,0.1,-88.62057809,0.55660069
ZYX,144,2,2024-06-14T03:25:42.446Z,english_293.wav,0,1,29,22,4,Chinese,f,2,0.2,-18.47979893,1.17282558
ZYX,144,2,2024-06-14T03:25:42.446Z,english_293.wav,0,1,29,22,4,Chinese,f,3,0.3,-74.2852497,0.49477424
ZYX,144,2,2024-06-14T03:25:42.446Z,english_293.wav,0,1,29,22,4,Chinese,f,4,0.32341667,59.45323022,0.66659794
ZYX,145,2,2024-06-14T03:25:42.446Z,english_570.wav,0,1,2265,22,4,Chinese,f,0,0,79.72420881,1.67561776
ZYX,145,2,2024-06-14T03:25:42.446Z,english_570.wav,0,1,2265,22,4,Chinese,f,1,0.1,-10.34227762,1.50139893
ZYX,145,2,2024-06-14T03:25:42.446Z,english_570.wav,0,1,2265,22,4,Chinese,f,2,0.2,18.32754659,1.41834695
ZYX,145,2,2024-06-14T03:25:42.446Z,english_570.wav,0,1,2265,22,4,Chinese,f,3,0.3,15.23919529,1.12876239
ZYX,145,2,2024-06-14T03:25:42.446Z,english_570.wav,0,1,2265,22,4,Chinese,f,4,0.32341667,-28.05357781,0.72546523
ZYX,146,2,2024-06-14T03:25:42.446Z,english_753.wav,0,1,72,22,4,Chinese,f,0,0,38.61944715,0.75641923
ZYX,146,2,2024-06-14T03:25:42.446Z,english_753.wav,0,1,72,22,4,Chinese,f,1,0.1,-76.3398938,1.17320485
ZYX,146,2,2024-06-14T03:25:42.446Z,english_753.wav,0,1,72,22,4,Chinese,f,2,0.2,-80.92813522,0.63072958
ZYX,146,2,2024-06-14T03:25:42.446Z,english_753.wav,0,1,72,22,4,Chinese,f,3,0.3,-16.48508052,1.96252246
ZYX,146,2,2024-06-14T03:25:42.446Z,english_753.wav,0,1,72,22,4,Chinese,f,4,0.32341667,16.23487259,1.97125296
ZYX,147,2,2024-06-14T03:25:42.446Z,english_495.wav,0,1,213,22,4,Chinese,f,0,0,-5.58861003,1.32978923
ZYX,147,2,2024-06-14T03:25:42.446Z,english_495.wav,0,1,213,22,4,Chinese,f,1,0.1,8.95176437,0.81778757
ZYX,147,2,2024-06-14T03:25:42.446Z,english_495.wav,0,1,213,22,4,Chinese,f,2,0.2,39.42206983,0.66481361
ZYX,147,2,2024-06-14T03:25:42.446Z,english_495.wav,0,1,213,22,4,Chinese,f,3,0.3,-84.38976819,0.35850052
ZYX,147,2,2024-06-14T03:25:42.446Z,english_495.wav,0,1,213,22,4,Chinese,f,4,0.32341667,-2.90431636,0.23899864
ZYX,148,2,2024-06-14T03:25:42.446Z,english_217.wav,0,1,60,22,4,Chinese,f,0,0,-87.44045162,1.20965721
ZYX,148,2,2024-06-14T03:25:42.446Z,english_217.wav,0,1,60,22,4,Chinese,f,1,0.1,26.67222095,0.05295089
ZYX,148,2,2024-06-14T03:25:42.446Z,english_217.wav,0,1,60,22,4,Chinese,f,2,0.2,97.90977363,1.23557872
ZYX,148,2,2024-06-14T03:25:42.446Z,english_217.wav,0,1,60,22,4,Chinese,f,3,0.3,4.49718441,1.80752812
ZYX,148,2,2024-06-14T03:25:42.446Z,english_217.wav,0,1,60,22,4,Chinese,f,4,0.32341667,13.31384309,1.57586313
ZYX,149,2,2024-06-14T03:25:42.446Z,english_24.wav,0,1,752,22,4,Chinese,f,0,0,83.82729659,0.31203725
ZYX,149,2,2024-06-14T03:25:42.446Z,english_24.wav,0,1,752,22,4,Chinese,f,1,0.1,-2.54724082,1.56948954
ZYX,149,2,2024-06-14T03:25:42.446Z,english_24.wav,0,1,752,22,4,Chinese,f,2,0.2,88.70909739,0.87333864
ZYX,149,2,2024-06-14T03:25:42.446Z,english_24.wav,0,1,752,22,4,Chinese,f,3,0.3,48.93770926,0.88535019
ZYX,149,2,2024-06-14T03:25:42.446Z,english_24.wav,0,1,752,22,4,Chinese,f,4,0.32341667,53.25190048,0.66112496
ZYX,150,3,2024-06-14T03:25:42.446Z,english_580.wav,0,1,351,22,4,Chinese,f,0,0,92.13406767,1.93694744
ZYX,150,3,2024-06-14T03:25:42.446Z,english_580.wav,0,1,351,22,4,Chinese,f,1,0.1,-85.58685866,0.28773753
ZYX,150,3,2024-06-14T03:25:42.446Z,english_580.wav,0,1,351,22,4,Chinese,f,2,0.2,57.10945482,0.86433335
ZYX,150,3,2024-06-14T03:25:42.446Z,english_580.wav,0,1,351,22,4,Chinese,f,3,0.3,32.92004132,0.96651265
ZYX,150,3,2024-06-14T03:25:42.446Z,english_580.wav,0,1,351,22,4,Chinese,f,4,0.32341667,52.08708517,1.25003658
ZYX,151,3,2024-06-14T03:25:42.446Z,english_121.wav,0,1,1070,22,4,Chinese,f,0,0,-30.24687583,0.23154591
ZYX,151,3,2024-06-14T03:25:42.446Z,english_121.wav,0,1,1070,22,4,Chinese,f,1,0.1,-28.09260766,0.6680997
ZYX,151,3,2024-06-14T03:25:42.446Z,english_121.wav,0,1,1070,22,4,Chinese,f,2,0.2,-29.54951374,1.79539672
ZYX,151,3,2024-06-14T03:25:42.446Z,english_121.wav,0,1,1070,22,4,Chinese,f,3,0.3,-37.35286973,0.57554739
ZYX,151,3,2024-06-14T03:25:42.446Z,english_121.wav,0,1,1070,22,4,Chinese,f,4,0.32341667,58.68529554,1.8709958
ZYX,152,3,2024-06-14T03:25:42.446Z,english_819.wav,0,1,50,22,4,Chinese,f,0,0,56.56933068,1.61805944
ZYX,152,3,2024-06-14T03:25:42.446Z,english_819.wav,0,1,50,22,4,Chinese,f,1,0.1,16.98960986,1.69207785
ZYX,152,3,2024-06-14T03:25:42.446Z,english_819.wav,0,1,50,22,4,Chinese,f,2,0.2,-13.59600893,1.33633205
ZYX,152,3,2024-06-14T03:25:42.446Z,english_819.wav,0,1,50,22,4,Chinese,f,3,0.3,79.1710335,0.49452457
ZYX,152,3,2024-06-14T03:25:42.446Z,english_819.wav,0,1,50,22,4,Chinese,f,4,0.32341667,25.34620926,1.97134574
ZYX,153,3,2024-06-14T03:25:42.446Z,english_727.wav,0,1,1285,22,4,Chinese,f,0,0,86.20347479,1.33530257
ZYX,153,3,2024-06-14T03:25:42.446Z,english_727.wav,0,1,1285,22,4,Chinese,f,1,0.1,12.26210304,1.85547333
ZYX,153,3,2024-06-14T03:25:42.446Z,english_727.wav,0,1,1285,22,4,Chinese,f,2,0.2,5.59218777,1.19683436
ZYX,153,3,2024-06-14T03:25:42.446Z,english_727.wav,0,1,1285,22,4,Chinese,f,3,0.3,-46.39280156,1.89207751
ZYX,153,3,2024-06-14T03:25:42.446Z,english_727.wav,0,1,1285,22,4,Chinese,f,4,0.32341667,21.79775503,1.05019022
ZYX,154,3,2024-06-14T03:25:42.446Z,english_638.wav,0,1,433,22,4,Chinese,f,0,0,6.92468799,1.1702122
ZYX,154,3,2024-06-14T03:25:42.446Z,english_638.wav,0,1,433,22,4,Chinese,f,1,0.1,52.10042521,0.51269982
ZYX,154,3,2024-06-14T03:25:42.446Z,english_638.wav,0,1,433,22,4,Chinese,f,2,0.2,-39.07293948,0.1912204
ZYX,154,3,2024-06-14T03:25:42.446Z,english_638.wav,0,1,433,22,4,Chinese,f,3,0.3,38.46029754,0.91406415
ZYX,154,3,2024-06-14T03:25:42.446Z,english_638.wav,0,1,433,22,4,Chinese,f,4,0.32341667,-16.6630855,1.67689755
ZYX,155,3,2024-06-14T03:25:42.446Z,english_855.wav,0,1,273,22,4,Chinese,f,0,0,27.89321206,0.30262259
ZYX,155,3,2024-06-14T03:25:42.446Z,english_855.wav,0,1,273,22,4,Chinese,f,1,0.1,-46.00582393,1.40968126
ZYX,155,3,2024-06-14T03:25:42.446Z,english_855.wav,0,1,273,22,4,Chinese,f,2,0.2,35.37102385,0.80904714
ZYX,155,3,2024-06-14T03:25:42.446Z,english_855.wav,0,1,273,22,4,Chinese,f,3,0.3,-58.73762704,1.48943687
ZYX,155,3,2024-06-14T03:25:42.446Z,english_855.wav,0,1,273,22,4,Chinese,f,4,0.32341667,-46.78314799,1.29572868
ZYX,156,3,2024-06-14T03:25:42.446Z,english_879.wav,0,1,1550,22,4,Chinese,f,0,0,-56.32485069,0.53184386
ZYX,156,3,2024-06-14T03:25:42.446Z,english_879.wav,0,1,1550,22,4,Chinese,f,1,0.1,64.67592183,1.34296213
ZYX,156,3,2024-06-14T03:25:42.446Z,english_879.wav,0,1,1550,22,4,Chinese,f,2,0.2,25.82204554,0.44649674
ZYX,156,3,2024-06-14T03:25:42.446Z,english_879.wav,0,1,1550,22,4,Chinese,f,3,0.3,5.66794257,0.79707043
ZYX,156,3,2024-06-14T03:25:42.446Z,english_879.wav,0,1,1550,22,4,Chinese,f,4,0.32341667,-31.65503708,1.19804995
ZYX,157,3,2024-06-14T03:25:42.446Z,english_345.wav,0,1,660,22,4,Chinese,f,0,0,-46.00579497,1.58751342
ZYX,157,3,2024-06-14T03:25:42.446Z,english_345.wav,0,1,660,22,4,Chinese,f,1,0.1,-45.5805492,1.0202646
ZYX,157,3,2024-06-14T03:25:42.446Z,english_345.wav,0,1,660,22,4,Chinese,f,2,0.2,-14.04378539,0.61561299
ZYX,157,3,2024-06-14T03:25:42.446Z,english_345.wav,0,1,660,22,4,Chinese,f,3,0.3,63.72413351,1.21547564
ZYX,157,3,2024-06-14T03:25:42.446Z,english_345.wav,0,1,660,22,4,Chinese,f,4,0.32341667,18.03717792,1.47127253
ZYX,158,3,2024-06-14T03:25:42.446Z,english_45.wav,0,1,625,22,4,Chinese,f,0,0,72.55677234,0.302627
ZYX,158,3,2024-06-14T03:25:42.446Z,english_45.wav,0,1,625,22,4,Chinese,f,1,0.1,34.43244276,1.957389
ZYX,158,3,2024-06-14T03:25:42.446Z,english_45.wav,0,1,625,22,4,Chinese,f,2,0.2,12.66368291,1.1456601
ZYX,158,3,2024-06-14T03:25:42.446Z,english_45.wav,0,1,625,22,4,Chinese,f,3,0.3,47.17471186,1.77472104
ZYX,158,3,2024-06-14T03:25:42.446Z,english_45.wav,0,1,625,22,4,Chinese,f,4,0.32341667,-48.2883803,1.7760992
ZYX,159,3,2024-06-14T03:25:42.446Z,english_452.wav,0,1,177,22,4,Chinese,f,0,0,-15.91859121,0.16050204
ZYX,159,3,2024-06-14T03:25:42.446Z,english_452.wav,0,1,177,22,4,Chinese,f,1,0.1,66.54493607,1.05820221
ZYX,159,3,2024-06-14T03:25:42.446Z,english_452.wav,0,1,177,22,4,Chinese,f,2,0.2,49.2405228,1.42476674
ZYX,159,3,2024-06-14T03:25:42.446Z,english_452.wav,0,1,177,22,4,Chinese,f,3,0.3,-8.75382859,0.48128336
ZYX,159,3,2024-06-14T03:25:42.446Z,english_452.wav,0,1,177,22,4,Chinese,f,4,0.32341667,-35.51952716,0.52453318
ZYX,160,3,2024-06-14T03:25:42.446Z,english_454.wav,0,0,1558,22,4,Chinese,f,0,0,-98.00335762,0.93958317
ZYX,160,3,2024-06-14T03:25:42.446Z,english_454.wav,0,0,1558,22,4,Chinese,f,1,0.1,-44.25936911,1.42755355
ZYX,160,3,2024-06-14T03:25:42.446Z,english_454.wav,0,0,1558,22,4,Chinese,f,2,0.2,-49.70952942,0.6160235
ZYX,160,3,2024-06-14T03:25:42.446Z,english_454.wav,0,0,1558,22,4,Chinese,f,3,0.3,-16.66945989,1.95370106
ZYX,160,3,2024-06-14T03:25:42.446Z,english_454.wav,0,0,1558,22,4,Chinese,f,4,0.32341667,16.63176458,0.26107778
ZYX,161,3,2024-06-14T03:25:42.446Z,english_458.wav,0,0,836,22,4,Chinese,f,0,0,-49.69821038,0.39452057
ZYX,161,3,2024-06-14T03:25:42.446Z,english_458.wav,0,0,836,22,4,Chinese,f,1,0.1,-49.80647014,1.24604375
ZYX,161,3,2024-06-14T03:25:42.446Z,english_458.wav,0,0,836,22,4,Chinese,f,2,0.2,11.98261521,0.42272405
ZYX,161,3,2024-06-14T03:25:42.446Z,english_458.wav,0,0,836,22,4,Chinese,f,3,0.3,59.43319096,0.21259233
ZYX,161,3,2024-06-14T03:25:42.446Z,english_458.wav,0,0,836,22,4,Chinese,f,4,0.32341667,-34.5671642,1.13235362
ZYX,162,3,2024-06-14T03:25:42.446Z,english_811.wav,0,0,489,22,4,Chinese,f,0,0,-51.03425556,1.55055496
ZYX,162,3,2024-06-14T03:25:42.446Z,english_811.wav,0,0,489,22,4,Chinese,f,1,0.1,22.81695275,1.74830484
ZYX,162,3,2024-06-14T03:25:42.446Z,english_811.wav,0,0,489,22,4,Chinese,f,2,0.2,73.06623682,1.24661488
ZYX,162,3,2024-06-14T03:25:42.446Z,english_811.wav,0,0,489,22,4,Chinese,f,3,0.3,-9.17693151,0.09792889
ZYX,162,3,2024-06-14T03:25:42.446Z,english_811.wav,0,0,489,22,4,Chinese,f,4,0.32341667,79.97760745,0.03735929
ZYX,163,3,2024-06-14T03:25:42.446Z,english_302.wav,0,0,844,22,4,Chinese,f,0,0,-63.95927305,1.3663617
ZYX,163,3,2024-06-14T03:25:42.446Z,english_302.wav,0,0,844,22,4,Chinese,f,1,0.1,-82.44028643,1.24112643
ZYX,163,3,2024-06-14T03:25:42.446Z,english_302.wav,0,0,844,22,4,Chinese,f,2,0.2,-63.33590257,1.83999602
ZYX,163,3,2024-06-14T03:25:42.446Z,english_302.wav,0,0,844,22,4,Chinese,f,3,0.3,-82.33590521,0.89576132
ZYX,163,3,2024-06-14T03:25:42.446Z,english_302.wav,0,0,844,22,4,Chinese,f,4,0.32341667,-77.43124585,1.51483357
ZYX,164,3,2024-06-14T03:25:42.446Z,english_150.wav,0,0,213,22,4,Chinese,f,0,0,-51.77489255,0.6625495
ZYX,164,3,2024-06-14T03:25:42.446Z,english_150.wav,0,0,213,22,4,Chinese,f,1,0.1,16.7322824,1.26353984
ZYX,164,3,2024-06-14T03:25:42.446Z,english_150.wav,0,0,213,22,4,Chinese,f,2,0.2,-56.19561079,0.38378194
ZYX,164,3,2024-06-14T03:25:42.446Z,english_150.wav,0,0,213,22,4,Chinese,f,3,0.3,36.81691324,1.59154348
ZYX,164,3,2024-06-14T03:25:42.446Z,english_150.wav,0,0,213,22,4,Chinese,f,4,0.32341667,-97.11243964,0.94821753
ZYX,165,3,2024-06-14T03:25:42.446Z,english_76.wav,0,0,619,22,4,Chinese,f,0,0,24.78743387,1.26829138
ZYX,165,3,2024-06-14T03:25:42.446Z,english_76.wav,0,0,619,22,4,Chinese,f,1,0.1,-7.95135802,1.4446717
ZYX,165,3,2024-06-14T03:25:42.446Z,english_76.wav,0,0,619,22,4,Chinese,f,2,0.2,-9.56689875,0.88177173
ZYX,165,3,2024-06-14T03:25:42.446Z,english_76.wav,0,0,619,22,4,Chinese,f,3,0.3,-78.25819759,1.63003096
ZYX,165,3,2024-06-14T03:25:42.446Z,english_76.wav,0,0,619,22,4,Chinese,f,4,0.32341667,26.4311908,1.97074408
ZYX,166,3,2024-06-14T03:25:42.446Z,english_809.wav,0,0,1066,22,4,Chinese,f,0,0,-9.08149959,0.73203403
ZYX,166,3,2024-06-14T03:25:42.446Z,english_809.wav,0,0,1066,22,4,Chinese,f,1,0.1,12.16544582,0.53159531
ZYX,166,3,2024-06-14T03:25:42.446Z,english_809.wav,0,0,1066,22,4,Chinese,f,2,0.2,40.52205867,1.48114639
ZYX,166,3,2024-06-14T03:25:42.446Z,english_809.wav,0,0,1066,22,4,Chinese,f,3,0.3,-94.19679153,1.77078339
ZYX,166,3,2024-06-14T03:25:42.446Z,english_809.wav,0,0,1066,22,4,Chinese,f,4,0.32341667,-5.82752377,1.36117577
ZYX,167,3,2024-06-14T03:25:42.446Z,english_951.wav,0,0,198,22,4,Chinese,f,0,0,-0.1209724,0.19208806
ZYX,167,3,2024-06-14T03:25:42.446Z,english_951.wav,0,0,198,22,4,Chinese,f,1,0.1,-14.6507611,1.44795721
ZYX,167,3,2024-06-14T03:25:42.446Z,english_951.wav,0,0,198,22,4,Chinese,f,2,0.2,-2.36153686,0.88209985
ZYX,167,3,2024-06-14T03:25:42.446Z,english_951.wav,0,0,198,22,4,Chinese,f,3,0.3,15.28547447,1.97099669
ZYX,167,3,2024-06-14T03:25:42.446Z,english_951.wav,0,0,198,22,4,Chinese,f,4,0.32341667,-0.16445922,0.158195
ZYX,168,3,2024-06-14T03:25:42.446Z,english_386.wav,0,0,293,22,4,Chinese,f,0,0,74.56899624,1.79299743
ZYX,168,3,2024-06-14T03:25:42.446Z,english_386.wav,0,0,293,22,4,Chinese,f,1,0.1,25.94107183,0.16071221
ZYX,168,3,2024-06-14T03:25:42.446Z,english_386.wav,0,0,293,22,4,Chinese,f,2,0.2,41.2839149,0.21721497
ZYX,168,3,2024-06-14T03:25:42.446Z,english_386.wav,0,0,293,22,4,Chinese,f,3,0.3,14.47866495,1.22036918
ZYX,168,3,2024-06-14T03:25:42.446Z,english_386.wav,0,0,293,22,4,Chinese,f,4,0.32341667,-14.73959674,1.81871952
ZYX,169,3,2024-06-14T03:25:42.446Z,english_140.wav,0,0,192,22,4,Chinese,f,0,0,-63.97366245,1.49783115
ZYX,169,3,2024-06-14T03:25:42.446Z,english_140.wav,0,0,192,22,4,Chinese,f,1,0.1,-84.90656008,1.37250299
ZYX,169,3,2024-06-14T03:25:42.446Z,english_140.wav,0,0,192,22,4,Chinese,f,2,0.2,93.42782744,0.10650492
ZYX,169,3,2024-06-14T03:25:42.446Z,english_140.wav,0,0,192,22,4,Chinese,f,3,0.3,11.57634117,0.84315206
ZYX,169,3,2024-06-14T03:25:42.446Z,english_140.wav,0,0,192,22,4,Chinese,f,4,0.32341667,80.35905055,1.26233419
ZYX,170,3,2024-06-14T03:25:42.446Z,english_899.wav,0,0,483,22,4,Chinese,f,0,0,34.44970312,1.0262563
ZYX,170,3,2024-06-14T03:25:42.446Z,english_899.wav,0,0,483,22,4,Chinese,f,1,0.1,-73.97598586,0.5565938
ZYX,170,3,2024-06-14T03:25:42.446Z,english_899.wav,0,0,483,22,4,Chinese,f,2,0.2,4.84970015,0.08950317
ZYX,170,3,2024-06-14T03:25:42.446Z,english_899.wav,0,0,483,22,4,Chinese,f,3,0.3,25.99530817,1.10823657
ZYX,170,3,2024-06-14T03:25:42.446Z,english_899.wav,0,0,483,22,4,Chinese,f,4,0.32341667,7.0197251,1.27665612
ZYX,171,3,2024-06-14T03:25:42.446Z,english_755.wav,0,0,471,22,4,Chinese,f,0,0,-15.85533995,0.06987403
ZYX,171,3,2024-06-14T03:25:42.446Z,english_755.wav,0,0,471,22,4,Chinese,f,1,0.1,-97.95934782,0.83204773
ZYX,171,3,2024-06-14T03:25:42.446Z,english_755.wav,0,0,471,22,4,Chinese,f,2,0.2,-5.14559719,1.06816443
ZYX,171,3,2024-06-14T03:25:42.446Z,english_755.wav,0,0,471,22,4,Chinese,f,3,0.3,32.74087849,1.42856986
ZYX,171,3,2024-06-14T03:25:42.446Z,english_755.wav,0,0,471,22,4,Chinese,f,4,0.32341667,-56.93437429,0.58130438
ZYX,172,3,2024-06-14T03:25:42.446Z,english_722.wav,0,0,1585,22,4,Chinese,f,0,0,56.33358757,0.09194264
ZYX,172,3,2024-06-14T03:25:42.446Z,english_722.wav,0,0,1585,22,4,Chinese,f,1,0.1,-63.11389498,1.89550133
ZYX,172,3,2024-06-14T03:25:42.446Z,english_722.wav,0,0,1585,22,4,Chinese,f,2,0.2,65.64746862,0.18403216
ZYX,172,3,2024-06-14T03:25:42.446Z,english_722.wav,0,0,1585,22,4,Chinese,f,3,0.3,-93.10605514,1.23223326
ZYX,172,3,2024-06-14T03:25:42.446Z,english_722.wav,0,0,1585,22,4,Chinese,f,4,0.32341667,-45.92743551,0.28331892
ZYX,173,3,2024-06-14T03:25:42.446Z,english_438.wav,0,0,1089,22,4,Chinese,f,0,0,31.75305261,1.38451981
ZYX,173,3,2024-06-14T03:25:42.446Z,english_438.wav,0,0,1089,22,4,Chinese,f,1,0.1,20.27112767,1.99020027
ZYX,173,3,2024-06-14T03:25:42.446Z,english_438.wav,0,0,1089,22,4,Chinese,f,2,0.2,66.65258945,0.15645945
ZYX,173,3,2024-06-14T03:25:42.446Z,english_438.wav,0,0,1089,22,4,Chinese,f,3,0.3,70.72003494,1.37678514
ZYX,173,3,2024-06-14T03:25:42.446Z,english_438.wav,0,0,1089,22,4,Chinese,f,4,0.32341667,59.11013505,0.82730153
ZYX,174,3,2024-06-14T03:25:42.446Z,english_360.wav,0,0,943,22,4,Chinese,f,0,0,-50.57937638,0.73788637
ZYX,174,3,2024-06-14T03:25:42.446Z,english_360.wav,0,0,943,22,4,Chinese,f,1,0.1,-29.22164644,0.6487653
ZYX,174,3,2024-06-14T03:25:42.446Z,english_360.wav,0,0,943,22,4,Chinese,f,2,0.2,-88.45421248,0.73193848
ZYX,174,3,2024-06-14T03:25:42.446Z,english_360.wav,0,0,943,22,4,Chinese,f,3,0.3,93.68039656,1.75347372
ZYX,174,3,2024-06-14T03:25:42.446Z,english_360.wav,0,0,943,22,4,Chinese,f,4,0.32341667,-2.59092547,1.19277037
ZYX,175,3,2024-06-14T03:25:42.446Z,english_259.wav,0,0,277,22,4,Chinese,f,0,0,7.90187791,1.3064553
ZYX,175,3,2024-06-14T03:25:42.446Z,english_259.wav,0,0,277,22,4,Chinese,f,1,0.1,31.67295647,1.01100372
ZYX,175,3,2024-06-14T03:25:42.446Z,english_259.wav,0,0,277,22,4,Chinese,f,2,0.2,-53.65780041,0.35520266
ZYX,175,3,2024-06-14T03:25:42.446Z,english_259.wav,0,0,277,22,4,Chinese,f,3,0.3,-72.94929757,1.35187683
ZYX,175,3,2024-06-14T03:25:42.446Z,english_259.wav,0,0,277,22,4,Chinese,f,4,0.32341667,58.35152721,1.39599087
ZYX,176,3,2024-06-14T03:25:42.446Z,english_524.wav,0,0,175,22,4,Chinese,f,0,0,-67.97449296,0.75247726
ZYX,176,3,2024-06-14T03:25:42.446Z,english_524.wav,0,0,175,22,4,Chinese,f,1,0.1,11.07328714,0.25589602
ZYX,176,3,2024-06-14T03:25:42.446Z,english_524.wav,0,0,175,22,4,Chinese,f,2,0.2,-43.89657964,0.70559599
ZYX,176,3,2024-06-14T03:25:42.446Z,english_524.wav,0,0,175,22,4,Chinese,f,3,0.3,-41.15015074,0.70218971
ZYX,176,3,2024-06-14T03:25:42.446Z,english_524.wav,0,0,175,22,4,Chinese,f,4,0.32341667,-33.76804681,0.11352048
ZYX,177,3,2024-06-14T03:25:42.446Z,english_109.wav,0,0,813,22,4,Chinese,f,0,0,44.56131593,1.07349586
ZYX,177,3,2024-06-14T03:25:42.446Z,english_109.wav,0,0,813,22,4,Chinese,f,1,0.1,-35.23159756,1.27535987
ZYX,177,3,2024-06-14T03:25:42.446Z,english_109.wav,0,0,813,22,4,Chinese,f,2,0.2,-19.62269282,1.28483541
ZYX,177,3,2024-06-14T03:25:42.446Z,english_109.wav,0,0,813,22,4,Chinese,f,3,0.3,38.10372837,1.04109326
ZYX,177,3,2024-06-14T03:25:42.446Z,english_109.wav,0,0,813,22,4,Chinese,f,4,0.32341667,-20.09605057,0.10213448
ZYX,178,3,2024-06-14T03:25:42.446Z,english_999.wav,0,0,237,22,4,Chinese,f,0,0,-43.88463807,1.5561212
ZYX,178,3,2024-06-14T03:25:42.446Z,english_999.wav,0,0,237,22,4,Chinese,f,1,0.1,-19.69329198,1.76032244
ZYX,178,3,2024-06-14T03:25:42.446Z,english_999.wav,0,0,237,22,4,Chinese,f,2,0.2,-16.47401585,0.67323911
ZYX,178,3,2024-06-14T03:25:42.446Z,english_999.wav,0,0,237,22,4,Chinese,f,3,0.3,-27.91485083,0.0725875
ZYX,178,3,2024-06-14T03:25:42.446Z,english_999.wav,0,0,237,22,4,Chinese,f,4,0.32341667,-38.65265262,0.89314247
ZYX,179,3,2024-06-14T03:25:42.446Z,english_982.wav,0,0,921,22,4,Chinese,f,0,0,12.44046596,0.81508625
ZYX,179,3,2024-06-14T03:25:42.446Z,english_982.wav,0,0,921,22,4,Chinese,f,1,0.1,-60.41666302,0.92712357
ZYX,179,3,2024-06-14T03:25:42.446Z,english_982.wav,0,0,921,22,4,Chinese,f,2,0.2,-35.31499742,0.77678916
ZYX,179,3,2024-06-14T03:25:42.446Z,english_982.wav,0,0,921,22,4,Chinese,f,3,0.3,-10.96739076,1.0294352
ZYX,179,3,2024-06-14T03:25:42.446Z,english_982.wav,0,0,921,22,4,Chinese,f,4,0.32341667,44.50624474,1.1322674
ZYX,180,3,2024-06-14T03:25:42.446Z,english_385.wav,0,0,187,22,4,Chinese,f,0,0,-55.07910634,1.75648555
ZYX,180,3,2024-06-14T03:25:42.446Z,english_385.wav,0,0,187,22,4,Chinese,f,1,0.1,-94.47680079,1.20856462
ZYX,180,3,2024-06-14T03:25:42.446Z,english_385.wav,0,0,187,22,4,Chinese,f,2,0.2,38.70414457,0.98103352
ZYX,180,3,2024-06-14T03:25:42.446Z,english_385.wav,0,0,187,22,4,Chinese,f,3,0.3,-46.17691,1.45745263
ZYX,180,3,2024-06-14T03:25:42.446Z,english_385.wav,0,0,187,22,4,Chinese,f,4,0.32341667,2.5941508,0.88353815
ZYX,181,3,2024-06-14T03:25:42.446Z,english_699.wav,0,0,349,22,4,Chinese,f,0,0,-21.84844695,0.55007596
ZYX,181,3,2024-06-14T03:25:42.446Z,english_699.wav,0,0,349,22,4,Chinese,f,1,0.1,-20.61050251,0.98595355
ZYX,181,3,2024-06-14T03:25:42.446Z,english_699.wav,0,0,349,22,4,Chinese,f,2,0.2,-7.57046677,1.16771202
ZYX,181,3,2024-06-14T03:25:42.446Z,english_699.wav,0,0,349,22,4,Chinese,f,3,0.3,-90.18255135,0.60930532
ZYX,181,3,2024-06-14T03:25:42.446Z,english_699.wav,0,0,349,22,4,Chinese,f,4,0.32341667,-39.12532958,1.39260434
ZYX,182,3,2024-06-14T03:25:42.446Z,english_700.wav,0,0,632,22,4,Chinese,f,0,0,-76.89056698,0.13963816
ZYX,182,3,2024-06-14T03:25:42.446Z,english_700.wav,0,0,632,22,4,Chinese,f,1,0.1,-93.17552037,0.76842729
ZYX,182,3,2024-06-14T03:25:42.446Z,english_700.wav,0,0,632,22,4,Chinese,f,2,0.2,51.24439156,0.49149542
ZYX,182,3,2024-06-14T03:25:42.446Z,english_700.wav,0,0,632,22,4,Chinese,f,3,0.3,89.4516499,1.08714417
ZYX,182,3,2024-06-14T03:25:42.446Z,english_700.wav,0,0,632,22,4,Chinese,f,4,0.32341667,-68.48659069,1.35188588
ZYX,183,3,2024-06-14T03:25:42.446Z,english_1000.wav,0,0,2866,22,4,Chinese,f,0,0,27.35321797,1.01803417
ZYX,183,3,2024-06-14T03:25:42.446Z,english_1000.wav,0,0,2866,22,4,Chinese,f,1,0.1,42.13438871,0.4558176
ZYX,183,3,2024-06-14T03:25:42.446Z,english_1000.wav,0,0,2866,22,4,Chinese,f,2,0.2,95.34760893,0.52251179
ZYX,183,3,2024-06-14T03:25:42.446Z,english_1000.wav,0,0,2866,22,4,Chinese,f,3,0.3,-34.10168873,0.90165507
ZYX,183,3,2024-06-14T03:25:42.446Z,english_1000.wav,0,0,2866,22,4,Chinese,f,4,0.32341667,64.49689477,0.38395199
ZYX,184,3,2024-06-14T03:25:42.446Z,english_303.wav,0,0,7100,22,4,Chinese,f,0,0,67.00540241,1.22520816
ZYX,184,3,2024-06-14T03:25:42.446Z,english_303.wav,0,0,7100,22,4,Chinese,f,1,0.1,32.95821842,1.22732479
ZYX,184,3,2024-06-14T03:25:42.446Z,english_303.wav,0,0,7100,22,4,Chinese,f,2,0.2,-23.67517146,0.54923068
ZYX,184,3,2024-06-14T03:25:42.446Z,english_303.wav,0,0,7100,22,4,Chinese,f,3,0.3,-66.94926695,0.8977578
ZYX,184,3,2024-06-14T03:25:42.446Z,english_303.wav,0,0,7100,22,4,Chinese,f,4,0.32341667,65.71723135,1.41807679
ZYX,185,3,2024-06-14T03:25:42.446Z,english_79.wav,0,0,3227,22,4,Chinese,f,0,0,-69.52518262,0.23164561
ZYX,185,3,2024-06-14T03:25:42.446Z,english_79.wav,0,0,3227,22,4,Chinese,f,1,0.1,56.533406,1.01948637
ZYX,185,3,2024-06-14T03:25:42.446Z,english_79.wav,0,0,3227,22,4,Chinese,f,2,0.2,25.92051761,0.17653141
ZYX,185,3,2024-06-14T03:25:42.446Z,english_79.wav,0,0,3227,22,4,Chinese,f,3,0.3,81.58880491,0.14868702
ZYX,185,3,2024-06-14T03:25:42.446Z,english_79.wav,0,0,3227,22,4,Chinese,f,4,0.32341667,-19.75719301,0.33345335
ZYX,186,3,2024-06-14T03:25:42.446Z,english_455.wav,0,0,3259,22,4,Chinese,f,0,0,16.09493262,0.21208686
ZYX,186,3,2024-06-14T03:25:42.446Z,english_455.wav,0,0,3259,22,4,Chinese,f,1,0.1,24.58982,1.0305564
ZYX,186,3,2024-06-14T03:25:42.446Z,english_455.wav,0,0,3259,22,4,Chinese,f,2,0.2,-59.31201859,1.53057992
ZYX,186,3,2024-06-14T03:25:42.446Z,english_455.wav,0,0,3259,22,4,Chinese,f,3,0.3,40.79603426,0.62599766
ZYX,186,3,2024-06-14T03:25:42.446Z,english_455.wav,0,0,3259,22,4,Chinese,f,4,0.32341667,-39.30035714,1.43054244
ZYX,187,3,2024-06-14T03:25:42.446Z,english_459.wav,0,0,4490,22,4,Chinese,f,0,0,30.23503988,1.42205963
ZYX,187,3,2024-06-14T03:25:42.446Z,english_459.wav,0,0,4490,22,4,Chinese,f,1,0.1,-58.09525271,0.13069666
ZYX,187,3,2024-06-14T03:25:42.446Z,english_459.wav,0,0,4490,22,4,Chinese,f,2,0.2,22.03715272,0.55220733
ZYX,187,3,2024-06-14T03:25:42.446Z,english_459.wav,0,0,4490,22,4,Chinese,f,3,0.3,-33.09468511,0.48840502
ZYX,187,3,2024-06-14T03:25:42.446Z,english_459.wav,0,0,4490,22,4,Chinese,f,4,0.32341667,-9.46836848,1.08918734
ZYX,188,3,2024-06-14T03:25:42.446Z,english_153.wav,0,0,207,22,4,Chinese,f,0,0,1.34878197,1.20280718
ZYX,188,3,2024-06-14T03:25:42.446Z,english_153.wav,0,0,207,22,4,Chinese,f,1,0.1,-86.14475674,1.60924223
ZYX,188,3,2024-06-14T03:25:42.446Z,english_153.wav,0,0,207,22,4,Chinese,f,2,0.2,3.24582423,0.94422247
ZYX,188,3,2024-06-14T03:25:42.446Z,english_153.wav,0,0,207,22,4,Chinese,f,3,0.3,-6.94068795,0.98008297
ZYX,188,3,2024-06-14T03:25:42.446Z,english_153.wav,0,0,207,22,4,Chinese,f,4,0.32341667,-76.91560753,0.34988026
ZYX,189,3,2024-06-14T03:25:42.446Z,english_55.wav,0,0,139,22,4,Chinese,f,0,0,71.89255128,0.24931264
ZYX,189,3,2024-06-14T03:25:42.446Z,english_55.wav,0,0,139,22,4,Chinese,f,1,0.1,0.20692224,1.79813092
ZYX,189,3,2024-06-14T03:25:42.446Z,english_55.wav,0,0,139,22,4,Chinese,f,2,0.2,-68.61006599,0.71729895
ZYX,189,3,2024-06-14T03:25:42.446Z,english_55.wav,0,0,139,22,4,Chinese,f,3,0.3,-5.20952515,1.28733782
ZYX,189,3,2024-06-14T03:25:42.446Z,english_55.wav,0,0,139,22,4,Chinese,f,4,0.32341667,28.45991968,1.77061752
ZYX,190,3,2024-06-14T03:25:42.446Z,english_901.wav,0,0,39,22,4,Chinese,f,0,0,-14.81770559,1.5194741
ZYX,190,3,2024-06-14T03:25:42.446Z,english_901.wav,0,0,39,22,4,Chinese,f,1,0.1,-27.73561163,1.98674938
ZYX,190,3,2024-06-14T03:25:42.446Z,english_901.wav,0,0,39,22,4,Chinese,f,2,0.2,-22.44015454,0.54356598
ZYX,190,3,2024-06-14T03:25:42.446Z,english_901.wav,0,0,39,22,4,Chinese,f,3,0.3,-41.34815185,1.30497628
ZYX,190,3,2024-06-14T03:25:42.446Z,english_901.wav,0,0,39,22,4,Chinese,f,4,0.32341667,10.13492358,0.61526789
ZYX,191,3,2024-06-14T03:25:42.446Z,english_917.wav,0,0,291,22,4,Chinese,f,0,0,-2.28432431,0.51220006
ZYX,191,3,2024-06-14T03:25:42.446Z,english_917.wav,0,0,291,22,4,Chinese,f,1,0.1,-50.4941454,0.3783057
ZYX,191,3,2024-06-14T03:25:42.446Z,english_917.wav,0,0,291,22,4,Chinese,f,2,0.2,86.41176613,0.52629226
ZYX,191,3,2024-06-14T03:25:42.446Z,english_917.wav,0,0,291,22,4,Chinese,f,3,0.3,-50.97734163,0.68389314
ZYX,191,3,2024-06-14T03:25:42.446Z,english_917.wav,0,0,291,22,4,Chinese,f,4,0.32341667,97.13453513,1.73708117
ZYX,192,3,2024-06-14T03:25:42.446Z,english_353.wav,0,0,28,22,4,Chinese,f,0,0,51.44050484,0.16518243
ZYX,192,3,2024-06-14T03:25:42.446Z,english_353.wav,0,0,28,22,4,Chinese,f,1,0.1,-8.32491594,1.32533476
