subj,trial,block,date,stim,stim_order,response,rt,age,english,language,sex,param_index,segment,pitch,stretch
wxb_1027,0,0,2024-06-16T02:29:53.385Z,english_48.wav,0,1,4525,22,4,chinese,m,0,0,73.79399561,0.74385981
wxb_1027,0,0,2024-06-16T02:29:53.385Z,english_48.wav,0,1,4525,22,4,chinese,m,1,0.1,-6.33056249,1.05457567
wxb_1027,0,0,2024-06-16T02:29:53.385Z,english_48.wav,0,1,4525,22,4,chinese,m,2,0.2,-25.55346814,0.45493163
wxb_1027,0,0,2024-06-16T02:29:53.385Z,english_48.wav,0,1,4525,22,4,chinese,m,3,0.3,46.43305776,0.06513279
wxb_1027,0,0,2024-06-16T02:29:53.385Z,english_48.wav,0,1,4525,22,4,chinese,m,4,0.32341667,-46.56414761,0.46755714
wxb_1027,1,0,2024-06-16T02:29:53.385Z,english_16.wav,0,1,1608,22,4,chinese,m,0,0,-86.84797814,0.47796166
wxb_1027,1,0,2024-06-16T02:29:53.385Z,english_16.wav,0,1,1608,22,4,chinese,m,1,0.1,29.78439304,1.82902446
wxb_1027,1,0,2024-06-16T02:29:53.385Z,english_16.wav,0,1,1608,22,4,chinese,m,2,0.2,93.37667148,1.57835565
wxb_1027,1,0,2024-06-16T02:29:53.385Z,english_16.wav,0,1,1608,22,4,chinese,m,3,0.3,-84.28086854,0.98546729
wxb_1027,1,0,2024-06-16T02:29:53.385Z,english_16.wav,0,1,1608,22,4,chinese,m,4,0.32341667,-8.77302982,0.88950072
wxb_1027,2,0,2024-06-16T02:29:53.385Z,english_546.wav,0,1,1913,22,4,chinese,m,0,0,81.21590514,1.56657823
wxb_1027,2,0,2024-06-16T02:29:53.385Z,english_546.wav,0,1,1913,22,4,chinese,m,1,0.1,75.01018689,0.84038259
wxb_1027,2,0,2024-06-16T02:29:53.385Z,english_546.wav,0,1,1913,22,4,chinese,m,2,0.2,15.56226302,0.00684501
wxb_1027,2,0,2024-06-16T02:29:53.385Z,english_546.wav,0,1,1913,22,4,chinese,m,3,0.3,48.30886192,1.68157273
wxb_1027,2,0,2024-06-16T02:29:53.385Z,english_546.wav,0,1,1913,22,4,chinese,m,4,0.32341667,18.80923499,1.09409739
wxb_1027,3,0,2024-06-16T02:29:53.385Z,english_421.wav,0,1,2859,22,4,chinese,m,0,0,25.39012861,1.47358925
wxb_1027,3,0,2024-06-16T02:29:53.385Z,english_421.wav,0,1,2859,22,4,chinese,m,1,0.1,49.11153532,1.20920516
wxb_1027,3,0,2024-06-16T02:29:53.385Z,english_421.wav,0,1,2859,22,4,chinese,m,2,0.2,38.93723883,0.72174872
wxb_1027,3,0,2024-06-16T02:29:53.385Z,english_421.wav,0,1,2859,22,4,chinese,m,3,0.3,-9.34286459,0.24556907
wxb_1027,3,0,2024-06-16T02:29:53.385Z,english_421.wav,0,1,2859,22,4,chinese,m,4,0.32341667,-9.28476392,0.87006143
wxb_1027,4,0,2024-06-16T02:29:53.385Z,english_416.wav,0,1,1723,22,4,chinese,m,0,0,26.92040942,0.66708871
wxb_1027,4,0,2024-06-16T02:29:53.385Z,english_416.wav,0,1,1723,22,4,chinese,m,1,0.1,32.98463782,0.46140785
wxb_1027,4,0,2024-06-16T02:29:53.385Z,english_416.wav,0,1,1723,22,4,chinese,m,2,0.2,94.30298269,0.4311344
wxb_1027,4,0,2024-06-16T02:29:53.385Z,english_416.wav,0,1,1723,22,4,chinese,m,3,0.3,71.4008894,0.4522554
wxb_1027,4,0,2024-06-16T02:29:53.385Z,english_416.wav,0,1,1723,22,4,chinese,m,4,0.32341667,-13.61584313,0.23817019
wxb_1027,5,0,2024-06-16T02:29:53.385Z,english_135.wav,0,1,2434,22,4,chinese,m,0,0,92.53632507,0.8813083
wxb_1027,5,0,2024-06-16T02:29:53.385Z,english_135.wav,0,1,2434,22,4,chinese,m,1,0.1,42.68843281,1.60503348
wxb_1027,5,0,2024-06-16T02:29:53.385Z,english_135.wav,0,1,2434,22,4,chinese,m,2,0.2,87.27237188,0.22265806
wxb_1027,5,0,2024-06-16T02:29:53.385Z,english_135.wav,0,1,2434,22,4,chinese,m,3,0.3,-70.62725941,0.4233462
wxb_1027,5,0,2024-06-16T02:29:53.385Z,english_135.wav,0,1,2434,22,4,chinese,m,4,0.32341667,91.37204548,0.99500327
wxb_1027,6,0,2024-06-16T02:29:53.385Z,english_838.wav,0,1,1525,22,4,chinese,m,0,0,-46.43239877,0.57293762
wxb_1027,6,0,2024-06-16T02:29:53.385Z,english_838.wav,0,1,1525,22,4,chinese,m,1,0.1,-0.77549132,1.65450135
wxb_1027,6,0,2024-06-16T02:29:53.385Z,english_838.wav,0,1,1525,22,4,chinese,m,2,0.2,-47.56158581,0.30574951
wxb_1027,6,0,2024-06-16T02:29:53.385Z,english_838.wav,0,1,1525,22,4,chinese,m,3,0.3,7.18116474,0.96315644
wxb_1027,6,0,2024-06-16T02:29:53.385Z,english_838.wav,0,1,1525,22,4,chinese,m,4,0.32341667,-87.38880816,0.83017899
wxb_1027,7,0,2024-06-16T02:29:53.385Z,english_138.wav,0,1,1486,22,4,chinese,m,0,0,-79.80620147,0.37063564
wxb_1027,7,0,2024-06-16T02:29:53.385Z,english_138.wav,0,1,1486,22,4,chinese,m,1,0.1,-15.42889109,0.81801141
wxb_1027,7,0,2024-06-16T02:29:53.385Z,english_138.wav,0,1,1486,22,4,chinese,m,2,0.2,-88.31677226,0.0634538
wxb_1027,7,0,2024-06-16T02:29:53.385Z,english_138.wav,0,1,1486,22,4,chinese,m,3,0.3,26.6486106,1.85131452
wxb_1027,7,0,2024-06-16T02:29:53.385Z,english_138.wav,0,1,1486,22,4,chinese,m,4,0.32341667,-42.18894711,1.66059024
wxb_1027,8,0,2024-06-16T02:29:53.385Z,english_493.wav,0,1,1628,22,4,chinese,m,0,0,42.62366846,0.72879325
wxb_1027,8,0,2024-06-16T02:29:53.385Z,english_493.wav,0,1,1628,22,4,chinese,m,1,0.1,-24.95330968,1.87742997
wxb_1027,8,0,2024-06-16T02:29:53.385Z,english_493.wav,0,1,1628,22,4,chinese,m,2,0.2,82.3526737,1.69463318
wxb_1027,8,0,2024-06-16T02:29:53.385Z,english_493.wav,0,1,1628,22,4,chinese,m,3,0.3,53.78370402,0.82529142
wxb_1027,8,0,2024-06-16T02:29:53.385Z,english_493.wav,0,1,1628,22,4,chinese,m,4,0.32341667,-52.5410085,0.10126548
wxb_1027,9,0,2024-06-16T02:29:53.385Z,english_25.wav,0,1,2678,22,4,chinese,m,0,0,-93.68210842,1.14210865
wxb_1027,9,0,2024-06-16T02:29:53.385Z,english_25.wav,0,1,2678,22,4,chinese,m,1,0.1,-14.41268038,1.90089654
wxb_1027,9,0,2024-06-16T02:29:53.385Z,english_25.wav,0,1,2678,22,4,chinese,m,2,0.2,72.93230065,0.61137859
wxb_1027,9,0,2024-06-16T02:29:53.385Z,english_25.wav,0,1,2678,22,4,chinese,m,3,0.3,23.28545759,1.93042398
wxb_1027,9,0,2024-06-16T02:29:53.385Z,english_25.wav,0,1,2678,22,4,chinese,m,4,0.32341667,18.09953767,1.11869114
wxb_1027,10,0,2024-06-16T02:29:53.385Z,english_1000.wav,0,1,2603,22,4,chinese,m,0,0,27.35321797,1.01803417
wxb_1027,10,0,2024-06-16T02:29:53.385Z,english_1000.wav,0,1,2603,22,4,chinese,m,1,0.1,42.13438871,0.4558176
wxb_1027,10,0,2024-06-16T02:29:53.385Z,english_1000.wav,0,1,2603,22,4,chinese,m,2,0.2,95.34760893,0.52251179
wxb_1027,10,0,2024-06-16T02:29:53.385Z,english_1000.wav,0,1,2603,22,4,chinese,m,3,0.3,-34.10168873,0.90165507
wxb_1027,10,0,2024-06-16T02:29:53.385Z,english_1000.wav,0,1,2603,22,4,chinese,m,4,0.32341667,64.49689477,0.38395199
wxb_1027,11,0,2024-06-16T02:29:53.385Z,english_103.wav,0,0,2914,22,4,chinese,m,0,0,-79.54710498,0.84178061
wxb_1027,11,0,2024-06-16T02:29:53.385Z,english_103.wav,0,0,2914,22,4,chinese,m,1,0.1,-41.31314025,1.9706485
wxb_1027,11,0,2024-06-16T02:29:53.385Z,english_103.wav,0,0,2914,22,4,chinese,m,2,0.2,-48.58046961,1.55059924
wxb_1027,11,0,2024-06-16T02:29:53.385Z,english_103.wav,0,0,2914,22,4,chinese,m,3,0.3,50.88097047,1.14550684
wxb_1027,11,0,2024-06-16T02:29:53.385Z,english_103.wav,0,0,2914,22,4,chinese,m,4,0.32341667,21.22320476,1.67039139
wxb_1027,12,0,2024-06-16T02:29:53.385Z,english_106.wav,0,1,1868,22,4,chinese,m,0,0,-46.25200282,0.21046793
wxb_1027,12,0,2024-06-16T02:29:53.385Z,english_106.wav,0,1,1868,22,4,chinese,m,1,0.1,-83.38564728,1.42142181
wxb_1027,12,0,2024-06-16T02:29:53.385Z,english_106.wav,0,1,1868,22,4,chinese,m,2,0.2,68.00501759,0.86156936
wxb_1027,12,0,2024-06-16T02:29:53.385Z,english_106.wav,0,1,1868,22,4,chinese,m,3,0.3,49.15199267,0.65348811
wxb_1027,12,0,2024-06-16T02:29:53.385Z,english_106.wav,0,1,1868,22,4,chinese,m,4,0.32341667,-5.93966373,0.76273979
wxb_1027,13,0,2024-06-16T02:29:53.385Z,english_36.wav,0,1,3038,22,4,chinese,m,0,0,8.79498818,0.0614271
wxb_1027,13,0,2024-06-16T02:29:53.385Z,english_36.wav,0,1,3038,22,4,chinese,m,1,0.1,-18.99628775,0.22652961
wxb_1027,13,0,2024-06-16T02:29:53.385Z,english_36.wav,0,1,3038,22,4,chinese,m,2,0.2,-17.40156662,0.46484299
wxb_1027,13,0,2024-06-16T02:29:53.385Z,english_36.wav,0,1,3038,22,4,chinese,m,3,0.3,-85.73958234,0.81464033
wxb_1027,13,0,2024-06-16T02:29:53.385Z,english_36.wav,0,1,3038,22,4,chinese,m,4,0.32341667,45.44069908,0.21843777
wxb_1027,14,0,2024-06-16T02:29:53.385Z,english_614.wav,0,1,3068,22,4,chinese,m,0,0,78.57791509,1.76663636
wxb_1027,14,0,2024-06-16T02:29:53.385Z,english_614.wav,0,1,3068,22,4,chinese,m,1,0.1,-6.15631212,0.7337869
wxb_1027,14,0,2024-06-16T02:29:53.385Z,english_614.wav,0,1,3068,22,4,chinese,m,2,0.2,-15.34092719,1.62880485
wxb_1027,14,0,2024-06-16T02:29:53.385Z,english_614.wav,0,1,3068,22,4,chinese,m,3,0.3,21.91351344,0.61213133
wxb_1027,14,0,2024-06-16T02:29:53.385Z,english_614.wav,0,1,3068,22,4,chinese,m,4,0.32341667,-10.50820757,0.41097232
wxb_1027,15,0,2024-06-16T02:29:53.385Z,english_950.wav,0,1,2044,22,4,chinese,m,0,0,-21.9776243,0.20752278
wxb_1027,15,0,2024-06-16T02:29:53.385Z,english_950.wav,0,1,2044,22,4,chinese,m,1,0.1,-41.40023943,1.93939622
wxb_1027,15,0,2024-06-16T02:29:53.385Z,english_950.wav,0,1,2044,22,4,chinese,m,2,0.2,48.01515584,1.55608343
wxb_1027,15,0,2024-06-16T02:29:53.385Z,english_950.wav,0,1,2044,22,4,chinese,m,3,0.3,-87.95551252,1.49634866
wxb_1027,15,0,2024-06-16T02:29:53.385Z,english_950.wav,0,1,2044,22,4,chinese,m,4,0.32341667,-39.5252386,0.91783384
wxb_1027,16,0,2024-06-16T02:29:53.385Z,english_700.wav,0,1,1909,22,4,chinese,m,0,0,-76.89056698,0.13963816
wxb_1027,16,0,2024-06-16T02:29:53.385Z,english_700.wav,0,1,1909,22,4,chinese,m,1,0.1,-93.17552037,0.76842729
wxb_1027,16,0,2024-06-16T02:29:53.385Z,english_700.wav,0,1,1909,22,4,chinese,m,2,0.2,51.24439156,0.49149542
wxb_1027,16,0,2024-06-16T02:29:53.385Z,english_700.wav,0,1,1909,22,4,chinese,m,3,0.3,89.4516499,1.08714417
wxb_1027,16,0,2024-06-16T02:29:53.385Z,english_700.wav,0,1,1909,22,4,chinese,m,4,0.32341667,-68.48659069,1.35188588
wxb_1027,17,0,2024-06-16T02:29:53.385Z,english_446.wav,0,1,4314,22,4,chinese,m,0,0,-50.90487531,0.84721497
wxb_1027,17,0,2024-06-16T02:29:53.385Z,english_446.wav,0,1,4314,22,4,chinese,m,1,0.1,77.9515464,0.90863808
wxb_1027,17,0,2024-06-16T02:29:53.385Z,english_446.wav,0,1,4314,22,4,chinese,m,2,0.2,12.96913102,0.45582271
wxb_1027,17,0,2024-06-16T02:29:53.385Z,english_446.wav,0,1,4314,22,4,chinese,m,3,0.3,31.20275809,0.65529325
wxb_1027,17,0,2024-06-16T02:29:53.385Z,english_446.wav,0,1,4314,22,4,chinese,m,4,0.32341667,-30.39700356,0.08422993
wxb_1027,18,0,2024-06-16T02:29:53.385Z,english_642.wav,0,1,1634,22,4,chinese,m,0,0,31.40946548,0.21393667
wxb_1027,18,0,2024-06-16T02:29:53.385Z,english_642.wav,0,1,1634,22,4,chinese,m,1,0.1,4.73018903,1.31302396
wxb_1027,18,0,2024-06-16T02:29:53.385Z,english_642.wav,0,1,1634,22,4,chinese,m,2,0.2,85.2390777,0.95537026
wxb_1027,18,0,2024-06-16T02:29:53.385Z,english_642.wav,0,1,1634,22,4,chinese,m,3,0.3,-59.81643451,1.00167733
wxb_1027,18,0,2024-06-16T02:29:53.385Z,english_642.wav,0,1,1634,22,4,chinese,m,4,0.32341667,-42.92691369,0.89750156
wxb_1027,19,0,2024-06-16T02:29:53.385Z,english_171.wav,0,1,1744,22,4,chinese,m,0,0,13.65984607,0.71637608
wxb_1027,19,0,2024-06-16T02:29:53.385Z,english_171.wav,0,1,1744,22,4,chinese,m,1,0.1,70.55092655,1.80826384
wxb_1027,19,0,2024-06-16T02:29:53.385Z,english_171.wav,0,1,1744,22,4,chinese,m,2,0.2,57.57935127,0.47277884
wxb_1027,19,0,2024-06-16T02:29:53.385Z,english_171.wav,0,1,1744,22,4,chinese,m,3,0.3,-55.35579571,1.22036711
wxb_1027,19,0,2024-06-16T02:29:53.385Z,english_171.wav,0,1,1744,22,4,chinese,m,4,0.32341667,13.04572565,0.00907712
wxb_1027,20,0,2024-06-16T02:29:53.385Z,english_123.wav,0,1,2666,22,4,chinese,m,0,0,67.91608163,1.13046919
wxb_1027,20,0,2024-06-16T02:29:53.385Z,english_123.wav,0,1,2666,22,4,chinese,m,1,0.1,-92.32097988,1.99597614
wxb_1027,20,0,2024-06-16T02:29:53.385Z,english_123.wav,0,1,2666,22,4,chinese,m,2,0.2,57.07371841,1.53523853
wxb_1027,20,0,2024-06-16T02:29:53.385Z,english_123.wav,0,1,2666,22,4,chinese,m,3,0.3,19.28317816,0.24385811
wxb_1027,20,0,2024-06-16T02:29:53.385Z,english_123.wav,0,1,2666,22,4,chinese,m,4,0.32341667,15.30546887,0.39158976
wxb_1027,21,0,2024-06-16T02:29:53.385Z,english_474.wav,0,1,2857,22,4,chinese,m,0,0,42.88606971,0.87351765
wxb_1027,21,0,2024-06-16T02:29:53.385Z,english_474.wav,0,1,2857,22,4,chinese,m,1,0.1,6.82691085,1.08551449
wxb_1027,21,0,2024-06-16T02:29:53.385Z,english_474.wav,0,1,2857,22,4,chinese,m,2,0.2,-33.80031927,1.99847166
wxb_1027,21,0,2024-06-16T02:29:53.385Z,english_474.wav,0,1,2857,22,4,chinese,m,3,0.3,-97.18672796,0.27470298
wxb_1027,21,0,2024-06-16T02:29:53.385Z,english_474.wav,0,1,2857,22,4,chinese,m,4,0.32341667,-4.7462475,0.02962094
wxb_1027,22,0,2024-06-16T02:29:53.385Z,english_689.wav,0,1,1316,22,4,chinese,m,0,0,42.02822248,1.89069384
wxb_1027,22,0,2024-06-16T02:29:53.385Z,english_689.wav,0,1,1316,22,4,chinese,m,1,0.1,-61.92185233,0.33123617
wxb_1027,22,0,2024-06-16T02:29:53.385Z,english_689.wav,0,1,1316,22,4,chinese,m,2,0.2,-8.45156809,0.5478675
wxb_1027,22,0,2024-06-16T02:29:53.385Z,english_689.wav,0,1,1316,22,4,chinese,m,3,0.3,15.09500637,0.80334133
wxb_1027,22,0,2024-06-16T02:29:53.385Z,english_689.wav,0,1,1316,22,4,chinese,m,4,0.32341667,8.33163023,1.42024866
wxb_1027,23,0,2024-06-16T02:29:53.385Z,english_80.wav,0,1,2253,22,4,chinese,m,0,0,33.21374474,1.09809668
wxb_1027,23,0,2024-06-16T02:29:53.385Z,english_80.wav,0,1,2253,22,4,chinese,m,1,0.1,-72.2618742,1.73594877
wxb_1027,23,0,2024-06-16T02:29:53.385Z,english_80.wav,0,1,2253,22,4,chinese,m,2,0.2,-29.44860443,0.30037535
wxb_1027,23,0,2024-06-16T02:29:53.385Z,english_80.wav,0,1,2253,22,4,chinese,m,3,0.3,-33.36418129,0.36613598
wxb_1027,23,0,2024-06-16T02:29:53.385Z,english_80.wav,0,1,2253,22,4,chinese,m,4,0.32341667,-65.11319145,0.50687614
wxb_1027,24,0,2024-06-16T02:29:53.385Z,english_927.wav,0,1,1856,22,4,chinese,m,0,0,81.66311017,1.3783001
wxb_1027,24,0,2024-06-16T02:29:53.385Z,english_927.wav,0,1,1856,22,4,chinese,m,1,0.1,0.87570902,0.51323502
wxb_1027,24,0,2024-06-16T02:29:53.385Z,english_927.wav,0,1,1856,22,4,chinese,m,2,0.2,-59.21619647,0.98265958
wxb_1027,24,0,2024-06-16T02:29:53.385Z,english_927.wav,0,1,1856,22,4,chinese,m,3,0.3,-57.6787773,0.30790993
wxb_1027,24,0,2024-06-16T02:29:53.385Z,english_927.wav,0,1,1856,22,4,chinese,m,4,0.32341667,-30.87043146,1.17222751
wxb_1027,25,0,2024-06-16T02:29:53.385Z,english_307.wav,0,1,1373,22,4,chinese,m,0,0,-38.93106299,1.91951228
wxb_1027,25,0,2024-06-16T02:29:53.385Z,english_307.wav,0,1,1373,22,4,chinese,m,1,0.1,-30.40144858,0.50419792
wxb_1027,25,0,2024-06-16T02:29:53.385Z,english_307.wav,0,1,1373,22,4,chinese,m,2,0.2,2.19081651,0.76602689
wxb_1027,25,0,2024-06-16T02:29:53.385Z,english_307.wav,0,1,1373,22,4,chinese,m,3,0.3,30.82741361,0.59904457
wxb_1027,25,0,2024-06-16T02:29:53.385Z,english_307.wav,0,1,1373,22,4,chinese,m,4,0.32341667,46.9007513,1.94941235
wxb_1027,26,0,2024-06-16T02:29:53.385Z,english_672.wav,0,1,2336,22,4,chinese,m,0,0,30.04022321,0.7872581
wxb_1027,26,0,2024-06-16T02:29:53.385Z,english_672.wav,0,1,2336,22,4,chinese,m,1,0.1,-49.20146972,1.24822874
wxb_1027,26,0,2024-06-16T02:29:53.385Z,english_672.wav,0,1,2336,22,4,chinese,m,2,0.2,68.57510342,1.0921985
wxb_1027,26,0,2024-06-16T02:29:53.385Z,english_672.wav,0,1,2336,22,4,chinese,m,3,0.3,46.99705545,1.42682896
wxb_1027,26,0,2024-06-16T02:29:53.385Z,english_672.wav,0,1,2336,22,4,chinese,m,4,0.32341667,-96.75951233,0.39437363
wxb_1027,27,0,2024-06-16T02:29:53.385Z,english_752.wav,0,1,2644,22,4,chinese,m,0,0,-89.50526135,1.26833375
wxb_1027,27,0,2024-06-16T02:29:53.385Z,english_752.wav,0,1,2644,22,4,chinese,m,1,0.1,16.42916277,1.25445964
wxb_1027,27,0,2024-06-16T02:29:53.385Z,english_752.wav,0,1,2644,22,4,chinese,m,2,0.2,-62.11724863,1.84048801
wxb_1027,27,0,2024-06-16T02:29:53.385Z,english_752.wav,0,1,2644,22,4,chinese,m,3,0.3,-22.7839786,0.96813738
wxb_1027,27,0,2024-06-16T02:29:53.385Z,english_752.wav,0,1,2644,22,4,chinese,m,4,0.32341667,21.77934146,1.95604557
wxb_1027,28,0,2024-06-16T02:29:53.385Z,english_391.wav,0,1,1450,22,4,chinese,m,0,0,67.64906061,0.41951577
wxb_1027,28,0,2024-06-16T02:29:53.385Z,english_391.wav,0,1,1450,22,4,chinese,m,1,0.1,79.28195584,0.03526883
wxb_1027,28,0,2024-06-16T02:29:53.385Z,english_391.wav,0,1,1450,22,4,chinese,m,2,0.2,62.27299227,0.81828659
wxb_1027,28,0,2024-06-16T02:29:53.385Z,english_391.wav,0,1,1450,22,4,chinese,m,3,0.3,-11.10764883,1.2900604
wxb_1027,28,0,2024-06-16T02:29:53.385Z,english_391.wav,0,1,1450,22,4,chinese,m,4,0.32341667,57.41338752,1.95373865
wxb_1027,29,0,2024-06-16T02:29:53.385Z,english_968.wav,0,1,2186,22,4,chinese,m,0,0,-36.76350372,0.52322451
wxb_1027,29,0,2024-06-16T02:29:53.385Z,english_968.wav,0,1,2186,22,4,chinese,m,1,0.1,-99.8991193,0.66419732
wxb_1027,29,0,2024-06-16T02:29:53.385Z,english_968.wav,0,1,2186,22,4,chinese,m,2,0.2,27.503089,0.44232096
wxb_1027,29,0,2024-06-16T02:29:53.385Z,english_968.wav,0,1,2186,22,4,chinese,m,3,0.3,-34.85106147,1.90778707
wxb_1027,29,0,2024-06-16T02:29:53.385Z,english_968.wav,0,1,2186,22,4,chinese,m,4,0.32341667,68.2869663,0.59652698
wxb_1027,30,0,2024-06-16T02:29:53.385Z,english_514.wav,0,1,2515,22,4,chinese,m,0,0,-61.65105701,1.12509033
wxb_1027,30,0,2024-06-16T02:29:53.385Z,english_514.wav,0,1,2515,22,4,chinese,m,1,0.1,49.84264816,0.78701739
wxb_1027,30,0,2024-06-16T02:29:53.385Z,english_514.wav,0,1,2515,22,4,chinese,m,2,0.2,14.14440898,0.37052689
wxb_1027,30,0,2024-06-16T02:29:53.385Z,english_514.wav,0,1,2515,22,4,chinese,m,3,0.3,-30.10662908,1.42053426
wxb_1027,30,0,2024-06-16T02:29:53.385Z,english_514.wav,0,1,2515,22,4,chinese,m,4,0.32341667,90.48337022,1.94621598
wxb_1027,31,0,2024-06-16T02:34:56.255Z,english_234.wav,0,1,1499,22,4,chinese,m,0,0,-96.19421376,0.0948498
wxb_1027,31,0,2024-06-16T02:34:56.255Z,english_234.wav,0,1,1499,22,4,chinese,m,1,0.1,96.13097212,1.36649532
wxb_1027,31,0,2024-06-16T02:34:56.255Z,english_234.wav,0,1,1499,22,4,chinese,m,2,0.2,-68.61115628,0.00312314
wxb_1027,31,0,2024-06-16T02:34:56.255Z,english_234.wav,0,1,1499,22,4,chinese,m,3,0.3,58.3624958,0.01269103
wxb_1027,31,0,2024-06-16T02:34:56.255Z,english_234.wav,0,1,1499,22,4,chinese,m,4,0.32341667,60.51337125,1.76377265
wxb_1027,32,0,2024-06-16T02:34:56.255Z,english_839.wav,0,1,1079,22,4,chinese,m,0,0,48.1700809,1.1821708
wxb_1027,32,0,2024-06-16T02:34:56.255Z,english_839.wav,0,1,1079,22,4,chinese,m,1,0.1,-8.22030768,1.15480022
wxb_1027,32,0,2024-06-16T02:34:56.255Z,english_839.wav,0,1,1079,22,4,chinese,m,2,0.2,53.56121636,1.57293091
wxb_1027,32,0,2024-06-16T02:34:56.255Z,english_839.wav,0,1,1079,22,4,chinese,m,3,0.3,4.54416263,0.22310878
wxb_1027,32,0,2024-06-16T02:34:56.255Z,english_839.wav,0,1,1079,22,4,chinese,m,4,0.32341667,-19.83463627,0.67140257
wxb_1027,33,0,2024-06-16T02:34:56.255Z,english_495.wav,0,1,1158,22,4,chinese,m,0,0,-5.58861003,1.32978923
wxb_1027,33,0,2024-06-16T02:34:56.255Z,english_495.wav,0,1,1158,22,4,chinese,m,1,0.1,8.95176437,0.81778757
wxb_1027,33,0,2024-06-16T02:34:56.255Z,english_495.wav,0,1,1158,22,4,chinese,m,2,0.2,39.42206983,0.66481361
wxb_1027,33,0,2024-06-16T02:34:56.255Z,english_495.wav,0,1,1158,22,4,chinese,m,3,0.3,-84.38976819,0.35850052
wxb_1027,33,0,2024-06-16T02:34:56.255Z,english_495.wav,0,1,1158,22,4,chinese,m,4,0.32341667,-2.90431636,0.23899864
wxb_1027,34,0,2024-06-16T02:34:56.255Z,english_85.wav,0,1,1780,22,4,chinese,m,0,0,69.91092253,1.07696769
wxb_1027,34,0,2024-06-16T02:34:56.255Z,english_85.wav,0,1,1780,22,4,chinese,m,1,0.1,90.04885235,1.65675227
wxb_1027,34,0,2024-06-16T02:34:56.255Z,english_85.wav,0,1,1780,22,4,chinese,m,2,0.2,-54.471964,1.18566865
wxb_1027,34,0,2024-06-16T02:34:56.255Z,english_85.wav,0,1,1780,22,4,chinese,m,3,0.3,-32.42862041,0.43131811
wxb_1027,34,0,2024-06-16T02:34:56.255Z,english_85.wav,0,1,1780,22,4,chinese,m,4,0.32341667,-26.25094384,1.88641509
wxb_1027,35,0,2024-06-16T02:34:56.255Z,english_777.wav,0,1,575,22,4,chinese,m,0,0,-69.33808121,1.41371967
wxb_1027,35,0,2024-06-16T02:34:56.255Z,english_777.wav,0,1,575,22,4,chinese,m,1,0.1,83.00406244,0.89293833
wxb_1027,35,0,2024-06-16T02:34:56.255Z,english_777.wav,0,1,575,22,4,chinese,m,2,0.2,52.8456083,0.52129979
wxb_1027,35,0,2024-06-16T02:34:56.255Z,english_777.wav,0,1,575,22,4,chinese,m,3,0.3,-67.57367145,0.31704889
wxb_1027,35,0,2024-06-16T02:34:56.255Z,english_777.wav,0,1,575,22,4,chinese,m,4,0.32341667,44.30015735,0.90388625
wxb_1027,36,0,2024-06-16T02:34:56.255Z,english_722.wav,0,1,547,22,4,chinese,m,0,0,56.33358757,0.09194264
wxb_1027,36,0,2024-06-16T02:34:56.255Z,english_722.wav,0,1,547,22,4,chinese,m,1,0.1,-63.11389498,1.89550133
wxb_1027,36,0,2024-06-16T02:34:56.255Z,english_722.wav,0,1,547,22,4,chinese,m,2,0.2,65.64746862,0.18403216
wxb_1027,36,0,2024-06-16T02:34:56.255Z,english_722.wav,0,1,547,22,4,chinese,m,3,0.3,-93.10605514,1.23223326
wxb_1027,36,0,2024-06-16T02:34:56.255Z,english_722.wav,0,1,547,22,4,chinese,m,4,0.32341667,-45.92743551,0.28331892
wxb_1027,37,0,2024-06-16T02:34:56.255Z,english_550.wav,0,0,674,22,4,chinese,m,0,0,19.46608022,0.78600887
wxb_1027,37,0,2024-06-16T02:34:56.255Z,english_550.wav,0,0,674,22,4,chinese,m,1,0.1,-94.3556307,1.03273328
wxb_1027,37,0,2024-06-16T02:34:56.255Z,english_550.wav,0,0,674,22,4,chinese,m,2,0.2,-80.90695222,0.36941932
wxb_1027,37,0,2024-06-16T02:34:56.255Z,english_550.wav,0,0,674,22,4,chinese,m,3,0.3,-65.36230075,0.47038634
wxb_1027,37,0,2024-06-16T02:34:56.255Z,english_550.wav,0,0,674,22,4,chinese,m,4,0.32341667,-18.45722395,0.11798167
wxb_1027,38,0,2024-06-16T02:34:56.255Z,english_934.wav,0,1,1103,22,4,chinese,m,0,0,48.23169593,1.38760579
wxb_1027,38,0,2024-06-16T02:34:56.255Z,english_934.wav,0,1,1103,22,4,chinese,m,1,0.1,42.81145804,1.74622613
wxb_1027,38,0,2024-06-16T02:34:56.255Z,english_934.wav,0,1,1103,22,4,chinese,m,2,0.2,79.06411095,0.2874918
wxb_1027,38,0,2024-06-16T02:34:56.255Z,english_934.wav,0,1,1103,22,4,chinese,m,3,0.3,69.44528076,1.61606763
wxb_1027,38,0,2024-06-16T02:34:56.255Z,english_934.wav,0,1,1103,22,4,chinese,m,4,0.32341667,88.54940569,1.62058381
wxb_1027,39,0,2024-06-16T02:34:56.255Z,english_622.wav,0,1,1107,22,4,chinese,m,0,0,-46.49267806,1.425187
wxb_1027,39,0,2024-06-16T02:34:56.255Z,english_622.wav,0,1,1107,22,4,chinese,m,1,0.1,-80.07623079,0.61910367
wxb_1027,39,0,2024-06-16T02:34:56.255Z,english_622.wav,0,1,1107,22,4,chinese,m,2,0.2,-28.70131311,1.30297951
wxb_1027,39,0,2024-06-16T02:34:56.255Z,english_622.wav,0,1,1107,22,4,chinese,m,3,0.3,-26.89352847,1.73248838
wxb_1027,39,0,2024-06-16T02:34:56.255Z,english_622.wav,0,1,1107,22,4,chinese,m,4,0.32341667,-24.31243398,0.85523545
wxb_1027,40,0,2024-06-16T02:34:56.255Z,english_887.wav,0,1,931,22,4,chinese,m,0,0,21.36154006,0.58574694
wxb_1027,40,0,2024-06-16T02:34:56.255Z,english_887.wav,0,1,931,22,4,chinese,m,1,0.1,-21.46213737,0.48413962
wxb_1027,40,0,2024-06-16T02:34:56.255Z,english_887.wav,0,1,931,22,4,chinese,m,2,0.2,-45.53850124,1.16923549
wxb_1027,40,0,2024-06-16T02:34:56.255Z,english_887.wav,0,1,931,22,4,chinese,m,3,0.3,-75.36110743,1.46190157
wxb_1027,40,0,2024-06-16T02:34:56.255Z,english_887.wav,0,1,931,22,4,chinese,m,4,0.32341667,-96.67184991,0.00789239
wxb_1027,41,0,2024-06-16T02:34:56.255Z,english_565.wav,0,1,335,22,4,chinese,m,0,0,-89.95965492,1.93181176
wxb_1027,41,0,2024-06-16T02:34:56.255Z,english_565.wav,0,1,335,22,4,chinese,m,1,0.1,67.55938023,1.29027557
wxb_1027,41,0,2024-06-16T02:34:56.255Z,english_565.wav,0,1,335,22,4,chinese,m,2,0.2,26.6208604,0.36054668
wxb_1027,41,0,2024-06-16T02:34:56.255Z,english_565.wav,0,1,335,22,4,chinese,m,3,0.3,-54.20230035,1.25973455
wxb_1027,41,0,2024-06-16T02:34:56.255Z,english_565.wav,0,1,335,22,4,chinese,m,4,0.32341667,-98.16020256,0.92743077
wxb_1027,42,0,2024-06-16T02:34:56.255Z,english_978.wav,0,1,760,22,4,chinese,m,0,0,-73.1961296,0.69168228
wxb_1027,42,0,2024-06-16T02:34:56.255Z,english_978.wav,0,1,760,22,4,chinese,m,1,0.1,-56.98452675,1.28516196
wxb_1027,42,0,2024-06-16T02:34:56.255Z,english_978.wav,0,1,760,22,4,chinese,m,2,0.2,1.81288897,1.00851945
wxb_1027,42,0,2024-06-16T02:34:56.255Z,english_978.wav,0,1,760,22,4,chinese,m,3,0.3,-17.93803526,0.05981722
wxb_1027,42,0,2024-06-16T02:34:56.255Z,english_978.wav,0,1,760,22,4,chinese,m,4,0.32341667,-33.17886565,1.89275203
wxb_1027,43,0,2024-06-16T02:34:56.255Z,english_56.wav,0,1,6006,22,4,chinese,m,0,0,47.39262259,1.7837475
wxb_1027,43,0,2024-06-16T02:34:56.255Z,english_56.wav,0,1,6006,22,4,chinese,m,1,0.1,8.89686315,1.39740624
wxb_1027,43,0,2024-06-16T02:34:56.255Z,english_56.wav,0,1,6006,22,4,chinese,m,2,0.2,-49.65570225,0.11209095
wxb_1027,43,0,2024-06-16T02:34:56.255Z,english_56.wav,0,1,6006,22,4,chinese,m,3,0.3,44.77904805,1.4946119
wxb_1027,43,0,2024-06-16T02:34:56.255Z,english_56.wav,0,1,6006,22,4,chinese,m,4,0.32341667,-94.65832844,1.03498606
wxb_1027,44,0,2024-06-16T02:34:56.255Z,english_873.wav,0,1,1454,22,4,chinese,m,0,0,85.43762199,1.00056931
wxb_1027,44,0,2024-06-16T02:34:56.255Z,english_873.wav,0,1,1454,22,4,chinese,m,1,0.1,-27.24751419,0.47504393
wxb_1027,44,0,2024-06-16T02:34:56.255Z,english_873.wav,0,1,1454,22,4,chinese,m,2,0.2,-8.79829555,0.788147
wxb_1027,44,0,2024-06-16T02:34:56.255Z,english_873.wav,0,1,1454,22,4,chinese,m,3,0.3,-97.88620301,0.64075463
wxb_1027,44,0,2024-06-16T02:34:56.255Z,english_873.wav,0,1,1454,22,4,chinese,m,4,0.32341667,49.57089273,0.87603086
wxb_1027,45,0,2024-06-16T02:34:56.255Z,english_349.wav,0,0,2303,22,4,chinese,m,0,0,-10.00495534,0.36915768
wxb_1027,45,0,2024-06-16T02:34:56.255Z,english_349.wav,0,0,2303,22,4,chinese,m,1,0.1,54.31199814,0.83111041
wxb_1027,45,0,2024-06-16T02:34:56.255Z,english_349.wav,0,0,2303,22,4,chinese,m,2,0.2,48.17968705,1.70147194
wxb_1027,45,0,2024-06-16T02:34:56.255Z,english_349.wav,0,0,2303,22,4,chinese,m,3,0.3,8.48926652,1.08588898
wxb_1027,45,0,2024-06-16T02:34:56.255Z,english_349.wav,0,0,2303,22,4,chinese,m,4,0.32341667,42.05620052,0.02584958
wxb_1027,46,0,2024-06-16T02:34:56.255Z,english_29.wav,0,1,1391,22,4,chinese,m,0,0,-2.71310826,1.50712016
wxb_1027,46,0,2024-06-16T02:34:56.255Z,english_29.wav,0,1,1391,22,4,chinese,m,1,0.1,17.7201972,0.83644439
wxb_1027,46,0,2024-06-16T02:34:56.255Z,english_29.wav,0,1,1391,22,4,chinese,m,2,0.2,-20.17501418,0.76078741
wxb_1027,46,0,2024-06-16T02:34:56.255Z,english_29.wav,0,1,1391,22,4,chinese,m,3,0.3,12.48271646,0.17009155
wxb_1027,46,0,2024-06-16T02:34:56.255Z,english_29.wav,0,1,1391,22,4,chinese,m,4,0.32341667,29.42079391,1.26727983
wxb_1027,47,0,2024-06-16T02:34:56.255Z,english_935.wav,0,1,555,22,4,chinese,m,0,0,64.39543101,0.53440609
wxb_1027,47,0,2024-06-16T02:34:56.255Z,english_935.wav,0,1,555,22,4,chinese,m,1,0.1,86.95314533,0.5847186
wxb_1027,47,0,2024-06-16T02:34:56.255Z,english_935.wav,0,1,555,22,4,chinese,m,2,0.2,-18.93400703,0.87093815
wxb_1027,47,0,2024-06-16T02:34:56.255Z,english_935.wav,0,1,555,22,4,chinese,m,3,0.3,36.25821345,1.35336039
wxb_1027,47,0,2024-06-16T02:34:56.255Z,english_935.wav,0,1,555,22,4,chinese,m,4,0.32341667,-52.75689815,1.46825192
wxb_1027,48,0,2024-06-16T02:34:56.255Z,english_336.wav,0,0,2700,22,4,chinese,m,0,0,29.43389708,1.05594545
wxb_1027,48,0,2024-06-16T02:34:56.255Z,english_336.wav,0,0,2700,22,4,chinese,m,1,0.1,-98.82505887,1.57774783
wxb_1027,48,0,2024-06-16T02:34:56.255Z,english_336.wav,0,0,2700,22,4,chinese,m,2,0.2,33.95949266,1.35373128
wxb_1027,48,0,2024-06-16T02:34:56.255Z,english_336.wav,0,0,2700,22,4,chinese,m,3,0.3,-57.79711044,1.04960404
wxb_1027,48,0,2024-06-16T02:34:56.255Z,english_336.wav,0,0,2700,22,4,chinese,m,4,0.32341667,81.65015026,0.39151968
wxb_1027,49,0,2024-06-16T02:34:56.255Z,english_829.wav,0,0,705,22,4,chinese,m,0,0,60.30417439,0.94286345
wxb_1027,49,0,2024-06-16T02:34:56.255Z,english_829.wav,0,0,705,22,4,chinese,m,1,0.1,-26.87459656,0.76756767
wxb_1027,49,0,2024-06-16T02:34:56.255Z,english_829.wav,0,0,705,22,4,chinese,m,2,0.2,59.05286014,1.50609211
wxb_1027,49,0,2024-06-16T02:34:56.255Z,english_829.wav,0,0,705,22,4,chinese,m,3,0.3,-38.64739237,0.33518122
wxb_1027,49,0,2024-06-16T02:34:56.255Z,english_829.wav,0,0,705,22,4,chinese,m,4,0.32341667,68.61732932,1.40687349
wxb_1027,50,1,2024-06-16T02:37:45.608Z,english_878.wav,0,0,1283,22,4,chinese,m,0,0,84.19501339,0.22676298
wxb_1027,50,1,2024-06-16T02:37:45.608Z,english_878.wav,0,0,1283,22,4,chinese,m,1,0.1,76.71234668,0.28568495
wxb_1027,50,1,2024-06-16T02:37:45.608Z,english_878.wav,0,0,1283,22,4,chinese,m,2,0.2,-74.61835319,0.74220819
wxb_1027,50,1,2024-06-16T02:37:45.608Z,english_878.wav,0,0,1283,22,4,chinese,m,3,0.3,83.79758366,1.72755148
wxb_1027,50,1,2024-06-16T02:37:45.608Z,english_878.wav,0,0,1283,22,4,chinese,m,4,0.32341667,-29.32243698,1.88938616
wxb_1027,51,1,2024-06-16T02:37:45.608Z,english_608.wav,0,1,683,22,4,chinese,m,0,0,78.8022196,1.54390555
wxb_1027,51,1,2024-06-16T02:37:45.608Z,english_608.wav,0,1,683,22,4,chinese,m,1,0.1,59.03316834,1.36513164
wxb_1027,51,1,2024-06-16T02:37:45.608Z,english_608.wav,0,1,683,22,4,chinese,m,2,0.2,-13.94961152,0.78716897
wxb_1027,51,1,2024-06-16T02:37:45.608Z,english_608.wav,0,1,683,22,4,chinese,m,3,0.3,55.83681575,1.29889886
wxb_1027,51,1,2024-06-16T02:37:45.608Z,english_608.wav,0,1,683,22,4,chinese,m,4,0.32341667,-13.77656228,0.44376749
wxb_1027,52,1,2024-06-16T02:37:45.608Z,english_569.wav,0,0,833,22,4,chinese,m,0,0,-44.4695194,1.56768834
wxb_1027,52,1,2024-06-16T02:37:45.608Z,english_569.wav,0,0,833,22,4,chinese,m,1,0.1,50.36705327,0.42032873
wxb_1027,52,1,2024-06-16T02:37:45.608Z,english_569.wav,0,0,833,22,4,chinese,m,2,0.2,-76.17438636,0.31133764
wxb_1027,52,1,2024-06-16T02:37:45.608Z,english_569.wav,0,0,833,22,4,chinese,m,3,0.3,55.47083669,0.91900801
wxb_1027,52,1,2024-06-16T02:37:45.608Z,english_569.wav,0,0,833,22,4,chinese,m,4,0.32341667,-10.68913609,1.26529561
wxb_1027,53,1,2024-06-16T02:37:45.608Z,english_713.wav,0,0,1558,22,4,chinese,m,0,0,18.77281956,1.04868626
wxb_1027,53,1,2024-06-16T02:37:45.608Z,english_713.wav,0,0,1558,22,4,chinese,m,1,0.1,40.78610286,0.48332939
wxb_1027,53,1,2024-06-16T02:37:45.608Z,english_713.wav,0,0,1558,22,4,chinese,m,2,0.2,84.18153491,0.83217717
wxb_1027,53,1,2024-06-16T02:37:45.608Z,english_713.wav,0,0,1558,22,4,chinese,m,3,0.3,47.00827256,1.90318663
wxb_1027,53,1,2024-06-16T02:37:45.608Z,english_713.wav,0,0,1558,22,4,chinese,m,4,0.32341667,66.01008384,0.50055362
wxb_1027,54,1,2024-06-16T02:37:45.608Z,english_928.wav,0,1,726,22,4,chinese,m,0,0,55.07207497,1.22706758
wxb_1027,54,1,2024-06-16T02:37:45.608Z,english_928.wav,0,1,726,22,4,chinese,m,1,0.1,83.71672672,0.97206042
wxb_1027,54,1,2024-06-16T02:37:45.608Z,english_928.wav,0,1,726,22,4,chinese,m,2,0.2,-43.28929986,0.16969859
wxb_1027,54,1,2024-06-16T02:37:45.608Z,english_928.wav,0,1,726,22,4,chinese,m,3,0.3,-17.1692271,0.90092586
wxb_1027,54,1,2024-06-16T02:37:45.608Z,english_928.wav,0,1,726,22,4,chinese,m,4,0.32341667,-36.644272,0.43024518
wxb_1027,55,1,2024-06-16T02:37:45.608Z,english_837.wav,0,0,846,22,4,chinese,m,0,0,-10.72674788,0.56055933
wxb_1027,55,1,2024-06-16T02:37:45.608Z,english_837.wav,0,0,846,22,4,chinese,m,1,0.1,33.60933966,1.16716927
wxb_1027,55,1,2024-06-16T02:37:45.608Z,english_837.wav,0,0,846,22,4,chinese,m,2,0.2,-1.37827911,1.02731607
wxb_1027,55,1,2024-06-16T02:37:45.608Z,english_837.wav,0,0,846,22,4,chinese,m,3,0.3,29.3498758,1.96665864
wxb_1027,55,1,2024-06-16T02:37:45.608Z,english_837.wav,0,0,846,22,4,chinese,m,4,0.32341667,31.86641091,0.45425732
wxb_1027,56,1,2024-06-16T02:37:45.608Z,english_15.wav,0,1,1021,22,4,chinese,m,0,0,-84.2209614,0.31323186
wxb_1027,56,1,2024-06-16T02:37:45.608Z,english_15.wav,0,1,1021,22,4,chinese,m,1,0.1,62.09656714,0.60538609
wxb_1027,56,1,2024-06-16T02:37:45.608Z,english_15.wav,0,1,1021,22,4,chinese,m,2,0.2,55.13992629,0.21165259
wxb_1027,56,1,2024-06-16T02:37:45.608Z,english_15.wav,0,1,1021,22,4,chinese,m,3,0.3,-55.71077558,0.62501131
wxb_1027,56,1,2024-06-16T02:37:45.608Z,english_15.wav,0,1,1021,22,4,chinese,m,4,0.32341667,77.6678018,0.97290752
wxb_1027,57,1,2024-06-16T02:37:45.608Z,english_265.wav,0,0,915,22,4,chinese,m,0,0,-30.2287418,1.31067296
wxb_1027,57,1,2024-06-16T02:37:45.608Z,english_265.wav,0,0,915,22,4,chinese,m,1,0.1,86.62283936,0.87427745
wxb_1027,57,1,2024-06-16T02:37:45.608Z,english_265.wav,0,0,915,22,4,chinese,m,2,0.2,-21.47577863,1.37620008
wxb_1027,57,1,2024-06-16T02:37:45.608Z,english_265.wav,0,0,915,22,4,chinese,m,3,0.3,84.9300577,0.45825557
wxb_1027,57,1,2024-06-16T02:37:45.608Z,english_265.wav,0,0,915,22,4,chinese,m,4,0.32341667,59.52250756,1.13518739
wxb_1027,58,1,2024-06-16T02:37:45.608Z,english_998.wav,0,1,1231,22,4,chinese,m,0,0,-57.03196796,0.0179282
wxb_1027,58,1,2024-06-16T02:37:45.608Z,english_998.wav,0,1,1231,22,4,chinese,m,1,0.1,-12.93623633,1.72217412
wxb_1027,58,1,2024-06-16T02:37:45.608Z,english_998.wav,0,1,1231,22,4,chinese,m,2,0.2,-24.63186366,0.91011795
wxb_1027,58,1,2024-06-16T02:37:45.608Z,english_998.wav,0,1,1231,22,4,chinese,m,3,0.3,-10.49750637,1.24282972
wxb_1027,58,1,2024-06-16T02:37:45.608Z,english_998.wav,0,1,1231,22,4,chinese,m,4,0.32341667,22.76793653,0.40520665
wxb_1027,59,1,2024-06-16T02:37:45.608Z,english_638.wav,0,1,834,22,4,chinese,m,0,0,6.92468799,1.1702122
wxb_1027,59,1,2024-06-16T02:37:45.608Z,english_638.wav,0,1,834,22,4,chinese,m,1,0.1,52.10042521,0.51269982
wxb_1027,59,1,2024-06-16T02:37:45.608Z,english_638.wav,0,1,834,22,4,chinese,m,2,0.2,-39.07293948,0.1912204
wxb_1027,59,1,2024-06-16T02:37:45.608Z,english_638.wav,0,1,834,22,4,chinese,m,3,0.3,38.46029754,0.91406415
wxb_1027,59,1,2024-06-16T02:37:45.608Z,english_638.wav,0,1,834,22,4,chinese,m,4,0.32341667,-16.6630855,1.67689755
wxb_1027,60,1,2024-06-16T02:37:45.608Z,english_738.wav,0,0,562,22,4,chinese,m,0,0,-37.88087101,1.83397703
wxb_1027,60,1,2024-06-16T02:37:45.608Z,english_738.wav,0,0,562,22,4,chinese,m,1,0.1,-16.85966727,1.52099356
wxb_1027,60,1,2024-06-16T02:37:45.608Z,english_738.wav,0,0,562,22,4,chinese,m,2,0.2,-79.76891938,1.69283951
wxb_1027,60,1,2024-06-16T02:37:45.608Z,english_738.wav,0,0,562,22,4,chinese,m,3,0.3,-82.30918252,1.81957343
wxb_1027,60,1,2024-06-16T02:37:45.608Z,english_738.wav,0,0,562,22,4,chinese,m,4,0.32341667,59.65991076,0.75908376
wxb_1027,61,1,2024-06-16T02:37:45.608Z,english_297.wav,0,1,717,22,4,chinese,m,0,0,43.84745313,1.28698197
wxb_1027,61,1,2024-06-16T02:37:45.608Z,english_297.wav,0,1,717,22,4,chinese,m,1,0.1,-76.77337823,0.55126404
wxb_1027,61,1,2024-06-16T02:37:45.608Z,english_297.wav,0,1,717,22,4,chinese,m,2,0.2,52.72097055,0.14077967
wxb_1027,61,1,2024-06-16T02:37:45.608Z,english_297.wav,0,1,717,22,4,chinese,m,3,0.3,-53.36684977,1.29889067
wxb_1027,61,1,2024-06-16T02:37:45.608Z,english_297.wav,0,1,717,22,4,chinese,m,4,0.32341667,81.15212258,1.30715655
wxb_1027,62,1,2024-06-16T02:37:45.608Z,english_585.wav,0,1,2308,22,4,chinese,m,0,0,-47.47167609,0.91486293
wxb_1027,62,1,2024-06-16T02:37:45.608Z,english_585.wav,0,1,2308,22,4,chinese,m,1,0.1,-85.73018253,0.8051019
wxb_1027,62,1,2024-06-16T02:37:45.608Z,english_585.wav,0,1,2308,22,4,chinese,m,2,0.2,4.69567907,1.25289508
wxb_1027,62,1,2024-06-16T02:37:45.608Z,english_585.wav,0,1,2308,22,4,chinese,m,3,0.3,51.83381109,0.83258124
wxb_1027,62,1,2024-06-16T02:37:45.608Z,english_585.wav,0,1,2308,22,4,chinese,m,4,0.32341667,14.12777642,1.43411439
wxb_1027,63,1,2024-06-16T02:37:45.608Z,english_701.wav,0,0,890,22,4,chinese,m,0,0,87.15265727,1.41120649
wxb_1027,63,1,2024-06-16T02:37:45.608Z,english_701.wav,0,0,890,22,4,chinese,m,1,0.1,38.39882515,0.44004622
wxb_1027,63,1,2024-06-16T02:37:45.608Z,english_701.wav,0,0,890,22,4,chinese,m,2,0.2,64.60201562,1.15462264
wxb_1027,63,1,2024-06-16T02:37:45.608Z,english_701.wav,0,0,890,22,4,chinese,m,3,0.3,12.58613119,1.17454355
wxb_1027,63,1,2024-06-16T02:37:45.608Z,english_701.wav,0,0,890,22,4,chinese,m,4,0.32341667,46.94968762,1.38716818
wxb_1027,64,1,2024-06-16T02:37:45.608Z,english_533.wav,0,1,1033,22,4,chinese,m,0,0,-10.36570298,0.10013008
wxb_1027,64,1,2024-06-16T02:37:45.608Z,english_533.wav,0,1,1033,22,4,chinese,m,1,0.1,-67.04420928,1.73583104
wxb_1027,64,1,2024-06-16T02:37:45.608Z,english_533.wav,0,1,1033,22,4,chinese,m,2,0.2,-31.24691396,1.00550506
wxb_1027,64,1,2024-06-16T02:37:45.608Z,english_533.wav,0,1,1033,22,4,chinese,m,3,0.3,-22.73912087,1.21009828
wxb_1027,64,1,2024-06-16T02:37:45.608Z,english_533.wav,0,1,1033,22,4,chinese,m,4,0.32341667,-4.63915005,1.69946188
wxb_1027,65,1,2024-06-16T02:37:45.608Z,english_676.wav,0,0,1473,22,4,chinese,m,0,0,3.93099148,1.7716209
wxb_1027,65,1,2024-06-16T02:37:45.608Z,english_676.wav,0,0,1473,22,4,chinese,m,1,0.1,73.76311644,1.97281878
wxb_1027,65,1,2024-06-16T02:37:45.608Z,english_676.wav,0,0,1473,22,4,chinese,m,2,0.2,-26.92634129,1.42487848
wxb_1027,65,1,2024-06-16T02:37:45.608Z,english_676.wav,0,0,1473,22,4,chinese,m,3,0.3,51.70874443,1.45099775
wxb_1027,65,1,2024-06-16T02:37:45.608Z,english_676.wav,0,0,1473,22,4,chinese,m,4,0.32341667,-48.7675791,1.84822532
wxb_1027,66,1,2024-06-16T02:37:45.608Z,english_993.wav,0,1,1174,22,4,chinese,m,0,0,-66.15449332,1.17508471
wxb_1027,66,1,2024-06-16T02:37:45.608Z,english_993.wav,0,1,1174,22,4,chinese,m,1,0.1,33.08083728,0.94744004
wxb_1027,66,1,2024-06-16T02:37:45.608Z,english_993.wav,0,1,1174,22,4,chinese,m,2,0.2,51.46479562,0.74931244
wxb_1027,66,1,2024-06-16T02:37:45.608Z,english_993.wav,0,1,1174,22,4,chinese,m,3,0.3,-80.58676237,0.35628979
wxb_1027,66,1,2024-06-16T02:37:45.608Z,english_993.wav,0,1,1174,22,4,chinese,m,4,0.32341667,81.97884737,1.25416847
wxb_1027,67,1,2024-06-16T02:37:45.608Z,english_367.wav,0,1,1945,22,4,chinese,m,0,0,69.68935346,1.12532443
wxb_1027,67,1,2024-06-16T02:37:45.608Z,english_367.wav,0,1,1945,22,4,chinese,m,1,0.1,-21.84293244,1.15903886
wxb_1027,67,1,2024-06-16T02:37:45.608Z,english_367.wav,0,1,1945,22,4,chinese,m,2,0.2,-22.40126322,1.68834661
wxb_1027,67,1,2024-06-16T02:37:45.608Z,english_367.wav,0,1,1945,22,4,chinese,m,3,0.3,-77.83415675,1.78966274
wxb_1027,67,1,2024-06-16T02:37:45.608Z,english_367.wav,0,1,1945,22,4,chinese,m,4,0.32341667,18.42522507,1.57311162
wxb_1027,68,1,2024-06-16T02:37:45.608Z,english_858.wav,0,1,1676,22,4,chinese,m,0,0,45.12570132,0.50395823
wxb_1027,68,1,2024-06-16T02:37:45.608Z,english_858.wav,0,1,1676,22,4,chinese,m,1,0.1,-46.71359417,1.50658612
wxb_1027,68,1,2024-06-16T02:37:45.608Z,english_858.wav,0,1,1676,22,4,chinese,m,2,0.2,-60.32464978,0.86887416
wxb_1027,68,1,2024-06-16T02:37:45.608Z,english_858.wav,0,1,1676,22,4,chinese,m,3,0.3,-70.46241098,0.20520469
wxb_1027,68,1,2024-06-16T02:37:45.608Z,english_858.wav,0,1,1676,22,4,chinese,m,4,0.32341667,76.51169453,1.05885662
wxb_1027,69,1,2024-06-16T02:37:45.608Z,english_914.wav,0,0,734,22,4,chinese,m,0,0,37.51857345,0.04486829
wxb_1027,69,1,2024-06-16T02:37:45.608Z,english_914.wav,0,0,734,22,4,chinese,m,1,0.1,-30.53068311,1.18486584
wxb_1027,69,1,2024-06-16T02:37:45.608Z,english_914.wav,0,0,734,22,4,chinese,m,2,0.2,-12.980452,1.58356311
wxb_1027,69,1,2024-06-16T02:37:45.608Z,english_914.wav,0,0,734,22,4,chinese,m,3,0.3,-99.09260462,1.35478251
wxb_1027,69,1,2024-06-16T02:37:45.608Z,english_914.wav,0,0,734,22,4,chinese,m,4,0.32341667,-34.91402533,1.16671671
wxb_1027,70,1,2024-06-16T02:37:45.608Z,english_141.wav,0,1,1797,22,4,chinese,m,0,0,-85.83390244,1.36546316
wxb_1027,70,1,2024-06-16T02:37:45.608Z,english_141.wav,0,1,1797,22,4,chinese,m,1,0.1,-83.68236309,0.39424104
wxb_1027,70,1,2024-06-16T02:37:45.608Z,english_141.wav,0,1,1797,22,4,chinese,m,2,0.2,-69.95552588,1.31629396
wxb_1027,70,1,2024-06-16T02:37:45.608Z,english_141.wav,0,1,1797,22,4,chinese,m,3,0.3,-14.67715053,0.23786768
wxb_1027,70,1,2024-06-16T02:37:45.608Z,english_141.wav,0,1,1797,22,4,chinese,m,4,0.32341667,73.76142723,0.2069198
wxb_1027,71,1,2024-06-16T02:37:45.608Z,english_705.wav,0,1,2869,22,4,chinese,m,0,0,3.76426423,0.9500377
wxb_1027,71,1,2024-06-16T02:37:45.608Z,english_705.wav,0,1,2869,22,4,chinese,m,1,0.1,90.96696755,0.74173997
wxb_1027,71,1,2024-06-16T02:37:45.608Z,english_705.wav,0,1,2869,22,4,chinese,m,2,0.2,-32.86898574,1.78776637
wxb_1027,71,1,2024-06-16T02:37:45.608Z,english_705.wav,0,1,2869,22,4,chinese,m,3,0.3,-21.12550784,0.8178788
wxb_1027,71,1,2024-06-16T02:37:45.608Z,english_705.wav,0,1,2869,22,4,chinese,m,4,0.32341667,39.74077299,1.54913024
wxb_1027,72,1,2024-06-16T02:37:45.608Z,english_688.wav,0,1,2796,22,4,chinese,m,0,0,-45.64286614,1.06356906
wxb_1027,72,1,2024-06-16T02:37:45.608Z,english_688.wav,0,1,2796,22,4,chinese,m,1,0.1,39.73956276,0.85197809
wxb_1027,72,1,2024-06-16T02:37:45.608Z,english_688.wav,0,1,2796,22,4,chinese,m,2,0.2,40.53719602,0.68718846
wxb_1027,72,1,2024-06-16T02:37:45.608Z,english_688.wav,0,1,2796,22,4,chinese,m,3,0.3,-71.29470492,1.67995478
wxb_1027,72,1,2024-06-16T02:37:45.608Z,english_688.wav,0,1,2796,22,4,chinese,m,4,0.32341667,73.7490074,1.45979079
wxb_1027,73,1,2024-06-16T02:37:45.608Z,english_394.wav,0,0,733,22,4,chinese,m,0,0,73.08757955,1.29313131
wxb_1027,73,1,2024-06-16T02:37:45.608Z,english_394.wav,0,0,733,22,4,chinese,m,1,0.1,5.60908311,0.62691873
wxb_1027,73,1,2024-06-16T02:37:45.608Z,english_394.wav,0,0,733,22,4,chinese,m,2,0.2,76.56705043,1.4938005
wxb_1027,73,1,2024-06-16T02:37:45.608Z,english_394.wav,0,0,733,22,4,chinese,m,3,0.3,18.85166324,1.2266925
wxb_1027,73,1,2024-06-16T02:37:45.608Z,english_394.wav,0,0,733,22,4,chinese,m,4,0.32341667,8.45052692,0.67844158
wxb_1027,74,1,2024-06-16T02:37:45.608Z,english_98.wav,0,0,2062,22,4,chinese,m,0,0,-23.07451683,0.55932234
wxb_1027,74,1,2024-06-16T02:37:45.608Z,english_98.wav,0,0,2062,22,4,chinese,m,1,0.1,58.83766866,1.03192869
wxb_1027,74,1,2024-06-16T02:37:45.608Z,english_98.wav,0,0,2062,22,4,chinese,m,2,0.2,75.90401246,1.16154403
wxb_1027,74,1,2024-06-16T02:37:45.608Z,english_98.wav,0,0,2062,22,4,chinese,m,3,0.3,-86.31256295,0.50819795
wxb_1027,74,1,2024-06-16T02:37:45.608Z,english_98.wav,0,0,2062,22,4,chinese,m,4,0.32341667,26.17624316,1.94690859
wxb_1027,75,1,2024-06-16T02:37:45.608Z,english_325.wav,0,1,699,22,4,chinese,m,0,0,-36.86035688,0.2784687
wxb_1027,75,1,2024-06-16T02:37:45.608Z,english_325.wav,0,1,699,22,4,chinese,m,1,0.1,-55.38569655,1.41229923
wxb_1027,75,1,2024-06-16T02:37:45.608Z,english_325.wav,0,1,699,22,4,chinese,m,2,0.2,-56.86017215,0.83316938
wxb_1027,75,1,2024-06-16T02:37:45.608Z,english_325.wav,0,1,699,22,4,chinese,m,3,0.3,-98.19449268,0.3465596
wxb_1027,75,1,2024-06-16T02:37:45.608Z,english_325.wav,0,1,699,22,4,chinese,m,4,0.32341667,-6.42447902,1.41863786
wxb_1027,76,1,2024-06-16T02:37:45.608Z,english_104.wav,0,1,1351,22,4,chinese,m,0,0,42.44693926,0.1741435
wxb_1027,76,1,2024-06-16T02:37:45.608Z,english_104.wav,0,1,1351,22,4,chinese,m,1,0.1,82.22484934,0.11379641
wxb_1027,76,1,2024-06-16T02:37:45.608Z,english_104.wav,0,1,1351,22,4,chinese,m,2,0.2,7.21737924,1.60376175
wxb_1027,76,1,2024-06-16T02:37:45.608Z,english_104.wav,0,1,1351,22,4,chinese,m,3,0.3,26.54640215,1.08059257
wxb_1027,76,1,2024-06-16T02:37:45.608Z,english_104.wav,0,1,1351,22,4,chinese,m,4,0.32341667,-33.4974026,1.8061622
wxb_1027,77,1,2024-06-16T02:37:45.608Z,english_62.wav,0,1,869,22,4,chinese,m,0,0,17.28527913,1.12530616
wxb_1027,77,1,2024-06-16T02:37:45.608Z,english_62.wav,0,1,869,22,4,chinese,m,1,0.1,8.63936001,1.09357984
wxb_1027,77,1,2024-06-16T02:37:45.608Z,english_62.wav,0,1,869,22,4,chinese,m,2,0.2,-69.0074729,1.07648496
wxb_1027,77,1,2024-06-16T02:37:45.608Z,english_62.wav,0,1,869,22,4,chinese,m,3,0.3,-18.85502465,0.36768209
wxb_1027,77,1,2024-06-16T02:37:45.608Z,english_62.wav,0,1,869,22,4,chinese,m,4,0.32341667,59.46739627,0.39033463
wxb_1027,78,1,2024-06-16T02:37:45.608Z,english_618.wav,0,1,1085,22,4,chinese,m,0,0,58.31579708,1.46895394
wxb_1027,78,1,2024-06-16T02:37:45.608Z,english_618.wav,0,1,1085,22,4,chinese,m,1,0.1,6.96253647,0.48660613
wxb_1027,78,1,2024-06-16T02:37:45.608Z,english_618.wav,0,1,1085,22,4,chinese,m,2,0.2,-4.41581756,1.00963977
wxb_1027,78,1,2024-06-16T02:37:45.608Z,english_618.wav,0,1,1085,22,4,chinese,m,3,0.3,-63.5775247,1.29399549
wxb_1027,78,1,2024-06-16T02:37:45.608Z,english_618.wav,0,1,1085,22,4,chinese,m,4,0.32341667,97.77631762,0.84060701
wxb_1027,79,1,2024-06-16T02:37:45.608Z,english_164.wav,0,1,781,22,4,chinese,m,0,0,-18.99376005,1.91320144
wxb_1027,79,1,2024-06-16T02:37:45.608Z,english_164.wav,0,1,781,22,4,chinese,m,1,0.1,-38.65269109,0.23857652
wxb_1027,79,1,2024-06-16T02:37:45.608Z,english_164.wav,0,1,781,22,4,chinese,m,2,0.2,64.75288033,1.41883879
wxb_1027,79,1,2024-06-16T02:37:45.608Z,english_164.wav,0,1,781,22,4,chinese,m,3,0.3,-33.8407164,1.34667564
wxb_1027,79,1,2024-06-16T02:37:45.608Z,english_164.wav,0,1,781,22,4,chinese,m,4,0.32341667,27.96502681,0.04602263
wxb_1027,80,1,2024-06-16T02:37:45.608Z,english_808.wav,0,1,887,22,4,chinese,m,0,0,23.02589628,1.07384277
wxb_1027,80,1,2024-06-16T02:37:45.608Z,english_808.wav,0,1,887,22,4,chinese,m,1,0.1,10.58817829,1.3919179
wxb_1027,80,1,2024-06-16T02:37:45.608Z,english_808.wav,0,1,887,22,4,chinese,m,2,0.2,36.77134597,0.54960524
wxb_1027,80,1,2024-06-16T02:37:45.608Z,english_808.wav,0,1,887,22,4,chinese,m,3,0.3,-30.31603221,1.95871365
wxb_1027,80,1,2024-06-16T02:37:45.608Z,english_808.wav,0,1,887,22,4,chinese,m,4,0.32341667,9.74764343,0.79150541
wxb_1027,81,1,2024-06-16T02:37:45.608Z,english_848.wav,0,1,1932,22,4,chinese,m,0,0,43.30233352,0.12582596
wxb_1027,81,1,2024-06-16T02:37:45.608Z,english_848.wav,0,1,1932,22,4,chinese,m,1,0.1,-77.77691247,1.72621372
wxb_1027,81,1,2024-06-16T02:37:45.608Z,english_848.wav,0,1,1932,22,4,chinese,m,2,0.2,-68.99020863,1.753656
wxb_1027,81,1,2024-06-16T02:37:45.608Z,english_848.wav,0,1,1932,22,4,chinese,m,3,0.3,-43.68641023,1.37442753
wxb_1027,81,1,2024-06-16T02:37:45.608Z,english_848.wav,0,1,1932,22,4,chinese,m,4,0.32341667,-14.19502025,1.04930351
wxb_1027,82,1,2024-06-16T02:37:45.608Z,english_929.wav,0,1,3370,22,4,chinese,m,0,0,29.19700723,1.75028237
wxb_1027,82,1,2024-06-16T02:37:45.608Z,english_929.wav,0,1,3370,22,4,chinese,m,1,0.1,15.63825327,0.16776534
wxb_1027,82,1,2024-06-16T02:37:45.608Z,english_929.wav,0,1,3370,22,4,chinese,m,2,0.2,3.65085895,0.15899819
wxb_1027,82,1,2024-06-16T02:37:45.608Z,english_929.wav,0,1,3370,22,4,chinese,m,3,0.3,-91.18848108,0.41497916
wxb_1027,82,1,2024-06-16T02:37:45.608Z,english_929.wav,0,1,3370,22,4,chinese,m,4,0.32341667,53.29025089,0.946821
wxb_1027,83,1,2024-06-16T02:37:45.608Z,english_322.wav,0,1,1360,22,4,chinese,m,0,0,-27.28438319,0.79345249
wxb_1027,83,1,2024-06-16T02:37:45.608Z,english_322.wav,0,1,1360,22,4,chinese,m,1,0.1,-98.66999083,0.28651419
wxb_1027,83,1,2024-06-16T02:37:45.608Z,english_322.wav,0,1,1360,22,4,chinese,m,2,0.2,-54.08694108,1.26482546
wxb_1027,83,1,2024-06-16T02:37:45.608Z,english_322.wav,0,1,1360,22,4,chinese,m,3,0.3,-7.3933801,0.6947791
wxb_1027,83,1,2024-06-16T02:37:45.608Z,english_322.wav,0,1,1360,22,4,chinese,m,4,0.32341667,72.49489683,0.74875353
wxb_1027,84,1,2024-06-16T02:37:45.608Z,english_574.wav,0,0,942,22,4,chinese,m,0,0,53.128433,0.28349694
wxb_1027,84,1,2024-06-16T02:37:45.608Z,english_574.wav,0,0,942,22,4,chinese,m,1,0.1,70.24248151,0.66519348
wxb_1027,84,1,2024-06-16T02:37:45.608Z,english_574.wav,0,0,942,22,4,chinese,m,2,0.2,47.13290739,1.25768036
wxb_1027,84,1,2024-06-16T02:37:45.608Z,english_574.wav,0,0,942,22,4,chinese,m,3,0.3,52.31480293,1.43482954
wxb_1027,84,1,2024-06-16T02:37:45.608Z,english_574.wav,0,0,942,22,4,chinese,m,4,0.32341667,-33.06438127,1.23350688
wxb_1027,85,1,2024-06-16T02:37:45.608Z,english_704.wav,0,0,1833,22,4,chinese,m,0,0,-24.48288207,0.92043902
wxb_1027,85,1,2024-06-16T02:37:45.608Z,english_704.wav,0,0,1833,22,4,chinese,m,1,0.1,-9.94163531,0.96595902
wxb_1027,85,1,2024-06-16T02:37:45.608Z,english_704.wav,0,0,1833,22,4,chinese,m,2,0.2,74.85271107,1.40327859
wxb_1027,85,1,2024-06-16T02:37:45.608Z,english_704.wav,0,0,1833,22,4,chinese,m,3,0.3,-38.44921803,1.07325586
wxb_1027,85,1,2024-06-16T02:37:45.608Z,english_704.wav,0,0,1833,22,4,chinese,m,4,0.32341667,-21.20994959,1.87555588
wxb_1027,86,1,2024-06-16T02:37:45.608Z,english_207.wav,0,1,1307,22,4,chinese,m,0,0,-64.55688296,1.06406661
wxb_1027,86,1,2024-06-16T02:37:45.608Z,english_207.wav,0,1,1307,22,4,chinese,m,1,0.1,98.33987034,1.58122859
wxb_1027,86,1,2024-06-16T02:37:45.608Z,english_207.wav,0,1,1307,22,4,chinese,m,2,0.2,-40.48281934,1.31381917
wxb_1027,86,1,2024-06-16T02:37:45.608Z,english_207.wav,0,1,1307,22,4,chinese,m,3,0.3,-36.48143513,0.83233835
wxb_1027,86,1,2024-06-16T02:37:45.608Z,english_207.wav,0,1,1307,22,4,chinese,m,4,0.32341667,-87.11188062,0.12663517
wxb_1027,87,1,2024-06-16T02:37:45.608Z,english_471.wav,0,1,1488,22,4,chinese,m,0,0,47.42131089,0.58869392
wxb_1027,87,1,2024-06-16T02:37:45.608Z,english_471.wav,0,1,1488,22,4,chinese,m,1,0.1,-63.95282256,1.74739294
wxb_1027,87,1,2024-06-16T02:37:45.608Z,english_471.wav,0,1,1488,22,4,chinese,m,2,0.2,31.67244378,1.10105994
wxb_1027,87,1,2024-06-16T02:37:45.608Z,english_471.wav,0,1,1488,22,4,chinese,m,3,0.3,40.6572625,0.54790015
wxb_1027,87,1,2024-06-16T02:37:45.608Z,english_471.wav,0,1,1488,22,4,chinese,m,4,0.32341667,-18.6332399,1.33029013
wxb_1027,88,1,2024-06-16T02:37:45.608Z,english_235.wav,0,1,3271,22,4,chinese,m,0,0,-1.09951899,1.56432712
wxb_1027,88,1,2024-06-16T02:37:45.608Z,english_235.wav,0,1,3271,22,4,chinese,m,1,0.1,-96.83918407,0.18127978
wxb_1027,88,1,2024-06-16T02:37:45.608Z,english_235.wav,0,1,3271,22,4,chinese,m,2,0.2,96.22116446,1.26168206
wxb_1027,88,1,2024-06-16T02:37:45.608Z,english_235.wav,0,1,3271,22,4,chinese,m,3,0.3,48.9502898,1.98140435
wxb_1027,88,1,2024-06-16T02:37:45.608Z,english_235.wav,0,1,3271,22,4,chinese,m,4,0.32341667,38.18641725,0.52366779
wxb_1027,89,1,2024-06-16T02:37:45.608Z,english_203.wav,0,0,1435,22,4,chinese,m,0,0,-22.28277813,1.31475846
wxb_1027,89,1,2024-06-16T02:37:45.608Z,english_203.wav,0,0,1435,22,4,chinese,m,1,0.1,13.21695477,1.08922412
wxb_1027,89,1,2024-06-16T02:37:45.608Z,english_203.wav,0,0,1435,22,4,chinese,m,2,0.2,63.23651974,0.55450355
wxb_1027,89,1,2024-06-16T02:37:45.608Z,english_203.wav,0,0,1435,22,4,chinese,m,3,0.3,-20.14830746,1.72034007
wxb_1027,89,1,2024-06-16T02:37:45.608Z,english_203.wav,0,0,1435,22,4,chinese,m,4,0.32341667,-78.55276631,0.92481053
wxb_1027,90,1,2024-06-16T02:37:45.608Z,english_182.wav,0,1,1021,22,4,chinese,m,0,0,57.43769915,0.89919812
wxb_1027,90,1,2024-06-16T02:37:45.608Z,english_182.wav,0,1,1021,22,4,chinese,m,1,0.1,-87.06676545,1.25243937
wxb_1027,90,1,2024-06-16T02:37:45.608Z,english_182.wav,0,1,1021,22,4,chinese,m,2,0.2,-91.52107401,1.35021358
wxb_1027,90,1,2024-06-16T02:37:45.608Z,english_182.wav,0,1,1021,22,4,chinese,m,3,0.3,52.0843588,0.52787795
wxb_1027,90,1,2024-06-16T02:37:45.608Z,english_182.wav,0,1,1021,22,4,chinese,m,4,0.32341667,18.07264914,0.72620624
wxb_1027,91,1,2024-06-16T02:37:45.608Z,english_800.wav,0,1,1481,22,4,chinese,m,0,0,-9.91001254,0.13142639
wxb_1027,91,1,2024-06-16T02:37:45.608Z,english_800.wav,0,1,1481,22,4,chinese,m,1,0.1,-86.79409322,1.71040153
wxb_1027,91,1,2024-06-16T02:37:45.608Z,english_800.wav,0,1,1481,22,4,chinese,m,2,0.2,-27.39997365,0.18637657
wxb_1027,91,1,2024-06-16T02:37:45.608Z,english_800.wav,0,1,1481,22,4,chinese,m,3,0.3,13.46737707,1.09766523
wxb_1027,91,1,2024-06-16T02:37:45.608Z,english_800.wav,0,1,1481,22,4,chinese,m,4,0.32341667,-32.56208711,1.57940615
wxb_1027,92,1,2024-06-16T02:37:45.608Z,english_472.wav,0,1,1413,22,4,chinese,m,0,0,-33.48324222,1.19367533
wxb_1027,92,1,2024-06-16T02:37:45.608Z,english_472.wav,0,1,1413,22,4,chinese,m,1,0.1,-52.47175565,0.64788551
wxb_1027,92,1,2024-06-16T02:37:45.608Z,english_472.wav,0,1,1413,22,4,chinese,m,2,0.2,-13.12063744,0.92970714
wxb_1027,92,1,2024-06-16T02:37:45.608Z,english_472.wav,0,1,1413,22,4,chinese,m,3,0.3,83.57117959,0.61503547
wxb_1027,92,1,2024-06-16T02:37:45.608Z,english_472.wav,0,1,1413,22,4,chinese,m,4,0.32341667,95.60610647,0.52013695
wxb_1027,93,1,2024-06-16T02:37:45.608Z,english_893.wav,0,0,659,22,4,chinese,m,0,0,17.19699967,0.82427167
wxb_1027,93,1,2024-06-16T02:37:45.608Z,english_893.wav,0,0,659,22,4,chinese,m,1,0.1,57.52525856,1.49866988
wxb_1027,93,1,2024-06-16T02:37:45.608Z,english_893.wav,0,0,659,22,4,chinese,m,2,0.2,13.30661706,0.84536161
wxb_1027,93,1,2024-06-16T02:37:45.608Z,english_893.wav,0,0,659,22,4,chinese,m,3,0.3,33.02687073,0.10168024
wxb_1027,93,1,2024-06-16T02:37:45.608Z,english_893.wav,0,0,659,22,4,chinese,m,4,0.32341667,-64.43392463,0.7117056
wxb_1027,94,1,2024-06-16T02:37:45.608Z,english_334.wav,0,1,1851,22,4,chinese,m,0,0,-67.45724149,1.41500124
wxb_1027,94,1,2024-06-16T02:37:45.608Z,english_334.wav,0,1,1851,22,4,chinese,m,1,0.1,-9.29085452,1.93519658
wxb_1027,94,1,2024-06-16T02:37:45.608Z,english_334.wav,0,1,1851,22,4,chinese,m,2,0.2,-52.27794836,1.67457228
wxb_1027,94,1,2024-06-16T02:37:45.608Z,english_334.wav,0,1,1851,22,4,chinese,m,3,0.3,97.74689659,1.80763723
wxb_1027,94,1,2024-06-16T02:37:45.608Z,english_334.wav,0,1,1851,22,4,chinese,m,4,0.32341667,69.13668576,0.68141016
wxb_1027,95,1,2024-06-16T02:37:45.608Z,english_129.wav,0,0,2826,22,4,chinese,m,0,0,80.17800931,1.16690044
wxb_1027,95,1,2024-06-16T02:37:45.608Z,english_129.wav,0,0,2826,22,4,chinese,m,1,0.1,6.7929614,1.89220933
wxb_1027,95,1,2024-06-16T02:37:45.608Z,english_129.wav,0,0,2826,22,4,chinese,m,2,0.2,51.03188375,1.40122633
wxb_1027,95,1,2024-06-16T02:37:45.608Z,english_129.wav,0,0,2826,22,4,chinese,m,3,0.3,-14.28174581,0.72131347
wxb_1027,95,1,2024-06-16T02:37:45.608Z,english_129.wav,0,0,2826,22,4,chinese,m,4,0.32341667,32.60771632,1.30692003
wxb_1027,96,1,2024-06-16T02:37:45.608Z,english_674.wav,0,0,917,22,4,chinese,m,0,0,-38.60253285,0.25488683
wxb_1027,96,1,2024-06-16T02:37:45.608Z,english_674.wav,0,0,917,22,4,chinese,m,1,0.1,46.14948962,1.80679583
wxb_1027,96,1,2024-06-16T02:37:45.608Z,english_674.wav,0,0,917,22,4,chinese,m,2,0.2,-49.76414787,1.59420413
wxb_1027,96,1,2024-06-16T02:37:45.608Z,english_674.wav,0,0,917,22,4,chinese,m,3,0.3,-66.16492387,1.25714797
wxb_1027,96,1,2024-06-16T02:37:45.608Z,english_674.wav,0,0,917,22,4,chinese,m,4,0.32341667,28.37583826,1.20557216
wxb_1027,97,1,2024-06-16T02:37:45.608Z,english_452.wav,0,0,1217,22,4,chinese,m,0,0,-15.91859121,0.16050204
wxb_1027,97,1,2024-06-16T02:37:45.608Z,english_452.wav,0,0,1217,22,4,chinese,m,1,0.1,66.54493607,1.05820221
wxb_1027,97,1,2024-06-16T02:37:45.608Z,english_452.wav,0,0,1217,22,4,chinese,m,2,0.2,49.2405228,1.42476674
wxb_1027,97,1,2024-06-16T02:37:45.608Z,english_452.wav,0,0,1217,22,4,chinese,m,3,0.3,-8.75382859,0.48128336
wxb_1027,97,1,2024-06-16T02:37:45.608Z,english_452.wav,0,0,1217,22,4,chinese,m,4,0.32341667,-35.51952716,0.52453318
wxb_1027,98,1,2024-06-16T02:37:45.608Z,english_961.wav,0,0,2555,22,4,chinese,m,0,0,20.81275789,1.87720953
wxb_1027,98,1,2024-06-16T02:37:45.608Z,english_961.wav,0,0,2555,22,4,chinese,m,1,0.1,46.48072234,1.43497285
wxb_1027,98,1,2024-06-16T02:37:45.608Z,english_961.wav,0,0,2555,22,4,chinese,m,2,0.2,79.36291712,1.9095844
wxb_1027,98,1,2024-06-16T02:37:45.608Z,english_961.wav,0,0,2555,22,4,chinese,m,3,0.3,7.86976501,0.20821065
wxb_1027,98,1,2024-06-16T02:37:45.608Z,english_961.wav,0,0,2555,22,4,chinese,m,4,0.32341667,-45.45751668,0.0640973
wxb_1027,99,1,2024-06-16T02:37:45.608Z,english_806.wav,0,0,2764,22,4,chinese,m,0,0,17.38837614,1.03842349
wxb_1027,99,1,2024-06-16T02:37:45.608Z,english_806.wav,0,0,2764,22,4,chinese,m,1,0.1,50.31160736,1.08461549
wxb_1027,99,1,2024-06-16T02:37:45.608Z,english_806.wav,0,0,2764,22,4,chinese,m,2,0.2,74.21499327,1.8436814
wxb_1027,99,1,2024-06-16T02:37:45.608Z,english_806.wav,0,0,2764,22,4,chinese,m,3,0.3,16.647622,1.85846725
wxb_1027,99,1,2024-06-16T02:37:45.608Z,english_806.wav,0,0,2764,22,4,chinese,m,4,0.32341667,27.12519974,1.15820289
wxb_1027,100,2,2024-06-16T02:42:18.836Z,english_540.wav,0,1,1434,22,4,chinese,m,0,0,-46.6752609,1.16352469
wxb_1027,100,2,2024-06-16T02:42:18.836Z,english_540.wav,0,1,1434,22,4,chinese,m,1,0.1,-93.20209644,0.0234781
wxb_1027,100,2,2024-06-16T02:42:18.836Z,english_540.wav,0,1,1434,22,4,chinese,m,2,0.2,64.96419662,0.05926191
wxb_1027,100,2,2024-06-16T02:42:18.836Z,english_540.wav,0,1,1434,22,4,chinese,m,3,0.3,-12.16484387,1.47406284
wxb_1027,100,2,2024-06-16T02:42:18.836Z,english_540.wav,0,1,1434,22,4,chinese,m,4,0.32341667,-44.34688232,0.60104864
wxb_1027,101,2,2024-06-16T02:42:18.836Z,english_558.wav,0,1,2805,22,4,chinese,m,0,0,-73.38624366,1.58797859
wxb_1027,101,2,2024-06-16T02:42:18.836Z,english_558.wav,0,1,2805,22,4,chinese,m,1,0.1,-42.42633216,1.10525313
wxb_1027,101,2,2024-06-16T02:42:18.836Z,english_558.wav,0,1,2805,22,4,chinese,m,2,0.2,15.99713578,0.42598769
wxb_1027,101,2,2024-06-16T02:42:18.836Z,english_558.wav,0,1,2805,22,4,chinese,m,3,0.3,-33.12568725,0.25629603
wxb_1027,101,2,2024-06-16T02:42:18.836Z,english_558.wav,0,1,2805,22,4,chinese,m,4,0.32341667,44.00446366,1.81995896
wxb_1027,102,2,2024-06-16T02:42:18.836Z,english_823.wav,0,1,2590,22,4,chinese,m,0,0,24.6891334,1.19409205
wxb_1027,102,2,2024-06-16T02:42:18.836Z,english_823.wav,0,1,2590,22,4,chinese,m,1,0.1,86.03794788,0.72053846
wxb_1027,102,2,2024-06-16T02:42:18.836Z,english_823.wav,0,1,2590,22,4,chinese,m,2,0.2,45.97308045,0.2138623
wxb_1027,102,2,2024-06-16T02:42:18.836Z,english_823.wav,0,1,2590,22,4,chinese,m,3,0.3,39.11596791,1.56743943
wxb_1027,102,2,2024-06-16T02:42:18.836Z,english_823.wav,0,1,2590,22,4,chinese,m,4,0.32341667,10.29734006,1.24065623
wxb_1027,103,2,2024-06-16T02:42:18.836Z,english_418.wav,0,1,1092,22,4,chinese,m,0,0,-7.92859899,0.20369216
wxb_1027,103,2,2024-06-16T02:42:18.836Z,english_418.wav,0,1,1092,22,4,chinese,m,1,0.1,10.19863107,0.15242613
wxb_1027,103,2,2024-06-16T02:42:18.836Z,english_418.wav,0,1,1092,22,4,chinese,m,2,0.2,-44.82770696,0.77695319
wxb_1027,103,2,2024-06-16T02:42:18.836Z,english_418.wav,0,1,1092,22,4,chinese,m,3,0.3,-80.4141896,0.71786342
wxb_1027,103,2,2024-06-16T02:42:18.836Z,english_418.wav,0,1,1092,22,4,chinese,m,4,0.32341667,32.43674468,1.20494416
wxb_1027,104,2,2024-06-16T02:42:18.836Z,english_131.wav,0,1,2042,22,4,chinese,m,0,0,-90.65248477,1.67513221
wxb_1027,104,2,2024-06-16T02:42:18.836Z,english_131.wav,0,1,2042,22,4,chinese,m,1,0.1,7.0988446,1.62916956
wxb_1027,104,2,2024-06-16T02:42:18.836Z,english_131.wav,0,1,2042,22,4,chinese,m,2,0.2,-30.94637352,1.4017665
wxb_1027,104,2,2024-06-16T02:42:18.836Z,english_131.wav,0,1,2042,22,4,chinese,m,3,0.3,-31.86179524,1.07276153
wxb_1027,104,2,2024-06-16T02:42:18.836Z,english_131.wav,0,1,2042,22,4,chinese,m,4,0.32341667,1.85809033,1.80109071
wxb_1027,105,2,2024-06-16T02:42:18.836Z,english_422.wav,0,0,1992,22,4,chinese,m,0,0,-79.81150205,1.34332733
wxb_1027,105,2,2024-06-16T02:42:18.836Z,english_422.wav,0,0,1992,22,4,chinese,m,1,0.1,-2.02836706,0.77514932
wxb_1027,105,2,2024-06-16T02:42:18.836Z,english_422.wav,0,0,1992,22,4,chinese,m,2,0.2,-11.18998235,0.33214039
wxb_1027,105,2,2024-06-16T02:42:18.836Z,english_422.wav,0,0,1992,22,4,chinese,m,3,0.3,52.04958687,0.53493982
wxb_1027,105,2,2024-06-16T02:42:18.836Z,english_422.wav,0,0,1992,22,4,chinese,m,4,0.32341667,-63.48776447,0.45685022
wxb_1027,106,2,2024-06-16T02:46:03.638Z,english_231.wav,0,1,1805,22,4,chinese,m,0,0,-57.04299033,1.30850831
wxb_1027,106,2,2024-06-16T02:46:03.638Z,english_231.wav,0,1,1805,22,4,chinese,m,1,0.1,-61.30294243,1.06317761
wxb_1027,106,2,2024-06-16T02:46:03.638Z,english_231.wav,0,1,1805,22,4,chinese,m,2,0.2,11.10207427,1.86768436
wxb_1027,106,2,2024-06-16T02:46:03.638Z,english_231.wav,0,1,1805,22,4,chinese,m,3,0.3,-1.38864911,1.42169342
wxb_1027,106,2,2024-06-16T02:46:03.638Z,english_231.wav,0,1,1805,22,4,chinese,m,4,0.32341667,-40.37897369,0.58634772
wxb_1027,107,2,2024-06-16T02:46:03.638Z,english_930.wav,0,1,751,22,4,chinese,m,0,0,-52.65701122,0.60066533
wxb_1027,107,2,2024-06-16T02:46:03.638Z,english_930.wav,0,1,751,22,4,chinese,m,1,0.1,-24.36484499,1.33650528
wxb_1027,107,2,2024-06-16T02:46:03.638Z,english_930.wav,0,1,751,22,4,chinese,m,2,0.2,4.10813066,0.15979886
wxb_1027,107,2,2024-06-16T02:46:03.638Z,english_930.wav,0,1,751,22,4,chinese,m,3,0.3,93.74919515,1.46288505
wxb_1027,107,2,2024-06-16T02:46:03.638Z,english_930.wav,0,1,751,22,4,chinese,m,4,0.32341667,66.31726896,0.93993915
wxb_1027,108,2,2024-06-16T02:46:03.638Z,english_966.wav,0,1,1007,22,4,chinese,m,0,0,23.00954068,1.02848684
wxb_1027,108,2,2024-06-16T02:46:03.638Z,english_966.wav,0,1,1007,22,4,chinese,m,1,0.1,-2.7733657,1.22612364
wxb_1027,108,2,2024-06-16T02:46:03.638Z,english_966.wav,0,1,1007,22,4,chinese,m,2,0.2,-6.00176123,0.03461529
wxb_1027,108,2,2024-06-16T02:46:03.638Z,english_966.wav,0,1,1007,22,4,chinese,m,3,0.3,-64.80320904,0.22357585
wxb_1027,108,2,2024-06-16T02:46:03.638Z,english_966.wav,0,1,1007,22,4,chinese,m,4,0.32341667,94.15296916,0.55383001
wxb_1027,109,2,2024-06-16T02:46:03.638Z,english_383.wav,0,1,456,22,4,chinese,m,0,0,-1.49759031,0.61403304
wxb_1027,109,2,2024-06-16T02:46:03.638Z,english_383.wav,0,1,456,22,4,chinese,m,1,0.1,48.0809444,0.69225556
wxb_1027,109,2,2024-06-16T02:46:03.638Z,english_383.wav,0,1,456,22,4,chinese,m,2,0.2,-84.09524499,0.33452268
wxb_1027,109,2,2024-06-16T02:46:03.638Z,english_383.wav,0,1,456,22,4,chinese,m,3,0.3,95.23220486,1.06792504
wxb_1027,109,2,2024-06-16T02:46:03.638Z,english_383.wav,0,1,456,22,4,chinese,m,4,0.32341667,64.91086902,0.58483827
wxb_1027,110,2,2024-06-16T02:46:03.638Z,english_314.wav,0,1,504,22,4,chinese,m,0,0,-64.95449137,1.33019215
wxb_1027,110,2,2024-06-16T02:46:03.638Z,english_314.wav,0,1,504,22,4,chinese,m,1,0.1,41.76232806,0.95010379
wxb_1027,110,2,2024-06-16T02:46:03.638Z,english_314.wav,0,1,504,22,4,chinese,m,2,0.2,68.0199099,0.0418164
wxb_1027,110,2,2024-06-16T02:46:03.638Z,english_314.wav,0,1,504,22,4,chinese,m,3,0.3,-18.86846342,0.3847457
wxb_1027,110,2,2024-06-16T02:46:03.638Z,english_314.wav,0,1,504,22,4,chinese,m,4,0.32341667,-2.58545886,1.31154336
wxb_1027,111,2,2024-06-16T02:46:03.638Z,english_337.wav,0,1,960,22,4,chinese,m,0,0,17.21863108,0.02346696
wxb_1027,111,2,2024-06-16T02:46:03.638Z,english_337.wav,0,1,960,22,4,chinese,m,1,0.1,-16.30098312,1.2349353
wxb_1027,111,2,2024-06-16T02:46:03.638Z,english_337.wav,0,1,960,22,4,chinese,m,2,0.2,70.17733319,1.07823504
wxb_1027,111,2,2024-06-16T02:46:03.638Z,english_337.wav,0,1,960,22,4,chinese,m,3,0.3,-7.16478631,1.83339424
wxb_1027,111,2,2024-06-16T02:46:03.638Z,english_337.wav,0,1,960,22,4,chinese,m,4,0.32341667,-84.96176299,1.87583376
wxb_1027,112,2,2024-06-16T02:46:03.638Z,english_116.wav,0,1,1376,22,4,chinese,m,0,0,47.3382154,1.30986561
wxb_1027,112,2,2024-06-16T02:46:03.638Z,english_116.wav,0,1,1376,22,4,chinese,m,1,0.1,-82.57412589,0.36649927
wxb_1027,112,2,2024-06-16T02:46:03.638Z,english_116.wav,0,1,1376,22,4,chinese,m,2,0.2,24.81754674,1.53598436
wxb_1027,112,2,2024-06-16T02:46:03.638Z,english_116.wav,0,1,1376,22,4,chinese,m,3,0.3,61.93416492,1.65694634
wxb_1027,112,2,2024-06-16T02:46:03.638Z,english_116.wav,0,1,1376,22,4,chinese,m,4,0.32341667,-97.8286579,0.40343631
wxb_1027,113,2,2024-06-16T02:46:03.638Z,english_876.wav,0,1,1939,22,4,chinese,m,0,0,-20.36884991,0.97958319
wxb_1027,113,2,2024-06-16T02:46:03.638Z,english_876.wav,0,1,1939,22,4,chinese,m,1,0.1,-12.16725052,0.93484439
wxb_1027,113,2,2024-06-16T02:46:03.638Z,english_876.wav,0,1,1939,22,4,chinese,m,2,0.2,-26.42868614,0.43422731
wxb_1027,113,2,2024-06-16T02:46:03.638Z,english_876.wav,0,1,1939,22,4,chinese,m,3,0.3,-15.16942384,0.12359811
wxb_1027,113,2,2024-06-16T02:46:03.638Z,english_876.wav,0,1,1939,22,4,chinese,m,4,0.32341667,-52.65446315,1.31629037
wxb_1027,114,2,2024-06-16T02:46:03.638Z,english_686.wav,0,0,1616,22,4,chinese,m,0,0,-30.40223154,0.36787347
wxb_1027,114,2,2024-06-16T02:46:03.638Z,english_686.wav,0,0,1616,22,4,chinese,m,1,0.1,40.30213926,1.54584144
wxb_1027,114,2,2024-06-16T02:46:03.638Z,english_686.wav,0,0,1616,22,4,chinese,m,2,0.2,68.68183252,1.54645212
wxb_1027,114,2,2024-06-16T02:46:03.638Z,english_686.wav,0,0,1616,22,4,chinese,m,3,0.3,82.36920372,1.04035585
wxb_1027,114,2,2024-06-16T02:46:03.638Z,english_686.wav,0,0,1616,22,4,chinese,m,4,0.32341667,5.8000707,1.51520661
wxb_1027,115,2,2024-06-16T02:46:03.638Z,english_299.wav,0,1,1320,22,4,chinese,m,0,0,-2.55977829,0.95716625
wxb_1027,115,2,2024-06-16T02:46:03.638Z,english_299.wav,0,1,1320,22,4,chinese,m,1,0.1,1.77446255,1.43363845
wxb_1027,115,2,2024-06-16T02:46:03.638Z,english_299.wav,0,1,1320,22,4,chinese,m,2,0.2,-18.83457859,1.1421669
wxb_1027,115,2,2024-06-16T02:46:03.638Z,english_299.wav,0,1,1320,22,4,chinese,m,3,0.3,-71.88845024,1.57148089
wxb_1027,115,2,2024-06-16T02:46:03.638Z,english_299.wav,0,1,1320,22,4,chinese,m,4,0.32341667,99.76623745,1.70410623
wxb_1027,116,2,2024-06-16T02:46:03.638Z,english_448.wav,0,1,2263,22,4,chinese,m,0,0,0.37188167,1.15390094
wxb_1027,116,2,2024-06-16T02:46:03.638Z,english_448.wav,0,1,2263,22,4,chinese,m,1,0.1,-67.82723624,1.58767458
wxb_1027,116,2,2024-06-16T02:46:03.638Z,english_448.wav,0,1,2263,22,4,chinese,m,2,0.2,65.77705469,1.13313853
wxb_1027,116,2,2024-06-16T02:46:03.638Z,english_448.wav,0,1,2263,22,4,chinese,m,3,0.3,83.31626383,0.27075507
wxb_1027,116,2,2024-06-16T02:46:03.638Z,english_448.wav,0,1,2263,22,4,chinese,m,4,0.32341667,-27.56829045,1.20964916
wxb_1027,117,2,2024-06-16T02:46:03.638Z,english_288.wav,0,0,825,22,4,chinese,m,0,0,35.15100251,1.01330681
wxb_1027,117,2,2024-06-16T02:46:03.638Z,english_288.wav,0,0,825,22,4,chinese,m,1,0.1,49.55485069,0.90213232
wxb_1027,117,2,2024-06-16T02:46:03.638Z,english_288.wav,0,0,825,22,4,chinese,m,2,0.2,28.604189,1.8181607
wxb_1027,117,2,2024-06-16T02:46:03.638Z,english_288.wav,0,0,825,22,4,chinese,m,3,0.3,38.59633835,1.82579698
wxb_1027,117,2,2024-06-16T02:46:03.638Z,english_288.wav,0,0,825,22,4,chinese,m,4,0.32341667,-98.9026904,0.14571105
wxb_1027,118,2,2024-06-16T02:46:03.638Z,english_685.wav,0,0,1262,22,4,chinese,m,0,0,91.61032892,0.4504418
wxb_1027,118,2,2024-06-16T02:46:03.638Z,english_685.wav,0,0,1262,22,4,chinese,m,1,0.1,39.6206555,1.04279806
wxb_1027,118,2,2024-06-16T02:46:03.638Z,english_685.wav,0,0,1262,22,4,chinese,m,2,0.2,-3.19880539,1.33634651
wxb_1027,118,2,2024-06-16T02:46:03.638Z,english_685.wav,0,0,1262,22,4,chinese,m,3,0.3,-72.84721689,1.25094987
wxb_1027,118,2,2024-06-16T02:46:03.638Z,english_685.wav,0,0,1262,22,4,chinese,m,4,0.32341667,98.11411302,0.37726169
wxb_1027,119,2,2024-06-16T02:46:03.638Z,english_987.wav,0,1,1522,22,4,chinese,m,0,0,91.33137772,1.82656395
wxb_1027,119,2,2024-06-16T02:46:03.638Z,english_987.wav,0,1,1522,22,4,chinese,m,1,0.1,-39.20299527,1.12122948
wxb_1027,119,2,2024-06-16T02:46:03.638Z,english_987.wav,0,1,1522,22,4,chinese,m,2,0.2,78.9852337,1.12025045
wxb_1027,119,2,2024-06-16T02:46:03.638Z,english_987.wav,0,1,1522,22,4,chinese,m,3,0.3,-94.66209845,1.02557261
wxb_1027,119,2,2024-06-16T02:46:03.638Z,english_987.wav,0,1,1522,22,4,chinese,m,4,0.32341667,-71.76730894,1.06580695
wxb_1027,120,2,2024-06-16T02:46:03.638Z,english_374.wav,0,1,2601,22,4,chinese,m,0,0,-43.98521466,1.11607514
wxb_1027,120,2,2024-06-16T02:46:03.638Z,english_374.wav,0,1,2601,22,4,chinese,m,1,0.1,-24.87181663,0.38249505
wxb_1027,120,2,2024-06-16T02:46:03.638Z,english_374.wav,0,1,2601,22,4,chinese,m,2,0.2,-29.31566683,1.56774755
wxb_1027,120,2,2024-06-16T02:46:03.638Z,english_374.wav,0,1,2601,22,4,chinese,m,3,0.3,-43.36019392,1.33837662
wxb_1027,120,2,2024-06-16T02:46:03.638Z,english_374.wav,0,1,2601,22,4,chinese,m,4,0.32341667,-35.5175379,0.68793086
wxb_1027,121,2,2024-06-16T02:46:03.638Z,english_680.wav,0,1,1285,22,4,chinese,m,0,0,93.24972168,1.89994278
wxb_1027,121,2,2024-06-16T02:46:03.638Z,english_680.wav,0,1,1285,22,4,chinese,m,1,0.1,21.55707386,1.06559033
wxb_1027,121,2,2024-06-16T02:46:03.638Z,english_680.wav,0,1,1285,22,4,chinese,m,2,0.2,-58.84044748,0.79606997
wxb_1027,121,2,2024-06-16T02:46:03.638Z,english_680.wav,0,1,1285,22,4,chinese,m,3,0.3,-13.55367876,0.35899559
wxb_1027,121,2,2024-06-16T02:46:03.638Z,english_680.wav,0,1,1285,22,4,chinese,m,4,0.32341667,17.98073729,1.50925573
wxb_1027,122,2,2024-06-16T02:46:03.638Z,english_644.wav,0,1,1075,22,4,chinese,m,0,0,21.57551932,1.87520752
wxb_1027,122,2,2024-06-16T02:46:03.638Z,english_644.wav,0,1,1075,22,4,chinese,m,1,0.1,-11.98636437,1.28750901
wxb_1027,122,2,2024-06-16T02:46:03.638Z,english_644.wav,0,1,1075,22,4,chinese,m,2,0.2,-86.21942338,0.33708129
wxb_1027,122,2,2024-06-16T02:46:03.638Z,english_644.wav,0,1,1075,22,4,chinese,m,3,0.3,-38.98906039,1.53524213
wxb_1027,122,2,2024-06-16T02:46:03.638Z,english_644.wav,0,1,1075,22,4,chinese,m,4,0.32341667,-28.58177745,0.3058721
wxb_1027,123,2,2024-06-16T02:46:03.638Z,english_584.wav,0,1,1270,22,4,chinese,m,0,0,10.38934641,1.28044862
wxb_1027,123,2,2024-06-16T02:46:03.638Z,english_584.wav,0,1,1270,22,4,chinese,m,1,0.1,16.58552078,0.12750447
wxb_1027,123,2,2024-06-16T02:46:03.638Z,english_584.wav,0,1,1270,22,4,chinese,m,2,0.2,93.24376001,0.67889343
wxb_1027,123,2,2024-06-16T02:46:03.638Z,english_584.wav,0,1,1270,22,4,chinese,m,3,0.3,-17.62367845,1.20299248
wxb_1027,123,2,2024-06-16T02:46:03.638Z,english_584.wav,0,1,1270,22,4,chinese,m,4,0.32341667,35.31863132,1.61660781
wxb_1027,124,2,2024-06-16T02:46:03.638Z,english_669.wav,0,1,836,22,4,chinese,m,0,0,-58.38123624,0.53455866
wxb_1027,124,2,2024-06-16T02:46:03.638Z,english_669.wav,0,1,836,22,4,chinese,m,1,0.1,-80.20155876,0.64376179
wxb_1027,124,2,2024-06-16T02:46:03.638Z,english_669.wav,0,1,836,22,4,chinese,m,2,0.2,-25.59737246,0.76694756
wxb_1027,124,2,2024-06-16T02:46:03.638Z,english_669.wav,0,1,836,22,4,chinese,m,3,0.3,-30.25633946,1.36842807
wxb_1027,124,2,2024-06-16T02:46:03.638Z,english_669.wav,0,1,836,22,4,chinese,m,4,0.32341667,-70.78768349,0.06434218
wxb_1027,125,2,2024-06-16T02:46:03.638Z,english_245.wav,0,0,1030,22,4,chinese,m,0,0,74.89239003,1.30710747
wxb_1027,125,2,2024-06-16T02:46:03.638Z,english_245.wav,0,0,1030,22,4,chinese,m,1,0.1,41.98679172,0.93119149
wxb_1027,125,2,2024-06-16T02:46:03.638Z,english_245.wav,0,0,1030,22,4,chinese,m,2,0.2,99.42105985,1.84379828
wxb_1027,125,2,2024-06-16T02:46:03.638Z,english_245.wav,0,0,1030,22,4,chinese,m,3,0.3,-75.11958538,1.72828743
wxb_1027,125,2,2024-06-16T02:46:03.638Z,english_245.wav,0,0,1030,22,4,chinese,m,4,0.32341667,-62.10664415,0.50124118
wxb_1027,126,2,2024-06-16T02:46:03.638Z,english_304.wav,0,1,883,22,4,chinese,m,0,0,-80.7192326,0.54130022
wxb_1027,126,2,2024-06-16T02:46:03.638Z,english_304.wav,0,1,883,22,4,chinese,m,1,0.1,34.14230443,0.20766845
wxb_1027,126,2,2024-06-16T02:46:03.638Z,english_304.wav,0,1,883,22,4,chinese,m,2,0.2,-43.78548789,1.25157904
wxb_1027,126,2,2024-06-16T02:46:03.638Z,english_304.wav,0,1,883,22,4,chinese,m,3,0.3,85.79520644,0.76195837
wxb_1027,126,2,2024-06-16T02:46:03.638Z,english_304.wav,0,1,883,22,4,chinese,m,4,0.32341667,-29.32737886,0.20991234
wxb_1027,127,2,2024-06-16T02:46:03.638Z,english_243.wav,0,1,1340,22,4,chinese,m,0,0,-74.41503345,0.65151457
wxb_1027,127,2,2024-06-16T02:46:03.638Z,english_243.wav,0,1,1340,22,4,chinese,m,1,0.1,-16.65530333,0.20623253
wxb_1027,127,2,2024-06-16T02:46:03.638Z,english_243.wav,0,1,1340,22,4,chinese,m,2,0.2,-1.41224798,0.87153721
wxb_1027,127,2,2024-06-16T02:46:03.638Z,english_243.wav,0,1,1340,22,4,chinese,m,3,0.3,37.30419975,0.28583671
wxb_1027,127,2,2024-06-16T02:46:03.638Z,english_243.wav,0,1,1340,22,4,chinese,m,4,0.32341667,-3.40378668,1.90700275
wxb_1027,128,2,2024-06-16T02:46:03.638Z,english_215.wav,0,0,1474,22,4,chinese,m,0,0,-93.71362427,1.31176069
wxb_1027,128,2,2024-06-16T02:46:03.638Z,english_215.wav,0,0,1474,22,4,chinese,m,1,0.1,20.4696733,1.25536714
wxb_1027,128,2,2024-06-16T02:46:03.638Z,english_215.wav,0,0,1474,22,4,chinese,m,2,0.2,-66.57352715,1.5696385
wxb_1027,128,2,2024-06-16T02:46:03.638Z,english_215.wav,0,0,1474,22,4,chinese,m,3,0.3,-0.6079782,0.03144419
wxb_1027,128,2,2024-06-16T02:46:03.638Z,english_215.wav,0,0,1474,22,4,chinese,m,4,0.32341667,-5.73921948,0.79048669
wxb_1027,129,2,2024-06-16T02:46:03.638Z,english_414.wav,0,1,2648,22,4,chinese,m,0,0,19.47839865,0.9434816
wxb_1027,129,2,2024-06-16T02:46:03.638Z,english_414.wav,0,1,2648,22,4,chinese,m,1,0.1,59.9490877,1.1146936
wxb_1027,129,2,2024-06-16T02:46:03.638Z,english_414.wav,0,1,2648,22,4,chinese,m,2,0.2,22.33981162,0.48476454
wxb_1027,129,2,2024-06-16T02:46:03.638Z,english_414.wav,0,1,2648,22,4,chinese,m,3,0.3,18.97426154,0.23554241
wxb_1027,129,2,2024-06-16T02:46:03.638Z,english_414.wav,0,1,2648,22,4,chinese,m,4,0.32341667,15.16306506,1.13007685
wxb_1027,130,2,2024-06-16T02:46:03.638Z,english_511.wav,0,0,1256,22,4,chinese,m,0,0,-54.05076571,1.68448531
wxb_1027,130,2,2024-06-16T02:46:03.638Z,english_511.wav,0,0,1256,22,4,chinese,m,1,0.1,58.21305336,0.64957271
wxb_1027,130,2,2024-06-16T02:46:03.638Z,english_511.wav,0,0,1256,22,4,chinese,m,2,0.2,93.28984864,1.47534814
wxb_1027,130,2,2024-06-16T02:46:03.638Z,english_511.wav,0,0,1256,22,4,chinese,m,3,0.3,-93.08437199,1.38615571
wxb_1027,130,2,2024-06-16T02:46:03.638Z,english_511.wav,0,0,1256,22,4,chinese,m,4,0.32341667,48.49476441,0.71972648
wxb_1027,131,2,2024-06-16T02:46:03.638Z,english_293.wav,0,1,1600,22,4,chinese,m,0,0,-22.15906653,1.76366583
wxb_1027,131,2,2024-06-16T02:46:03.638Z,english_293.wav,0,1,1600,22,4,chinese,m,1,0.1,-88.62057809,0.55660069
wxb_1027,131,2,2024-06-16T02:46:03.638Z,english_293.wav,0,1,1600,22,4,chinese,m,2,0.2,-18.47979893,1.17282558
wxb_1027,131,2,2024-06-16T02:46:03.638Z,english_293.wav,0,1,1600,22,4,chinese,m,3,0.3,-74.2852497,0.49477424
wxb_1027,131,2,2024-06-16T02:46:03.638Z,english_293.wav,0,1,1600,22,4,chinese,m,4,0.32341667,59.45323022,0.66659794
wxb_1027,132,2,2024-06-16T02:46:03.638Z,english_445.wav,0,0,1861,22,4,chinese,m,0,0,88.00598922,1.42174052
wxb_1027,132,2,2024-06-16T02:46:03.638Z,english_445.wav,0,0,1861,22,4,chinese,m,1,0.1,96.51328737,1.49122509
wxb_1027,132,2,2024-06-16T02:46:03.638Z,english_445.wav,0,0,1861,22,4,chinese,m,2,0.2,29.11093561,0.62095286
wxb_1027,132,2,2024-06-16T02:46:03.638Z,english_445.wav,0,0,1861,22,4,chinese,m,3,0.3,69.6076589,1.14630865
wxb_1027,132,2,2024-06-16T02:46:03.638Z,english_445.wav,0,0,1861,22,4,chinese,m,4,0.32341667,-59.73938179,1.38538671
wxb_1027,133,2,2024-06-16T02:46:03.638Z,english_494.wav,0,1,1848,22,4,chinese,m,0,0,-3.60210196,0.92014098
wxb_1027,133,2,2024-06-16T02:46:03.638Z,english_494.wav,0,1,1848,22,4,chinese,m,1,0.1,-0.0120609558,1.08763174
wxb_1027,133,2,2024-06-16T02:46:03.638Z,english_494.wav,0,1,1848,22,4,chinese,m,2,0.2,-75.2550513,0.29239621
wxb_1027,133,2,2024-06-16T02:46:03.638Z,english_494.wav,0,1,1848,22,4,chinese,m,3,0.3,39.6800445,0.26357805
wxb_1027,133,2,2024-06-16T02:46:03.638Z,english_494.wav,0,1,1848,22,4,chinese,m,4,0.323416667,78.1977592,1.67878037
wxb_1027,134,2,2024-06-16T02:46:03.638Z,english_844.wav,0,1,868,22,4,chinese,m,0,0,-84.59865618,1.95225136
wxb_1027,134,2,2024-06-16T02:46:03.638Z,english_844.wav,0,1,868,22,4,chinese,m,1,0.1,2.74576488,1.66072701
wxb_1027,134,2,2024-06-16T02:46:03.638Z,english_844.wav,0,1,868,22,4,chinese,m,2,0.2,-31.14414819,0.05165652
wxb_1027,134,2,2024-06-16T02:46:03.638Z,english_844.wav,0,1,868,22,4,chinese,m,3,0.3,59.06244098,0.5878804
wxb_1027,134,2,2024-06-16T02:46:03.638Z,english_844.wav,0,1,868,22,4,chinese,m,4,0.32341667,67.61674881,0.72232709
wxb_1027,135,2,2024-06-16T02:46:03.638Z,english_649.wav,0,1,868,22,4,chinese,m,0,0,65.82222467,0.56154429
wxb_1027,135,2,2024-06-16T02:46:03.638Z,english_649.wav,0,1,868,22,4,chinese,m,1,0.1,-9.35575527,0.64767017
wxb_1027,135,2,2024-06-16T02:46:03.638Z,english_649.wav,0,1,868,22,4,chinese,m,2,0.2,-91.83315911,0.84538271
wxb_1027,135,2,2024-06-16T02:46:03.638Z,english_649.wav,0,1,868,22,4,chinese,m,3,0.3,79.30022345,0.4979411
wxb_1027,135,2,2024-06-16T02:46:03.638Z,english_649.wav,0,1,868,22,4,chinese,m,4,0.32341667,45.86180924,0.89353148
wxb_1027,136,2,2024-06-16T02:46:03.638Z,english_759.wav,0,1,1111,22,4,chinese,m,0,0,22.56482953,0.32974928
wxb_1027,136,2,2024-06-16T02:46:03.638Z,english_759.wav,0,1,1111,22,4,chinese,m,1,0.1,-26.57515882,0.74944663
wxb_1027,136,2,2024-06-16T02:46:03.638Z,english_759.wav,0,1,1111,22,4,chinese,m,2,0.2,58.52096087,0.73148935
wxb_1027,136,2,2024-06-16T02:46:03.638Z,english_759.wav,0,1,1111,22,4,chinese,m,3,0.3,67.88336338,0.69769471
wxb_1027,136,2,2024-06-16T02:46:03.638Z,english_759.wav,0,1,1111,22,4,chinese,m,4,0.32341667,-98.7178367,1.46371733
wxb_1027,137,2,2024-06-16T02:46:03.638Z,english_323.wav,0,1,920,22,4,chinese,m,0,0,92.33188111,1.59668922
wxb_1027,137,2,2024-06-16T02:46:03.638Z,english_323.wav,0,1,920,22,4,chinese,m,1,0.1,4.22577609,1.75306106
wxb_1027,137,2,2024-06-16T02:46:03.638Z,english_323.wav,0,1,920,22,4,chinese,m,2,0.2,-35.48560344,1.06071567
wxb_1027,137,2,2024-06-16T02:46:03.638Z,english_323.wav,0,1,920,22,4,chinese,m,3,0.3,7.73763769,1.9328625
wxb_1027,137,2,2024-06-16T02:46:03.638Z,english_323.wav,0,1,920,22,4,chinese,m,4,0.32341667,55.62458321,1.27347405
wxb_1027,138,2,2024-06-16T02:46:03.638Z,english_650.wav,0,1,808,22,4,chinese,m,0,0,-14.34164867,1.10695192
wxb_1027,138,2,2024-06-16T02:46:03.638Z,english_650.wav,0,1,808,22,4,chinese,m,1,0.1,-59.47569919,1.2442548
wxb_1027,138,2,2024-06-16T02:46:03.638Z,english_650.wav,0,1,808,22,4,chinese,m,2,0.2,-47.0995584,0.31281267
wxb_1027,138,2,2024-06-16T02:46:03.638Z,english_650.wav,0,1,808,22,4,chinese,m,3,0.3,-55.25841156,1.9869399
wxb_1027,138,2,2024-06-16T02:46:03.638Z,english_650.wav,0,1,808,22,4,chinese,m,4,0.32341667,83.92345375,1.10607629
wxb_1027,139,2,2024-06-16T02:46:03.638Z,english_899.wav,0,1,970,22,4,chinese,m,0,0,34.44970312,1.0262563
wxb_1027,139,2,2024-06-16T02:46:03.638Z,english_899.wav,0,1,970,22,4,chinese,m,1,0.1,-73.97598586,0.5565938
wxb_1027,139,2,2024-06-16T02:46:03.638Z,english_899.wav,0,1,970,22,4,chinese,m,2,0.2,4.84970015,0.08950317
wxb_1027,139,2,2024-06-16T02:46:03.638Z,english_899.wav,0,1,970,22,4,chinese,m,3,0.3,25.99530817,1.10823657
wxb_1027,139,2,2024-06-16T02:46:03.638Z,english_899.wav,0,1,970,22,4,chinese,m,4,0.32341667,7.0197251,1.27665612
wxb_1027,140,2,2024-06-16T02:46:03.638Z,english_732.wav,0,1,2792,22,4,chinese,m,0,0,-12.49530298,1.28394154
wxb_1027,140,2,2024-06-16T02:46:03.638Z,english_732.wav,0,1,2792,22,4,chinese,m,1,0.1,77.35683448,1.95772399
wxb_1027,140,2,2024-06-16T02:46:03.638Z,english_732.wav,0,1,2792,22,4,chinese,m,2,0.2,46.14200593,1.14408971
wxb_1027,140,2,2024-06-16T02:46:03.638Z,english_732.wav,0,1,2792,22,4,chinese,m,3,0.3,-17.19403126,0.21034957
wxb_1027,140,2,2024-06-16T02:46:03.638Z,english_732.wav,0,1,2792,22,4,chinese,m,4,0.32341667,-81.60069167,0.50538316
wxb_1027,141,2,2024-06-16T02:46:03.638Z,english_727.wav,0,1,1144,22,4,chinese,m,0,0,86.20347479,1.33530257
wxb_1027,141,2,2024-06-16T02:46:03.638Z,english_727.wav,0,1,1144,22,4,chinese,m,1,0.1,12.26210304,1.85547333
wxb_1027,141,2,2024-06-16T02:46:03.638Z,english_727.wav,0,1,1144,22,4,chinese,m,2,0.2,5.59218777,1.19683436
wxb_1027,141,2,2024-06-16T02:46:03.638Z,english_727.wav,0,1,1144,22,4,chinese,m,3,0.3,-46.39280156,1.89207751
wxb_1027,141,2,2024-06-16T02:46:03.638Z,english_727.wav,0,1,1144,22,4,chinese,m,4,0.32341667,21.79775503,1.05019022
wxb_1027,142,2,2024-06-16T02:46:03.638Z,english_771.wav,0,0,1000,22,4,chinese,m,0,0,52.29619013,1.65909918
wxb_1027,142,2,2024-06-16T02:46:03.638Z,english_771.wav,0,0,1000,22,4,chinese,m,1,0.1,55.26271333,1.05958749
wxb_1027,142,2,2024-06-16T02:46:03.638Z,english_771.wav,0,0,1000,22,4,chinese,m,2,0.2,49.2587818,1.33758239
wxb_1027,142,2,2024-06-16T02:46:03.638Z,english_771.wav,0,0,1000,22,4,chinese,m,3,0.3,48.45532009,1.75478958
wxb_1027,142,2,2024-06-16T02:46:03.638Z,english_771.wav,0,0,1000,22,4,chinese,m,4,0.32341667,-98.45631565,0.37013483
wxb_1027,143,2,2024-06-16T02:46:03.638Z,english_54.wav,0,0,1575,22,4,chinese,m,0,0,1.86764875,1.47639799
wxb_1027,143,2,2024-06-16T02:46:03.638Z,english_54.wav,0,0,1575,22,4,chinese,m,1,0.1,-1.78672474,1.92944336
wxb_1027,143,2,2024-06-16T02:46:03.638Z,english_54.wav,0,0,1575,22,4,chinese,m,2,0.2,-26.58380414,0.76292987
wxb_1027,143,2,2024-06-16T02:46:03.638Z,english_54.wav,0,0,1575,22,4,chinese,m,3,0.3,-2.56688864,1.78735236
wxb_1027,143,2,2024-06-16T02:46:03.638Z,english_54.wav,0,0,1575,22,4,chinese,m,4,0.32341667,-76.29238916,0.80366269
wxb_1027,144,2,2024-06-16T02:46:03.638Z,english_654.wav,0,1,1298,22,4,chinese,m,0,0,-97.13147194,0.91673578
wxb_1027,144,2,2024-06-16T02:46:03.638Z,english_654.wav,0,1,1298,22,4,chinese,m,1,0.1,-81.37819023,1.23280851
wxb_1027,144,2,2024-06-16T02:46:03.638Z,english_654.wav,0,1,1298,22,4,chinese,m,2,0.2,51.48571278,1.64688363
wxb_1027,144,2,2024-06-16T02:46:03.638Z,english_654.wav,0,1,1298,22,4,chinese,m,3,0.3,54.00949099,1.75994168
wxb_1027,144,2,2024-06-16T02:46:03.638Z,english_654.wav,0,1,1298,22,4,chinese,m,4,0.32341667,-95.1633683,0.20104411
wxb_1027,145,2,2024-06-16T02:46:03.638Z,english_280.wav,0,1,1815,22,4,chinese,m,0,0,88.60957906,0.0301642
wxb_1027,145,2,2024-06-16T02:46:03.638Z,english_280.wav,0,1,1815,22,4,chinese,m,1,0.1,84.68226706,1.61205195
wxb_1027,145,2,2024-06-16T02:46:03.638Z,english_280.wav,0,1,1815,22,4,chinese,m,2,0.2,-77.43679957,1.42137195
wxb_1027,145,2,2024-06-16T02:46:03.638Z,english_280.wav,0,1,1815,22,4,chinese,m,3,0.3,45.11946934,1.73240953
wxb_1027,145,2,2024-06-16T02:46:03.638Z,english_280.wav,0,1,1815,22,4,chinese,m,4,0.32341667,-36.96988582,0.09602122
wxb_1027,146,2,2024-06-16T02:46:03.638Z,english_706.wav,0,0,814,22,4,chinese,m,0,0,-14.02426606,0.18721001
wxb_1027,146,2,2024-06-16T02:46:03.638Z,english_706.wav,0,0,814,22,4,chinese,m,1,0.1,23.81630209,0.48464851
wxb_1027,146,2,2024-06-16T02:46:03.638Z,english_706.wav,0,0,814,22,4,chinese,m,2,0.2,94.24266466,1.46456973
wxb_1027,146,2,2024-06-16T02:46:03.638Z,english_706.wav,0,0,814,22,4,chinese,m,3,0.3,20.03642156,0.11403632
wxb_1027,146,2,2024-06-16T02:46:03.638Z,english_706.wav,0,0,814,22,4,chinese,m,4,0.32341667,57.92570785,0.61389372
wxb_1027,147,2,2024-06-16T02:46:03.638Z,english_35.wav,0,1,2239,22,4,chinese,m,0,0,-35.14158545,0.855771
wxb_1027,147,2,2024-06-16T02:46:03.638Z,english_35.wav,0,1,2239,22,4,chinese,m,1,0.1,-54.49669119,0.5452371
wxb_1027,147,2,2024-06-16T02:46:03.638Z,english_35.wav,0,1,2239,22,4,chinese,m,2,0.2,37.91149238,1.65995376
wxb_1027,147,2,2024-06-16T02:46:03.638Z,english_35.wav,0,1,2239,22,4,chinese,m,3,0.3,-55.38086503,0.74505496
wxb_1027,147,2,2024-06-16T02:46:03.638Z,english_35.wav,0,1,2239,22,4,chinese,m,4,0.32341667,54.77667999,0.83530932
wxb_1027,148,2,2024-06-16T02:46:03.638Z,english_563.wav,0,1,3774,22,4,chinese,m,0,0,19.758909,0.0609285
wxb_1027,148,2,2024-06-16T02:46:03.638Z,english_563.wav,0,1,3774,22,4,chinese,m,1,0.1,33.70416131,1.63852294
wxb_1027,148,2,2024-06-16T02:46:03.638Z,english_563.wav,0,1,3774,22,4,chinese,m,2,0.2,-28.26228599,0.53834051
wxb_1027,148,2,2024-06-16T02:46:03.638Z,english_563.wav,0,1,3774,22,4,chinese,m,3,0.3,77.25360299,0.54558093
wxb_1027,148,2,2024-06-16T02:46:03.638Z,english_563.wav,0,1,3774,22,4,chinese,m,4,0.32341667,-40.65982077,0.29994173
wxb_1027,149,2,2024-06-16T02:46:03.638Z,english_817.wav,0,1,710,22,4,chinese,m,0,0,58.06319333,0.77394069
wxb_1027,149,2,2024-06-16T02:46:03.638Z,english_817.wav,0,1,710,22,4,chinese,m,1,0.1,0.91206114,0.81778066
wxb_1027,149,2,2024-06-16T02:46:03.638Z,english_817.wav,0,1,710,22,4,chinese,m,2,0.2,-27.80824757,1.48752315
wxb_1027,149,2,2024-06-16T02:46:03.638Z,english_817.wav,0,1,710,22,4,chinese,m,3,0.3,-73.7491051,0.41888886
wxb_1027,149,2,2024-06-16T02:46:03.638Z,english_817.wav,0,1,710,22,4,chinese,m,4,0.32341667,69.75698508,0.93012443
wxb_1027,150,3,2024-06-16T02:49:37.218Z,english_345.wav,0,1,1221,22,4,chinese,m,0,0,-46.00579497,1.58751342
wxb_1027,150,3,2024-06-16T02:49:37.218Z,english_345.wav,0,1,1221,22,4,chinese,m,1,0.1,-45.5805492,1.0202646
wxb_1027,150,3,2024-06-16T02:49:37.218Z,english_345.wav,0,1,1221,22,4,chinese,m,2,0.2,-14.04378539,0.61561299
wxb_1027,150,3,2024-06-16T02:49:37.218Z,english_345.wav,0,1,1221,22,4,chinese,m,3,0.3,63.72413351,1.21547564
wxb_1027,150,3,2024-06-16T02:49:37.218Z,english_345.wav,0,1,1221,22,4,chinese,m,4,0.32341667,18.03717792,1.47127253
wxb_1027,151,3,2024-06-16T02:49:37.218Z,english_559.wav,0,0,2099,22,4,chinese,m,0,0,72.91796617,0.28347303
wxb_1027,151,3,2024-06-16T02:49:37.218Z,english_559.wav,0,0,2099,22,4,chinese,m,1,0.1,49.0763932,0.33705515
wxb_1027,151,3,2024-06-16T02:49:37.218Z,english_559.wav,0,0,2099,22,4,chinese,m,2,0.2,37.36372944,1.25665906
wxb_1027,151,3,2024-06-16T02:49:37.218Z,english_559.wav,0,0,2099,22,4,chinese,m,3,0.3,62.8744144,0.42135622
wxb_1027,151,3,2024-06-16T02:49:37.218Z,english_559.wav,0,0,2099,22,4,chinese,m,4,0.32341667,-70.24316133,0.44445559
wxb_1027,152,3,2024-06-16T02:49:37.218Z,english_43.wav,0,1,1770,22,4,chinese,m,0,0,22.40064366,1.74132857
wxb_1027,152,3,2024-06-16T02:49:37.218Z,english_43.wav,0,1,1770,22,4,chinese,m,1,0.1,-68.20152198,0.12763156
wxb_1027,152,3,2024-06-16T02:49:37.218Z,english_43.wav,0,1,1770,22,4,chinese,m,2,0.2,62.56231291,0.31420738
wxb_1027,152,3,2024-06-16T02:49:37.218Z,english_43.wav,0,1,1770,22,4,chinese,m,3,0.3,45.0736378,0.98572154
wxb_1027,152,3,2024-06-16T02:49:37.218Z,english_43.wav,0,1,1770,22,4,chinese,m,4,0.32341667,-36.46791656,0.91325677
wxb_1027,153,3,2024-06-16T02:49:37.218Z,english_33.wav,0,1,294,22,4,chinese,m,0,0,13.53683954,1.37746345
wxb_1027,153,3,2024-06-16T02:49:37.218Z,english_33.wav,0,1,294,22,4,chinese,m,1,0.1,-23.61599557,1.14776292
wxb_1027,153,3,2024-06-16T02:49:37.218Z,english_33.wav,0,1,294,22,4,chinese,m,2,0.2,60.58241295,1.15899553
wxb_1027,153,3,2024-06-16T02:49:37.218Z,english_33.wav,0,1,294,22,4,chinese,m,3,0.3,-2.03686091,0.64766031
wxb_1027,153,3,2024-06-16T02:49:37.218Z,english_33.wav,0,1,294,22,4,chinese,m,4,0.32341667,79.90239576,1.69768968
wxb_1027,154,3,2024-06-16T02:49:37.218Z,english_500.wav,0,1,414,22,4,chinese,m,0,0,34.07818593,1.14050746
wxb_1027,154,3,2024-06-16T02:49:37.218Z,english_500.wav,0,1,414,22,4,chinese,m,1,0.1,31.06479142,1.87458021
wxb_1027,154,3,2024-06-16T02:49:37.218Z,english_500.wav,0,1,414,22,4,chinese,m,2,0.2,-63.34751057,0.77467433
wxb_1027,154,3,2024-06-16T02:49:37.218Z,english_500.wav,0,1,414,22,4,chinese,m,3,0.3,36.97827554,1.278432
wxb_1027,154,3,2024-06-16T02:49:37.218Z,english_500.wav,0,1,414,22,4,chinese,m,4,0.32341667,96.68235718,0.68469821
wxb_1027,155,3,2024-06-16T02:49:37.218Z,english_484.wav,0,0,1436,22,4,chinese,m,0,0,79.97188672,0.20745104
wxb_1027,155,3,2024-06-16T02:49:37.218Z,english_484.wav,0,0,1436,22,4,chinese,m,1,0.1,-84.58904822,1.46214797
wxb_1027,155,3,2024-06-16T02:49:37.218Z,english_484.wav,0,0,1436,22,4,chinese,m,2,0.2,70.2960477,0.40821612
wxb_1027,155,3,2024-06-16T02:49:37.218Z,english_484.wav,0,0,1436,22,4,chinese,m,3,0.3,-66.44520929,1.23203415
wxb_1027,155,3,2024-06-16T02:49:37.218Z,english_484.wav,0,0,1436,22,4,chinese,m,4,0.32341667,-78.91715359,1.26593617
wxb_1027,156,3,2024-06-16T02:49:37.218Z,english_577.wav,0,1,906,22,4,chinese,m,0,0,0.60742169,1.18439754
wxb_1027,156,3,2024-06-16T02:49:37.218Z,english_577.wav,0,1,906,22,4,chinese,m,1,0.1,-16.75441018,1.17258894
wxb_1027,156,3,2024-06-16T02:49:37.218Z,english_577.wav,0,1,906,22,4,chinese,m,2,0.2,32.29278586,0.00832478
wxb_1027,156,3,2024-06-16T02:49:37.218Z,english_577.wav,0,1,906,22,4,chinese,m,3,0.3,94.63733595,1.24529525
wxb_1027,156,3,2024-06-16T02:49:37.218Z,english_577.wav,0,1,906,22,4,chinese,m,4,0.32341667,-75.78119055,0.24980342
wxb_1027,157,3,2024-06-16T02:49:37.218Z,english_427.wav,0,1,1111,22,4,chinese,m,0,0,38.10585738,0.62221409
wxb_1027,157,3,2024-06-16T02:49:37.218Z,english_427.wav,0,1,1111,22,4,chinese,m,1,0.1,75.26959407,1.20145201
wxb_1027,157,3,2024-06-16T02:49:37.218Z,english_427.wav,0,1,1111,22,4,chinese,m,2,0.2,-92.48152235,0.18894815
wxb_1027,157,3,2024-06-16T02:49:37.218Z,english_427.wav,0,1,1111,22,4,chinese,m,3,0.3,-38.24940669,0.36527681
wxb_1027,157,3,2024-06-16T02:49:37.218Z,english_427.wav,0,1,1111,22,4,chinese,m,4,0.32341667,-41.67637111,0.02898627
wxb_1027,158,3,2024-06-16T02:49:37.218Z,english_707.wav,0,1,1510,22,4,chinese,m,0,0,-17.04120346,1.06535483
wxb_1027,158,3,2024-06-16T02:49:37.218Z,english_707.wav,0,1,1510,22,4,chinese,m,1,0.1,-57.44917128,0.89541794
wxb_1027,158,3,2024-06-16T02:49:37.218Z,english_707.wav,0,1,1510,22,4,chinese,m,2,0.2,90.75848643,1.64838001
wxb_1027,158,3,2024-06-16T02:49:37.218Z,english_707.wav,0,1,1510,22,4,chinese,m,3,0.3,96.79852424,0.75431717
wxb_1027,158,3,2024-06-16T02:49:37.218Z,english_707.wav,0,1,1510,22,4,chinese,m,4,0.32341667,27.01716591,0.48082071
wxb_1027,159,3,2024-06-16T02:49:37.218Z,english_313.wav,0,0,1507,22,4,chinese,m,0,0,63.86599335,0.35841412
wxb_1027,159,3,2024-06-16T02:49:37.218Z,english_313.wav,0,0,1507,22,4,chinese,m,1,0.1,-55.89800258,0.35021793
wxb_1027,159,3,2024-06-16T02:49:37.218Z,english_313.wav,0,0,1507,22,4,chinese,m,2,0.2,90.86254046,1.77750413
wxb_1027,159,3,2024-06-16T02:49:37.218Z,english_313.wav,0,0,1507,22,4,chinese,m,3,0.3,0.53087649,1.87396687
wxb_1027,159,3,2024-06-16T02:49:37.218Z,english_313.wav,0,0,1507,22,4,chinese,m,4,0.32341667,-69.87913817,1.16176786
wxb_1027,160,3,2024-06-16T02:49:37.218Z,english_882.wav,0,1,790,22,4,chinese,m,0,0,-42.93700265,1.06489748
wxb_1027,160,3,2024-06-16T02:49:37.218Z,english_882.wav,0,1,790,22,4,chinese,m,1,0.1,-62.35786663,1.38883859
wxb_1027,160,3,2024-06-16T02:49:37.218Z,english_882.wav,0,1,790,22,4,chinese,m,2,0.2,-16.20482572,0.28843799
wxb_1027,160,3,2024-06-16T02:49:37.218Z,english_882.wav,0,1,790,22,4,chinese,m,3,0.3,-46.49020195,1.05408179
wxb_1027,160,3,2024-06-16T02:49:37.218Z,english_882.wav,0,1,790,22,4,chinese,m,4,0.32341667,-64.89408339,1.78517837
wxb_1027,161,3,2024-06-16T02:49:37.218Z,english_386.wav,0,1,2749,22,4,chinese,m,0,0,74.56899624,1.79299743
wxb_1027,161,3,2024-06-16T02:49:37.218Z,english_386.wav,0,1,2749,22,4,chinese,m,1,0.1,25.94107183,0.16071221
wxb_1027,161,3,2024-06-16T02:49:37.218Z,english_386.wav,0,1,2749,22,4,chinese,m,2,0.2,41.2839149,0.21721497
wxb_1027,161,3,2024-06-16T02:49:37.218Z,english_386.wav,0,1,2749,22,4,chinese,m,3,0.3,14.47866495,1.22036918
wxb_1027,161,3,2024-06-16T02:49:37.218Z,english_386.wav,0,1,2749,22,4,chinese,m,4,0.32341667,-14.73959674,1.81871952
wxb_1027,162,3,2024-06-16T02:49:37.218Z,english_629.wav,0,1,2480,22,4,chinese,m,0,0,76.68747977,0.56482572
wxb_1027,162,3,2024-06-16T02:49:37.218Z,english_629.wav,0,1,2480,22,4,chinese,m,1,0.1,72.0676039,0.14075004
wxb_1027,162,3,2024-06-16T02:49:37.218Z,english_629.wav,0,1,2480,22,4,chinese,m,2,0.2,-3.42071834,0.80885654
wxb_1027,162,3,2024-06-16T02:49:37.218Z,english_629.wav,0,1,2480,22,4,chinese,m,3,0.3,-75.36993348,1.43133267
wxb_1027,162,3,2024-06-16T02:49:37.218Z,english_629.wav,0,1,2480,22,4,chinese,m,4,0.32341667,-15.4233884,0.14234351
wxb_1027,163,3,2024-06-16T02:49:37.218Z,english_857.wav,0,1,2402,22,4,chinese,m,0,0,-33.07031843,1.04325491
wxb_1027,163,3,2024-06-16T02:49:37.218Z,english_857.wav,0,1,2402,22,4,chinese,m,1,0.1,12.9349985,0.44078978
wxb_1027,163,3,2024-06-16T02:49:37.218Z,english_857.wav,0,1,2402,22,4,chinese,m,2,0.2,4.33682254,1.36028147
wxb_1027,163,3,2024-06-16T02:49:37.218Z,english_857.wav,0,1,2402,22,4,chinese,m,3,0.3,90.68056828,1.16905302
wxb_1027,163,3,2024-06-16T02:49:37.218Z,english_857.wav,0,1,2402,22,4,chinese,m,4,0.32341667,37.69781409,1.24618942
wxb_1027,164,3,2024-06-16T02:49:37.218Z,english_551.wav,0,0,1959,22,4,chinese,m,0,0,51.69986033,0.0331047
wxb_1027,164,3,2024-06-16T02:49:37.218Z,english_551.wav,0,0,1959,22,4,chinese,m,1,0.1,-91.31948841,0.51079487
wxb_1027,164,3,2024-06-16T02:49:37.218Z,english_551.wav,0,0,1959,22,4,chinese,m,2,0.2,12.24586311,1.83581854
wxb_1027,164,3,2024-06-16T02:49:37.218Z,english_551.wav,0,0,1959,22,4,chinese,m,3,0.3,-52.90680215,0.12201236
wxb_1027,164,3,2024-06-16T02:49:37.218Z,english_551.wav,0,0,1959,22,4,chinese,m,4,0.32341667,-27.23325687,1.55189277
wxb_1027,165,3,2024-06-16T02:49:37.218Z,english_491.wav,0,1,1088,22,4,chinese,m,0,0,-58.06424917,1.23740358
wxb_1027,165,3,2024-06-16T02:49:37.218Z,english_491.wav,0,1,1088,22,4,chinese,m,1,0.1,-10.73132445,0.97891215
wxb_1027,165,3,2024-06-16T02:49:37.218Z,english_491.wav,0,1,1088,22,4,chinese,m,2,0.2,17.9230478,0.17588849
wxb_1027,165,3,2024-06-16T02:49:37.218Z,english_491.wav,0,1,1088,22,4,chinese,m,3,0.3,-41.27614743,0.52166982
wxb_1027,165,3,2024-06-16T02:49:37.218Z,english_491.wav,0,1,1088,22,4,chinese,m,4,0.32341667,-30.17832464,1.65640468
wxb_1027,166,3,2024-06-16T02:49:37.218Z,english_442.wav,0,1,986,22,4,chinese,m,0,0,-5.21319176,1.35819452
wxb_1027,166,3,2024-06-16T02:49:37.218Z,english_442.wav,0,1,986,22,4,chinese,m,1,0.1,-16.23989513,1.66019663
wxb_1027,166,3,2024-06-16T02:49:37.218Z,english_442.wav,0,1,986,22,4,chinese,m,2,0.2,-36.77315909,0.51170704
wxb_1027,166,3,2024-06-16T02:49:37.218Z,english_442.wav,0,1,986,22,4,chinese,m,3,0.3,-33.51446291,1.6590932
wxb_1027,166,3,2024-06-16T02:49:37.218Z,english_442.wav,0,1,986,22,4,chinese,m,4,0.32341667,-25.07447919,0.97998973
wxb_1027,167,3,2024-06-16T02:49:37.218Z,english_99.wav,0,1,1376,22,4,chinese,m,0,0,9.75149611,0.79411887
wxb_1027,167,3,2024-06-16T02:49:37.218Z,english_99.wav,0,1,1376,22,4,chinese,m,1,0.1,-7.37998228,0.53064308
wxb_1027,167,3,2024-06-16T02:49:37.218Z,english_99.wav,0,1,1376,22,4,chinese,m,2,0.2,29.15889261,0.10254027
wxb_1027,167,3,2024-06-16T02:49:37.218Z,english_99.wav,0,1,1376,22,4,chinese,m,3,0.3,-23.23230809,0.53999741
wxb_1027,167,3,2024-06-16T02:49:37.218Z,english_99.wav,0,1,1376,22,4,chinese,m,4,0.32341667,51.25937721,0.74302856
wxb_1027,168,3,2024-06-16T02:49:37.218Z,english_194.wav,0,1,598,22,4,chinese,m,0,0,46.99725025,0.38230397
wxb_1027,168,3,2024-06-16T02:49:37.218Z,english_194.wav,0,1,598,22,4,chinese,m,1,0.1,-37.20381284,1.33246395
wxb_1027,168,3,2024-06-16T02:49:37.218Z,english_194.wav,0,1,598,22,4,chinese,m,2,0.2,13.86947558,1.31276464
wxb_1027,168,3,2024-06-16T02:49:37.218Z,english_194.wav,0,1,598,22,4,chinese,m,3,0.3,79.77232086,0.22397005
wxb_1027,168,3,2024-06-16T02:49:37.218Z,english_194.wav,0,1,598,22,4,chinese,m,4,0.32341667,49.46244041,1.74931967
wxb_1027,169,3,2024-06-16T02:49:37.218Z,english_723.wav,0,1,1034,22,4,chinese,m,0,0,-85.17156731,1.02541656
wxb_1027,169,3,2024-06-16T02:49:37.218Z,english_723.wav,0,1,1034,22,4,chinese,m,1,0.1,92.93654667,0.92088513
wxb_1027,169,3,2024-06-16T02:49:37.218Z,english_723.wav,0,1,1034,22,4,chinese,m,2,0.2,-28.89042756,0.78256854
wxb_1027,169,3,2024-06-16T02:49:37.218Z,english_723.wav,0,1,1034,22,4,chinese,m,3,0.3,36.79914563,1.22887413
wxb_1027,169,3,2024-06-16T02:49:37.218Z,english_723.wav,0,1,1034,22,4,chinese,m,4,0.32341667,6.86426773,1.77193963
wxb_1027,170,3,2024-06-16T02:49:37.218Z,english_251.wav,0,1,1278,22,4,chinese,m,0,0,-35.26640223,1.59441442
wxb_1027,170,3,2024-06-16T02:49:37.218Z,english_251.wav,0,1,1278,22,4,chinese,m,1,0.1,-82.14936791,1.21410308
wxb_1027,170,3,2024-06-16T02:49:37.218Z,english_251.wav,0,1,1278,22,4,chinese,m,2,0.2,39.53587687,0.89125894
wxb_1027,170,3,2024-06-16T02:49:37.218Z,english_251.wav,0,1,1278,22,4,chinese,m,3,0.3,-75.44024907,0.14763688
wxb_1027,170,3,2024-06-16T02:49:37.218Z,english_251.wav,0,1,1278,22,4,chinese,m,4,0.32341667,26.94148116,1.71797298
wxb_1027,171,3,2024-06-16T02:49:37.218Z,english_192.wav,0,1,1064,22,4,chinese,m,0,0,78.04280759,0.73118961
wxb_1027,171,3,2024-06-16T02:49:37.218Z,english_192.wav,0,1,1064,22,4,chinese,m,1,0.1,-85.52188616,0.7164391
wxb_1027,171,3,2024-06-16T02:49:37.218Z,english_192.wav,0,1,1064,22,4,chinese,m,2,0.2,-14.2601202,1.68273927
wxb_1027,171,3,2024-06-16T02:49:37.218Z,english_192.wav,0,1,1064,22,4,chinese,m,3,0.3,29.76504865,0.51501418
wxb_1027,171,3,2024-06-16T02:49:37.218Z,english_192.wav,0,1,1064,22,4,chinese,m,4,0.32341667,82.81048791,1.16986294
wxb_1027,172,3,2024-06-16T02:49:37.218Z,english_868.wav,0,1,1551,22,4,chinese,m,0,0,-32.61379415,0.76599538
wxb_1027,172,3,2024-06-16T02:49:37.218Z,english_868.wav,0,1,1551,22,4,chinese,m,1,0.1,-13.61007492,0.34348987
wxb_1027,172,3,2024-06-16T02:49:37.218Z,english_868.wav,0,1,1551,22,4,chinese,m,2,0.2,-35.23756027,0.26787397
wxb_1027,172,3,2024-06-16T02:49:37.218Z,english_868.wav,0,1,1551,22,4,chinese,m,3,0.3,83.12333319,0.46343078
wxb_1027,172,3,2024-06-16T02:49:37.218Z,english_868.wav,0,1,1551,22,4,chinese,m,4,0.32341667,62.80865362,1.59158725
wxb_1027,173,3,2024-06-16T02:49:37.218Z,english_975.wav,0,1,1846,22,4,chinese,m,0,0,30.76275893,1.75032315
wxb_1027,173,3,2024-06-16T02:49:37.218Z,english_975.wav,0,1,1846,22,4,chinese,m,1,0.1,-18.30184736,1.1766706
wxb_1027,173,3,2024-06-16T02:49:37.218Z,english_975.wav,0,1,1846,22,4,chinese,m,2,0.2,88.92209311,0.11148121
wxb_1027,173,3,2024-06-16T02:49:37.218Z,english_975.wav,0,1,1846,22,4,chinese,m,3,0.3,-15.78836893,1.00992181
wxb_1027,173,3,2024-06-16T02:49:37.218Z,english_975.wav,0,1,1846,22,4,chinese,m,4,0.32341667,81.69873146,1.08252971
wxb_1027,174,3,2024-06-16T02:49:37.218Z,english_992.wav,0,1,2403,22,4,chinese,m,0,0,-6.68189934,0.46848529
wxb_1027,174,3,2024-06-16T02:49:37.218Z,english_992.wav,0,1,2403,22,4,chinese,m,1,0.1,78.76679047,0.9874556
wxb_1027,174,3,2024-06-16T02:49:37.218Z,english_992.wav,0,1,2403,22,4,chinese,m,2,0.2,-58.5917679,0.57881803
wxb_1027,174,3,2024-06-16T02:49:37.218Z,english_992.wav,0,1,2403,22,4,chinese,m,3,0.3,-98.64651588,0.88425299
wxb_1027,174,3,2024-06-16T02:49:37.218Z,english_992.wav,0,1,2403,22,4,chinese,m,4,0.32341667,73.76402904,0.6994588
wxb_1027,175,3,2024-06-16T02:49:37.218Z,english_526.wav,0,1,1694,22,4,chinese,m,0,0,-32.34532461,0.924261
wxb_1027,175,3,2024-06-16T02:49:37.218Z,english_526.wav,0,1,1694,22,4,chinese,m,1,0.1,-46.6208459,0.25414499
wxb_1027,175,3,2024-06-16T02:49:37.218Z,english_526.wav,0,1,1694,22,4,chinese,m,2,0.2,-42.84927068,1.01925886
wxb_1027,175,3,2024-06-16T02:49:37.218Z,english_526.wav,0,1,1694,22,4,chinese,m,3,0.3,3.47643827,0.65966822
wxb_1027,175,3,2024-06-16T02:49:37.218Z,english_526.wav,0,1,1694,22,4,chinese,m,4,0.32341667,52.79087598,1.50872035
wxb_1027,176,3,2024-06-16T02:49:37.218Z,english_769.wav,0,1,1067,22,4,chinese,m,0,0,-12.68288087,1.59358978
wxb_1027,176,3,2024-06-16T02:49:37.218Z,english_769.wav,0,1,1067,22,4,chinese,m,1,0.1,13.58895245,0.16681031
wxb_1027,176,3,2024-06-16T02:49:37.218Z,english_769.wav,0,1,1067,22,4,chinese,m,2,0.2,-5.57429841,0.74292099
wxb_1027,176,3,2024-06-16T02:49:37.218Z,english_769.wav,0,1,1067,22,4,chinese,m,3,0.3,-26.44516544,0.17250104
wxb_1027,176,3,2024-06-16T02:49:37.218Z,english_769.wav,0,1,1067,22,4,chinese,m,4,0.32341667,85.93285426,0.16730253
wxb_1027,177,3,2024-06-16T02:49:37.218Z,english_847.wav,0,0,692,22,4,chinese,m,0,0,76.45550118,0.38890762
wxb_1027,177,3,2024-06-16T02:49:37.218Z,english_847.wav,0,0,692,22,4,chinese,m,1,0.1,-18.38123868,1.01718805
wxb_1027,177,3,2024-06-16T02:49:37.218Z,english_847.wav,0,0,692,22,4,chinese,m,2,0.2,18.403778,1.24872656
wxb_1027,177,3,2024-06-16T02:49:37.218Z,english_847.wav,0,0,692,22,4,chinese,m,3,0.3,57.196546,0.81951257
wxb_1027,177,3,2024-06-16T02:49:37.218Z,english_847.wav,0,0,692,22,4,chinese,m,4,0.32341667,32.99763753,0.74194876
wxb_1027,178,3,2024-06-16T02:49:37.218Z,english_881.wav,0,1,694,22,4,chinese,m,0,0,7.28069095,1.60234882
wxb_1027,178,3,2024-06-16T02:49:37.218Z,english_881.wav,0,1,694,22,4,chinese,m,1,0.1,-64.28928902,0.93497238
wxb_1027,178,3,2024-06-16T02:49:37.218Z,english_881.wav,0,1,694,22,4,chinese,m,2,0.2,-2.07432692,0.58107235
wxb_1027,178,3,2024-06-16T02:49:37.218Z,english_881.wav,0,1,694,22,4,chinese,m,3,0.3,51.5536886,1.34691236
wxb_1027,178,3,2024-06-16T02:49:37.218Z,english_881.wav,0,1,694,22,4,chinese,m,4,0.32341667,65.74991707,0.85842561
wxb_1027,179,3,2024-06-16T02:49:37.218Z,english_612.wav,0,1,528,22,4,chinese,m,0,0,-84.32217164,1.34068621
wxb_1027,179,3,2024-06-16T02:49:37.218Z,english_612.wav,0,1,528,22,4,chinese,m,1,0.1,36.55311424,0.03443149
wxb_1027,179,3,2024-06-16T02:49:37.218Z,english_612.wav,0,1,528,22,4,chinese,m,2,0.2,92.38334081,0.45903509
wxb_1027,179,3,2024-06-16T02:49:37.218Z,english_612.wav,0,1,528,22,4,chinese,m,3,0.3,11.68953794,0.60209198
wxb_1027,179,3,2024-06-16T02:49:37.218Z,english_612.wav,0,1,528,22,4,chinese,m,4,0.32341667,43.3279226,0.29533154
wxb_1027,180,3,2024-06-16T02:49:37.218Z,english_552.wav,0,1,1800,22,4,chinese,m,0,0,-54.22317773,0.14479657
wxb_1027,180,3,2024-06-16T02:49:37.218Z,english_552.wav,0,1,1800,22,4,chinese,m,1,0.1,23.75537749,1.96762023
wxb_1027,180,3,2024-06-16T02:49:37.218Z,english_552.wav,0,1,1800,22,4,chinese,m,2,0.2,-67.43154965,0.75812729
wxb_1027,180,3,2024-06-16T02:49:37.218Z,english_552.wav,0,1,1800,22,4,chinese,m,3,0.3,-83.62242399,0.84420129
wxb_1027,180,3,2024-06-16T02:49:37.218Z,english_552.wav,0,1,1800,22,4,chinese,m,4,0.32341667,64.2322812,0.73382384
wxb_1027,181,3,2024-06-16T02:49:37.218Z,english_969.wav,0,0,1034,22,4,chinese,m,0,0,0.27440165,1.49550116
wxb_1027,181,3,2024-06-16T02:49:37.218Z,english_969.wav,0,0,1034,22,4,chinese,m,1,0.1,32.90941676,1.08086357
wxb_1027,181,3,2024-06-16T02:49:37.218Z,english_969.wav,0,0,1034,22,4,chinese,m,2,0.2,65.54691775,0.25687245
wxb_1027,181,3,2024-06-16T02:49:37.218Z,english_969.wav,0,0,1034,22,4,chinese,m,3,0.3,38.11090315,0.33107225
wxb_1027,181,3,2024-06-16T02:49:37.218Z,english_969.wav,0,0,1034,22,4,chinese,m,4,0.32341667,-66.49311905,0.72842933
wxb_1027,182,3,2024-06-16T02:49:37.218Z,english_204.wav,0,0,490,22,4,chinese,m,0,0,67.46317025,1.58701212
wxb_1027,182,3,2024-06-16T02:49:37.218Z,english_204.wav,0,0,490,22,4,chinese,m,1,0.1,38.91463365,1.82178317
wxb_1027,182,3,2024-06-16T02:49:37.218Z,english_204.wav,0,0,490,22,4,chinese,m,2,0.2,-85.28377865,1.60361911
wxb_1027,182,3,2024-06-16T02:49:37.218Z,english_204.wav,0,0,490,22,4,chinese,m,3,0.3,55.65505401,0.21823774
