subj,trial,block,date,stim,stim_order,response,rt,age,english,language,sex,param_index,segment,pitch,stretch
TYT,0,0,2024-06-13T14:39:10.702Z,english_889.wav,0,0,1480,,,,,0,0,-92.0683747,0.69619005
TYT,0,0,2024-06-13T14:39:10.702Z,english_889.wav,0,0,1480,,,,,1,0.1,92.92883541,1.46059979
TYT,0,0,2024-06-13T14:39:10.702Z,english_889.wav,0,0,1480,,,,,2,0.2,-38.78028918,1.13034103
TYT,0,0,2024-06-13T14:39:10.702Z,english_889.wav,0,0,1480,,,,,3,0.3,33.48812202,1.0639125
TYT,0,0,2024-06-13T14:39:10.702Z,english_889.wav,0,0,1480,,,,,4,0.32341667,68.79643169,0.42066581
TYT,1,0,2024-06-13T14:39:10.702Z,english_887.wav,0,0,1465,,,,,0,0,21.36154006,0.58574694
TYT,1,0,2024-06-13T14:39:10.702Z,english_887.wav,0,0,1465,,,,,1,0.1,-21.46213737,0.48413962
TYT,1,0,2024-06-13T14:39:10.702Z,english_887.wav,0,0,1465,,,,,2,0.2,-45.53850124,1.16923549
TYT,1,0,2024-06-13T14:39:10.702Z,english_887.wav,0,0,1465,,,,,3,0.3,-75.36110743,1.46190157
TYT,1,0,2024-06-13T14:39:10.702Z,english_887.wav,0,0,1465,,,,,4,0.32341667,-96.67184991,0.00789239
TYT,2,0,2024-06-13T14:39:10.702Z,english_986.wav,0,0,976,,,,,0,0,36.93997263,1.7539978
TYT,2,0,2024-06-13T14:39:10.702Z,english_986.wav,0,0,976,,,,,1,0.1,-76.80061303,1.40735445
TYT,2,0,2024-06-13T14:39:10.702Z,english_986.wav,0,0,976,,,,,2,0.2,60.8418497,0.62226098
TYT,2,0,2024-06-13T14:39:10.702Z,english_986.wav,0,0,976,,,,,3,0.3,-27.90828951,0.48175931
TYT,2,0,2024-06-13T14:39:10.702Z,english_986.wav,0,0,976,,,,,4,0.32341667,99.51838141,1.5918282
TYT,3,0,2024-06-13T14:39:10.702Z,english_948.wav,0,0,639,,,,,0,0,12.28616187,1.33435242
TYT,3,0,2024-06-13T14:39:10.702Z,english_948.wav,0,0,639,,,,,1,0.1,33.44634687,1.33862855
TYT,3,0,2024-06-13T14:39:10.702Z,english_948.wav,0,0,639,,,,,2,0.2,98.80566767,1.25876505
TYT,3,0,2024-06-13T14:39:10.702Z,english_948.wav,0,0,639,,,,,3,0.3,-93.57044844,1.87938727
TYT,3,0,2024-06-13T14:39:10.702Z,english_948.wav,0,0,639,,,,,4,0.32341667,-51.09398555,1.88731406
TYT,4,0,2024-06-13T14:39:10.702Z,english_24.wav,0,0,695,,,,,0,0,83.82729659,0.31203725
TYT,4,0,2024-06-13T14:39:10.702Z,english_24.wav,0,0,695,,,,,1,0.1,-2.54724082,1.56948954
TYT,4,0,2024-06-13T14:39:10.702Z,english_24.wav,0,0,695,,,,,2,0.2,88.70909739,0.87333864
TYT,4,0,2024-06-13T14:39:10.702Z,english_24.wav,0,0,695,,,,,3,0.3,48.93770926,0.88535019
TYT,4,0,2024-06-13T14:39:10.702Z,english_24.wav,0,0,695,,,,,4,0.32341667,53.25190048,0.66112496
TYT,5,0,2024-06-13T14:39:10.702Z,english_544.wav,0,0,892,,,,,0,0,96.80704334,1.85115917
TYT,5,0,2024-06-13T14:39:10.702Z,english_544.wav,0,0,892,,,,,1,0.1,70.5198752,0.8718407
TYT,5,0,2024-06-13T14:39:10.702Z,english_544.wav,0,0,892,,,,,2,0.2,78.21609099,1.82238935
TYT,5,0,2024-06-13T14:39:10.702Z,english_544.wav,0,0,892,,,,,3,0.3,-95.7752672,0.25719172
TYT,5,0,2024-06-13T14:39:10.702Z,english_544.wav,0,0,892,,,,,4,0.32341667,-56.58918052,0.72929157
TYT,6,0,2024-06-13T14:39:10.702Z,english_640.wav,0,1,522,,,,,0,0,74.95875769,1.81273707
TYT,6,0,2024-06-13T14:39:10.702Z,english_640.wav,0,1,522,,,,,1,0.1,87.73764633,1.50076703
TYT,6,0,2024-06-13T14:39:10.702Z,english_640.wav,0,1,522,,,,,2,0.2,-71.36544648,0.25286143
TYT,6,0,2024-06-13T14:39:10.702Z,english_640.wav,0,1,522,,,,,3,0.3,11.07583082,0.53181051
TYT,6,0,2024-06-13T14:39:10.702Z,english_640.wav,0,1,522,,,,,4,0.32341667,18.32643638,0.76351343
TYT,7,0,2024-06-13T14:39:10.702Z,english_418.wav,0,0,1992,,,,,0,0,-7.92859899,0.20369216
TYT,7,0,2024-06-13T14:39:10.702Z,english_418.wav,0,0,1992,,,,,1,0.1,10.19863107,0.15242613
TYT,7,0,2024-06-13T14:39:10.702Z,english_418.wav,0,0,1992,,,,,2,0.2,-44.82770696,0.77695319
TYT,7,0,2024-06-13T14:39:10.702Z,english_418.wav,0,0,1992,,,,,3,0.3,-80.4141896,0.71786342
TYT,7,0,2024-06-13T14:39:10.702Z,english_418.wav,0,0,1992,,,,,4,0.32341667,32.43674468,1.20494416
TYT,8,0,2024-06-13T14:39:10.702Z,english_576.wav,0,1,1155,,,,,0,0,70.71636046,1.40655209
TYT,8,0,2024-06-13T14:39:10.702Z,english_576.wav,0,1,1155,,,,,1,0.1,-53.10414049,0.7609351
TYT,8,0,2024-06-13T14:39:10.702Z,english_576.wav,0,1,1155,,,,,2,0.2,34.4374047,1.0155723
TYT,8,0,2024-06-13T14:39:10.702Z,english_576.wav,0,1,1155,,,,,3,0.3,19.64113521,1.45906276
TYT,8,0,2024-06-13T14:39:10.702Z,english_576.wav,0,1,1155,,,,,4,0.32341667,36.63265498,1.49724695
TYT,9,0,2024-06-13T14:39:10.702Z,english_612.wav,0,0,1490,,,,,0,0,-84.32217164,1.34068621
TYT,9,0,2024-06-13T14:39:10.702Z,english_612.wav,0,0,1490,,,,,1,0.1,36.55311424,0.03443149
TYT,9,0,2024-06-13T14:39:10.702Z,english_612.wav,0,0,1490,,,,,2,0.2,92.38334081,0.45903509
TYT,9,0,2024-06-13T14:39:10.702Z,english_612.wav,0,0,1490,,,,,3,0.3,11.68953794,0.60209198
TYT,9,0,2024-06-13T14:39:10.702Z,english_612.wav,0,0,1490,,,,,4,0.32341667,43.3279226,0.29533154
TYT,10,0,2024-06-13T14:39:10.702Z,english_166.wav,0,1,1080,,,,,0,0,37.27670025,1.42766663
TYT,10,0,2024-06-13T14:39:10.702Z,english_166.wav,0,1,1080,,,,,1,0.1,34.38847046,0.72731767
TYT,10,0,2024-06-13T14:39:10.702Z,english_166.wav,0,1,1080,,,,,2,0.2,49.91842175,1.80608275
TYT,10,0,2024-06-13T14:39:10.702Z,english_166.wav,0,1,1080,,,,,3,0.3,56.9541748,1.91598421
TYT,10,0,2024-06-13T14:39:10.702Z,english_166.wav,0,1,1080,,,,,4,0.32341667,10.97290623,1.21084105
TYT,11,0,2024-06-13T14:39:10.702Z,english_151.wav,0,1,648,,,,,0,0,-8.78950662,1.36403682
TYT,11,0,2024-06-13T14:39:10.702Z,english_151.wav,0,1,648,,,,,1,0.1,-1.70650264,1.76375426
TYT,11,0,2024-06-13T14:39:10.702Z,english_151.wav,0,1,648,,,,,2,0.2,-17.50286784,1.43087438
TYT,11,0,2024-06-13T14:39:10.702Z,english_151.wav,0,1,648,,,,,3,0.3,88.78233286,1.18017331
TYT,11,0,2024-06-13T14:39:10.702Z,english_151.wav,0,1,648,,,,,4,0.32341667,55.08117545,1.30400061
TYT,12,0,2024-06-13T14:39:10.702Z,english_922.wav,0,1,1978,,,,,0,0,-90.36253489,0.33253962
TYT,12,0,2024-06-13T14:39:10.702Z,english_922.wav,0,1,1978,,,,,1,0.1,-6.38761956,1.51366693
TYT,12,0,2024-06-13T14:39:10.702Z,english_922.wav,0,1,1978,,,,,2,0.2,-78.09661245,0.40049791
TYT,12,0,2024-06-13T14:39:10.702Z,english_922.wav,0,1,1978,,,,,3,0.3,-92.75722173,1.29207892
TYT,12,0,2024-06-13T14:39:10.702Z,english_922.wav,0,1,1978,,,,,4,0.32341667,-80.16719401,1.40400382
TYT,13,0,2024-06-13T14:39:10.702Z,english_284.wav,0,0,476,,,,,0,0,-77.15161711,0.74585549
TYT,13,0,2024-06-13T14:39:10.702Z,english_284.wav,0,0,476,,,,,1,0.1,80.53955212,0.017077
TYT,13,0,2024-06-13T14:39:10.702Z,english_284.wav,0,0,476,,,,,2,0.2,-73.74967403,0.284322
TYT,13,0,2024-06-13T14:39:10.702Z,english_284.wav,0,0,476,,,,,3,0.3,-47.67008962,1.04459593
TYT,13,0,2024-06-13T14:39:10.702Z,english_284.wav,0,0,476,,,,,4,0.32341667,40.40758666,0.8536958
TYT,14,0,2024-06-13T14:39:10.702Z,english_643.wav,0,1,382,,,,,0,0,-40.15003434,1.60262153
TYT,14,0,2024-06-13T14:39:10.702Z,english_643.wav,0,1,382,,,,,1,0.1,-24.12893917,1.7682358
TYT,14,0,2024-06-13T14:39:10.702Z,english_643.wav,0,1,382,,,,,2,0.2,-40.66556796,0.31725537
TYT,14,0,2024-06-13T14:39:10.702Z,english_643.wav,0,1,382,,,,,3,0.3,75.01987067,0.56722121
TYT,14,0,2024-06-13T14:39:10.702Z,english_643.wav,0,1,382,,,,,4,0.32341667,29.71481383,1.87277365
TYT,15,0,2024-06-13T14:39:10.702Z,english_92.wav,0,1,520,,,,,0,0,31.88505953,1.50112375
TYT,15,0,2024-06-13T14:39:10.702Z,english_92.wav,0,1,520,,,,,1,0.1,-5.62534355,0.35596674
TYT,15,0,2024-06-13T14:39:10.702Z,english_92.wav,0,1,520,,,,,2,0.2,-66.19250112,1.12270031
TYT,15,0,2024-06-13T14:39:10.702Z,english_92.wav,0,1,520,,,,,3,0.3,-77.62644198,1.09837269
TYT,15,0,2024-06-13T14:39:10.702Z,english_92.wav,0,1,520,,,,,4,0.32341667,-66.61656061,1.16274455
TYT,16,0,2024-06-13T14:39:10.702Z,english_25.wav,0,1,534,,,,,0,0,-93.68210842,1.14210865
TYT,16,0,2024-06-13T14:39:10.702Z,english_25.wav,0,1,534,,,,,1,0.1,-14.41268038,1.90089654
TYT,16,0,2024-06-13T14:39:10.702Z,english_25.wav,0,1,534,,,,,2,0.2,72.93230065,0.61137859
TYT,16,0,2024-06-13T14:39:10.702Z,english_25.wav,0,1,534,,,,,3,0.3,23.28545759,1.93042398
TYT,16,0,2024-06-13T14:39:10.702Z,english_25.wav,0,1,534,,,,,4,0.32341667,18.09953767,1.11869114
TYT,17,0,2024-06-13T14:39:10.702Z,english_981.wav,0,1,601,,,,,0,0,-19.49446297,1.96452006
TYT,17,0,2024-06-13T14:39:10.702Z,english_981.wav,0,1,601,,,,,1,0.1,-69.0386812,1.2006287
TYT,17,0,2024-06-13T14:39:10.702Z,english_981.wav,0,1,601,,,,,2,0.2,-25.77088537,0.98600753
TYT,17,0,2024-06-13T14:39:10.702Z,english_981.wav,0,1,601,,,,,3,0.3,65.67633712,0.21362544
TYT,17,0,2024-06-13T14:39:10.702Z,english_981.wav,0,1,601,,,,,4,0.32341667,-6.1640169,0.33780549
TYT,18,0,2024-06-13T14:39:10.702Z,english_635.wav,0,1,412,,,,,0,0,27.7169436,1.98702335
TYT,18,0,2024-06-13T14:39:10.702Z,english_635.wav,0,1,412,,,,,1,0.1,-44.8292656,1.27737447
TYT,18,0,2024-06-13T14:39:10.702Z,english_635.wav,0,1,412,,,,,2,0.2,67.97685769,0.57401651
TYT,18,0,2024-06-13T14:39:10.702Z,english_635.wav,0,1,412,,,,,3,0.3,82.0264667,0.46134276
TYT,18,0,2024-06-13T14:39:10.702Z,english_635.wav,0,1,412,,,,,4,0.32341667,84.34985253,0.71235155
TYT,19,0,2024-06-13T14:39:10.702Z,english_466.wav,0,1,508,,,,,0,0,59.64739432,1.91119383
TYT,19,0,2024-06-13T14:39:10.702Z,english_466.wav,0,1,508,,,,,1,0.1,-20.63646321,1.29572765
TYT,19,0,2024-06-13T14:39:10.702Z,english_466.wav,0,1,508,,,,,2,0.2,62.86141463,0.99944191
TYT,19,0,2024-06-13T14:39:10.702Z,english_466.wav,0,1,508,,,,,3,0.3,-65.74461877,1.01221774
TYT,19,0,2024-06-13T14:39:10.702Z,english_466.wav,0,1,508,,,,,4,0.32341667,44.70090984,0.89697717
TYT,20,0,2024-06-13T14:39:10.702Z,english_724.wav,0,1,546,,,,,0,0,-91.46740291,0.46376674
TYT,20,0,2024-06-13T14:39:10.702Z,english_724.wav,0,1,546,,,,,1,0.1,23.01616352,1.84849858
TYT,20,0,2024-06-13T14:39:10.702Z,english_724.wav,0,1,546,,,,,2,0.2,-29.32408493,1.44978715
TYT,20,0,2024-06-13T14:39:10.702Z,english_724.wav,0,1,546,,,,,3,0.3,-79.49145217,1.24719002
TYT,20,0,2024-06-13T14:39:10.702Z,english_724.wav,0,1,546,,,,,4,0.32341667,82.35247912,0.99570929
TYT,21,0,2024-06-13T14:39:10.702Z,english_728.wav,0,1,479,,,,,0,0,-6.4565561,1.7247049
TYT,21,0,2024-06-13T14:39:10.702Z,english_728.wav,0,1,479,,,,,1,0.1,2.02882612,1.95158608
TYT,21,0,2024-06-13T14:39:10.702Z,english_728.wav,0,1,479,,,,,2,0.2,-40.29513079,0.21085377
TYT,21,0,2024-06-13T14:39:10.702Z,english_728.wav,0,1,479,,,,,3,0.3,-29.37287389,0.85434083
TYT,21,0,2024-06-13T14:39:10.702Z,english_728.wav,0,1,479,,,,,4,0.32341667,-32.17490136,1.52436666
TYT,22,0,2024-06-13T14:39:10.702Z,english_580.wav,0,0,354,,,,,0,0,92.13406767,1.93694744
TYT,22,0,2024-06-13T14:39:10.702Z,english_580.wav,0,0,354,,,,,1,0.1,-85.58685866,0.28773753
TYT,22,0,2024-06-13T14:39:10.702Z,english_580.wav,0,0,354,,,,,2,0.2,57.10945482,0.86433335
TYT,22,0,2024-06-13T14:39:10.702Z,english_580.wav,0,0,354,,,,,3,0.3,32.92004132,0.96651265
TYT,22,0,2024-06-13T14:39:10.702Z,english_580.wav,0,0,354,,,,,4,0.32341667,52.08708517,1.25003658
TYT,23,0,2024-06-13T14:39:10.702Z,english_985.wav,0,1,763,,,,,0,0,31.76144354,0.46805505
TYT,23,0,2024-06-13T14:39:10.702Z,english_985.wav,0,1,763,,,,,1,0.1,49.0534069,1.72857245
TYT,23,0,2024-06-13T14:39:10.702Z,english_985.wav,0,1,763,,,,,2,0.2,-59.14058353,0.05336254
TYT,23,0,2024-06-13T14:39:10.702Z,english_985.wav,0,1,763,,,,,3,0.3,-36.25561351,0.45417652
TYT,23,0,2024-06-13T14:39:10.702Z,english_985.wav,0,1,763,,,,,4,0.32341667,-53.50268286,1.33850641
TYT,24,0,2024-06-13T14:39:10.702Z,english_283.wav,0,1,1273,,,,,0,0,-27.01977409,1.23470843
TYT,24,0,2024-06-13T14:39:10.702Z,english_283.wav,0,1,1273,,,,,1,0.1,-58.6063919,0.41737987
TYT,24,0,2024-06-13T14:39:10.702Z,english_283.wav,0,1,1273,,,,,2,0.2,36.15867228,0.64455365
TYT,24,0,2024-06-13T14:39:10.702Z,english_283.wav,0,1,1273,,,,,3,0.3,-77.91689069,1.80541824
TYT,24,0,2024-06-13T14:39:10.702Z,english_283.wav,0,1,1273,,,,,4,0.32341667,-77.99680679,1.86024907
TYT,25,0,2024-06-13T14:39:10.702Z,english_915.wav,0,0,828,,,,,0,0,40.39704719,0.11203387
TYT,25,0,2024-06-13T14:39:10.702Z,english_915.wav,0,0,828,,,,,1,0.1,-77.86782689,0.449249
TYT,25,0,2024-06-13T14:39:10.702Z,english_915.wav,0,0,828,,,,,2,0.2,21.84672988,0.02407483
TYT,25,0,2024-06-13T14:39:10.702Z,english_915.wav,0,0,828,,,,,3,0.3,-56.0972156,1.6502756
TYT,25,0,2024-06-13T14:39:10.702Z,english_915.wav,0,0,828,,,,,4,0.32341667,65.00594456,0.65362707
TYT,26,0,2024-06-13T14:39:10.702Z,english_709.wav,0,1,462,,,,,0,0,-57.85840644,1.64294201
TYT,26,0,2024-06-13T14:39:10.702Z,english_709.wav,0,1,462,,,,,1,0.1,-9.03046344,1.39808038
TYT,26,0,2024-06-13T14:39:10.702Z,english_709.wav,0,1,462,,,,,2,0.2,-83.08592789,1.46645034
TYT,26,0,2024-06-13T14:39:10.702Z,english_709.wav,0,1,462,,,,,3,0.3,-30.28779026,1.11724372
TYT,26,0,2024-06-13T14:39:10.702Z,english_709.wav,0,1,462,,,,,4,0.32341667,-42.69418167,0.30195694
TYT,27,0,2024-06-13T14:39:10.702Z,english_676.wav,0,1,468,,,,,0,0,3.93099148,1.7716209
TYT,27,0,2024-06-13T14:39:10.702Z,english_676.wav,0,1,468,,,,,1,0.1,73.76311644,1.97281878
TYT,27,0,2024-06-13T14:39:10.702Z,english_676.wav,0,1,468,,,,,2,0.2,-26.92634129,1.42487848
TYT,27,0,2024-06-13T14:39:10.702Z,english_676.wav,0,1,468,,,,,3,0.3,51.70874443,1.45099775
TYT,27,0,2024-06-13T14:39:10.702Z,english_676.wav,0,1,468,,,,,4,0.32341667,-48.7675791,1.84822532
TYT,28,0,2024-06-13T14:39:10.702Z,english_537.wav,0,0,550,,,,,0,0,70.8709352,0.55947112
TYT,28,0,2024-06-13T14:39:10.702Z,english_537.wav,0,0,550,,,,,1,0.1,32.34369018,1.10627241
TYT,28,0,2024-06-13T14:39:10.702Z,english_537.wav,0,0,550,,,,,2,0.2,-92.9302278,1.10842043
TYT,28,0,2024-06-13T14:39:10.702Z,english_537.wav,0,0,550,,,,,3,0.3,14.89115364,0.86800797
TYT,28,0,2024-06-13T14:39:10.702Z,english_537.wav,0,0,550,,,,,4,0.32341667,-67.12260703,1.7659473
TYT,29,0,2024-06-13T14:39:10.702Z,english_993.wav,0,1,484,,,,,0,0,-66.15449332,1.17508471
TYT,29,0,2024-06-13T14:39:10.702Z,english_993.wav,0,1,484,,,,,1,0.1,33.08083728,0.94744004
TYT,29,0,2024-06-13T14:39:10.702Z,english_993.wav,0,1,484,,,,,2,0.2,51.46479562,0.74931244
TYT,29,0,2024-06-13T14:39:10.702Z,english_993.wav,0,1,484,,,,,3,0.3,-80.58676237,0.35628979
TYT,29,0,2024-06-13T14:39:10.702Z,english_993.wav,0,1,484,,,,,4,0.32341667,81.97884737,1.25416847
TYT,30,0,2024-06-13T14:39:10.702Z,english_742.wav,0,0,610,,,,,0,0,12.62363586,1.26368295
TYT,30,0,2024-06-13T14:39:10.702Z,english_742.wav,0,0,610,,,,,1,0.1,23.02085171,0.7448394
TYT,30,0,2024-06-13T14:39:10.702Z,english_742.wav,0,0,610,,,,,2,0.2,23.36423086,0.05261082
TYT,30,0,2024-06-13T14:39:10.702Z,english_742.wav,0,0,610,,,,,3,0.3,97.70614946,1.01748925
TYT,30,0,2024-06-13T14:39:10.702Z,english_742.wav,0,0,610,,,,,4,0.32341667,-25.72861775,0.88645775
TYT,31,0,2024-06-13T14:39:10.702Z,english_164.wav,0,1,1523,,,,,0,0,-18.99376005,1.91320144
TYT,31,0,2024-06-13T14:39:10.702Z,english_164.wav,0,1,1523,,,,,1,0.1,-38.65269109,0.23857652
TYT,31,0,2024-06-13T14:39:10.702Z,english_164.wav,0,1,1523,,,,,2,0.2,64.75288033,1.41883879
TYT,31,0,2024-06-13T14:39:10.702Z,english_164.wav,0,1,1523,,,,,3,0.3,-33.8407164,1.34667564
TYT,31,0,2024-06-13T14:39:10.702Z,english_164.wav,0,1,1523,,,,,4,0.32341667,27.96502681,0.04602263
TYT,32,0,2024-06-13T14:39:10.702Z,english_463.wav,0,1,466,,,,,0,0,-17.89775534,1.84132871
TYT,32,0,2024-06-13T14:39:10.702Z,english_463.wav,0,1,466,,,,,1,0.1,-21.51631701,1.66361617
TYT,32,0,2024-06-13T14:39:10.702Z,english_463.wav,0,1,466,,,,,2,0.2,-12.53951077,0.64060514
TYT,32,0,2024-06-13T14:39:10.702Z,english_463.wav,0,1,466,,,,,3,0.3,33.47501925,1.01091097
TYT,32,0,2024-06-13T14:39:10.702Z,english_463.wav,0,1,466,,,,,4,0.32341667,-93.09525534,0.69499506
TYT,33,0,2024-06-13T14:39:10.702Z,english_615.wav,0,1,385,,,,,0,0,76.05955912,1.68553334
TYT,33,0,2024-06-13T14:39:10.702Z,english_615.wav,0,1,385,,,,,1,0.1,54.62950786,1.5058876
TYT,33,0,2024-06-13T14:39:10.702Z,english_615.wav,0,1,385,,,,,2,0.2,-31.02204933,1.66676809
TYT,33,0,2024-06-13T14:39:10.702Z,english_615.wav,0,1,385,,,,,3,0.3,-3.27946314,1.09840801
TYT,33,0,2024-06-13T14:39:10.702Z,english_615.wav,0,1,385,,,,,4,0.32341667,51.350795,0.25314986
TYT,34,0,2024-06-13T14:39:10.702Z,english_420.wav,0,1,669,,,,,0,0,-56.31893026,0.25307214
TYT,34,0,2024-06-13T14:39:10.702Z,english_420.wav,0,1,669,,,,,1,0.1,66.6522923,1.93095887
TYT,34,0,2024-06-13T14:39:10.702Z,english_420.wav,0,1,669,,,,,2,0.2,2.15493058,0.49520396
TYT,34,0,2024-06-13T14:39:10.702Z,english_420.wav,0,1,669,,,,,3,0.3,-23.51601285,1.55970731
TYT,34,0,2024-06-13T14:39:10.702Z,english_420.wav,0,1,669,,,,,4,0.32341667,22.32226467,0.71957325
TYT,35,0,2024-06-13T14:39:10.702Z,english_279.wav,0,0,707,,,,,0,0,-20.90398108,0.60114424
TYT,35,0,2024-06-13T14:39:10.702Z,english_279.wav,0,0,707,,,,,1,0.1,98.83098338,0.92336304
TYT,35,0,2024-06-13T14:39:10.702Z,english_279.wav,0,0,707,,,,,2,0.2,-95.37608427,1.39045705
TYT,35,0,2024-06-13T14:39:10.702Z,english_279.wav,0,0,707,,,,,3,0.3,-52.65380993,0.64938935
TYT,35,0,2024-06-13T14:39:10.702Z,english_279.wav,0,0,707,,,,,4,0.32341667,47.72500112,1.57478054
TYT,36,0,2024-06-13T14:39:10.702Z,english_331.wav,0,1,338,,,,,0,0,12.66323204,1.93220763
TYT,36,0,2024-06-13T14:39:10.702Z,english_331.wav,0,1,338,,,,,1,0.1,-81.78605138,1.48237299
TYT,36,0,2024-06-13T14:39:10.702Z,english_331.wav,0,1,338,,,,,2,0.2,59.07546792,1.15413743
TYT,36,0,2024-06-13T14:39:10.702Z,english_331.wav,0,1,338,,,,,3,0.3,-83.73170191,1.02182823
TYT,36,0,2024-06-13T14:39:10.702Z,english_331.wav,0,1,338,,,,,4,0.32341667,3.10587362,0.81670354
TYT,37,0,2024-06-13T14:39:10.702Z,english_324.wav,0,0,1112,,,,,0,0,49.07155908,0.10864525
TYT,37,0,2024-06-13T14:39:10.702Z,english_324.wav,0,0,1112,,,,,1,0.1,-58.77252084,1.61132735
TYT,37,0,2024-06-13T14:39:10.702Z,english_324.wav,0,0,1112,,,,,2,0.2,-55.40155542,0.60180616
TYT,37,0,2024-06-13T14:39:10.702Z,english_324.wav,0,0,1112,,,,,3,0.3,19.02224292,0.93555132
TYT,37,0,2024-06-13T14:39:10.702Z,english_324.wav,0,0,1112,,,,,4,0.32341667,21.20382854,0.34417591
TYT,38,0,2024-06-13T14:39:10.702Z,english_793.wav,0,0,1143,,,,,0,0,-3.59370976,0.95327953
TYT,38,0,2024-06-13T14:39:10.702Z,english_793.wav,0,0,1143,,,,,1,0.1,-92.44382947,0.8890172
TYT,38,0,2024-06-13T14:39:10.702Z,english_793.wav,0,0,1143,,,,,2,0.2,-89.84008222,0.47547445
TYT,38,0,2024-06-13T14:39:10.702Z,english_793.wav,0,0,1143,,,,,3,0.3,96.09352514,1.09208031
TYT,38,0,2024-06-13T14:39:10.702Z,english_793.wav,0,0,1143,,,,,4,0.32341667,42.94050617,0.63383093
TYT,39,0,2024-06-13T14:39:10.702Z,english_244.wav,0,1,325,,,,,0,0,-70.20374383,1.65134166
TYT,39,0,2024-06-13T14:39:10.702Z,english_244.wav,0,1,325,,,,,1,0.1,67.84882107,1.23738837
TYT,39,0,2024-06-13T14:39:10.702Z,english_244.wav,0,1,325,,,,,2,0.2,0.61676271,0.90147553
TYT,39,0,2024-06-13T14:39:10.702Z,english_244.wav,0,1,325,,,,,3,0.3,-96.58934439,1.79293216
TYT,39,0,2024-06-13T14:39:10.702Z,english_244.wav,0,1,325,,,,,4,0.32341667,-77.46985837,1.15013727
TYT,40,0,2024-06-13T14:39:10.702Z,english_237.wav,0,0,528,,,,,0,0,-40.35335157,0.42178982
TYT,40,0,2024-06-13T14:39:10.702Z,english_237.wav,0,0,528,,,,,1,0.1,42.86374565,0.6060796
TYT,40,0,2024-06-13T14:39:10.702Z,english_237.wav,0,0,528,,,,,2,0.2,7.79480372,0.58312984
TYT,40,0,2024-06-13T14:39:10.702Z,english_237.wav,0,0,528,,,,,3,0.3,-48.50613844,1.50499267
TYT,40,0,2024-06-13T14:39:10.702Z,english_237.wav,0,0,528,,,,,4,0.32341667,17.78174719,1.72211243
TYT,41,0,2024-06-13T14:39:10.702Z,english_159.wav,0,0,384,,,,,0,0,-83.7072706,0.09138871
TYT,41,0,2024-06-13T14:39:10.702Z,english_159.wav,0,0,384,,,,,1,0.1,-62.69238784,0.63335487
TYT,41,0,2024-06-13T14:39:10.702Z,english_159.wav,0,0,384,,,,,2,0.2,22.09248507,1.23550763
TYT,41,0,2024-06-13T14:39:10.702Z,english_159.wav,0,0,384,,,,,3,0.3,-80.94681782,1.83356136
TYT,41,0,2024-06-13T14:39:10.702Z,english_159.wav,0,0,384,,,,,4,0.32341667,-55.76861956,0.76796393
TYT,42,0,2024-06-13T14:39:10.702Z,english_155.wav,0,1,370,,,,,0,0,53.87474094,1.93436975
TYT,42,0,2024-06-13T14:39:10.702Z,english_155.wav,0,1,370,,,,,1,0.1,74.81745726,0.64472983
TYT,42,0,2024-06-13T14:39:10.702Z,english_155.wav,0,1,370,,,,,2,0.2,8.25192738,1.6098708
TYT,42,0,2024-06-13T14:39:10.702Z,english_155.wav,0,1,370,,,,,3,0.3,-52.88121257,1.15705679
TYT,42,0,2024-06-13T14:39:10.702Z,english_155.wav,0,1,370,,,,,4,0.32341667,48.31209788,0.66500292
TYT,43,0,2024-06-13T14:39:10.702Z,english_280.wav,0,0,565,,,,,0,0,88.60957906,0.0301642
TYT,43,0,2024-06-13T14:39:10.702Z,english_280.wav,0,0,565,,,,,1,0.1,84.68226706,1.61205195
TYT,43,0,2024-06-13T14:39:10.702Z,english_280.wav,0,0,565,,,,,2,0.2,-77.43679957,1.42137195
TYT,43,0,2024-06-13T14:39:10.702Z,english_280.wav,0,0,565,,,,,3,0.3,45.11946934,1.73240953
TYT,43,0,2024-06-13T14:39:10.702Z,english_280.wav,0,0,565,,,,,4,0.32341667,-36.96988582,0.09602122
TYT,44,0,2024-06-13T14:39:10.702Z,english_369.wav,0,1,391,,,,,0,0,-12.14177447,1.64093778
TYT,44,0,2024-06-13T14:39:10.702Z,english_369.wav,0,1,391,,,,,1,0.1,76.29699147,1.47479283
TYT,44,0,2024-06-13T14:39:10.702Z,english_369.wav,0,1,391,,,,,2,0.2,-85.49552365,1.31757561
TYT,44,0,2024-06-13T14:39:10.702Z,english_369.wav,0,1,391,,,,,3,0.3,-68.94608988,1.92077404
TYT,44,0,2024-06-13T14:39:10.702Z,english_369.wav,0,1,391,,,,,4,0.32341667,40.32615784,1.4628922
TYT,45,0,2024-06-13T14:39:10.702Z,english_261.wav,0,0,785,,,,,0,0,-19.34212076,1.20182597
TYT,45,0,2024-06-13T14:39:10.702Z,english_261.wav,0,0,785,,,,,1,0.1,-90.49371254,0.701642
TYT,45,0,2024-06-13T14:39:10.702Z,english_261.wav,0,0,785,,,,,2,0.2,-2.84874079,0.72931556
TYT,45,0,2024-06-13T14:39:10.702Z,english_261.wav,0,0,785,,,,,3,0.3,26.59732755,0.86687176
TYT,45,0,2024-06-13T14:39:10.702Z,english_261.wav,0,0,785,,,,,4,0.32341667,39.97770901,1.42617677
TYT,46,0,2024-06-13T14:39:10.702Z,english_473.wav,0,0,558,,,,,0,0,2.94536382,1.14273616
TYT,46,0,2024-06-13T14:39:10.702Z,english_473.wav,0,0,558,,,,,1,0.1,67.15962,0.71228689
TYT,46,0,2024-06-13T14:39:10.702Z,english_473.wav,0,0,558,,,,,2,0.2,-20.48190634,1.20280034
TYT,46,0,2024-06-13T14:39:10.702Z,english_473.wav,0,0,558,,,,,3,0.3,20.58811131,0.94325649
TYT,46,0,2024-06-13T14:39:10.702Z,english_473.wav,0,0,558,,,,,4,0.32341667,-71.10919795,1.82149668
TYT,47,0,2024-06-13T14:39:10.702Z,english_854.wav,0,1,385,,,,,0,0,-3.2532791,1.78139632
TYT,47,0,2024-06-13T14:39:10.702Z,english_854.wav,0,1,385,,,,,1,0.1,19.40039505,1.50161717
TYT,47,0,2024-06-13T14:39:10.702Z,english_854.wav,0,1,385,,,,,2,0.2,-14.62360686,0.8978804
TYT,47,0,2024-06-13T14:39:10.702Z,english_854.wav,0,1,385,,,,,3,0.3,-63.13820282,1.66267041
TYT,47,0,2024-06-13T14:39:10.702Z,english_854.wav,0,1,385,,,,,4,0.32341667,44.42181264,1.68588082
TYT,48,0,2024-06-13T14:39:10.702Z,english_767.wav,0,0,440,,,,,0,0,29.63321135,0.17563718
TYT,48,0,2024-06-13T14:39:10.702Z,english_767.wav,0,0,440,,,,,1,0.1,-31.63783795,0.61981002
TYT,48,0,2024-06-13T14:39:10.702Z,english_767.wav,0,0,440,,,,,2,0.2,56.53254366,1.38773128
TYT,48,0,2024-06-13T14:39:10.702Z,english_767.wav,0,0,440,,,,,3,0.3,52.69149806,1.37795514
TYT,48,0,2024-06-13T14:39:10.702Z,english_767.wav,0,0,440,,,,,4,0.32341667,-0.8536295,1.97315338
TYT,49,0,2024-06-13T14:39:10.702Z,english_602.wav,0,1,681,,,,,0,0,-53.18857274,1.95117352
TYT,49,0,2024-06-13T14:39:10.702Z,english_602.wav,0,1,681,,,,,1,0.1,-52.96167371,1.1427253
TYT,49,0,2024-06-13T14:39:10.702Z,english_602.wav,0,1,681,,,,,2,0.2,38.20784676,1.10694813
TYT,49,0,2024-06-13T14:39:10.702Z,english_602.wav,0,1,681,,,,,3,0.3,46.0178344,0.8717932
TYT,49,0,2024-06-13T14:39:10.702Z,english_602.wav,0,1,681,,,,,4,0.32341667,78.11630752,0.71626065
TYT,50,1,2024-06-13T14:44:15.641Z,english_955.wav,0,0,897,,,,,0,0,-93.58498903,1.26703381
TYT,50,1,2024-06-13T14:44:15.641Z,english_955.wav,0,0,897,,,,,1,0.1,-11.56731864,0.51967441
TYT,50,1,2024-06-13T14:44:15.641Z,english_955.wav,0,0,897,,,,,2,0.2,60.37787928,1.0313906
TYT,50,1,2024-06-13T14:44:15.641Z,english_955.wav,0,0,897,,,,,3,0.3,83.42366765,1.58878747
TYT,50,1,2024-06-13T14:44:15.641Z,english_955.wav,0,0,897,,,,,4,0.32341667,-60.32056418,1.0025339
TYT,51,1,2024-06-13T14:44:15.641Z,english_18.wav,0,0,546,,,,,0,0,-61.9567004,0.45038722
TYT,51,1,2024-06-13T14:44:15.641Z,english_18.wav,0,0,546,,,,,1,0.1,39.2027204,1.56185221
TYT,51,1,2024-06-13T14:44:15.641Z,english_18.wav,0,0,546,,,,,2,0.2,-0.0626834214,0.80652275
TYT,51,1,2024-06-13T14:44:15.641Z,english_18.wav,0,0,546,,,,,3,0.3,-72.2820301,0.39505163
TYT,51,1,2024-06-13T14:44:15.641Z,english_18.wav,0,0,546,,,,,4,0.323416667,-52.9459242,0.50402069
TYT,52,1,2024-06-13T14:44:15.641Z,english_14.wav,0,0,812,,,,,0,0,98.00979643,0.92494293
TYT,52,1,2024-06-13T14:44:15.641Z,english_14.wav,0,0,812,,,,,1,0.1,-39.90204919,0.80403915
TYT,52,1,2024-06-13T14:44:15.641Z,english_14.wav,0,0,812,,,,,2,0.2,51.0517473,0.29426005
TYT,52,1,2024-06-13T14:44:15.641Z,english_14.wav,0,0,812,,,,,3,0.3,-8.39716694,0.14957292
TYT,52,1,2024-06-13T14:44:15.641Z,english_14.wav,0,0,812,,,,,4,0.32341667,82.54419716,0.1717279
TYT,53,1,2024-06-13T14:44:15.641Z,english_132.wav,0,1,538,,,,,0,0,-72.51222148,1.10010631
TYT,53,1,2024-06-13T14:44:15.641Z,english_132.wav,0,1,538,,,,,1,0.1,-7.68798614,1.14985521
TYT,53,1,2024-06-13T14:44:15.641Z,english_132.wav,0,1,538,,,,,2,0.2,-26.80347179,1.49426164
TYT,53,1,2024-06-13T14:44:15.641Z,english_132.wav,0,1,538,,,,,3,0.3,-51.62992771,1.25622472
TYT,53,1,2024-06-13T14:44:15.641Z,english_132.wav,0,1,538,,,,,4,0.32341667,-1.85745595,0.89976888
TYT,54,1,2024-06-13T14:44:15.641Z,english_85.wav,0,1,428,,,,,0,0,69.91092253,1.07696769
TYT,54,1,2024-06-13T14:44:15.641Z,english_85.wav,0,1,428,,,,,1,0.1,90.04885235,1.65675227
TYT,54,1,2024-06-13T14:44:15.641Z,english_85.wav,0,1,428,,,,,2,0.2,-54.471964,1.18566865
TYT,54,1,2024-06-13T14:44:15.641Z,english_85.wav,0,1,428,,,,,3,0.3,-32.42862041,0.43131811
TYT,54,1,2024-06-13T14:44:15.641Z,english_85.wav,0,1,428,,,,,4,0.32341667,-26.25094384,1.88641509
TYT,55,1,2024-06-13T14:44:15.641Z,english_613.wav,0,0,582,,,,,0,0,-12.80235787,0.8409713
TYT,55,1,2024-06-13T14:44:15.641Z,english_613.wav,0,0,582,,,,,1,0.1,38.67858639,0.30410002
TYT,55,1,2024-06-13T14:44:15.641Z,english_613.wav,0,0,582,,,,,2,0.2,21.08834288,0.031636
TYT,55,1,2024-06-13T14:44:15.641Z,english_613.wav,0,0,582,,,,,3,0.3,94.81469787,1.79222997
TYT,55,1,2024-06-13T14:44:15.641Z,english_613.wav,0,0,582,,,,,4,0.32341667,18.45506868,1.98455664
TYT,56,1,2024-06-13T14:44:15.641Z,english_48.wav,0,0,651,,,,,0,0,73.79399561,0.74385981
TYT,56,1,2024-06-13T14:44:15.641Z,english_48.wav,0,0,651,,,,,1,0.1,-6.33056249,1.05457567
TYT,56,1,2024-06-13T14:44:15.641Z,english_48.wav,0,0,651,,,,,2,0.2,-25.55346814,0.45493163
TYT,56,1,2024-06-13T14:44:15.641Z,english_48.wav,0,0,651,,,,,3,0.3,46.43305776,0.06513279
TYT,56,1,2024-06-13T14:44:15.641Z,english_48.wav,0,0,651,,,,,4,0.32341667,-46.56414761,0.46755714
TYT,57,1,2024-06-13T14:44:15.641Z,english_562.wav,0,0,490,,,,,0,0,-40.22672309,0.64031882
TYT,57,1,2024-06-13T14:44:15.641Z,english_562.wav,0,0,490,,,,,1,0.1,77.961849,0.7637006
TYT,57,1,2024-06-13T14:44:15.641Z,english_562.wav,0,0,490,,,,,2,0.2,25.52463525,0.87632482
TYT,57,1,2024-06-13T14:44:15.641Z,english_562.wav,0,0,490,,,,,3,0.3,84.62788358,0.98972612
TYT,57,1,2024-06-13T14:44:15.641Z,english_562.wav,0,0,490,,,,,4,0.32341667,-53.67427145,0.74010285
TYT,58,1,2024-06-13T14:44:15.641Z,english_976.wav,0,1,340,,,,,0,0,-92.49082032,0.30893725
TYT,58,1,2024-06-13T14:44:15.641Z,english_976.wav,0,1,340,,,,,1,0.1,92.01562452,1.54393752
TYT,58,1,2024-06-13T14:44:15.641Z,english_976.wav,0,1,340,,,,,2,0.2,-80.55764576,1.31466429
TYT,58,1,2024-06-13T14:44:15.641Z,english_976.wav,0,1,340,,,,,3,0.3,-70.09009567,1.88171095
TYT,58,1,2024-06-13T14:44:15.641Z,english_976.wav,0,1,340,,,,,4,0.32341667,-7.5394989,1.71314556
TYT,59,1,2024-06-13T14:44:15.641Z,english_214.wav,0,1,287,,,,,0,0,58.82847816,1.81864401
TYT,59,1,2024-06-13T14:44:15.641Z,english_214.wav,0,1,287,,,,,1,0.1,87.26801489,0.97241975
TYT,59,1,2024-06-13T14:44:15.641Z,english_214.wav,0,1,287,,,,,2,0.2,-28.10234025,1.91423566
TYT,59,1,2024-06-13T14:44:15.641Z,english_214.wav,0,1,287,,,,,3,0.3,-36.12188516,1.71940232
TYT,59,1,2024-06-13T14:44:15.641Z,english_214.wav,0,1,287,,,,,4,0.32341667,-45.93983978,0.68694042
TYT,60,1,2024-06-13T14:44:15.641Z,english_984.wav,0,0,461,,,,,0,0,-4.00148485,1.68596177
TYT,60,1,2024-06-13T14:44:15.641Z,english_984.wav,0,0,461,,,,,1,0.1,26.28173365,0.06678014
TYT,60,1,2024-06-13T14:44:15.641Z,english_984.wav,0,0,461,,,,,2,0.2,80.79042683,0.65490985
TYT,60,1,2024-06-13T14:44:15.641Z,english_984.wav,0,0,461,,,,,3,0.3,94.69131331,0.57269921
TYT,60,1,2024-06-13T14:44:15.641Z,english_984.wav,0,0,461,,,,,4,0.32341667,75.17511154,0.71264295
TYT,61,1,2024-06-13T14:44:15.641Z,english_51.wav,0,0,566,,,,,0,0,88.48054236,0.21487201
TYT,61,1,2024-06-13T14:44:15.641Z,english_51.wav,0,0,566,,,,,1,0.1,-53.5534646,0.90061677
TYT,61,1,2024-06-13T14:44:15.641Z,english_51.wav,0,0,566,,,,,2,0.2,-33.31344908,0.24834744
TYT,61,1,2024-06-13T14:44:15.641Z,english_51.wav,0,0,566,,,,,3,0.3,87.0533187,1.31052611
TYT,61,1,2024-06-13T14:44:15.641Z,english_51.wav,0,0,566,,,,,4,0.32341667,-16.55219825,0.58644625
TYT,62,1,2024-06-13T14:44:15.641Z,english_606.wav,0,1,360,,,,,0,0,-54.19201916,1.71730642
TYT,62,1,2024-06-13T14:44:15.641Z,english_606.wav,0,1,360,,,,,1,0.1,-9.49104439,0.42216081
TYT,62,1,2024-06-13T14:44:15.641Z,english_606.wav,0,1,360,,,,,2,0.2,1.17868262,1.31506394
TYT,62,1,2024-06-13T14:44:15.641Z,english_606.wav,0,1,360,,,,,3,0.3,-95.39718692,0.06922913
TYT,62,1,2024-06-13T14:44:15.641Z,english_606.wav,0,1,360,,,,,4,0.32341667,-48.659775,0.08316227
TYT,63,1,2024-06-13T14:44:15.641Z,english_391.wav,0,0,563,,,,,0,0,67.64906061,0.41951577
TYT,63,1,2024-06-13T14:44:15.641Z,english_391.wav,0,0,563,,,,,1,0.1,79.28195584,0.03526883
TYT,63,1,2024-06-13T14:44:15.641Z,english_391.wav,0,0,563,,,,,2,0.2,62.27299227,0.81828659
TYT,63,1,2024-06-13T14:44:15.641Z,english_391.wav,0,0,563,,,,,3,0.3,-11.10764883,1.2900604
TYT,63,1,2024-06-13T14:44:15.641Z,english_391.wav,0,0,563,,,,,4,0.32341667,57.41338752,1.95373865
TYT,64,1,2024-06-13T14:44:15.641Z,english_147.wav,0,1,310,,,,,0,0,-14.37625717,1.08714974
TYT,64,1,2024-06-13T14:44:15.641Z,english_147.wav,0,1,310,,,,,1,0.1,-48.99147792,1.05600262
TYT,64,1,2024-06-13T14:44:15.641Z,english_147.wav,0,1,310,,,,,2,0.2,-76.025031,0.62193731
TYT,64,1,2024-06-13T14:44:15.641Z,english_147.wav,0,1,310,,,,,3,0.3,-4.271985,1.23272935
TYT,64,1,2024-06-13T14:44:15.641Z,english_147.wav,0,1,310,,,,,4,0.32341667,90.36670579,0.90867663
TYT,65,1,2024-06-13T14:44:15.641Z,english_270.wav,0,1,490,,,,,0,0,-54.89328754,1.02368747
TYT,65,1,2024-06-13T14:44:15.641Z,english_270.wav,0,1,490,,,,,1,0.1,-41.12345733,1.74263534
TYT,65,1,2024-06-13T14:44:15.641Z,english_270.wav,0,1,490,,,,,2,0.2,79.03328036,0.45342006
TYT,65,1,2024-06-13T14:44:15.641Z,english_270.wav,0,1,490,,,,,3,0.3,-87.71335894,1.29911503
TYT,65,1,2024-06-13T14:44:15.641Z,english_270.wav,0,1,490,,,,,4,0.32341667,-48.20373708,0.95859349
TYT,66,1,2024-06-13T14:44:15.641Z,english_684.wav,0,1,429,,,,,0,0,0.36394418,1.65924935
TYT,66,1,2024-06-13T14:44:15.641Z,english_684.wav,0,1,429,,,,,1,0.1,28.47964645,1.32149406
TYT,66,1,2024-06-13T14:44:15.641Z,english_684.wav,0,1,429,,,,,2,0.2,60.47995017,0.32417562
TYT,66,1,2024-06-13T14:44:15.641Z,english_684.wav,0,1,429,,,,,3,0.3,-33.43266819,1.42108385
TYT,66,1,2024-06-13T14:44:15.641Z,english_684.wav,0,1,429,,,,,4,0.32341667,-31.86672206,1.29243289
TYT,67,1,2024-06-13T14:44:15.641Z,english_295.wav,0,0,451,,,,,0,0,-76.51454746,1.12273409
TYT,67,1,2024-06-13T14:44:15.641Z,english_295.wav,0,0,451,,,,,1,0.1,-96.9380047,0.2018376
TYT,67,1,2024-06-13T14:44:15.641Z,english_295.wav,0,0,451,,,,,2,0.2,-72.79782389,1.81703153
TYT,67,1,2024-06-13T14:44:15.641Z,english_295.wav,0,0,451,,,,,3,0.3,-31.86888898,0.31799467
TYT,67,1,2024-06-13T14:44:15.641Z,english_295.wav,0,0,451,,,,,4,0.32341667,-51.47839766,0.71777059
TYT,68,1,2024-06-13T14:44:15.641Z,english_844.wav,0,1,385,,,,,0,0,-84.59865618,1.95225136
TYT,68,1,2024-06-13T14:44:15.641Z,english_844.wav,0,1,385,,,,,1,0.1,2.74576488,1.66072701
TYT,68,1,2024-06-13T14:44:15.641Z,english_844.wav,0,1,385,,,,,2,0.2,-31.14414819,0.05165652
TYT,68,1,2024-06-13T14:44:15.641Z,english_844.wav,0,1,385,,,,,3,0.3,59.06244098,0.5878804
TYT,68,1,2024-06-13T14:44:15.641Z,english_844.wav,0,1,385,,,,,4,0.32341667,67.61674881,0.72232709
TYT,69,1,2024-06-13T14:44:15.641Z,english_321.wav,0,1,367,,,,,0,0,2.07721816,1.69623759
TYT,69,1,2024-06-13T14:44:15.641Z,english_321.wav,0,1,367,,,,,1,0.1,59.48735819,1.35736687
TYT,69,1,2024-06-13T14:44:15.641Z,english_321.wav,0,1,367,,,,,2,0.2,64.78149714,1.92920457
TYT,69,1,2024-06-13T14:44:15.641Z,english_321.wav,0,1,367,,,,,3,0.3,65.58393414,0.66559077
TYT,69,1,2024-06-13T14:44:15.641Z,english_321.wav,0,1,367,,,,,4,0.32341667,14.66673939,1.66523208
TYT,70,1,2024-06-13T14:44:15.641Z,english_932.wav,0,0,1009,,,,,0,0,-3.8848098,1.00949787
TYT,70,1,2024-06-13T14:44:15.641Z,english_932.wav,0,0,1009,,,,,1,0.1,-32.48916274,1.44703087
TYT,70,1,2024-06-13T14:44:15.641Z,english_932.wav,0,0,1009,,,,,2,0.2,81.26251807,0.10808594
TYT,70,1,2024-06-13T14:44:15.641Z,english_932.wav,0,0,1009,,,,,3,0.3,-18.23478105,0.03465182
TYT,70,1,2024-06-13T14:44:15.641Z,english_932.wav,0,0,1009,,,,,4,0.32341667,7.90132089,0.79845554
TYT,71,1,2024-06-13T14:44:15.641Z,english_564.wav,0,0,642,,,,,0,0,-4.16228192,1.35245187
TYT,71,1,2024-06-13T14:44:15.641Z,english_564.wav,0,0,642,,,,,1,0.1,-8.38376801,0.24798142
TYT,71,1,2024-06-13T14:44:15.641Z,english_564.wav,0,0,642,,,,,2,0.2,52.82752554,1.26376743
TYT,71,1,2024-06-13T14:44:15.641Z,english_564.wav,0,0,642,,,,,3,0.3,-92.64870354,0.73548171
TYT,71,1,2024-06-13T14:44:15.641Z,english_564.wav,0,0,642,,,,,4,0.32341667,-48.86146536,0.1394123
TYT,72,1,2024-06-13T14:44:15.641Z,english_269.wav,0,1,313,,,,,0,0,61.09556447,1.11606818
TYT,72,1,2024-06-13T14:44:15.641Z,english_269.wav,0,1,313,,,,,1,0.1,-3.97684721,1.55443041
TYT,72,1,2024-06-13T14:44:15.641Z,english_269.wav,0,1,313,,,,,2,0.2,-87.59080112,1.78173809
TYT,72,1,2024-06-13T14:44:15.641Z,english_269.wav,0,1,313,,,,,3,0.3,78.47165079,1.73012946
TYT,72,1,2024-06-13T14:44:15.641Z,english_269.wav,0,1,313,,,,,4,0.32341667,-52.74135522,0.88090417
TYT,73,1,2024-06-13T14:44:15.641Z,english_514.wav,0,0,692,,,,,0,0,-61.65105701,1.12509033
TYT,73,1,2024-06-13T14:44:15.641Z,english_514.wav,0,0,692,,,,,1,0.1,49.84264816,0.78701739
TYT,73,1,2024-06-13T14:44:15.641Z,english_514.wav,0,0,692,,,,,2,0.2,14.14440898,0.37052689
TYT,73,1,2024-06-13T14:44:15.641Z,english_514.wav,0,0,692,,,,,3,0.3,-30.10662908,1.42053426
TYT,73,1,2024-06-13T14:44:15.641Z,english_514.wav,0,0,692,,,,,4,0.32341667,90.48337022,1.94621598
TYT,74,1,2024-06-13T14:44:15.641Z,english_415.wav,0,1,519,,,,,0,0,36.00223879,1.49199547
TYT,74,1,2024-06-13T14:44:15.641Z,english_415.wav,0,1,519,,,,,1,0.1,-82.63332374,1.79959711
TYT,74,1,2024-06-13T14:44:15.641Z,english_415.wav,0,1,519,,,,,2,0.2,57.55038703,0.64689267
TYT,74,1,2024-06-13T14:44:15.641Z,english_415.wav,0,1,519,,,,,3,0.3,-9.83064734,0.31881377
TYT,74,1,2024-06-13T14:44:15.641Z,english_415.wav,0,1,519,,,,,4,0.32341667,-29.78573939,0.18568486
TYT,75,1,2024-06-13T14:44:15.641Z,english_735.wav,0,1,1621,,,,,0,0,51.40973306,0.29099813
TYT,75,1,2024-06-13T14:44:15.641Z,english_735.wav,0,1,1621,,,,,1,0.1,-5.42867159,1.62833375
TYT,75,1,2024-06-13T14:44:15.641Z,english_735.wav,0,1,1621,,,,,2,0.2,13.71146629,0.32849247
TYT,75,1,2024-06-13T14:44:15.641Z,english_735.wav,0,1,1621,,,,,3,0.3,-14.17202169,0.46991549
TYT,75,1,2024-06-13T14:44:15.641Z,english_735.wav,0,1,1621,,,,,4,0.32341667,14.98699592,0.51625305
TYT,76,1,2024-06-13T14:44:15.641Z,english_402.wav,0,1,644,,,,,0,0,-69.75327375,0.88104294
TYT,76,1,2024-06-13T14:44:15.641Z,english_402.wav,0,1,644,,,,,1,0.1,-37.13247603,1.50830761
TYT,76,1,2024-06-13T14:44:15.641Z,english_402.wav,0,1,644,,,,,2,0.2,95.06865819,0.86613458
TYT,76,1,2024-06-13T14:44:15.641Z,english_402.wav,0,1,644,,,,,3,0.3,-83.65219271,1.46195184
TYT,76,1,2024-06-13T14:44:15.641Z,english_402.wav,0,1,644,,,,,4,0.32341667,-39.65623645,1.78030697
TYT,77,1,2024-06-13T14:44:15.641Z,english_681.wav,0,1,628,,,,,0,0,65.45313908,1.43173201
TYT,77,1,2024-06-13T14:44:15.641Z,english_681.wav,0,1,628,,,,,1,0.1,23.22224239,1.64604346
TYT,77,1,2024-06-13T14:44:15.641Z,english_681.wav,0,1,628,,,,,2,0.2,44.35096717,0.82186037
TYT,77,1,2024-06-13T14:44:15.641Z,english_681.wav,0,1,628,,,,,3,0.3,67.45757963,0.26689352
TYT,77,1,2024-06-13T14:44:15.641Z,english_681.wav,0,1,628,,,,,4,0.32341667,55.5822091,1.64490636
TYT,78,1,2024-06-13T14:44:15.641Z,english_251.wav,0,1,688,,,,,0,0,-35.26640223,1.59441442
TYT,78,1,2024-06-13T14:44:15.641Z,english_251.wav,0,1,688,,,,,1,0.1,-82.14936791,1.21410308
TYT,78,1,2024-06-13T14:44:15.641Z,english_251.wav,0,1,688,,,,,2,0.2,39.53587687,0.89125894
TYT,78,1,2024-06-13T14:44:15.641Z,english_251.wav,0,1,688,,,,,3,0.3,-75.44024907,0.14763688
TYT,78,1,2024-06-13T14:44:15.641Z,english_251.wav,0,1,688,,,,,4,0.32341667,26.94148116,1.71797298
TYT,79,1,2024-06-13T14:44:15.641Z,english_77.wav,0,0,626,,,,,0,0,-72.40491727,0.02183184
TYT,79,1,2024-06-13T14:44:15.641Z,english_77.wav,0,0,626,,,,,1,0.1,8.82020558,1.36505393
TYT,79,1,2024-06-13T14:44:15.641Z,english_77.wav,0,0,626,,,,,2,0.2,89.28229375,1.34112472
TYT,79,1,2024-06-13T14:44:15.641Z,english_77.wav,0,0,626,,,,,3,0.3,-14.39120814,0.45737201
TYT,79,1,2024-06-13T14:44:15.641Z,english_77.wav,0,0,626,,,,,4,0.32341667,0.18022976,1.1673494
TYT,80,1,2024-06-13T14:44:15.641Z,english_861.wav,0,1,441,,,,,0,0,-30.19921015,0.56503536
TYT,80,1,2024-06-13T14:44:15.641Z,english_861.wav,0,1,441,,,,,1,0.1,75.2433288,1.43622494
TYT,80,1,2024-06-13T14:44:15.641Z,english_861.wav,0,1,441,,,,,2,0.2,-49.47813624,1.73497671
TYT,80,1,2024-06-13T14:44:15.641Z,english_861.wav,0,1,441,,,,,3,0.3,86.59581665,0.70763908
TYT,80,1,2024-06-13T14:44:15.641Z,english_861.wav,0,1,441,,,,,4,0.32341667,58.40562581,1.29518241
TYT,81,1,2024-06-13T14:44:15.641Z,english_581.wav,0,0,719,,,,,0,0,-4.1565262,0.01704603
TYT,81,1,2024-06-13T14:44:15.641Z,english_581.wav,0,0,719,,,,,1,0.1,84.55344465,1.32903406
TYT,81,1,2024-06-13T14:44:15.641Z,english_581.wav,0,0,719,,,,,2,0.2,-57.45750027,1.58046526
TYT,81,1,2024-06-13T14:44:15.641Z,english_581.wav,0,0,719,,,,,3,0.3,-14.35569009,1.16633299
TYT,81,1,2024-06-13T14:44:15.641Z,english_581.wav,0,0,719,,,,,4,0.32341667,-54.33758456,1.20758605
TYT,82,1,2024-06-13T14:44:15.641Z,english_557.wav,0,1,658,,,,,0,0,43.94308994,0.38165316
TYT,82,1,2024-06-13T14:44:15.641Z,english_557.wav,0,1,658,,,,,1,0.1,84.77773598,1.19567933
TYT,82,1,2024-06-13T14:44:15.641Z,english_557.wav,0,1,658,,,,,2,0.2,-14.75143777,1.35103773
TYT,82,1,2024-06-13T14:44:15.641Z,english_557.wav,0,1,658,,,,,3,0.3,-37.76141322,1.69174007
TYT,82,1,2024-06-13T14:44:15.641Z,english_557.wav,0,1,658,,,,,4,0.32341667,-5.99076179,0.4334092
TYT,83,1,2024-06-13T14:44:15.641Z,english_400.wav,0,0,622,,,,,0,0,-9.17924521,1.06898792
TYT,83,1,2024-06-13T14:44:15.641Z,english_400.wav,0,0,622,,,,,1,0.1,-51.0410118,0.05890524
TYT,83,1,2024-06-13T14:44:15.641Z,english_400.wav,0,0,622,,,,,2,0.2,66.2548805,1.54728483
TYT,83,1,2024-06-13T14:44:15.641Z,english_400.wav,0,0,622,,,,,3,0.3,92.33374018,1.43953162
TYT,83,1,2024-06-13T14:44:15.641Z,english_400.wav,0,0,622,,,,,4,0.32341667,-60.80730989,1.12546459
TYT,84,1,2024-06-13T14:44:15.641Z,english_942.wav,0,1,347,,,,,0,0,96.26286183,1.14976657
TYT,84,1,2024-06-13T14:44:15.641Z,english_942.wav,0,1,347,,,,,1,0.1,-96.45992778,0.962364
TYT,84,1,2024-06-13T14:44:15.641Z,english_942.wav,0,1,347,,,,,2,0.2,50.93322043,0.99280793
TYT,84,1,2024-06-13T14:44:15.641Z,english_942.wav,0,1,347,,,,,3,0.3,14.6207779,1.92237923
TYT,84,1,2024-06-13T14:44:15.641Z,english_942.wav,0,1,347,,,,,4,0.32341667,7.19296333,1.02094568
TYT,85,1,2024-06-13T14:44:15.641Z,english_835.wav,0,1,1690,,,,,0,0,-14.38506183,1.1584592
TYT,85,1,2024-06-13T14:44:15.641Z,english_835.wav,0,1,1690,,,,,1,0.1,-85.63264453,0.74788643
TYT,85,1,2024-06-13T14:44:15.641Z,english_835.wav,0,1,1690,,,,,2,0.2,-9.08737486,0.99645811
TYT,85,1,2024-06-13T14:44:15.641Z,english_835.wav,0,1,1690,,,,,3,0.3,-52.4382226,1.13057998
TYT,85,1,2024-06-13T14:44:15.641Z,english_835.wav,0,1,1690,,,,,4,0.32341667,30.89255677,0.17868889
TYT,86,1,2024-06-13T14:44:15.641Z,english_939.wav,0,0,468,,,,,0,0,-23.2558256,0.1774722
TYT,86,1,2024-06-13T14:44:15.641Z,english_939.wav,0,0,468,,,,,1,0.1,-16.62065377,0.56271239
TYT,86,1,2024-06-13T14:44:15.641Z,english_939.wav,0,0,468,,,,,2,0.2,-49.54734698,1.42782479
TYT,86,1,2024-06-13T14:44:15.641Z,english_939.wav,0,0,468,,,,,3,0.3,22.82101289,0.76516147
TYT,86,1,2024-06-13T14:44:15.641Z,english_939.wav,0,0,468,,,,,4,0.32341667,28.63490654,1.70219777
TYT,87,1,2024-06-13T14:44:15.641Z,english_603.wav,0,0,715,,,,,0,0,-14.17444723,1.28295305
TYT,87,1,2024-06-13T14:44:15.641Z,english_603.wav,0,0,715,,,,,1,0.1,-4.64921339,0.35920956
TYT,87,1,2024-06-13T14:44:15.641Z,english_603.wav,0,0,715,,,,,2,0.2,-23.32469505,0.60281559
TYT,87,1,2024-06-13T14:44:15.641Z,english_603.wav,0,0,715,,,,,3,0.3,-59.01260874,0.58107079
TYT,87,1,2024-06-13T14:44:15.641Z,english_603.wav,0,0,715,,,,,4,0.32341667,88.53711532,1.19087365
TYT,88,1,2024-06-13T14:44:15.641Z,english_168.wav,0,0,724,,,,,0,0,-69.10300998,1.14537751
TYT,88,1,2024-06-13T14:44:15.641Z,english_168.wav,0,0,724,,,,,1,0.1,-24.44784794,1.06854972
TYT,88,1,2024-06-13T14:44:15.641Z,english_168.wav,0,0,724,,,,,2,0.2,35.31321785,0.45192262
TYT,88,1,2024-06-13T14:44:15.641Z,english_168.wav,0,0,724,,,,,3,0.3,-41.77498511,0.2846318
TYT,88,1,2024-06-13T14:44:15.641Z,english_168.wav,0,0,724,,,,,4,0.32341667,19.92389913,0.9853942
TYT,89,1,2024-06-13T14:44:15.641Z,english_372.wav,0,1,446,,,,,0,0,-10.50721777,1.53321121
TYT,89,1,2024-06-13T14:44:15.641Z,english_372.wav,0,1,446,,,,,1,0.1,60.4890014,1.14830486
TYT,89,1,2024-06-13T14:44:15.641Z,english_372.wav,0,1,446,,,,,2,0.2,35.20626745,1.01416029
TYT,89,1,2024-06-13T14:44:15.641Z,english_372.wav,0,1,446,,,,,3,0.3,-86.52802988,1.14285759
TYT,89,1,2024-06-13T14:44:15.641Z,english_372.wav,0,1,446,,,,,4,0.32341667,85.69336351,1.69996326
TYT,90,1,2024-06-13T14:44:15.641Z,english_235.wav,0,1,496,,,,,0,0,-1.09951899,1.56432712
TYT,90,1,2024-06-13T14:44:15.641Z,english_235.wav,0,1,496,,,,,1,0.1,-96.83918407,0.18127978
TYT,90,1,2024-06-13T14:44:15.641Z,english_235.wav,0,1,496,,,,,2,0.2,96.22116446,1.26168206
TYT,90,1,2024-06-13T14:44:15.641Z,english_235.wav,0,1,496,,,,,3,0.3,48.9502898,1.98140435
TYT,90,1,2024-06-13T14:44:15.641Z,english_235.wav,0,1,496,,,,,4,0.32341667,38.18641725,0.52366779
TYT,91,1,2024-06-13T14:44:15.641Z,english_738.wav,0,1,373,,,,,0,0,-37.88087101,1.83397703
TYT,91,1,2024-06-13T14:44:15.641Z,english_738.wav,0,1,373,,,,,1,0.1,-16.85966727,1.52099356
TYT,91,1,2024-06-13T14:44:15.641Z,english_738.wav,0,1,373,,,,,2,0.2,-79.76891938,1.69283951
TYT,91,1,2024-06-13T14:44:15.641Z,english_738.wav,0,1,373,,,,,3,0.3,-82.30918252,1.81957343
TYT,91,1,2024-06-13T14:44:15.641Z,english_738.wav,0,1,373,,,,,4,0.32341667,59.65991076,0.75908376
TYT,92,1,2024-06-13T14:44:15.641Z,english_387.wav,0,1,592,,,,,0,0,14.25538659,0.59610882
TYT,92,1,2024-06-13T14:44:15.641Z,english_387.wav,0,1,592,,,,,1,0.1,-5.8057983,0.93453474
TYT,92,1,2024-06-13T14:44:15.641Z,english_387.wav,0,1,592,,,,,2,0.2,-2.59288607,1.87880123
TYT,92,1,2024-06-13T14:44:15.641Z,english_387.wav,0,1,592,,,,,3,0.3,19.33055559,0.79709693
TYT,92,1,2024-06-13T14:44:15.641Z,english_387.wav,0,1,592,,,,,4,0.32341667,-85.57173801,0.90161027
TYT,93,1,2024-06-13T14:44:15.641Z,english_471.wav,0,1,430,,,,,0,0,47.42131089,0.58869392
TYT,93,1,2024-06-13T14:44:15.641Z,english_471.wav,0,1,430,,,,,1,0.1,-63.95282256,1.74739294
TYT,93,1,2024-06-13T14:44:15.641Z,english_471.wav,0,1,430,,,,,2,0.2,31.67244378,1.10105994
TYT,93,1,2024-06-13T14:44:15.641Z,english_471.wav,0,1,430,,,,,3,0.3,40.6572625,0.54790015
TYT,93,1,2024-06-13T14:44:15.641Z,english_471.wav,0,1,430,,,,,4,0.32341667,-18.6332399,1.33029013
TYT,94,1,2024-06-13T14:44:15.641Z,english_583.wav,0,1,420,,,,,0,0,-35.26485382,0.11557093
TYT,94,1,2024-06-13T14:44:15.641Z,english_583.wav,0,1,420,,,,,1,0.1,-69.50197994,0.9917357
TYT,94,1,2024-06-13T14:44:15.641Z,english_583.wav,0,1,420,,,,,2,0.2,73.6796048,1.33727714
TYT,94,1,2024-06-13T14:44:15.641Z,english_583.wav,0,1,420,,,,,3,0.3,-1.04664171,0.97646566
TYT,94,1,2024-06-13T14:44:15.641Z,english_583.wav,0,1,420,,,,,4,0.32341667,-55.46924107,1.06585671
TYT,95,1,2024-06-13T14:44:15.641Z,english_61.wav,0,1,1262,,,,,0,0,-58.73450167,1.5196582
TYT,95,1,2024-06-13T14:44:15.641Z,english_61.wav,0,1,1262,,,,,1,0.1,-68.77732169,0.79346499
TYT,95,1,2024-06-13T14:44:15.641Z,english_61.wav,0,1,1262,,,,,2,0.2,-61.07430116,0.90548432
TYT,95,1,2024-06-13T14:44:15.641Z,english_61.wav,0,1,1262,,,,,3,0.3,-87.12791991,1.71431728
TYT,95,1,2024-06-13T14:44:15.641Z,english_61.wav,0,1,1262,,,,,4,0.32341667,47.32358741,0.57778581
TYT,96,1,2024-06-13T14:44:15.641Z,english_83.wav,0,1,531,,,,,0,0,98.86804112,0.82381457
TYT,96,1,2024-06-13T14:44:15.641Z,english_83.wav,0,1,531,,,,,1,0.1,-37.42051535,1.26275754
TYT,96,1,2024-06-13T14:44:15.641Z,english_83.wav,0,1,531,,,,,2,0.2,23.85234946,0.74836396
TYT,96,1,2024-06-13T14:44:15.641Z,english_83.wav,0,1,531,,,,,3,0.3,28.05435803,0.41584898
TYT,96,1,2024-06-13T14:44:15.641Z,english_83.wav,0,1,531,,,,,4,0.32341667,2.44147447,1.88336536
TYT,97,1,2024-06-13T14:44:15.641Z,english_259.wav,0,1,700,,,,,0,0,7.90187791,1.3064553
TYT,97,1,2024-06-13T14:44:15.641Z,english_259.wav,0,1,700,,,,,1,0.1,31.67295647,1.01100372
TYT,97,1,2024-06-13T14:44:15.641Z,english_259.wav,0,1,700,,,,,2,0.2,-53.65780041,0.35520266
TYT,97,1,2024-06-13T14:44:15.641Z,english_259.wav,0,1,700,,,,,3,0.3,-72.94929757,1.35187683
TYT,97,1,2024-06-13T14:44:15.641Z,english_259.wav,0,1,700,,,,,4,0.32341667,58.35152721,1.39599087
TYT,98,1,2024-06-13T14:44:15.641Z,english_636.wav,0,1,318,,,,,0,0,-20.37295141,1.69276631
TYT,98,1,2024-06-13T14:44:15.641Z,english_636.wav,0,1,318,,,,,1,0.1,-84.7288786,1.69908726
TYT,98,1,2024-06-13T14:44:15.641Z,english_636.wav,0,1,318,,,,,2,0.2,24.84265136,1.44836333
TYT,98,1,2024-06-13T14:44:15.641Z,english_636.wav,0,1,318,,,,,3,0.3,-9.2443485,1.36647816
TYT,98,1,2024-06-13T14:44:15.641Z,english_636.wav,0,1,318,,,,,4,0.32341667,49.04875774,0.88112598
TYT,99,1,2024-06-13T14:44:15.641Z,english_521.wav,0,1,573,,,,,0,0,-39.78859965,1.84590666
TYT,99,1,2024-06-13T14:44:15.641Z,english_521.wav,0,1,573,,,,,1,0.1,94.65680132,0.33665341
TYT,99,1,2024-06-13T14:44:15.641Z,english_521.wav,0,1,573,,,,,2,0.2,-68.68225016,1.01474729
TYT,99,1,2024-06-13T14:44:15.641Z,english_521.wav,0,1,573,,,,,3,0.3,19.56493677,0.73624599
TYT,99,1,2024-06-13T14:44:15.641Z,english_521.wav,0,1,573,,,,,4,0.32341667,69.42990376,1.4391639
TYT,100,2,2024-06-13T14:44:15.641Z,english_301.wav,0,1,1745,,,,,0,0,-78.18927369,1.31935747
TYT,100,2,2024-06-13T14:44:15.641Z,english_301.wav,0,1,1745,,,,,1,0.1,-3.52439177,1.41636911
TYT,100,2,2024-06-13T14:44:15.641Z,english_301.wav,0,1,1745,,,,,2,0.2,-23.22473782,1.38842862
TYT,100,2,2024-06-13T14:44:15.641Z,english_301.wav,0,1,1745,,,,,3,0.3,-11.7220967,1.25169603
TYT,100,2,2024-06-13T14:44:15.641Z,english_301.wav,0,1,1745,,,,,4,0.32341667,-5.78047748,1.38740104
TYT,101,2,2024-06-13T14:44:15.641Z,english_453.wav,0,1,507,,,,,0,0,-60.23429987,1.87756573
TYT,101,2,2024-06-13T14:44:15.641Z,english_453.wav,0,1,507,,,,,1,0.1,80.38725697,0.94070469
TYT,101,2,2024-06-13T14:44:15.641Z,english_453.wav,0,1,507,,,,,2,0.2,66.16689695,1.71191258
TYT,101,2,2024-06-13T14:44:15.641Z,english_453.wav,0,1,507,,,,,3,0.3,-59.46214637,0.56012011
TYT,101,2,2024-06-13T14:44:15.641Z,english_453.wav,0,1,507,,,,,4,0.32341667,-39.76201882,0.35119419
TYT,102,2,2024-06-13T14:44:15.641Z,english_152.wav,0,1,434,,,,,0,0,-21.97873044,1.75752799
TYT,102,2,2024-06-13T14:44:15.641Z,english_152.wav,0,1,434,,,,,1,0.1,85.66675034,1.21467008
TYT,102,2,2024-06-13T14:44:15.641Z,english_152.wav,0,1,434,,,,,2,0.2,-66.57447909,0.82299352
TYT,102,2,2024-06-13T14:44:15.641Z,english_152.wav,0,1,434,,,,,3,0.3,-33.8772441,0.48869868
TYT,102,2,2024-06-13T14:44:15.641Z,english_152.wav,0,1,434,,,,,4,0.32341667,-46.50239179,0.31705885
TYT,103,2,2024-06-13T14:44:15.641Z,english_938.wav,0,1,417,,,,,0,0,55.68553541,1.13527087
TYT,103,2,2024-06-13T14:44:15.641Z,english_938.wav,0,1,417,,,,,1,0.1,19.57508628,0.57526943
TYT,103,2,2024-06-13T14:44:15.641Z,english_938.wav,0,1,417,,,,,2,0.2,99.59707332,0.71873046
TYT,103,2,2024-06-13T14:44:15.641Z,english_938.wav,0,1,417,,,,,3,0.3,-43.3789335,0.88566698
TYT,103,2,2024-06-13T14:44:15.641Z,english_938.wav,0,1,417,,,,,4,0.32341667,90.00594125,0.39461425
TYT,104,2,2024-06-13T14:44:15.641Z,english_481.wav,0,0,346,,,,,0,0,-1.07793215,1.34620279
TYT,104,2,2024-06-13T14:44:15.641Z,english_481.wav,0,0,346,,,,,1,0.1,72.11929458,0.4682023
TYT,104,2,2024-06-13T14:44:15.641Z,english_481.wav,0,0,346,,,,,2,0.2,-0.36002545,1.2575358
TYT,104,2,2024-06-13T14:44:15.641Z,english_481.wav,0,0,346,,,,,3,0.3,11.70252104,1.51306824
TYT,104,2,2024-06-13T14:44:15.641Z,english_481.wav,0,0,346,,,,,4,0.32341667,-16.16595736,1.86086011
TYT,105,2,2024-06-13T14:44:15.641Z,english_423.wav,0,1,366,,,,,0,0,48.83941012,1.35290702
TYT,105,2,2024-06-13T14:44:15.641Z,english_423.wav,0,1,366,,,,,1,0.1,26.57948938,1.33919202
TYT,105,2,2024-06-13T14:44:15.641Z,english_423.wav,0,1,366,,,,,2,0.2,56.70545245,1.37149513
TYT,105,2,2024-06-13T14:44:15.641Z,english_423.wav,0,1,366,,,,,3,0.3,-62.41131033,1.11357765
TYT,105,2,2024-06-13T14:44:15.641Z,english_423.wav,0,1,366,,,,,4,0.32341667,78.49803502,1.20699722
TYT,106,2,2024-06-13T14:44:15.641Z,english_998.wav,0,0,869,,,,,0,0,-57.03196796,0.0179282
TYT,106,2,2024-06-13T14:44:15.641Z,english_998.wav,0,0,869,,,,,1,0.1,-12.93623633,1.72217412
TYT,106,2,2024-06-13T14:44:15.641Z,english_998.wav,0,0,869,,,,,2,0.2,-24.63186366,0.91011795
TYT,106,2,2024-06-13T14:44:15.641Z,english_998.wav,0,0,869,,,,,3,0.3,-10.49750637,1.24282972
TYT,106,2,2024-06-13T14:44:15.641Z,english_998.wav,0,0,869,,,,,4,0.32341667,22.76793653,0.40520665
TYT,107,2,2024-06-13T14:44:15.641Z,english_405.wav,0,0,788,,,,,0,0,-94.88566807,1.97726842
TYT,107,2,2024-06-13T14:44:15.641Z,english_405.wav,0,0,788,,,,,1,0.1,45.39575719,1.2658567
TYT,107,2,2024-06-13T14:44:15.641Z,english_405.wav,0,0,788,,,,,2,0.2,-94.78509898,0.10443365
TYT,107,2,2024-06-13T14:44:15.641Z,english_405.wav,0,0,788,,,,,3,0.3,54.14618135,0.24635614
TYT,107,2,2024-06-13T14:44:15.641Z,english_405.wav,0,0,788,,,,,4,0.32341667,-20.18916124,0.76836832
TYT,108,2,2024-06-13T14:44:15.641Z,english_999.wav,0,1,641,,,,,0,0,-43.88463807,1.5561212
TYT,108,2,2024-06-13T14:44:15.641Z,english_999.wav,0,1,641,,,,,1,0.1,-19.69329198,1.76032244
TYT,108,2,2024-06-13T14:44:15.641Z,english_999.wav,0,1,641,,,,,2,0.2,-16.47401585,0.67323911
TYT,108,2,2024-06-13T14:44:15.641Z,english_999.wav,0,1,641,,,,,3,0.3,-27.91485083,0.0725875
TYT,108,2,2024-06-13T14:44:15.641Z,english_999.wav,0,1,641,,,,,4,0.32341667,-38.65265262,0.89314247
TYT,109,2,2024-06-13T14:44:15.641Z,english_926.wav,0,1,540,,,,,0,0,-21.84910749,1.63725542
TYT,109,2,2024-06-13T14:44:15.641Z,english_926.wav,0,1,540,,,,,1,0.1,92.62617727,0.91190035
TYT,109,2,2024-06-13T14:44:15.641Z,english_926.wav,0,1,540,,,,,2,0.2,-40.07927874,0.45967153
TYT,109,2,2024-06-13T14:44:15.641Z,english_926.wav,0,1,540,,,,,3,0.3,30.58508574,0.64362954
TYT,109,2,2024-06-13T14:44:15.641Z,english_926.wav,0,1,540,,,,,4,0.32341667,-68.98646438,1.44788087
TYT,110,2,2024-06-13T14:44:15.641Z,english_221.wav,0,1,409,,,,,0,0,85.84184869,1.38100565
TYT,110,2,2024-06-13T14:44:15.641Z,english_221.wav,0,1,409,,,,,1,0.1,-20.37513589,0.79531516
TYT,110,2,2024-06-13T14:44:15.641Z,english_221.wav,0,1,409,,,,,2,0.2,-89.75984637,0.9538446
TYT,110,2,2024-06-13T14:44:15.641Z,english_221.wav,0,1,409,,,,,3,0.3,50.66879934,1.56492426
TYT,110,2,2024-06-13T14:44:15.641Z,english_221.wav,0,1,409,,,,,4,0.32341667,20.92538743,1.60855456
TYT,111,2,2024-06-13T14:44:15.641Z,english_757.wav,0,1,383,,,,,0,0,-71.37581006,0.57944866
TYT,111,2,2024-06-13T14:44:15.641Z,english_757.wav,0,1,383,,,,,1,0.1,-34.89028362,1.76833087
TYT,111,2,2024-06-13T14:44:15.641Z,english_757.wav,0,1,383,,,,,2,0.2,97.72444176,0.43040584
TYT,111,2,2024-06-13T14:44:15.641Z,english_757.wav,0,1,383,,,,,3,0.3,8.64322444,1.84780211
TYT,111,2,2024-06-13T14:44:15.641Z,english_757.wav,0,1,383,,,,,4,0.32341667,-59.15215987,0.21714226
TYT,112,2,2024-06-13T14:44:15.641Z,english_725.wav,0,0,537,,,,,0,0,26.80600371,0.25466557
TYT,112,2,2024-06-13T14:44:15.641Z,english_725.wav,0,0,537,,,,,1,0.1,82.24352357,0.77088778
TYT,112,2,2024-06-13T14:44:15.641Z,english_725.wav,0,0,537,,,,,2,0.2,-3.79901328,0.70697722
TYT,112,2,2024-06-13T14:44:15.641Z,english_725.wav,0,0,537,,,,,3,0.3,68.54562933,1.24247197
TYT,112,2,2024-06-13T14:44:15.641Z,english_725.wav,0,0,537,,,,,4,0.32341667,-39.79698803,1.34526742
TYT,113,2,2024-06-13T14:44:15.641Z,english_411.wav,0,0,712,,,,,0,0,75.357241,0.83773649
TYT,113,2,2024-06-13T14:44:15.641Z,english_411.wav,0,0,712,,,,,1,0.1,-55.75688593,0.80885485
TYT,113,2,2024-06-13T14:44:15.641Z,english_411.wav,0,0,712,,,,,2,0.2,61.10111178,0.61144368
TYT,113,2,2024-06-13T14:44:15.641Z,english_411.wav,0,0,712,,,,,3,0.3,90.25367142,0.73863407
TYT,113,2,2024-06-13T14:44:15.641Z,english_411.wav,0,0,712,,,,,4,0.32341667,26.85831553,0.4624235
TYT,114,2,2024-06-13T14:44:15.641Z,english_40.wav,0,0,715,,,,,0,0,20.98315678,0.33544846
TYT,114,2,2024-06-13T14:44:15.641Z,english_40.wav,0,0,715,,,,,1,0.1,80.64974175,0.81764939
TYT,114,2,2024-06-13T14:44:15.641Z,english_40.wav,0,0,715,,,,,2,0.2,5.38930518,0.17548883
TYT,114,2,2024-06-13T14:44:15.641Z,english_40.wav,0,0,715,,,,,3,0.3,18.83593916,0.83674413
TYT,114,2,2024-06-13T14:44:15.641Z,english_40.wav,0,0,715,,,,,4,0.32341667,-14.62145671,0.80890384
TYT,115,2,2024-06-13T14:44:15.641Z,english_459.wav,0,0,441,,,,,0,0,30.23503988,1.42205963
TYT,115,2,2024-06-13T14:44:15.641Z,english_459.wav,0,0,441,,,,,1,0.1,-58.09525271,0.13069666
TYT,115,2,2024-06-13T14:44:15.641Z,english_459.wav,0,0,441,,,,,2,0.2,22.03715272,0.55220733
TYT,115,2,2024-06-13T14:44:15.641Z,english_459.wav,0,0,441,,,,,3,0.3,-33.09468511,0.48840502
TYT,115,2,2024-06-13T14:44:15.641Z,english_459.wav,0,0,441,,,,,4,0.32341667,-9.46836848,1.08918734
TYT,116,2,2024-06-13T14:44:15.641Z,english_274.wav,0,1,607,,,,,0,0,-30.61452779,0.78021116
TYT,116,2,2024-06-13T14:44:15.641Z,english_274.wav,0,1,607,,,,,1,0.1,-42.14612233,1.93993358
TYT,116,2,2024-06-13T14:44:15.641Z,english_274.wav,0,1,607,,,,,2,0.2,32.00602795,0.32963606
TYT,116,2,2024-06-13T14:44:15.641Z,english_274.wav,0,1,607,,,,,3,0.3,-37.74375581,1.46133782
TYT,116,2,2024-06-13T14:44:15.641Z,english_274.wav,0,1,607,,,,,4,0.32341667,-54.5397802,1.53178785
TYT,117,2,2024-06-13T14:44:15.641Z,english_117.wav,0,1,461,,,,,0,0,-98.72491255,1.42659946
TYT,117,2,2024-06-13T14:44:15.641Z,english_117.wav,0,1,461,,,,,1,0.1,-15.15642563,1.64599539
TYT,117,2,2024-06-13T14:44:15.641Z,english_117.wav,0,1,461,,,,,2,0.2,24.45806353,0.97767705
TYT,117,2,2024-06-13T14:44:15.641Z,english_117.wav,0,1,461,,,,,3,0.3,-80.67224668,0.37962884
TYT,117,2,2024-06-13T14:44:15.641Z,english_117.wav,0,1,461,,,,,4,0.32341667,-97.50349755,0.74274723
TYT,118,2,2024-06-13T14:44:15.641Z,english_533.wav,0,1,627,,,,,0,0,-10.36570298,0.10013008
TYT,118,2,2024-06-13T14:44:15.641Z,english_533.wav,0,1,627,,,,,1,0.1,-67.04420928,1.73583104
TYT,118,2,2024-06-13T14:44:15.641Z,english_533.wav,0,1,627,,,,,2,0.2,-31.24691396,1.00550506
TYT,118,2,2024-06-13T14:44:15.641Z,english_533.wav,0,1,627,,,,,3,0.3,-22.73912087,1.21009828
TYT,118,2,2024-06-13T14:44:15.641Z,english_533.wav,0,1,627,,,,,4,0.32341667,-4.63915005,1.69946188
TYT,119,2,2024-06-13T14:44:15.641Z,english_76.wav,0,1,441,,,,,0,0,24.78743387,1.26829138
TYT,119,2,2024-06-13T14:44:15.641Z,english_76.wav,0,1,441,,,,,1,0.1,-7.95135802,1.4446717
TYT,119,2,2024-06-13T14:44:15.641Z,english_76.wav,0,1,441,,,,,2,0.2,-9.56689875,0.88177173
TYT,119,2,2024-06-13T14:44:15.641Z,english_76.wav,0,1,441,,,,,3,0.3,-78.25819759,1.63003096
TYT,119,2,2024-06-13T14:44:15.641Z,english_76.wav,0,1,441,,,,,4,0.32341667,26.4311908,1.97074408
TYT,120,2,2024-06-13T14:44:15.641Z,english_804.wav,0,1,409,,,,,0,0,11.23319328,0.16159815
TYT,120,2,2024-06-13T14:44:15.641Z,english_804.wav,0,1,409,,,,,1,0.1,-75.15189859,1.76023076
TYT,120,2,2024-06-13T14:44:15.641Z,english_804.wav,0,1,409,,,,,2,0.2,5.39397939,0.7355024
TYT,120,2,2024-06-13T14:44:15.641Z,english_804.wav,0,1,409,,,,,3,0.3,42.92141331,1.74636497
TYT,120,2,2024-06-13T14:44:15.641Z,english_804.wav,0,1,409,,,,,4,0.32341667,-79.84726866,1.05562007
TYT,121,2,2024-06-13T14:44:15.641Z,english_157.wav,0,1,205,,,,,0,0,-74.01864956,1.10168906
TYT,121,2,2024-06-13T14:44:15.641Z,english_157.wav,0,1,205,,,,,1,0.1,1.44529667,1.71225259
TYT,121,2,2024-06-13T14:44:15.641Z,english_157.wav,0,1,205,,,,,2,0.2,-42.76251303,1.71884561
TYT,121,2,2024-06-13T14:44:15.641Z,english_157.wav,0,1,205,,,,,3,0.3,-49.01483239,1.47822148
TYT,121,2,2024-06-13T14:44:15.641Z,english_157.wav,0,1,205,,,,,4,0.32341667,-96.85595697,1.36273156
TYT,122,2,2024-06-13T14:44:15.641Z,english_930.wav,0,0,595,,,,,0,0,-52.65701122,0.60066533
TYT,122,2,2024-06-13T14:44:15.641Z,english_930.wav,0,0,595,,,,,1,0.1,-24.36484499,1.33650528
TYT,122,2,2024-06-13T14:44:15.641Z,english_930.wav,0,0,595,,,,,2,0.2,4.10813066,0.15979886
TYT,122,2,2024-06-13T14:44:15.641Z,english_930.wav,0,0,595,,,,,3,0.3,93.74919515,1.46288505
TYT,122,2,2024-06-13T14:44:15.641Z,english_930.wav,0,0,595,,,,,4,0.32341667,66.31726896,0.93993915
TYT,123,2,2024-06-13T14:44:15.641Z,english_492.wav,0,0,427,,,,,0,0,-66.2832746,0.52930651
TYT,123,2,2024-06-13T14:44:15.641Z,english_492.wav,0,0,427,,,,,1,0.1,-19.36008054,1.11739795
TYT,123,2,2024-06-13T14:44:15.641Z,english_492.wav,0,0,427,,,,,2,0.2,95.25769545,1.86018292
TYT,123,2,2024-06-13T14:44:15.641Z,english_492.wav,0,0,427,,,,,3,0.3,-42.69351484,0.07313262
TYT,123,2,2024-06-13T14:44:15.641Z,english_492.wav,0,0,427,,,,,4,0.32341667,48.13359561,0.30480454
TYT,124,2,2024-06-13T14:44:15.641Z,english_200.wav,0,0,824,,,,,0,0,48.98677304,1.07797747
TYT,124,2,2024-06-13T14:44:15.641Z,english_200.wav,0,0,824,,,,,1,0.1,13.54292536,1.23698451
TYT,124,2,2024-06-13T14:44:15.641Z,english_200.wav,0,0,824,,,,,2,0.2,15.98335964,0.85343662
TYT,124,2,2024-06-13T14:44:15.641Z,english_200.wav,0,0,824,,,,,3,0.3,-46.7743147,1.38707984
TYT,124,2,2024-06-13T14:44:15.641Z,english_200.wav,0,0,824,,,,,4,0.32341667,-12.18386714,0.65409939
TYT,125,2,2024-06-13T14:44:15.641Z,english_648.wav,0,0,612,,,,,0,0,-36.17742204,0.57576188
TYT,125,2,2024-06-13T14:44:15.641Z,english_648.wav,0,0,612,,,,,1,0.1,30.10697278,1.1310908
TYT,125,2,2024-06-13T14:44:15.641Z,english_648.wav,0,0,612,,,,,2,0.2,-67.31320052,1.67112441
TYT,125,2,2024-06-13T14:44:15.641Z,english_648.wav,0,0,612,,,,,3,0.3,-10.94597212,0.39641968
TYT,125,2,2024-06-13T14:44:15.641Z,english_648.wav,0,0,612,,,,,4,0.32341667,72.59648235,1.93789316
TYT,126,2,2024-06-13T14:44:15.641Z,english_505.wav,0,0,679,,,,,0,0,-14.1569725,0.45361713
TYT,126,2,2024-06-13T14:44:15.641Z,english_505.wav,0,0,679,,,,,1,0.1,55.52926248,0.94516805
TYT,126,2,2024-06-13T14:44:15.641Z,english_505.wav,0,0,679,,,,,2,0.2,53.00334781,0.85342654
TYT,126,2,2024-06-13T14:44:15.641Z,english_505.wav,0,0,679,,,,,3,0.3,75.03788466,1.32942474
TYT,126,2,2024-06-13T14:44:15.641Z,english_505.wav,0,0,679,,,,,4,0.32341667,-7.91266729,0.93790665
TYT,127,2,2024-06-13T14:44:15.641Z,english_882.wav,0,1,467,,,,,0,0,-42.93700265,1.06489748
TYT,127,2,2024-06-13T14:44:15.641Z,english_882.wav,0,1,467,,,,,1,0.1,-62.35786663,1.38883859
TYT,127,2,2024-06-13T14:44:15.641Z,english_882.wav,0,1,467,,,,,2,0.2,-16.20482572,0.28843799
TYT,127,2,2024-06-13T14:44:15.641Z,english_882.wav,0,1,467,,,,,3,0.3,-46.49020195,1.05408179
TYT,127,2,2024-06-13T14:44:15.641Z,english_882.wav,0,1,467,,,,,4,0.32341667,-64.89408339,1.78517837
TYT,128,2,2024-06-13T14:44:15.641Z,english_529.wav,0,0,448,,,,,0,0,13.90759343,0.83001961
TYT,128,2,2024-06-13T14:44:15.641Z,english_529.wav,0,0,448,,,,,1,0.1,-33.526088,0.02518437
TYT,128,2,2024-06-13T14:44:15.641Z,english_529.wav,0,0,448,,,,,2,0.2,-34.32120589,1.61112877
TYT,128,2,2024-06-13T14:44:15.641Z,english_529.wav,0,0,448,,,,,3,0.3,-18.30112723,0.91948239
TYT,128,2,2024-06-13T14:44:15.641Z,english_529.wav,0,0,448,,,,,4,0.32341667,16.4796061,0.33204613
TYT,129,2,2024-06-13T14:44:15.641Z,english_705.wav,0,1,562,,,,,0,0,3.76426423,0.9500377
TYT,129,2,2024-06-13T14:44:15.641Z,english_705.wav,0,1,562,,,,,1,0.1,90.96696755,0.74173997
TYT,129,2,2024-06-13T14:44:15.641Z,english_705.wav,0,1,562,,,,,2,0.2,-32.86898574,1.78776637
TYT,129,2,2024-06-13T14:44:15.641Z,english_705.wav,0,1,562,,,,,3,0.3,-21.12550784,0.8178788
TYT,129,2,2024-06-13T14:44:15.641Z,english_705.wav,0,1,562,,,,,4,0.32341667,39.74077299,1.54913024
TYT,130,2,2024-06-13T14:44:15.641Z,english_16.wav,0,1,439,,,,,0,0,-86.84797814,0.47796166
TYT,130,2,2024-06-13T14:44:15.641Z,english_16.wav,0,1,439,,,,,1,0.1,29.78439304,1.82902446
TYT,130,2,2024-06-13T14:44:15.641Z,english_16.wav,0,1,439,,,,,2,0.2,93.37667148,1.57835565
TYT,130,2,2024-06-13T14:44:15.641Z,english_16.wav,0,1,439,,,,,3,0.3,-84.28086854,0.98546729
TYT,130,2,2024-06-13T14:44:15.641Z,english_16.wav,0,1,439,,,,,4,0.32341667,-8.77302982,0.88950072
TYT,131,2,2024-06-13T14:44:15.641Z,english_768.wav,0,0,596,,,,,0,0,-28.93145359,1.5002074
TYT,131,2,2024-06-13T14:44:15.641Z,english_768.wav,0,0,596,,,,,1,0.1,59.49166151,1.15432208
TYT,131,2,2024-06-13T14:44:15.641Z,english_768.wav,0,0,596,,,,,2,0.2,41.87955621,0.01731471
TYT,131,2,2024-06-13T14:44:15.641Z,english_768.wav,0,0,596,,,,,3,0.3,-92.17589111,0.98337229
TYT,131,2,2024-06-13T14:44:15.641Z,english_768.wav,0,0,596,,,,,4,0.32341667,15.2364545,0.4381055
TYT,132,2,2024-06-13T14:44:15.641Z,english_770.wav,0,1,455,,,,,0,0,-33.21947329,1.48551245
TYT,132,2,2024-06-13T14:44:15.641Z,english_770.wav,0,1,455,,,,,1,0.1,63.53746239,1.21485607
TYT,132,2,2024-06-13T14:44:15.641Z,english_770.wav,0,1,455,,,,,2,0.2,-62.38231874,1.11129762
TYT,132,2,2024-06-13T14:44:15.641Z,english_770.wav,0,1,455,,,,,3,0.3,57.5515188,1.59702794
TYT,132,2,2024-06-13T14:44:15.641Z,english_770.wav,0,1,455,,,,,4,0.32341667,-11.94001254,1.16110171
TYT,133,2,2024-06-13T14:44:15.641Z,english_736.wav,0,1,746,,,,,0,0,44.94907169,1.40223879
TYT,133,2,2024-06-13T14:44:15.641Z,english_736.wav,0,1,746,,,,,1,0.1,-89.05982676,1.76358699
TYT,133,2,2024-06-13T14:44:15.641Z,english_736.wav,0,1,746,,,,,2,0.2,27.88925208,0.99111008
TYT,133,2,2024-06-13T14:44:15.641Z,english_736.wav,0,1,746,,,,,3,0.3,77.01163693,1.90426439
TYT,133,2,2024-06-13T14:44:15.641Z,english_736.wav,0,1,746,,,,,4,0.32341667,-28.23601136,1.97036362
TYT,134,2,2024-06-13T14:44:15.641Z,english_445.wav,0,1,469,,,,,0,0,88.00598922,1.42174052
TYT,134,2,2024-06-13T14:44:15.641Z,english_445.wav,0,1,469,,,,,1,0.1,96.51328737,1.49122509
TYT,134,2,2024-06-13T14:44:15.641Z,english_445.wav,0,1,469,,,,,2,0.2,29.11093561,0.62095286
TYT,134,2,2024-06-13T14:44:15.641Z,english_445.wav,0,1,469,,,,,3,0.3,69.6076589,1.14630865
TYT,134,2,2024-06-13T14:44:15.641Z,english_445.wav,0,1,469,,,,,4,0.32341667,-59.73938179,1.38538671
TYT,135,2,2024-06-13T14:44:15.641Z,english_218.wav,0,1,482,,,,,0,0,87.3373499,1.94084006
TYT,135,2,2024-06-13T14:44:15.641Z,english_218.wav,0,1,482,,,,,1,0.1,-14.87903436,0.13305972
TYT,135,2,2024-06-13T14:44:15.641Z,english_218.wav,0,1,482,,,,,2,0.2,-31.97943339,1.11441312
TYT,135,2,2024-06-13T14:44:15.641Z,english_218.wav,0,1,482,,,,,3,0.3,-60.49311609,1.83933377
TYT,135,2,2024-06-13T14:44:15.641Z,english_218.wav,0,1,482,,,,,4,0.32341667,-63.68242647,1.41053301
TYT,136,2,2024-06-13T14:44:15.641Z,english_542.wav,0,1,416,,,,,0,0,-75.53633957,0.40538048
TYT,136,2,2024-06-13T14:44:15.641Z,english_542.wav,0,1,416,,,,,1,0.1,-65.83593262,1.98560632
TYT,136,2,2024-06-13T14:44:15.641Z,english_542.wav,0,1,416,,,,,2,0.2,-66.8010443,1.18970355
TYT,136,2,2024-06-13T14:44:15.641Z,english_542.wav,0,1,416,,,,,3,0.3,89.94318033,1.00543009
TYT,136,2,2024-06-13T14:44:15.641Z,english_542.wav,0,1,416,,,,,4,0.32341667,-28.80984484,1.15995836
TYT,137,2,2024-06-13T14:44:15.641Z,english_140.wav,0,0,650,,,,,0,0,-63.97366245,1.49783115
TYT,137,2,2024-06-13T14:44:15.641Z,english_140.wav,0,0,650,,,,,1,0.1,-84.90656008,1.37250299
TYT,137,2,2024-06-13T14:44:15.641Z,english_140.wav,0,0,650,,,,,2,0.2,93.42782744,0.10650492
TYT,137,2,2024-06-13T14:44:15.641Z,english_140.wav,0,0,650,,,,,3,0.3,11.57634117,0.84315206
TYT,137,2,2024-06-13T14:44:15.641Z,english_140.wav,0,0,650,,,,,4,0.32341667,80.35905055,1.26233419
TYT,138,2,2024-06-13T14:44:15.641Z,english_292.wav,0,0,504,,,,,0,0,-39.45275529,0.85174507
TYT,138,2,2024-06-13T14:44:15.641Z,english_292.wav,0,0,504,,,,,1,0.1,-35.03464337,0.73996191
TYT,138,2,2024-06-13T14:44:15.641Z,english_292.wav,0,0,504,,,,,2,0.2,31.68370279,1.42892595
TYT,138,2,2024-06-13T14:44:15.641Z,english_292.wav,0,0,504,,,,,3,0.3,-53.75991965,0.04968332
TYT,138,2,2024-06-13T14:44:15.641Z,english_292.wav,0,0,504,,,,,4,0.32341667,12.49992629,0.58931553
TYT,139,2,2024-06-13T14:44:15.641Z,english_903.wav,0,1,678,,,,,0,0,73.58848698,0.30588109
TYT,139,2,2024-06-13T14:44:15.641Z,english_903.wav,0,1,678,,,,,1,0.1,-95.58060262,0.88963747
TYT,139,2,2024-06-13T14:44:15.641Z,english_903.wav,0,1,678,,,,,2,0.2,17.41642173,1.73634476
TYT,139,2,2024-06-13T14:44:15.641Z,english_903.wav,0,1,678,,,,,3,0.3,94.35223882,0.71257749
TYT,139,2,2024-06-13T14:44:15.641Z,english_903.wav,0,1,678,,,,,4,0.32341667,-49.48803877,1.4824474
TYT,140,2,2024-06-13T14:44:15.641Z,english_831.wav,0,1,346,,,,,0,0,-7.33710711,1.53159971
TYT,140,2,2024-06-13T14:44:15.641Z,english_831.wav,0,1,346,,,,,1,0.1,-87.69782071,1.22669962
TYT,140,2,2024-06-13T14:44:15.641Z,english_831.wav,0,1,346,,,,,2,0.2,34.03975531,0.70180407
TYT,140,2,2024-06-13T14:44:15.641Z,english_831.wav,0,1,346,,,,,3,0.3,-2.18295653,1.02244347
TYT,140,2,2024-06-13T14:44:15.641Z,english_831.wav,0,1,346,,,,,4,0.32341667,20.908766,1.06702443
TYT,141,2,2024-06-13T14:44:15.641Z,english_381.wav,0,1,404,,,,,0,0,-64.83599525,0.77808766
TYT,141,2,2024-06-13T14:44:15.641Z,english_381.wav,0,1,404,,,,,1,0.1,97.61236857,1.62635576
TYT,141,2,2024-06-13T14:44:15.641Z,english_381.wav,0,1,404,,,,,2,0.2,-60.27157178,0.65298664
TYT,141,2,2024-06-13T14:44:15.641Z,english_381.wav,0,1,404,,,,,3,0.3,84.45732791,0.46881793
TYT,141,2,2024-06-13T14:44:15.641Z,english_381.wav,0,1,404,,,,,4,0.32341667,-87.53832291,1.22836965
TYT,142,2,2024-06-13T14:44:15.641Z,english_563.wav,0,0,589,,,,,0,0,19.758909,0.0609285
TYT,142,2,2024-06-13T14:44:15.641Z,english_563.wav,0,0,589,,,,,1,0.1,33.70416131,1.63852294
TYT,142,2,2024-06-13T14:44:15.641Z,english_563.wav,0,0,589,,,,,2,0.2,-28.26228599,0.53834051
TYT,142,2,2024-06-13T14:44:15.641Z,english_563.wav,0,0,589,,,,,3,0.3,77.25360299,0.54558093
TYT,142,2,2024-06-13T14:44:15.641Z,english_563.wav,0,0,589,,,,,4,0.32341667,-40.65982077,0.29994173
TYT,143,2,2024-06-13T14:44:15.641Z,english_210.wav,0,1,548,,,,,0,0,43.03172008,0.27268056
TYT,143,2,2024-06-13T14:44:15.641Z,english_210.wav,0,1,548,,,,,1,0.1,58.48529179,0.59270989
TYT,143,2,2024-06-13T14:44:15.641Z,english_210.wav,0,1,548,,,,,2,0.2,57.29337371,1.57355776
TYT,143,2,2024-06-13T14:44:15.641Z,english_210.wav,0,1,548,,,,,3,0.3,-45.34642936,1.97663548
TYT,143,2,2024-06-13T14:44:15.641Z,english_210.wav,0,1,548,,,,,4,0.32341667,-3.49486879,1.39997912
TYT,144,2,2024-06-13T14:44:15.641Z,english_708.wav,0,1,395,,,,,0,0,-27.19248895,0.74061838
TYT,144,2,2024-06-13T14:44:15.641Z,english_708.wav,0,1,395,,,,,1,0.1,84.25795725,1.13599963
TYT,144,2,2024-06-13T14:44:15.641Z,english_708.wav,0,1,395,,,,,2,0.2,-19.19551503,1.10086254
TYT,144,2,2024-06-13T14:44:15.641Z,english_708.wav,0,1,395,,,,,3,0.3,29.88012033,0.53054382
TYT,144,2,2024-06-13T14:44:15.641Z,english_708.wav,0,1,395,,,,,4,0.32341667,46.0858662,1.51974387
TYT,145,2,2024-06-13T14:44:15.641Z,english_395.wav,0,1,1201,,,,,0,0,12.69072165,1.18485033
TYT,145,2,2024-06-13T14:44:15.641Z,english_395.wav,0,1,1201,,,,,1,0.1,16.88915645,0.64230571
TYT,145,2,2024-06-13T14:44:15.641Z,english_395.wav,0,1,1201,,,,,2,0.2,49.23789678,0.95454364
TYT,145,2,2024-06-13T14:44:15.641Z,english_395.wav,0,1,1201,,,,,3,0.3,39.87613746,0.75997929
TYT,145,2,2024-06-13T14:44:15.641Z,english_395.wav,0,1,1201,,,,,4,0.32341667,70.90138048,1.50770695
TYT,146,2,2024-06-13T14:44:15.641Z,english_965.wav,0,1,1635,,,,,0,0,-19.49526798,1.71910172
TYT,146,2,2024-06-13T14:44:15.641Z,english_965.wav,0,1,1635,,,,,1,0.1,-33.46093545,1.16323176
TYT,146,2,2024-06-13T14:44:15.641Z,english_965.wav,0,1,1635,,,,,2,0.2,95.24809114,0.56514201
TYT,146,2,2024-06-13T14:44:15.641Z,english_965.wav,0,1,1635,,,,,3,0.3,26.23968625,1.82539978
TYT,146,2,2024-06-13T14:44:15.641Z,english_965.wav,0,1,1635,,,,,4,0.32341667,15.70217089,1.7659451
TYT,147,2,2024-06-13T14:44:15.641Z,english_677.wav,0,0,692,,,,,0,0,74.92499355,0.4070184
TYT,147,2,2024-06-13T14:44:15.641Z,english_677.wav,0,0,692,,,,,1,0.1,35.44886391,0.82737557
TYT,147,2,2024-06-13T14:44:15.641Z,english_677.wav,0,0,692,,,,,2,0.2,3.82146975,0.46436239
TYT,147,2,2024-06-13T14:44:15.641Z,english_677.wav,0,0,692,,,,,3,0.3,10.3543008,1.40426898
TYT,147,2,2024-06-13T14:44:15.641Z,english_677.wav,0,0,692,,,,,4,0.32341667,-53.94170103,1.42138659
TYT,148,2,2024-06-13T14:44:15.641Z,english_820.wav,0,0,648,,,,,0,0,-46.83321603,0.84618107
TYT,148,2,2024-06-13T14:44:15.641Z,english_820.wav,0,0,648,,,,,1,0.1,41.6487922,0.98544532
TYT,148,2,2024-06-13T14:44:15.641Z,english_820.wav,0,0,648,,,,,2,0.2,8.4156442,0.7701051
TYT,148,2,2024-06-13T14:44:15.641Z,english_820.wav,0,0,648,,,,,3,0.3,-54.82963666,1.20043732
TYT,148,2,2024-06-13T14:44:15.641Z,english_820.wav,0,0,648,,,,,4,0.32341667,30.43602938,1.85489027
TYT,149,2,2024-06-13T14:44:15.641Z,english_837.wav,0,0,410,,,,,0,0,-10.72674788,0.56055933
TYT,149,2,2024-06-13T14:44:15.641Z,english_837.wav,0,0,410,,,,,1,0.1,33.60933966,1.16716927
TYT,149,2,2024-06-13T14:44:15.641Z,english_837.wav,0,0,410,,,,,2,0.2,-1.37827911,1.02731607
TYT,149,2,2024-06-13T14:44:15.641Z,english_837.wav,0,0,410,,,,,3,0.3,29.3498758,1.96665864
TYT,149,2,2024-06-13T14:44:15.641Z,english_837.wav,0,0,410,,,,,4,0.32341667,31.86641091,0.45425732
TYT,150,3,2024-06-13T14:44:15.641Z,english_565.wav,0,1,667,,,,,0,0,-89.95965492,1.93181176
TYT,150,3,2024-06-13T14:44:15.641Z,english_565.wav,0,1,667,,,,,1,0.1,67.55938023,1.29027557
TYT,150,3,2024-06-13T14:44:15.641Z,english_565.wav,0,1,667,,,,,2,0.2,26.6208604,0.36054668
TYT,150,3,2024-06-13T14:44:15.641Z,english_565.wav,0,1,667,,,,,3,0.3,-54.20230035,1.25973455
TYT,150,3,2024-06-13T14:44:15.641Z,english_565.wav,0,1,667,,,,,4,0.32341667,-98.16020256,0.92743077
TYT,151,3,2024-06-13T14:44:15.641Z,english_802.wav,0,1,383,,,,,0,0,44.11448731,1.89082481
TYT,151,3,2024-06-13T14:44:15.641Z,english_802.wav,0,1,383,,,,,1,0.1,27.89646601,1.73386287
TYT,151,3,2024-06-13T14:44:15.641Z,english_802.wav,0,1,383,,,,,2,0.2,-19.36127415,0.34468699
TYT,151,3,2024-06-13T14:44:15.641Z,english_802.wav,0,1,383,,,,,3,0.3,15.17899174,0.39328876
TYT,151,3,2024-06-13T14:44:15.641Z,english_802.wav,0,1,383,,,,,4,0.32341667,-18.70870555,1.25778986
TYT,152,3,2024-06-13T14:44:15.641Z,english_766.wav,0,1,510,,,,,0,0,-86.57417509,1.21737292
TYT,152,3,2024-06-13T14:44:15.641Z,english_766.wav,0,1,510,,,,,1,0.1,-67.75686223,1.61484435
TYT,152,3,2024-06-13T14:44:15.641Z,english_766.wav,0,1,510,,,,,2,0.2,74.21258041,1.47872362
TYT,152,3,2024-06-13T14:44:15.641Z,english_766.wav,0,1,510,,,,,3,0.3,65.20164426,1.81064247
TYT,152,3,2024-06-13T14:44:15.641Z,english_766.wav,0,1,510,,,,,4,0.32341667,-26.41371036,1.37776493
TYT,153,3,2024-06-13T14:44:15.641Z,english_393.wav,0,0,587,,,,,0,0,3.63201436,1.68653621
TYT,153,3,2024-06-13T14:44:15.641Z,english_393.wav,0,0,587,,,,,1,0.1,64.52667935,0.22518435
TYT,153,3,2024-06-13T14:44:15.641Z,english_393.wav,0,0,587,,,,,2,0.2,-51.23523019,0.07728703
TYT,153,3,2024-06-13T14:44:15.641Z,english_393.wav,0,0,587,,,,,3,0.3,-89.75219839,0.70962284
TYT,153,3,2024-06-13T14:44:15.641Z,english_393.wav,0,0,587,,,,,4,0.32341667,-66.06218428,0.7432397
TYT,154,3,2024-06-13T14:44:15.641Z,english_962.wav,0,1,429,,,,,0,0,-55.512918,1.78332996
TYT,154,3,2024-06-13T14:44:15.641Z,english_962.wav,0,1,429,,,,,1,0.1,90.34773129,1.25956614
TYT,154,3,2024-06-13T14:44:15.641Z,english_962.wav,0,1,429,,,,,2,0.2,-3.10818459,0.72891593
TYT,154,3,2024-06-13T14:44:15.641Z,english_962.wav,0,1,429,,,,,3,0.3,50.27619033,1.49954356
TYT,154,3,2024-06-13T14:44:15.641Z,english_962.wav,0,1,429,,,,,4,0.32341667,-47.3196173,0.96339983
TYT,155,3,2024-06-13T14:44:15.641Z,english_526.wav,0,0,820,,,,,0,0,-32.34532461,0.924261
TYT,155,3,2024-06-13T14:44:15.641Z,english_526.wav,0,0,820,,,,,1,0.1,-46.6208459,0.25414499
TYT,155,3,2024-06-13T14:44:15.641Z,english_526.wav,0,0,820,,,,,2,0.2,-42.84927068,1.01925886
TYT,155,3,2024-06-13T14:44:15.641Z,english_526.wav,0,0,820,,,,,3,0.3,3.47643827,0.65966822
TYT,155,3,2024-06-13T14:44:15.641Z,english_526.wav,0,0,820,,,,,4,0.32341667,52.79087598,1.50872035
TYT,156,3,2024-06-13T14:44:15.641Z,english_803.wav,0,1,900,,,,,0,0,8.73756077,1.22190991
TYT,156,3,2024-06-13T14:44:15.641Z,english_803.wav,0,1,900,,,,,1,0.1,-41.53503623,1.08276728
TYT,156,3,2024-06-13T14:44:15.641Z,english_803.wav,0,1,900,,,,,2,0.2,-84.76471985,1.59545905
TYT,156,3,2024-06-13T14:44:15.641Z,english_803.wav,0,1,900,,,,,3,0.3,-27.96408635,1.3875394
TYT,156,3,2024-06-13T14:44:15.641Z,english_803.wav,0,1,900,,,,,4,0.32341667,72.02290108,0.92287786
TYT,157,3,2024-06-13T14:44:15.641Z,english_592.wav,0,1,898,,,,,0,0,-77.34060672,0.96869857
TYT,157,3,2024-06-13T14:44:15.641Z,english_592.wav,0,1,898,,,,,1,0.1,27.41551815,1.75134411
TYT,157,3,2024-06-13T14:44:15.641Z,english_592.wav,0,1,898,,,,,2,0.2,-17.47445882,1.41680483
TYT,157,3,2024-06-13T14:44:15.641Z,english_592.wav,0,1,898,,,,,3,0.3,-61.08462212,1.07260777
TYT,157,3,2024-06-13T14:44:15.641Z,english_592.wav,0,1,898,,,,,4,0.32341667,74.7675789,0.73150904
TYT,158,3,2024-06-13T14:44:15.641Z,english_238.wav,0,0,317,,,,,0,0,87.78466979,1.0750983
TYT,158,3,2024-06-13T14:44:15.641Z,english_238.wav,0,0,317,,,,,1,0.1,65.39287108,0.03626896
TYT,158,3,2024-06-13T14:44:15.641Z,english_238.wav,0,0,317,,,,,2,0.2,-38.39100082,1.9832234
TYT,158,3,2024-06-13T14:44:15.641Z,english_238.wav,0,0,317,,,,,3,0.3,-20.01297649,0.17604691
TYT,158,3,2024-06-13T14:44:15.641Z,english_238.wav,0,0,317,,,,,4,0.32341667,78.31880556,1.61383808
TYT,159,3,2024-06-13T14:44:15.641Z,english_340.wav,0,1,785,,,,,0,0,42.62794877,1.44385011
TYT,159,3,2024-06-13T14:44:15.641Z,english_340.wav,0,1,785,,,,,1,0.1,67.09042835,1.29329602
TYT,159,3,2024-06-13T14:44:15.641Z,english_340.wav,0,1,785,,,,,2,0.2,-80.28719593,1.71068781
TYT,159,3,2024-06-13T14:44:15.641Z,english_340.wav,0,1,785,,,,,3,0.3,-47.97556268,0.48872717
TYT,159,3,2024-06-13T14:44:15.641Z,english_340.wav,0,1,785,,,,,4,0.32341667,32.7013797,1.09000269
TYT,160,3,2024-06-13T14:44:15.641Z,english_940.wav,0,0,520,,,,,0,0,47.11462569,0.32214594
TYT,160,3,2024-06-13T14:44:15.641Z,english_940.wav,0,0,520,,,,,1,0.1,11.81885745,0.21999868
TYT,160,3,2024-06-13T14:44:15.641Z,english_940.wav,0,0,520,,,,,2,0.2,-1.49931669,0.34357292
TYT,160,3,2024-06-13T14:44:15.641Z,english_940.wav,0,0,520,,,,,3,0.3,45.92466934,1.61274527
TYT,160,3,2024-06-13T14:44:15.641Z,english_940.wav,0,0,520,,,,,4,0.32341667,-72.78738407,0.9185628
TYT,161,3,2024-06-13T14:44:15.641Z,english_760.wav,0,1,322,,,,,0,0,24.3902693,0.67210823
TYT,161,3,2024-06-13T14:44:15.641Z,english_760.wav,0,1,322,,,,,1,0.1,-0.0247174936,1.89588113
TYT,161,3,2024-06-13T14:44:15.641Z,english_760.wav,0,1,322,,,,,2,0.2,82.8662613,0.23432987
TYT,161,3,2024-06-13T14:44:15.641Z,english_760.wav,0,1,322,,,,,3,0.3,-7.97314524,1.20797246
TYT,161,3,2024-06-13T14:44:15.641Z,english_760.wav,0,1,322,,,,,4,0.323416667,-6.32438983,1.72866971
TYT,162,3,2024-06-13T14:44:15.641Z,english_345.wav,0,1,475,,,,,0,0,-46.00579497,1.58751342
TYT,162,3,2024-06-13T14:44:15.641Z,english_345.wav,0,1,475,,,,,1,0.1,-45.5805492,1.0202646
TYT,162,3,2024-06-13T14:44:15.641Z,english_345.wav,0,1,475,,,,,2,0.2,-14.04378539,0.61561299
TYT,162,3,2024-06-13T14:44:15.641Z,english_345.wav,0,1,475,,,,,3,0.3,63.72413351,1.21547564
TYT,162,3,2024-06-13T14:44:15.641Z,english_345.wav,0,1,475,,,,,4,0.32341667,18.03717792,1.47127253
TYT,163,3,2024-06-13T14:44:15.641Z,english_509.wav,0,1,262,,,,,0,0,58.37136146,0.93627824
TYT,163,3,2024-06-13T14:44:15.641Z,english_509.wav,0,1,262,,,,,1,0.1,-30.59588084,1.268957
TYT,163,3,2024-06-13T14:44:15.641Z,english_509.wav,0,1,262,,,,,2,0.2,-42.62400689,0.87018438
TYT,163,3,2024-06-13T14:44:15.641Z,english_509.wav,0,1,262,,,,,3,0.3,58.46483968,1.67134466
TYT,163,3,2024-06-13T14:44:15.641Z,english_509.wav,0,1,262,,,,,4,0.32341667,44.09610342,1.96584472
TYT,164,3,2024-06-13T14:44:15.641Z,english_176.wav,0,0,512,,,,,0,0,-62.84257592,0.68193044
TYT,164,3,2024-06-13T14:44:15.641Z,english_176.wav,0,0,512,,,,,1,0.1,86.95506575,0.26950978
TYT,164,3,2024-06-13T14:44:15.641Z,english_176.wav,0,0,512,,,,,2,0.2,-28.0397163,0.45294908
TYT,164,3,2024-06-13T14:44:15.641Z,english_176.wav,0,0,512,,,,,3,0.3,-64.80124174,0.91353321
TYT,164,3,2024-06-13T14:44:15.641Z,english_176.wav,0,0,512,,,,,4,0.32341667,-98.66046935,1.10925614
TYT,165,3,2024-06-13T14:44:15.641Z,english_293.wav,0,1,834,,,,,0,0,-22.15906653,1.76366583
TYT,165,3,2024-06-13T14:44:15.641Z,english_293.wav,0,1,834,,,,,1,0.1,-88.62057809,0.55660069
TYT,165,3,2024-06-13T14:44:15.641Z,english_293.wav,0,1,834,,,,,2,0.2,-18.47979893,1.17282558
TYT,165,3,2024-06-13T14:44:15.641Z,english_293.wav,0,1,834,,,,,3,0.3,-74.2852497,0.49477424
TYT,165,3,2024-06-13T14:44:15.641Z,english_293.wav,0,1,834,,,,,4,0.32341667,59.45323022,0.66659794
TYT,166,3,2024-06-13T14:44:15.641Z,english_170.wav,0,1,354,,,,,0,0,6.45066022,1.58910722
TYT,166,3,2024-06-13T14:44:15.641Z,english_170.wav,0,1,354,,,,,1,0.1,-4.11198278,0.3365331
TYT,166,3,2024-06-13T14:44:15.641Z,english_170.wav,0,1,354,,,,,2,0.2,96.59136675,0.38643451
TYT,166,3,2024-06-13T14:44:15.641Z,english_170.wav,0,1,354,,,,,3,0.3,21.57070742,1.58623933
TYT,166,3,2024-06-13T14:44:15.641Z,english_170.wav,0,1,354,,,,,4,0.32341667,94.47980818,1.61968164
TYT,167,3,2024-06-13T14:44:15.641Z,english_419.wav,0,0,810,,,,,0,0,74.10926047,0.423980314
TYT,167,3,2024-06-13T14:44:15.641Z,english_419.wav,0,0,810,,,,,1,0.1,-50.44969368,1.12483838
TYT,167,3,2024-06-13T14:44:15.641Z,english_419.wav,0,0,810,,,,,2,0.2,-38.37630765,0.473465541
TYT,167,3,2024-06-13T14:44:15.641Z,english_419.wav,0,0,810,,,,,3,0.3,-57.54140712,0.000838613621
TYT,167,3,2024-06-13T14:44:15.641Z,english_419.wav,0,0,810,,,,,4,0.32341667,48.12555486,0.389285402
TYT,168,3,2024-06-13T14:44:15.641Z,english_897.wav,0,1,719,,,,,0,0,-6.17515852,1.45954458
TYT,168,3,2024-06-13T14:44:15.641Z,english_897.wav,0,1,719,,,,,1,0.1,-25.56252799,1.4662158
TYT,168,3,2024-06-13T14:44:15.641Z,english_897.wav,0,1,719,,,,,2,0.2,-51.51756482,1.09304129
TYT,168,3,2024-06-13T14:44:15.641Z,english_897.wav,0,1,719,,,,,3,0.3,-57.3776393,1.17713492
TYT,168,3,2024-06-13T14:44:15.641Z,english_897.wav,0,1,719,,,,,4,0.32341667,-65.82780913,1.23726335
TYT,169,3,2024-06-13T14:44:15.641Z,english_59.wav,0,0,493,,,,,0,0,30.26604033,1.5973148
TYT,169,3,2024-06-13T14:44:15.641Z,english_59.wav,0,0,493,,,,,1,0.1,25.69112756,0.24758472
TYT,169,3,2024-06-13T14:44:15.641Z,english_59.wav,0,0,493,,,,,2,0.2,-24.85549033,0.1547886
TYT,169,3,2024-06-13T14:44:15.641Z,english_59.wav,0,0,493,,,,,3,0.3,-31.2790444,0.30754036
TYT,169,3,2024-06-13T14:44:15.641Z,english_59.wav,0,0,493,,,,,4,0.32341667,86.30355152,0.40312024
TYT,170,3,2024-06-13T14:44:15.641Z,english_212.wav,0,1,577,,,,,0,0,-8.03708838,0.69940518
TYT,170,3,2024-06-13T14:44:15.641Z,english_212.wav,0,1,577,,,,,1,0.1,72.60121642,1.0039509
TYT,170,3,2024-06-13T14:44:15.641Z,english_212.wav,0,1,577,,,,,2,0.2,-98.76374397,1.17731185
TYT,170,3,2024-06-13T14:44:15.641Z,english_212.wav,0,1,577,,,,,3,0.3,31.47742107,0.88066499
TYT,170,3,2024-06-13T14:44:15.641Z,english_212.wav,0,1,577,,,,,4,0.32341667,53.59344022,0.33624016
TYT,171,3,2024-06-13T14:44:15.641Z,english_127.wav,0,1,454,,,,,0,0,-69.70750805,0.25070661
TYT,171,3,2024-06-13T14:44:15.641Z,english_127.wav,0,1,454,,,,,1,0.1,-23.17484413,1.1475992
TYT,171,3,2024-06-13T14:44:15.641Z,english_127.wav,0,1,454,,,,,2,0.2,16.27024862,1.99299371
TYT,171,3,2024-06-13T14:44:15.641Z,english_127.wav,0,1,454,,,,,3,0.3,-50.08342814,0.57749513
TYT,171,3,2024-06-13T14:44:15.641Z,english_127.wav,0,1,454,,,,,4,0.32341667,22.60332787,1.27832678
TYT,172,3,2024-06-13T14:44:15.641Z,english_912.wav,0,1,264,,,,,0,0,-43.64864707,0.87210048
TYT,172,3,2024-06-13T14:44:15.641Z,english_912.wav,0,1,264,,,,,1,0.1,94.54433808,1.43243955
TYT,172,3,2024-06-13T14:44:15.641Z,english_912.wav,0,1,264,,,,,2,0.2,67.98324072,1.49899487
TYT,172,3,2024-06-13T14:44:15.641Z,english_912.wav,0,1,264,,,,,3,0.3,9.27329172,0.42663795
TYT,172,3,2024-06-13T14:44:15.641Z,english_912.wav,0,1,264,,,,,4,0.32341667,-55.44973818,0.19299009
TYT,173,3,2024-06-13T14:44:15.641Z,english_366.wav,0,0,329,,,,,0,0,30.08929792,0.87054072
TYT,173,3,2024-06-13T14:44:15.641Z,english_366.wav,0,0,329,,,,,1,0.1,-17.9139155,0.34658018
TYT,173,3,2024-06-13T14:44:15.641Z,english_366.wav,0,0,329,,,,,2,0.2,-66.75779592,0.49970414
TYT,173,3,2024-06-13T14:44:15.641Z,english_366.wav,0,0,329,,,,,3,0.3,77.64459909,1.94720887
TYT,173,3,2024-06-13T14:44:15.641Z,english_366.wav,0,0,329,,,,,4,0.32341667,72.64294537,1.76390144
TYT,174,3,2024-06-13T14:44:15.641Z,english_614.wav,0,1,458,,,,,0,0,78.57791509,1.76663636
TYT,174,3,2024-06-13T14:44:15.641Z,english_614.wav,0,1,458,,,,,1,0.1,-6.15631212,0.7337869
TYT,174,3,2024-06-13T14:44:15.641Z,english_614.wav,0,1,458,,,,,2,0.2,-15.34092719,1.62880485
TYT,174,3,2024-06-13T14:44:15.641Z,english_614.wav,0,1,458,,,,,3,0.3,21.91351344,0.61213133
TYT,174,3,2024-06-13T14:44:15.641Z,english_614.wav,0,1,458,,,,,4,0.32341667,-10.50820757,0.41097232
TYT,175,3,2024-06-13T14:44:15.641Z,english_317.wav,0,1,190,,,,,0,0,-26.75650792,1.75672771
TYT,175,3,2024-06-13T14:44:15.641Z,english_317.wav,0,1,190,,,,,1,0.1,9.07297032,1.82949168
TYT,175,3,2024-06-13T14:44:15.641Z,english_317.wav,0,1,190,,,,,2,0.2,17.58512652,1.6954519
TYT,175,3,2024-06-13T14:44:15.641Z,english_317.wav,0,1,190,,,,,3,0.3,29.57201507,0.7122411
TYT,175,3,2024-06-13T14:44:15.641Z,english_317.wav,0,1,190,,,,,4,0.32341667,56.4667582,1.26753728
TYT,176,3,2024-06-13T14:44:15.641Z,english_910.wav,0,1,454,,,,,0,0,-5.78748479,0.61840584
TYT,176,3,2024-06-13T14:44:15.641Z,english_910.wav,0,1,454,,,,,1,0.1,25.040103,1.20431928
TYT,176,3,2024-06-13T14:44:15.641Z,english_910.wav,0,1,454,,,,,2,0.2,-40.66398147,1.66594732
TYT,176,3,2024-06-13T14:44:15.641Z,english_910.wav,0,1,454,,,,,3,0.3,-99.21011725,0.99007018
TYT,176,3,2024-06-13T14:44:15.641Z,english_910.wav,0,1,454,,,,,4,0.32341667,30.82754841,0.23705338
TYT,177,3,2024-06-13T14:44:15.641Z,english_931.wav,0,1,310,,,,,0,0,-78.99767873,0.72988395
TYT,177,3,2024-06-13T14:44:15.641Z,english_931.wav,0,1,310,,,,,1,0.1,-34.67093685,1.40858855
TYT,177,3,2024-06-13T14:44:15.641Z,english_931.wav,0,1,310,,,,,2,0.2,2.25144273,1.82787629
TYT,177,3,2024-06-13T14:44:15.641Z,english_931.wav,0,1,310,,,,,3,0.3,-93.87287365,1.51045502
TYT,177,3,2024-06-13T14:44:15.641Z,english_931.wav,0,1,310,,,,,4,0.32341667,57.8562517,1.42241625
TYT,178,3,2024-06-13T14:44:15.641Z,english_646.wav,0,1,312,,,,,0,0,65.65927644,1.85038449
TYT,178,3,2024-06-13T14:44:15.641Z,english_646.wav,0,1,312,,,,,1,0.1,-31.23211399,1.10748568
TYT,178,3,2024-06-13T14:44:15.641Z,english_646.wav,0,1,312,,,,,2,0.2,62.59110385,1.14052106
TYT,178,3,2024-06-13T14:44:15.641Z,english_646.wav,0,1,312,,,,,3,0.3,-86.43369357,1.38971404
TYT,178,3,2024-06-13T14:44:15.641Z,english_646.wav,0,1,312,,,,,4,0.32341667,41.84315348,0.49971738
TYT,179,3,2024-06-13T14:44:15.641Z,english_713.wav,0,1,634,,,,,0,0,18.77281956,1.04868626
TYT,179,3,2024-06-13T14:44:15.641Z,english_713.wav,0,1,634,,,,,1,0.1,40.78610286,0.48332939
TYT,179,3,2024-06-13T14:44:15.641Z,english_713.wav,0,1,634,,,,,2,0.2,84.18153491,0.83217717
TYT,179,3,2024-06-13T14:44:15.641Z,english_713.wav,0,1,634,,,,,3,0.3,47.00827256,1.90318663
TYT,179,3,2024-06-13T14:44:15.641Z,english_713.wav,0,1,634,,,,,4,0.32341667,66.01008384,0.50055362
TYT,180,3,2024-06-13T14:44:15.641Z,english_332.wav,0,1,365,,,,,0,0,-51.41680869,1.58782391
TYT,180,3,2024-06-13T14:44:15.641Z,english_332.wav,0,1,365,,,,,1,0.1,4.985172,0.72138411
TYT,180,3,2024-06-13T14:44:15.641Z,english_332.wav,0,1,365,,,,,2,0.2,88.20327684,1.12265768
TYT,180,3,2024-06-13T14:44:15.641Z,english_332.wav,0,1,365,,,,,3,0.3,-58.40734817,0.23569111
TYT,180,3,2024-06-13T14:44:15.641Z,english_332.wav,0,1,365,,,,,4,0.32341667,68.30800912,1.23583309
TYT,181,3,2024-06-13T14:44:15.641Z,english_519.wav,0,1,371,,,,,0,0,-8.06946753,0.14231686
TYT,181,3,2024-06-13T14:44:15.641Z,english_519.wav,0,1,371,,,,,1,0.1,-66.74939098,1.74411569
TYT,181,3,2024-06-13T14:44:15.641Z,english_519.wav,0,1,371,,,,,2,0.2,-27.98142454,1.42967772
TYT,181,3,2024-06-13T14:44:15.641Z,english_519.wav,0,1,371,,,,,3,0.3,-72.75033344,0.44774012
TYT,181,3,2024-06-13T14:44:15.641Z,english_519.wav,0,1,371,,,,,4,0.32341667,-36.15575878,1.4256209
TYT,182,3,2024-06-13T14:44:15.641Z,english_224.wav,0,1,391,,,,,0,0,-3.31597843,0.45157501
TYT,182,3,2024-06-13T14:44:15.641Z,english_224.wav,0,1,391,,,,,1,0.1,-35.19448657,1.77513434
TYT,182,3,2024-06-13T14:44:15.641Z,english_224.wav,0,1,391,,,,,2,0.2,-54.62049262,0.36912314
TYT,182,3,2024-06-13T14:44:15.641Z,english_224.wav,0,1,391,,,,,3,0.3,50.12510099,1.67171916
TYT,182,3,2024-06-13T14:44:15.641Z,english_224.wav,0,1,391,,,,,4,0.32341667,96.66013203,1.16069525
TYT,183,3,2024-06-13T14:44:15.641Z,english_662.wav,0,0,723,,,,,0,0,-34.20942979,0.58122658
TYT,183,3,2024-06-13T14:44:15.641Z,english_662.wav,0,0,723,,,,,1,0.1,-64.9220759,0.35407044
TYT,183,3,2024-06-13T14:44:15.641Z,english_662.wav,0,0,723,,,,,2,0.2,-46.13526655,1.02300599
TYT,183,3,2024-06-13T14:44:15.641Z,english_662.wav,0,0,723,,,,,3,0.3,16.61128262,0.09808433
TYT,183,3,2024-06-13T14:44:15.641Z,english_662.wav,0,0,723,,,,,4,0.32341667,-72.42442326,0.71975239
TYT,184,3,2024-06-13T14:44:15.641Z,english_31.wav,0,1,428,,,,,0,0,21.28810337,1.2057056
TYT,184,3,2024-06-13T14:44:15.641Z,english_31.wav,0,1,428,,,,,1,0.1,68.821868,0.99381392
TYT,184,3,2024-06-13T14:44:15.641Z,english_31.wav,0,1,428,,,,,2,0.2,-73.02143346,0.87600828
TYT,184,3,2024-06-13T14:44:15.641Z,english_31.wav,0,1,428,,,,,3,0.3,68.60173581,1.15844697
TYT,184,3,2024-06-13T14:44:15.641Z,english_31.wav,0,1,428,,,,,4,0.32341667,51.47999234,1.3722803
TYT,185,3,2024-06-13T14:44:15.641Z,english_278.wav,0,1,601,,,,,0,0,-49.55521664,0.96598769
TYT,185,3,2024-06-13T14:44:15.641Z,english_278.wav,0,1,601,,,,,1,0.1,60.24292507,1.32709354
TYT,185,3,2024-06-13T14:44:15.641Z,english_278.wav,0,1,601,,,,,2,0.2,34.32984246,0.84496159
TYT,185,3,2024-06-13T14:44:15.641Z,english_278.wav,0,1,601,,,,,3,0.3,91.69210883,1.50157491
TYT,185,3,2024-06-13T14:44:15.641Z,english_278.wav,0,1,601,,,,,4,0.32341667,78.84715657,1.85534648
TYT,186,3,2024-06-13T14:44:15.641Z,english_879.wav,0,0,685,,,,,0,0,-56.32485069,0.53184386
TYT,186,3,2024-06-13T14:44:15.641Z,english_879.wav,0,0,685,,,,,1,0.1,64.67592183,1.34296213
TYT,186,3,2024-06-13T14:44:15.641Z,english_879.wav,0,0,685,,,,,2,0.2,25.82204554,0.44649674
TYT,186,3,2024-06-13T14:44:15.641Z,english_879.wav,0,0,685,,,,,3,0.3,5.66794257,0.79707043
TYT,186,3,2024-06-13T14:44:15.641Z,english_879.wav,0,0,685,,,,,4,0.32341667,-31.65503708,1.19804995
TYT,187,3,2024-06-13T14:44:15.641Z,english_431.wav,0,1,550,,,,,0,0,-28.91437381,1.3282391
TYT,187,3,2024-06-13T14:44:15.641Z,english_431.wav,0,1,550,,,,,1,0.1,30.6479342,1.9405757
TYT,187,3,2024-06-13T14:44:15.641Z,english_431.wav,0,1,550,,,,,2,0.2,41.25713347,1.67607787
TYT,187,3,2024-06-13T14:44:15.641Z,english_431.wav,0,1,550,,,,,3,0.3,9.19018397,0.62213613
TYT,187,3,2024-06-13T14:44:15.641Z,english_431.wav,0,1,550,,,,,4,0.32341667,-61.77590044,0.50881411
TYT,188,3,2024-06-13T14:44:15.641Z,english_866.wav,0,0,668,,,,,0,0,-75.90204766,0.10539101
TYT,188,3,2024-06-13T14:44:15.641Z,english_866.wav,0,0,668,,,,,1,0.1,-89.66881049,1.63294926
TYT,188,3,2024-06-13T14:44:15.641Z,english_866.wav,0,0,668,,,,,2,0.2,-86.78535298,0.21421971
TYT,188,3,2024-06-13T14:44:15.641Z,english_866.wav,0,0,668,,,,,3,0.3,50.96369643,1.47001367
TYT,188,3,2024-06-13T14:44:15.641Z,english_866.wav,0,0,668,,,,,4,0.32341667,36.94157773,1.56453662
TYT,189,3,2024-06-13T14:44:15.641Z,english_32.wav,0,0,470,,,,,0,0,89.50349963,1.73304916
TYT,189,3,2024-06-13T14:44:15.641Z,english_32.wav,0,0,470,,,,,1,0.1,51.51128255,0.02192789
TYT,189,3,2024-06-13T14:44:15.641Z,english_32.wav,0,0,470,,,,,2,0.2,-58.32910347,1.71493142
TYT,189,3,2024-06-13T14:44:15.641Z,english_32.wav,0,0,470,,,,,3,0.3,15.96172744,1.28451373
TYT,189,3,2024-06-13T14:44:15.641Z,english_32.wav,0,0,470,,,,,4,0.32341667,84.40449403,1.22971166
TYT,190,3,2024-06-13T14:44:15.641Z,english_303.wav,0,0,649,,,,,0,0,67.00540241,1.22520816
TYT,190,3,2024-06-13T14:44:15.641Z,english_303.wav,0,0,649,,,,,1,0.1,32.95821842,1.22732479
TYT,190,3,2024-06-13T14:44:15.641Z,english_303.wav,0,0,649,,,,,2,0.2,-23.67517146,0.54923068
TYT,190,3,2024-06-13T14:44:15.641Z,english_303.wav,0,0,649,,,,,3,0.3,-66.94926695,0.8977578
TYT,190,3,2024-06-13T14:44:15.641Z,english_303.wav,0,0,649,,,,,4,0.32341667,65.71723135,1.41807679
TYT,191,3,2024-06-13T14:44:15.641Z,english_69.wav,0,0,510,,,,,0,0,-57.18730239,0.11878381
TYT,191,3,2024-06-13T14:44:15.641Z,english_69.wav,0,0,510,,,,,1,0.1,16.22212469,1.00797921
TYT,191,3,2024-06-13T14:44:15.641Z,english_69.wav,0,0,510,,,,,2,0.2,-44.28071093,0.42082068
TYT,191,3,2024-06-13T14:44:15.641Z,english_69.wav,0,0,510,,,,,3,0.3,-70.80378082,0.50205716
TYT,191,3,2024-06-13T14:44:15.641Z,english_69.wav,0,0,510,,,,,4,0.32341667,-58.3439892,0.68985838
TYT,192,3,2024-06-13T14:44:15.641Z,english_23.wav,0,1,461,,,,,0,0,-50.80982819,0.58244855
TYT,192,3,2024-06-13T14:44:15.641Z,english_23.wav,0,1,461,,,,,1,0.1,76.10516215,1.77510268
TYT,192,3,2024-06-13T14:44:15.641Z,english_23.wav,0,1,461,,,,,2,0.2,-90.32463898,0.60847707
TYT,192,3,2024-06-13T14:44:15.641Z,english_23.wav,0,1,461,,,,,3,0.3,15.76928166,0.62114149
TYT,192,3,2024-06-13T14:44:15.641Z,english_23.wav,0,1,461,,,,,4,0.32341667,-7.56392806,1.60162938
TYT,193,3,2024-06-13T14:44:15.641Z,english_782.wav,0,0,585,,,,,0,0,-98.70381677,1.47488053
TYT,193,3,2024-06-13T14:44:15.641Z,english_782.wav,0,0,585,,,,,1,0.1,-69.82387258,0.7270016
TYT,193,3,2024-06-13T14:44:15.641Z,english_782.wav,0,0,585,,,,,2,0.2,35.26613747,0.08778447
TYT,193,3,2024-06-13T14:44:15.641Z,english_782.wav,0,0,585,,,,,3,0.3,-81.38004879,1.16903228
TYT,193,3,2024-06-13T14:44:15.641Z,english_782.wav,0,0,585,,,,,4,0.32341667,-61.83067014,0.92727902
TYT,194,3,2024-06-13T14:44:15.641Z,english_895.wav,0,1,502,,,,,0,0,-36.05432491,1.57991636
TYT,194,3,2024-06-13T14:44:15.641Z,english_895.wav,0,1,502,,,,,1,0.1,0.27991529,1.29141926
TYT,194,3,2024-06-13T14:44:15.641Z,english_895.wav,0,1,502,,,,,2,0.2,-68.50060493,0.78617821
TYT,194,3,2024-06-13T14:44:15.641Z,english_895.wav,0,1,502,,,,,3,0.3,-65.34452755,0.53071912
TYT,194,3,2024-06-13T14:44:15.641Z,english_895.wav,0,1,502,,,,,4,0.32341667,44.30205494,1.44568828
TYT,195,3,2024-06-13T14:44:15.641Z,english_432.wav,0,1,652,,,,,0,0,34.04923955,0.51661687
TYT,195,3,2024-06-13T14:44:15.641Z,english_432.wav,0,1,652,,,,,1,0.1,-20.16773507,0.2259012
TYT,195,3,2024-06-13T14:44:15.641Z,english_432.wav,0,1,652,,,,,2,0.2,58.06800811,1.98214485
TYT,195,3,2024-06-13T14:44:15.641Z,english_432.wav,0,1,652,,,,,3,0.3,46.82268278,1.23025235
TYT,195,3,2024-06-13T14:44:15.641Z,english_432.wav,0,1,652,,,,,4,0.32341667,16.04458546,1.72803009
TYT,196,3,2024-06-13T14:44:15.641Z,english_350.wav,0,0,448,,,,,0,0,97.64268741,0.61487918
TYT,196,3,2024-06-13T14:44:15.641Z,english_350.wav,0,0,448,,,,,1,0.1,23.96704837,0.40988424
TYT,196,3,2024-06-13T14:44:15.641Z,english_350.wav,0,0,448,,,,,2,0.2,50.30792237,0.86872158
TYT,196,3,2024-06-13T14:44:15.641Z,english_350.wav,0,0,448,,,,,3,0.3,71.77937185,1.01783109
TYT,196,3,2024-06-13T14:44:15.641Z,english_350.wav,0,0,448,,,,,4,0.32341667,-64.81416361,0.68761283
TYT,197,3,2024-06-13T14:44:15.641Z,english_579.wav,0,1,680,,,,,0,0,78.52989573,1.74799876
TYT,197,3,2024-06-13T14:44:15.641Z,english_579.wav,0,1,680,,,,,1,0.1,-26.17758211,0.36264633
TYT,197,3,2024-06-13T14:44:15.641Z,english_579.wav,0,1,680,,,,,2,0.2,-65.60231522,1.15645327
TYT,197,3,2024-06-13T14:44:15.641Z,english_579.wav,0,1,680,,,,,3,0.3,-66.03357835,1.81639149
TYT,197,3,2024-06-13T14:44:15.641Z,english_579.wav,0,1,680,,,,,4,0.32341667,-36.23940811,1.38509752
TYT,198,3,2024-06-13T14:44:15.641Z,english_194.wav,0,1,985,,,,,0,0,46.99725025,0.38230397
TYT,198,3,2024-06-13T14:44:15.641Z,english_194.wav,0,1,985,,,,,1,0.1,-37.20381284,1.33246395
TYT,198,3,2024-06-13T14:44:15.641Z,english_194.wav,0,1,985,,,,,2,0.2,13.86947558,1.31276464
TYT,198,3,2024-06-13T14:44:15.641Z,english_194.wav,0,1,985,,,,,3,0.3,79.77232086,0.22397005
TYT,198,3,2024-06-13T14:44:15.641Z,english_194.wav,0,1,985,,,,,4,0.32341667,49.46244041,1.74931967
TYT,199,3,2024-06-13T14:44:15.641Z,english_30.wav,0,1,439,,,,,0,0,-18.5398728,0.31748681
TYT,199,3,2024-06-13T14:44:15.641Z,english_30.wav,0,1,439,,,,,1,0.1,-67.34991207,1.82477139
TYT,199,3,2024-06-13T14:44:15.641Z,english_30.wav,0,1,439,,,,,2,0.2,65.54879707,1.59992979
TYT,199,3,2024-06-13T14:44:15.641Z,english_30.wav,0,1,439,,,,,3,0.3,30.88088319,0.89523729
TYT,199,3,2024-06-13T14:44:15.641Z,english_30.wav,0,1,439,,,,,4,0.32341667,50.60550813,1.02052202
TYT,200,4,2024-06-13T14:44:15.641Z,english_821.wav,0,1,361,,,,,0,0,-4.04234253,1.62928948
TYT,200,4,2024-06-13T14:44:15.641Z,english_821.wav,0,1,361,,,,,1,0.1,50.39518932,0.78033958
TYT,200,4,2024-06-13T14:44:15.641Z,english_821.wav,0,1,361,,,,,2,0.2,58.18996785,1.56476115
TYT,200,4,2024-06-13T14:44:15.641Z,english_821.wav,0,1,361,,,,,3,0.3,-22.07293427,0.56557752
TYT,200,4,2024-06-13T14:44:15.641Z,english_821.wav,0,1,361,,,,,4,0.32341667,56.43229939,0.93389964
TYT,201,4,2024-06-13T14:44:15.641Z,english_876.wav,0,0,589,,,,,0,0,-20.36884991,0.97958319
TYT,201,4,2024-06-13T14:44:15.641Z,english_876.wav,0,0,589,,,,,1,0.1,-12.16725052,0.93484439
TYT,201,4,2024-06-13T14:44:15.641Z,english_876.wav,0,0,589,,,,,2,0.2,-26.42868614,0.43422731
TYT,201,4,2024-06-13T14:44:15.641Z,english_876.wav,0,0,589,,,,,3,0.3,-15.16942384,0.12359811
TYT,201,4,2024-06-13T14:44:15.641Z,english_876.wav,0,0,589,,,,,4,0.32341667,-52.65446315,1.31629037
TYT,202,4,2024-06-13T14:44:15.641Z,english_587.wav,0,0,673,,,,,0,0,-33.32102811,0.7972352
TYT,202,4,2024-06-13T14:44:15.641Z,english_587.wav,0,0,673,,,,,1,0.1,46.1287001,1.97425238
TYT,202,4,2024-06-13T14:44:15.641Z,english_587.wav,0,0,673,,,,,2,0.2,-62.23894368,0.99609006
TYT,202,4,2024-06-13T14:44:15.641Z,english_587.wav,0,0,673,,,,,3,0.3,36.67711132,1.18577707
TYT,202,4,2024-06-13T14:44:15.641Z,english_587.wav,0,0,673,,,,,4,0.32341667,-11.53320103,1.64089558
TYT,203,4,2024-06-13T14:44:15.641Z,english_173.wav,0,1,1185,,,,,0,0,11.1251521,0.60172576
TYT,203,4,2024-06-13T14:44:15.641Z,english_173.wav,0,1,1185,,,,,1,0.1,94.22411188,0.44802145
TYT,203,4,2024-06-13T14:44:15.641Z,english_173.wav,0,1,1185,,,,,2,0.2,89.44753043,1.27552997
TYT,203,4,2024-06-13T14:44:15.641Z,english_173.wav,0,1,1185,,,,,3,0.3,74.30769895,1.09756939
TYT,203,4,2024-06-13T14:44:15.641Z,english_173.wav,0,1,1185,,,,,4,0.32341667,-37.47679669,0.7907315
TYT,204,4,2024-06-13T14:44:15.641Z,english_46.wav,0,1,748,,,,,0,0,-29.32250151,0.64118776
TYT,204,4,2024-06-13T14:44:15.641Z,english_46.wav,0,1,748,,,,,1,0.1,-3.06808063,0.73649566
TYT,204,4,2024-06-13T14:44:15.641Z,english_46.wav,0,1,748,,,,,2,0.2,90.97923358,1.88790792
TYT,204,4,2024-06-13T14:44:15.641Z,english_46.wav,0,1,748,,,,,3,0.3,10.7462216,0.26788582
TYT,204,4,2024-06-13T14:44:15.641Z,english_46.wav,0,1,748,,,,,4,0.32341667,-76.74347892,0.543593
TYT,205,4,2024-06-13T14:44:15.641Z,english_262.wav,0,1,805,,,,,0,0,-55.0240476,0.91992097
TYT,205,4,2024-06-13T14:44:15.641Z,english_262.wav,0,1,805,,,,,1,0.1,46.31562141,0.94194362
TYT,205,4,2024-06-13T14:44:15.641Z,english_262.wav,0,1,805,,,,,2,0.2,62.5855756,1.80305422
TYT,205,4,2024-06-13T14:44:15.641Z,english_262.wav,0,1,805,,,,,3,0.3,-4.25909078,0.51544707
TYT,205,4,2024-06-13T14:44:15.641Z,english_262.wav,0,1,805,,,,,4,0.32341667,16.27030636,1.47198659
TYT,206,4,2024-06-13T14:44:15.641Z,english_123.wav,0,1,834,,,,,0,0,67.91608163,1.13046919
TYT,206,4,2024-06-13T14:44:15.641Z,english_123.wav,0,1,834,,,,,1,0.1,-92.32097988,1.99597614
TYT,206,4,2024-06-13T14:44:15.641Z,english_123.wav,0,1,834,,,,,2,0.2,57.07371841,1.53523853
TYT,206,4,2024-06-13T14:44:15.641Z,english_123.wav,0,1,834,,,,,3,0.3,19.28317816,0.24385811
TYT,206,4,2024-06-13T14:44:15.641Z,english_123.wav,0,1,834,,,,,4,0.32341667,15.30546887,0.39158976
TYT,207,4,2024-06-13T14:44:15.641Z,english_184.wav,0,1,407,,,,,0,0,29.65201825,1.69567788
TYT,207,4,2024-06-13T14:44:15.641Z,english_184.wav,0,1,407,,,,,1,0.1,16.48348791,1.26735627
TYT,207,4,2024-06-13T14:44:15.641Z,english_184.wav,0,1,407,,,,,2,0.2,3.77448983,0.95352895
TYT,207,4,2024-06-13T14:44:15.641Z,english_184.wav,0,1,407,,,,,3,0.3,62.87502431,1.7991474
TYT,207,4,2024-06-13T14:44:15.641Z,english_184.wav,0,1,407,,,,,4,0.32341667,-8.82418577,0.98992659
TYT,208,4,2024-06-13T14:44:15.641Z,english_535.wav,0,1,574,,,,,0,0,-5.32882057,0.21055966
TYT,208,4,2024-06-13T14:44:15.641Z,english_535.wav,0,1,574,,,,,1,0.1,-34.98045039,0.89683134
TYT,208,4,2024-06-13T14:44:15.641Z,english_535.wav,0,1,574,,,,,2,0.2,30.10834221,1.11178172
TYT,208,4,2024-06-13T14:44:15.641Z,english_535.wav,0,1,574,,,,,3,0.3,-70.22542568,0.20123235
TYT,208,4,2024-06-13T14:44:15.641Z,english_535.wav,0,1,574,,,,,4,0.32341667,-73.0016054,0.99564794
TYT,209,4,2024-06-13T14:44:15.641Z,english_577.wav,0,0,367,,,,,0,0,0.60742169,1.18439754
TYT,209,4,2024-06-13T14:44:15.641Z,english_577.wav,0,0,367,,,,,1,0.1,-16.75441018,1.17258894
TYT,209,4,2024-06-13T14:44:15.641Z,english_577.wav,0,0,367,,,,,2,0.2,32.29278586,0.00832478
TYT,209,4,2024-06-13T14:44:15.641Z,english_577.wav,0,0,367,,,,,3,0.3,94.63733595,1.24529525
TYT,209,4,2024-06-13T14:44:15.641Z,english_577.wav,0,0,367,,,,,4,0.32341667,-75.78119055,0.24980342
TYT,210,4,2024-06-13T14:44:15.641Z,english_464.wav,0,0,480,,,,,0,0,53.08614354,0.76512863
TYT,210,4,2024-06-13T14:44:15.641Z,english_464.wav,0,0,480,,,,,1,0.1,30.21863436,1.75958979
TYT,210,4,2024-06-13T14:44:15.641Z,english_464.wav,0,0,480,,,,,2,0.2,-72.79337117,0.91412587
TYT,210,4,2024-06-13T14:44:15.641Z,english_464.wav,0,0,480,,,,,3,0.3,91.0452741,1.02089091
TYT,210,4,2024-06-13T14:44:15.641Z,english_464.wav,0,0,480,,,,,4,0.32341667,-31.40181873,1.37846458
TYT,211,4,2024-06-13T14:44:15.641Z,english_252.wav,0,1,343,,,,,0,0,79.75601627,0.77799761
TYT,211,4,2024-06-13T14:44:15.641Z,english_252.wav,0,1,343,,,,,1,0.1,17.00183399,1.07711339
TYT,211,4,2024-06-13T14:44:15.641Z,english_252.wav,0,1,343,,,,,2,0.2,-25.42800597,0.7917181
TYT,211,4,2024-06-13T14:44:15.641Z,english_252.wav,0,1,343,,,,,3,0.3,-47.65138194,1.47632881
TYT,211,4,2024-06-13T14:44:15.641Z,english_252.wav,0,1,343,,,,,4,0.32341667,35.10652067,1.65919103
TYT,212,4,2024-06-13T14:44:15.641Z,english_531.wav,0,1,425,,,,,0,0,-79.40575395,0.23141906
TYT,212,4,2024-06-13T14:44:15.641Z,english_531.wav,0,1,425,,,,,1,0.1,24.69139357,1.34739197
TYT,212,4,2024-06-13T14:44:15.641Z,english_531.wav,0,1,425,,,,,2,0.2,31.85465478,0.44473315
TYT,212,4,2024-06-13T14:44:15.641Z,english_531.wav,0,1,425,,,,,3,0.3,0.37788074,1.31624907
TYT,212,4,2024-06-13T14:44:15.641Z,english_531.wav,0,1,425,,,,,4,0.32341667,-42.85922685,0.82105614
TYT,213,4,2024-06-13T14:44:15.641Z,english_107.wav,0,1,529,,,,,0,0,-19.24931684,0.69122185
TYT,213,4,2024-06-13T14:44:15.641Z,english_107.wav,0,1,529,,,,,1,0.1,24.04874113,0.13674094
TYT,213,4,2024-06-13T14:44:15.641Z,english_107.wav,0,1,529,,,,,2,0.2,59.01955179,1.47608642
TYT,213,4,2024-06-13T14:44:15.641Z,english_107.wav,0,1,529,,,,,3,0.3,49.74315823,1.52525824
TYT,213,4,2024-06-13T14:44:15.641Z,english_107.wav,0,1,529,,,,,4,0.32341667,-75.23844627,0.11985114
TYT,214,4,2024-06-13T14:44:15.641Z,english_781.wav,0,1,410,,,,,0,0,22.64916165,0.31928057
TYT,214,4,2024-06-13T14:44:15.641Z,english_781.wav,0,1,410,,,,,1,0.1,6.89582518,1.4040275
TYT,214,4,2024-06-13T14:44:15.641Z,english_781.wav,0,1,410,,,,,2,0.2,-79.07711894,0.86558079
TYT,214,4,2024-06-13T14:44:15.641Z,english_781.wav,0,1,410,,,,,3,0.3,66.534152,0.14510309
TYT,214,4,2024-06-13T14:44:15.641Z,english_781.wav,0,1,410,,,,,4,0.32341667,93.30494506,0.79620595
TYT,215,4,2024-06-13T14:44:15.641Z,english_373.wav,0,1,341,,,,,0,0,-63.66458186,0.61104768
TYT,215,4,2024-06-13T14:44:15.641Z,english_373.wav,0,1,341,,,,,1,0.1,-61.42386056,1.64905001
