subj,trial,block,date,stim,stim_order,response,rt,age,english,language,sex,param_index,segment_time,pitch,stretch
WWH,0,0,2024-06-13T06:29:48.500Z,english_511.wav,0,0,6814,21.0,2.0,Chinese,f,0,0.0,-54.05076571,1.68448531
WWH,0,0,2024-06-13T06:29:48.500Z,english_511.wav,0,0,6814,21.0,2.0,Chinese,f,1,0.1,58.21305336,0.64957271
WWH,0,0,2024-06-13T06:29:48.500Z,english_511.wav,0,0,6814,21.0,2.0,Chinese,f,2,0.2,93.28984864,1.47534814
WWH,0,0,2024-06-13T06:29:48.500Z,english_511.wav,0,0,6814,21.0,2.0,Chinese,f,3,0.3,-93.08437199,1.38615571
WWH,0,0,2024-06-13T06:29:48.500Z,english_511.wav,0,0,6814,21.0,2.0,Chinese,f,4,0.32341667,48.49476441,0.71972648
WWH,1,0,2024-06-13T06:29:48.500Z,english_875.wav,0,0,5607,21.0,2.0,Chinese,f,0,0.0,-72.29566874,0.47412948
WWH,1,0,2024-06-13T06:29:48.500Z,english_875.wav,0,0,5607,21.0,2.0,Chinese,f,1,0.1,40.49821439,0.97105678
WWH,1,0,2024-06-13T06:29:48.500Z,english_875.wav,0,0,5607,21.0,2.0,Chinese,f,2,0.2,61.66936014,1.31175081
WWH,1,0,2024-06-13T06:29:48.500Z,english_875.wav,0,0,5607,21.0,2.0,Chinese,f,3,0.3,36.92950197,0.55015514
WWH,1,0,2024-06-13T06:29:48.500Z,english_875.wav,0,0,5607,21.0,2.0,Chinese,f,4,0.32341667,61.03530789,1.23529794
WWH,2,0,2024-06-13T06:29:48.500Z,english_562.wav,0,0,4565,21.0,2.0,Chinese,f,0,0.0,-40.22672309,0.64031882
WWH,2,0,2024-06-13T06:29:48.500Z,english_562.wav,0,0,4565,21.0,2.0,Chinese,f,1,0.1,77.961849,0.7637006
WWH,2,0,2024-06-13T06:29:48.500Z,english_562.wav,0,0,4565,21.0,2.0,Chinese,f,2,0.2,25.52463525,0.87632482
WWH,2,0,2024-06-13T06:29:48.500Z,english_562.wav,0,0,4565,21.0,2.0,Chinese,f,3,0.3,84.62788358,0.98972612
WWH,2,0,2024-06-13T06:29:48.500Z,english_562.wav,0,0,4565,21.0,2.0,Chinese,f,4,0.32341667,-53.67427145,0.74010285
WWH,3,0,2024-06-13T06:29:48.500Z,english_317.wav,0,1,1989,21.0,2.0,Chinese,f,0,0.0,-26.75650792,1.75672771
WWH,3,0,2024-06-13T06:29:48.500Z,english_317.wav,0,1,1989,21.0,2.0,Chinese,f,1,0.1,9.07297032,1.82949168
WWH,3,0,2024-06-13T06:29:48.500Z,english_317.wav,0,1,1989,21.0,2.0,Chinese,f,2,0.2,17.58512652,1.6954519
WWH,3,0,2024-06-13T06:29:48.500Z,english_317.wav,0,1,1989,21.0,2.0,Chinese,f,3,0.3,29.57201507,0.7122411
WWH,3,0,2024-06-13T06:29:48.500Z,english_317.wav,0,1,1989,21.0,2.0,Chinese,f,4,0.32341667,56.4667582,1.26753728
WWH,4,0,2024-06-13T06:29:48.500Z,english_255.wav,0,0,5703,21.0,2.0,Chinese,f,0,0.0,-42.74550593,1.65518669
WWH,4,0,2024-06-13T06:29:48.500Z,english_255.wav,0,0,5703,21.0,2.0,Chinese,f,1,0.1,35.44578771,1.85823386
WWH,4,0,2024-06-13T06:29:48.500Z,english_255.wav,0,0,5703,21.0,2.0,Chinese,f,2,0.2,98.7346041,1.2123315
WWH,4,0,2024-06-13T06:29:48.500Z,english_255.wav,0,0,5703,21.0,2.0,Chinese,f,3,0.3,14.08839822,0.62099519
WWH,4,0,2024-06-13T06:29:48.500Z,english_255.wav,0,0,5703,21.0,2.0,Chinese,f,4,0.32341667,-55.38739786,1.08486436
WWH,5,0,2024-06-13T06:29:48.500Z,english_415.wav,0,0,5536,21.0,2.0,Chinese,f,0,0.0,36.00223879,1.49199547
WWH,5,0,2024-06-13T06:29:48.500Z,english_415.wav,0,0,5536,21.0,2.0,Chinese,f,1,0.1,-82.63332374,1.79959711
WWH,5,0,2024-06-13T06:29:48.500Z,english_415.wav,0,0,5536,21.0,2.0,Chinese,f,2,0.2,57.55038703,0.64689267
WWH,5,0,2024-06-13T06:29:48.500Z,english_415.wav,0,0,5536,21.0,2.0,Chinese,f,3,0.3,-9.83064734,0.31881377
WWH,5,0,2024-06-13T06:29:48.500Z,english_415.wav,0,0,5536,21.0,2.0,Chinese,f,4,0.32341667,-29.78573939,0.18568486
WWH,6,0,2024-06-13T06:29:48.500Z,english_564.wav,0,1,2952,21.0,2.0,Chinese,f,0,0.0,-4.16228192,1.35245187
WWH,6,0,2024-06-13T06:29:48.500Z,english_564.wav,0,1,2952,21.0,2.0,Chinese,f,1,0.1,-8.38376801,0.24798142
WWH,6,0,2024-06-13T06:29:48.500Z,english_564.wav,0,1,2952,21.0,2.0,Chinese,f,2,0.2,52.82752554,1.26376743
WWH,6,0,2024-06-13T06:29:48.500Z,english_564.wav,0,1,2952,21.0,2.0,Chinese,f,3,0.3,-92.64870354,0.73548171
WWH,6,0,2024-06-13T06:29:48.500Z,english_564.wav,0,1,2952,21.0,2.0,Chinese,f,4,0.32341667,-48.86146536,0.1394123
WWH,7,0,2024-06-13T06:29:48.500Z,english_804.wav,0,0,16536,21.0,2.0,Chinese,f,0,0.0,11.23319328,0.16159815
WWH,7,0,2024-06-13T06:29:48.500Z,english_804.wav,0,0,16536,21.0,2.0,Chinese,f,1,0.1,-75.15189859,1.76023076
WWH,7,0,2024-06-13T06:29:48.500Z,english_804.wav,0,0,16536,21.0,2.0,Chinese,f,2,0.2,5.39397939,0.7355024
WWH,7,0,2024-06-13T06:29:48.500Z,english_804.wav,0,0,16536,21.0,2.0,Chinese,f,3,0.3,42.92141331,1.74636497
WWH,7,0,2024-06-13T06:29:48.500Z,english_804.wav,0,0,16536,21.0,2.0,Chinese,f,4,0.32341667,-79.84726866,1.05562007
WWH,8,0,2024-06-13T06:29:48.500Z,english_559.wav,0,1,5861,21.0,2.0,Chinese,f,0,0.0,72.91796617,0.28347303
WWH,8,0,2024-06-13T06:29:48.500Z,english_559.wav,0,1,5861,21.0,2.0,Chinese,f,1,0.1,49.0763932,0.33705515
WWH,8,0,2024-06-13T06:29:48.500Z,english_559.wav,0,1,5861,21.0,2.0,Chinese,f,2,0.2,37.36372944,1.25665906
WWH,8,0,2024-06-13T06:29:48.500Z,english_559.wav,0,1,5861,21.0,2.0,Chinese,f,3,0.3,62.8744144,0.42135622
WWH,8,0,2024-06-13T06:29:48.500Z,english_559.wav,0,1,5861,21.0,2.0,Chinese,f,4,0.32341667,-70.24316133,0.44445559
WWH,9,0,2024-06-13T06:29:48.500Z,english_902.wav,0,0,4238,21.0,2.0,Chinese,f,0,0.0,-4.27617126,0.16330526
WWH,9,0,2024-06-13T06:29:48.500Z,english_902.wav,0,0,4238,21.0,2.0,Chinese,f,1,0.1,-5.01127315,0.62492789
WWH,9,0,2024-06-13T06:29:48.500Z,english_902.wav,0,0,4238,21.0,2.0,Chinese,f,2,0.2,83.22080084,1.08638924
WWH,9,0,2024-06-13T06:29:48.500Z,english_902.wav,0,0,4238,21.0,2.0,Chinese,f,3,0.3,77.56473772,1.61764227
WWH,9,0,2024-06-13T06:29:48.500Z,english_902.wav,0,0,4238,21.0,2.0,Chinese,f,4,0.32341667,-13.02741535,1.72075309
WWH,10,0,2024-06-13T06:29:48.500Z,english_867.wav,0,1,3919,21.0,2.0,Chinese,f,0,0.0,9.0283109,0.25019481
WWH,10,0,2024-06-13T06:29:48.500Z,english_867.wav,0,1,3919,21.0,2.0,Chinese,f,1,0.1,6.96107974,0.62311927
WWH,10,0,2024-06-13T06:29:48.500Z,english_867.wav,0,1,3919,21.0,2.0,Chinese,f,2,0.2,14.88339172,1.78918939
WWH,10,0,2024-06-13T06:29:48.500Z,english_867.wav,0,1,3919,21.0,2.0,Chinese,f,3,0.3,-2.73093064,1.34945049
WWH,10,0,2024-06-13T06:29:48.500Z,english_867.wav,0,1,3919,21.0,2.0,Chinese,f,4,0.32341667,-85.27526638,0.75720604
WWH,11,0,2024-06-13T06:29:48.500Z,english_27.wav,0,1,4924,21.0,2.0,Chinese,f,0,0.0,-6.18374659,1.89085405
WWH,11,0,2024-06-13T06:29:48.500Z,english_27.wav,0,1,4924,21.0,2.0,Chinese,f,1,0.1,32.21095844,0.80138328
WWH,11,0,2024-06-13T06:29:48.500Z,english_27.wav,0,1,4924,21.0,2.0,Chinese,f,2,0.2,21.02729748,1.01248602
WWH,11,0,2024-06-13T06:29:48.500Z,english_27.wav,0,1,4924,21.0,2.0,Chinese,f,3,0.3,4.79829383,1.67412938
WWH,11,0,2024-06-13T06:29:48.500Z,english_27.wav,0,1,4924,21.0,2.0,Chinese,f,4,0.32341667,-70.7577659,0.3387802
WWH,12,0,2024-06-13T06:29:48.500Z,english_99.wav,0,0,2036,21.0,2.0,Chinese,f,0,0.0,9.75149611,0.79411887
WWH,12,0,2024-06-13T06:29:48.500Z,english_99.wav,0,0,2036,21.0,2.0,Chinese,f,1,0.1,-7.37998228,0.53064308
WWH,12,0,2024-06-13T06:29:48.500Z,english_99.wav,0,0,2036,21.0,2.0,Chinese,f,2,0.2,29.15889261,0.10254027
WWH,12,0,2024-06-13T06:29:48.500Z,english_99.wav,0,0,2036,21.0,2.0,Chinese,f,3,0.3,-23.23230809,0.53999741
WWH,12,0,2024-06-13T06:29:48.500Z,english_99.wav,0,0,2036,21.0,2.0,Chinese,f,4,0.32341667,51.25937721,0.74302856
WWH,13,0,2024-06-13T06:29:48.500Z,english_300.wav,0,1,3955,21.0,2.0,Chinese,f,0,0.0,-57.32903368,1.31106943
WWH,13,0,2024-06-13T06:29:48.500Z,english_300.wav,0,1,3955,21.0,2.0,Chinese,f,1,0.1,-14.80176218,1.36432179
WWH,13,0,2024-06-13T06:29:48.500Z,english_300.wav,0,1,3955,21.0,2.0,Chinese,f,2,0.2,17.32090115,1.9756976
WWH,13,0,2024-06-13T06:29:48.500Z,english_300.wav,0,1,3955,21.0,2.0,Chinese,f,3,0.3,9.38584248,1.38621255
WWH,13,0,2024-06-13T06:29:48.500Z,english_300.wav,0,1,3955,21.0,2.0,Chinese,f,4,0.32341667,-54.58865419,1.60203422
WWH,14,0,2024-06-13T06:29:48.500Z,english_668.wav,0,1,6463,21.0,2.0,Chinese,f,0,0.0,48.8265236,0.43768829
WWH,14,0,2024-06-13T06:29:48.500Z,english_668.wav,0,1,6463,21.0,2.0,Chinese,f,1,0.1,97.68090991,0.31983773
WWH,14,0,2024-06-13T06:29:48.500Z,english_668.wav,0,1,6463,21.0,2.0,Chinese,f,2,0.2,47.50182685,1.24438546
WWH,14,0,2024-06-13T06:29:48.500Z,english_668.wav,0,1,6463,21.0,2.0,Chinese,f,3,0.3,81.7432518,0.49120307
WWH,14,0,2024-06-13T06:29:48.500Z,english_668.wav,0,1,6463,21.0,2.0,Chinese,f,4,0.32341667,28.08178094,0.60639718
WWH,15,0,2024-06-13T06:29:48.500Z,english_809.wav,0,1,1432,21.0,2.0,Chinese,f,0,0.0,-9.08149959,0.73203403
WWH,15,0,2024-06-13T06:29:48.500Z,english_809.wav,0,1,1432,21.0,2.0,Chinese,f,1,0.1,12.16544582,0.53159531
WWH,15,0,2024-06-13T06:29:48.500Z,english_809.wav,0,1,1432,21.0,2.0,Chinese,f,2,0.2,40.52205867,1.48114639
WWH,15,0,2024-06-13T06:29:48.500Z,english_809.wav,0,1,1432,21.0,2.0,Chinese,f,3,0.3,-94.19679153,1.77078339
WWH,15,0,2024-06-13T06:29:48.500Z,english_809.wav,0,1,1432,21.0,2.0,Chinese,f,4,0.32341667,-5.82752377,1.36117577
WWH,16,0,2024-06-13T06:29:48.500Z,english_232.wav,0,0,1357,21.0,2.0,Chinese,f,0,0.0,15.13134779,0.53160298
WWH,16,0,2024-06-13T06:29:48.500Z,english_232.wav,0,0,1357,21.0,2.0,Chinese,f,1,0.1,-49.29605083,0.4519978
WWH,16,0,2024-06-13T06:29:48.500Z,english_232.wav,0,0,1357,21.0,2.0,Chinese,f,2,0.2,59.10606455,0.39260156
WWH,16,0,2024-06-13T06:29:48.500Z,english_232.wav,0,0,1357,21.0,2.0,Chinese,f,3,0.3,48.81708847,0.4692084
WWH,16,0,2024-06-13T06:29:48.500Z,english_232.wav,0,0,1357,21.0,2.0,Chinese,f,4,0.32341667,14.83590121,0.46233459
WWH,17,0,2024-06-13T06:29:48.500Z,english_221.wav,0,1,1602,21.0,2.0,Chinese,f,0,0.0,85.84184869,1.38100565
WWH,17,0,2024-06-13T06:29:48.500Z,english_221.wav,0,1,1602,21.0,2.0,Chinese,f,1,0.1,-20.37513589,0.79531516
WWH,17,0,2024-06-13T06:29:48.500Z,english_221.wav,0,1,1602,21.0,2.0,Chinese,f,2,0.2,-89.75984637,0.9538446
WWH,17,0,2024-06-13T06:29:48.500Z,english_221.wav,0,1,1602,21.0,2.0,Chinese,f,3,0.3,50.66879934,1.56492426
WWH,17,0,2024-06-13T06:29:48.500Z,english_221.wav,0,1,1602,21.0,2.0,Chinese,f,4,0.32341667,20.92538743,1.60855456
WWH,18,0,2024-06-13T06:29:48.500Z,english_214.wav,0,0,2940,21.0,2.0,Chinese,f,0,0.0,58.82847816,1.81864401
WWH,18,0,2024-06-13T06:29:48.500Z,english_214.wav,0,0,2940,21.0,2.0,Chinese,f,1,0.1,87.26801489,0.97241975
WWH,18,0,2024-06-13T06:29:48.500Z,english_214.wav,0,0,2940,21.0,2.0,Chinese,f,2,0.2,-28.10234025,1.91423566
WWH,18,0,2024-06-13T06:29:48.500Z,english_214.wav,0,0,2940,21.0,2.0,Chinese,f,3,0.3,-36.12188516,1.71940232
WWH,18,0,2024-06-13T06:29:48.500Z,english_214.wav,0,0,2940,21.0,2.0,Chinese,f,4,0.32341667,-45.93983978,0.68694042
WWH,19,0,2024-06-13T06:29:48.500Z,english_436.wav,0,0,1811,21.0,2.0,Chinese,f,0,0.0,58.73131257,0.30497449
WWH,19,0,2024-06-13T06:29:48.500Z,english_436.wav,0,0,1811,21.0,2.0,Chinese,f,1,0.1,65.29204538,1.04665744
WWH,19,0,2024-06-13T06:29:48.500Z,english_436.wav,0,0,1811,21.0,2.0,Chinese,f,2,0.2,7.63213906,1.03883923
WWH,19,0,2024-06-13T06:29:48.500Z,english_436.wav,0,0,1811,21.0,2.0,Chinese,f,3,0.3,-2.54756362,0.97345352
WWH,19,0,2024-06-13T06:29:48.500Z,english_436.wav,0,0,1811,21.0,2.0,Chinese,f,4,0.32341667,-11.40614268,0.16121918
WWH,20,0,2024-06-13T06:29:48.500Z,english_612.wav,0,1,2559,21.0,2.0,Chinese,f,0,0.0,-84.32217164,1.34068621
WWH,20,0,2024-06-13T06:29:48.500Z,english_612.wav,0,1,2559,21.0,2.0,Chinese,f,1,0.1,36.55311424,0.03443149
WWH,20,0,2024-06-13T06:29:48.500Z,english_612.wav,0,1,2559,21.0,2.0,Chinese,f,2,0.2,92.38334081,0.45903509
WWH,20,0,2024-06-13T06:29:48.500Z,english_612.wav,0,1,2559,21.0,2.0,Chinese,f,3,0.3,11.68953794,0.60209198
WWH,20,0,2024-06-13T06:29:48.500Z,english_612.wav,0,1,2559,21.0,2.0,Chinese,f,4,0.32341667,43.3279226,0.29533154
WWH,21,0,2024-06-13T06:29:48.500Z,english_633.wav,0,1,2062,21.0,2.0,Chinese,f,0,0.0,-53.72283933,1.23998369
WWH,21,0,2024-06-13T06:29:48.500Z,english_633.wav,0,1,2062,21.0,2.0,Chinese,f,1,0.1,14.71438877,1.35266241
WWH,21,0,2024-06-13T06:29:48.500Z,english_633.wav,0,1,2062,21.0,2.0,Chinese,f,2,0.2,95.18630031,0.66132985
WWH,21,0,2024-06-13T06:29:48.500Z,english_633.wav,0,1,2062,21.0,2.0,Chinese,f,3,0.3,96.89096157,0.52728002
WWH,21,0,2024-06-13T06:29:48.500Z,english_633.wav,0,1,2062,21.0,2.0,Chinese,f,4,0.32341667,8.38596779,1.4824282
WWH,22,0,2024-06-13T06:29:48.500Z,english_228.wav,0,1,1674,21.0,2.0,Chinese,f,0,0.0,10.35680964,1.81276751
WWH,22,0,2024-06-13T06:29:48.500Z,english_228.wav,0,1,1674,21.0,2.0,Chinese,f,1,0.1,-84.53961792,0.9819477
WWH,22,0,2024-06-13T06:29:48.500Z,english_228.wav,0,1,1674,21.0,2.0,Chinese,f,2,0.2,38.41788342,1.68506606
WWH,22,0,2024-06-13T06:29:48.500Z,english_228.wav,0,1,1674,21.0,2.0,Chinese,f,3,0.3,-9.18015311,0.19219142
WWH,22,0,2024-06-13T06:29:48.500Z,english_228.wav,0,1,1674,21.0,2.0,Chinese,f,4,0.32341667,-12.25744947,1.99636764
WWH,23,0,2024-06-13T06:29:48.500Z,english_628.wav,0,1,1223,21.0,2.0,Chinese,f,0,0.0,-19.71295886,0.8960583
WWH,23,0,2024-06-13T06:29:48.500Z,english_628.wav,0,1,1223,21.0,2.0,Chinese,f,1,0.1,-79.294697,1.61949508
WWH,23,0,2024-06-13T06:29:48.500Z,english_628.wav,0,1,1223,21.0,2.0,Chinese,f,2,0.2,-59.93256946,0.65483299
WWH,23,0,2024-06-13T06:29:48.500Z,english_628.wav,0,1,1223,21.0,2.0,Chinese,f,3,0.3,-18.46863719,0.12001531
WWH,23,0,2024-06-13T06:29:48.500Z,english_628.wav,0,1,1223,21.0,2.0,Chinese,f,4,0.32341667,53.30350975,0.85308449
WWH,24,0,2024-06-13T06:29:48.500Z,english_469.wav,0,1,1082,21.0,2.0,Chinese,f,0,0.0,-12.92877168,0.59007764
WWH,24,0,2024-06-13T06:29:48.500Z,english_469.wav,0,1,1082,21.0,2.0,Chinese,f,1,0.1,-67.35237443,1.36577084
WWH,24,0,2024-06-13T06:29:48.500Z,english_469.wav,0,1,1082,21.0,2.0,Chinese,f,2,0.2,-70.76493751,1.86337992
WWH,24,0,2024-06-13T06:29:48.500Z,english_469.wav,0,1,1082,21.0,2.0,Chinese,f,3,0.3,86.785725,1.85233296
WWH,24,0,2024-06-13T06:29:48.500Z,english_469.wav,0,1,1082,21.0,2.0,Chinese,f,4,0.32341667,-36.33255728,1.108986
WWH,25,0,2024-06-13T06:29:48.500Z,english_50.wav,0,1,3363,21.0,2.0,Chinese,f,0,0.0,-72.72872807,1.68140442
WWH,25,0,2024-06-13T06:29:48.500Z,english_50.wav,0,1,3363,21.0,2.0,Chinese,f,1,0.1,-88.33626222,1.82728433
WWH,25,0,2024-06-13T06:29:48.500Z,english_50.wav,0,1,3363,21.0,2.0,Chinese,f,2,0.2,-2.18882928,0.80476824
WWH,25,0,2024-06-13T06:29:48.500Z,english_50.wav,0,1,3363,21.0,2.0,Chinese,f,3,0.3,60.61456424,0.21215651
WWH,25,0,2024-06-13T06:29:48.500Z,english_50.wav,0,1,3363,21.0,2.0,Chinese,f,4,0.32341667,95.28335061,1.87644163
WWH,26,0,2024-06-13T06:29:48.500Z,english_644.wav,0,0,2204,21.0,2.0,Chinese,f,0,0.0,21.57551932,1.87520752
WWH,26,0,2024-06-13T06:29:48.500Z,english_644.wav,0,0,2204,21.0,2.0,Chinese,f,1,0.1,-11.98636437,1.28750901
WWH,26,0,2024-06-13T06:29:48.500Z,english_644.wav,0,0,2204,21.0,2.0,Chinese,f,2,0.2,-86.21942338,0.33708129
WWH,26,0,2024-06-13T06:29:48.500Z,english_644.wav,0,0,2204,21.0,2.0,Chinese,f,3,0.3,-38.98906039,1.53524213
WWH,26,0,2024-06-13T06:29:48.500Z,english_644.wav,0,0,2204,21.0,2.0,Chinese,f,4,0.32341667,-28.58177745,0.3058721
WWH,27,0,2024-06-13T06:29:48.500Z,english_868.wav,0,0,1073,21.0,2.0,Chinese,f,0,0.0,-32.61379415,0.76599538
WWH,27,0,2024-06-13T06:29:48.500Z,english_868.wav,0,0,1073,21.0,2.0,Chinese,f,1,0.1,-13.61007492,0.34348987
WWH,27,0,2024-06-13T06:29:48.500Z,english_868.wav,0,0,1073,21.0,2.0,Chinese,f,2,0.2,-35.23756027,0.26787397
WWH,27,0,2024-06-13T06:29:48.500Z,english_868.wav,0,0,1073,21.0,2.0,Chinese,f,3,0.3,83.12333319,0.46343078
WWH,27,0,2024-06-13T06:29:48.500Z,english_868.wav,0,0,1073,21.0,2.0,Chinese,f,4,0.32341667,62.80865362,1.59158725
WWH,28,0,2024-06-13T06:29:48.500Z,english_620.wav,0,1,1141,21.0,2.0,Chinese,f,0,0.0,-92.9203055,0.43561856
WWH,28,0,2024-06-13T06:29:48.500Z,english_620.wav,0,1,1141,21.0,2.0,Chinese,f,1,0.1,26.7086056,0.24535421
WWH,28,0,2024-06-13T06:29:48.500Z,english_620.wav,0,1,1141,21.0,2.0,Chinese,f,2,0.2,89.1883135,1.34102831
WWH,28,0,2024-06-13T06:29:48.500Z,english_620.wav,0,1,1141,21.0,2.0,Chinese,f,3,0.3,-0.0557738795,1.80103954
WWH,28,0,2024-06-13T06:29:48.500Z,english_620.wav,0,1,1141,21.0,2.0,Chinese,f,4,0.323416667,2.9787243,0.21248525
WWH,29,0,2024-06-13T06:29:48.500Z,english_936.wav,0,1,3336,21.0,2.0,Chinese,f,0,0.0,48.39129511,0.54114143
WWH,29,0,2024-06-13T06:29:48.500Z,english_936.wav,0,1,3336,21.0,2.0,Chinese,f,1,0.1,-60.21618585,1.68728974
WWH,29,0,2024-06-13T06:29:48.500Z,english_936.wav,0,1,3336,21.0,2.0,Chinese,f,2,0.2,21.92845445,1.39155326
WWH,29,0,2024-06-13T06:29:48.500Z,english_936.wav,0,1,3336,21.0,2.0,Chinese,f,3,0.3,72.85258749,0.90488419
WWH,29,0,2024-06-13T06:29:48.500Z,english_936.wav,0,1,3336,21.0,2.0,Chinese,f,4,0.32341667,60.11152814,1.20326098
WWH,30,0,2024-06-13T06:29:48.500Z,english_683.wav,0,1,1672,21.0,2.0,Chinese,f,0,0.0,-73.37543508,1.70409633
WWH,30,0,2024-06-13T06:29:48.500Z,english_683.wav,0,1,1672,21.0,2.0,Chinese,f,1,0.1,66.4080647,1.25556383
WWH,30,0,2024-06-13T06:29:48.500Z,english_683.wav,0,1,1672,21.0,2.0,Chinese,f,2,0.2,46.46812351,0.87554738
WWH,30,0,2024-06-13T06:29:48.500Z,english_683.wav,0,1,1672,21.0,2.0,Chinese,f,3,0.3,71.67755016,1.32863005
WWH,30,0,2024-06-13T06:29:48.500Z,english_683.wav,0,1,1672,21.0,2.0,Chinese,f,4,0.32341667,2.86253031,0.20364682
WWH,31,0,2024-06-13T06:29:48.500Z,english_773.wav,0,1,1736,21.0,2.0,Chinese,f,0,0.0,-97.46951928,0.54003315
WWH,31,0,2024-06-13T06:29:48.500Z,english_773.wav,0,1,1736,21.0,2.0,Chinese,f,1,0.1,85.58858853,1.35505424
WWH,31,0,2024-06-13T06:29:48.500Z,english_773.wav,0,1,1736,21.0,2.0,Chinese,f,2,0.2,-54.69649905,1.09283168
WWH,31,0,2024-06-13T06:29:48.500Z,english_773.wav,0,1,1736,21.0,2.0,Chinese,f,3,0.3,-97.24656559,1.42526307
WWH,31,0,2024-06-13T06:29:48.500Z,english_773.wav,0,1,1736,21.0,2.0,Chinese,f,4,0.32341667,40.28006613,0.69844725
WWH,32,0,2024-06-13T06:29:48.500Z,english_63.wav,0,0,612,21.0,2.0,Chinese,f,0,0.0,-99.27532027,1.55063038
WWH,32,0,2024-06-13T06:29:48.500Z,english_63.wav,0,0,612,21.0,2.0,Chinese,f,1,0.1,76.75365344,0.78453917
WWH,32,0,2024-06-13T06:29:48.500Z,english_63.wav,0,0,612,21.0,2.0,Chinese,f,2,0.2,-4.19867406,1.54061689
WWH,32,0,2024-06-13T06:29:48.500Z,english_63.wav,0,0,612,21.0,2.0,Chinese,f,3,0.3,58.21469339,0.9417581
WWH,32,0,2024-06-13T06:29:48.500Z,english_63.wav,0,0,612,21.0,2.0,Chinese,f,4,0.32341667,-76.25580242,1.07689855
WWH,33,0,2024-06-13T06:29:48.500Z,english_246.wav,0,1,2364,21.0,2.0,Chinese,f,0,0.0,-62.23082525,0.02615808
WWH,33,0,2024-06-13T06:29:48.500Z,english_246.wav,0,1,2364,21.0,2.0,Chinese,f,1,0.1,59.67623932,1.52596932
WWH,33,0,2024-06-13T06:29:48.500Z,english_246.wav,0,1,2364,21.0,2.0,Chinese,f,2,0.2,-63.30715513,1.87080553
WWH,33,0,2024-06-13T06:29:48.500Z,english_246.wav,0,1,2364,21.0,2.0,Chinese,f,3,0.3,15.41118057,0.81226596
WWH,33,0,2024-06-13T06:29:48.500Z,english_246.wav,0,1,2364,21.0,2.0,Chinese,f,4,0.32341667,90.60814582,0.64975072
WWH,34,0,2024-06-13T06:29:48.500Z,english_578.wav,0,1,1340,21.0,2.0,Chinese,f,0,0.0,-76.90925642,1.21901793
WWH,34,0,2024-06-13T06:29:48.500Z,english_578.wav,0,1,1340,21.0,2.0,Chinese,f,1,0.1,-68.48676994,1.4118495
WWH,34,0,2024-06-13T06:29:48.500Z,english_578.wav,0,1,1340,21.0,2.0,Chinese,f,2,0.2,36.30884798,0.05521057
WWH,34,0,2024-06-13T06:29:48.500Z,english_578.wav,0,1,1340,21.0,2.0,Chinese,f,3,0.3,-36.82491274,1.45629656
WWH,34,0,2024-06-13T06:29:48.500Z,english_578.wav,0,1,1340,21.0,2.0,Chinese,f,4,0.32341667,-4.04717442,1.80268091
WWH,35,0,2024-06-13T06:29:48.500Z,english_882.wav,0,0,1552,21.0,2.0,Chinese,f,0,0.0,-42.93700265,1.06489748
WWH,35,0,2024-06-13T06:29:48.500Z,english_882.wav,0,0,1552,21.0,2.0,Chinese,f,1,0.1,-62.35786663,1.38883859
WWH,35,0,2024-06-13T06:29:48.500Z,english_882.wav,0,0,1552,21.0,2.0,Chinese,f,2,0.2,-16.20482572,0.28843799
WWH,35,0,2024-06-13T06:29:48.500Z,english_882.wav,0,0,1552,21.0,2.0,Chinese,f,3,0.3,-46.49020195,1.05408179
WWH,35,0,2024-06-13T06:29:48.500Z,english_882.wav,0,0,1552,21.0,2.0,Chinese,f,4,0.32341667,-64.89408339,1.78517837
WWH,36,0,2024-06-13T06:29:48.500Z,english_923.wav,0,1,1233,21.0,2.0,Chinese,f,0,0.0,-0.59122564,1.19594648
WWH,36,0,2024-06-13T06:29:48.500Z,english_923.wav,0,1,1233,21.0,2.0,Chinese,f,1,0.1,-5.70499959,1.05419104
WWH,36,0,2024-06-13T06:29:48.500Z,english_923.wav,0,1,1233,21.0,2.0,Chinese,f,2,0.2,-29.88927864,0.73000078
WWH,36,0,2024-06-13T06:29:48.500Z,english_923.wav,0,1,1233,21.0,2.0,Chinese,f,3,0.3,-82.02126299,1.36390543
WWH,36,0,2024-06-13T06:29:48.500Z,english_923.wav,0,1,1233,21.0,2.0,Chinese,f,4,0.32341667,16.89967319,1.13865732
WWH,37,0,2024-06-13T06:29:48.500Z,english_122.wav,0,0,1862,21.0,2.0,Chinese,f,0,0.0,64.29837997,0.06121643
WWH,37,0,2024-06-13T06:29:48.500Z,english_122.wav,0,0,1862,21.0,2.0,Chinese,f,1,0.1,-6.72103776,1.56183773
WWH,37,0,2024-06-13T06:29:48.500Z,english_122.wav,0,0,1862,21.0,2.0,Chinese,f,2,0.2,34.67911304,1.3577209
WWH,37,0,2024-06-13T06:29:48.500Z,english_122.wav,0,0,1862,21.0,2.0,Chinese,f,3,0.3,25.29178735,0.94012362
WWH,37,0,2024-06-13T06:29:48.500Z,english_122.wav,0,0,1862,21.0,2.0,Chinese,f,4,0.32341667,-20.34954259,1.04570986
WWH,38,0,2024-06-13T06:29:48.500Z,english_82.wav,0,1,1576,21.0,2.0,Chinese,f,0,0.0,-21.02351082,0.76668052
WWH,38,0,2024-06-13T06:29:48.500Z,english_82.wav,0,1,1576,21.0,2.0,Chinese,f,1,0.1,1.53612588,0.94640395
WWH,38,0,2024-06-13T06:29:48.500Z,english_82.wav,0,1,1576,21.0,2.0,Chinese,f,2,0.2,82.9198569,1.02754902
WWH,38,0,2024-06-13T06:29:48.500Z,english_82.wav,0,1,1576,21.0,2.0,Chinese,f,3,0.3,67.34737065,1.57368428
WWH,38,0,2024-06-13T06:29:48.500Z,english_82.wav,0,1,1576,21.0,2.0,Chinese,f,4,0.32341667,-34.9418752,0.67195212
WWH,39,0,2024-06-13T06:29:48.500Z,english_451.wav,0,0,2778,21.0,2.0,Chinese,f,0,0.0,-87.31297583,0.44823779
WWH,39,0,2024-06-13T06:29:48.500Z,english_451.wav,0,0,2778,21.0,2.0,Chinese,f,1,0.1,-44.51362963,0.44678563
WWH,39,0,2024-06-13T06:29:48.500Z,english_451.wav,0,0,2778,21.0,2.0,Chinese,f,2,0.2,-15.52945473,1.69444841
WWH,39,0,2024-06-13T06:29:48.500Z,english_451.wav,0,0,2778,21.0,2.0,Chinese,f,3,0.3,11.70886435,0.18586344
WWH,39,0,2024-06-13T06:29:48.500Z,english_451.wav,0,0,2778,21.0,2.0,Chinese,f,4,0.32341667,82.84342256,0.9677256
WWH,40,0,2024-06-13T06:29:48.500Z,english_722.wav,0,0,1193,21.0,2.0,Chinese,f,0,0.0,56.33358757,0.09194264
WWH,40,0,2024-06-13T06:29:48.500Z,english_722.wav,0,0,1193,21.0,2.0,Chinese,f,1,0.1,-63.11389498,1.89550133
WWH,40,0,2024-06-13T06:29:48.500Z,english_722.wav,0,0,1193,21.0,2.0,Chinese,f,2,0.2,65.64746862,0.18403216
WWH,40,0,2024-06-13T06:29:48.500Z,english_722.wav,0,0,1193,21.0,2.0,Chinese,f,3,0.3,-93.10605514,1.23223326
WWH,40,0,2024-06-13T06:29:48.500Z,english_722.wav,0,0,1193,21.0,2.0,Chinese,f,4,0.32341667,-45.92743551,0.28331892
WWH,41,0,2024-06-13T06:29:48.500Z,english_786.wav,0,0,3892,21.0,2.0,Chinese,f,0,0.0,50.77560123,0.9907589
WWH,41,0,2024-06-13T06:29:48.500Z,english_786.wav,0,0,3892,21.0,2.0,Chinese,f,1,0.1,-87.08435808,0.48193409
WWH,41,0,2024-06-13T06:29:48.500Z,english_786.wav,0,0,3892,21.0,2.0,Chinese,f,2,0.2,-36.07136163,1.01949061
WWH,41,0,2024-06-13T06:29:48.500Z,english_786.wav,0,0,3892,21.0,2.0,Chinese,f,3,0.3,98.77618087,1.06334926
WWH,41,0,2024-06-13T06:29:48.500Z,english_786.wav,0,0,3892,21.0,2.0,Chinese,f,4,0.32341667,86.70070823,0.94164836
WWH,42,0,2024-06-13T06:29:48.500Z,english_96.wav,0,0,3248,21.0,2.0,Chinese,f,0,0.0,-2.60251168,1.33849038
WWH,42,0,2024-06-13T06:29:48.500Z,english_96.wav,0,0,3248,21.0,2.0,Chinese,f,1,0.1,3.1808695,1.03790095
WWH,42,0,2024-06-13T06:29:48.500Z,english_96.wav,0,0,3248,21.0,2.0,Chinese,f,2,0.2,-93.89625608,0.32730996
WWH,42,0,2024-06-13T06:29:48.500Z,english_96.wav,0,0,3248,21.0,2.0,Chinese,f,3,0.3,22.03695444,1.15118519
WWH,42,0,2024-06-13T06:29:48.500Z,english_96.wav,0,0,3248,21.0,2.0,Chinese,f,4,0.32341667,89.13776591,1.37996061
WWH,43,0,2024-06-13T06:29:48.500Z,english_925.wav,0,1,1608,21.0,2.0,Chinese,f,0,0.0,-23.38055082,1.07708889
WWH,43,0,2024-06-13T06:29:48.500Z,english_925.wav,0,1,1608,21.0,2.0,Chinese,f,1,0.1,12.69502826,1.65606803
WWH,43,0,2024-06-13T06:29:48.500Z,english_925.wav,0,1,1608,21.0,2.0,Chinese,f,2,0.2,77.53463838,0.48648737
WWH,43,0,2024-06-13T06:29:48.500Z,english_925.wav,0,1,1608,21.0,2.0,Chinese,f,3,0.3,58.05299948,0.8939016
WWH,43,0,2024-06-13T06:29:48.500Z,english_925.wav,0,1,1608,21.0,2.0,Chinese,f,4,0.32341667,54.12197927,0.72199492
WWH,44,0,2024-06-13T06:29:48.500Z,english_774.wav,0,0,1140,21.0,2.0,Chinese,f,0,0.0,-13.3479616,1.45409172
WWH,44,0,2024-06-13T06:29:48.500Z,english_774.wav,0,0,1140,21.0,2.0,Chinese,f,1,0.1,-18.75352159,1.07775337
WWH,44,0,2024-06-13T06:29:48.500Z,english_774.wav,0,0,1140,21.0,2.0,Chinese,f,2,0.2,-41.83192829,0.61872946
WWH,44,0,2024-06-13T06:29:48.500Z,english_774.wav,0,0,1140,21.0,2.0,Chinese,f,3,0.3,14.77986843,1.87871381
WWH,44,0,2024-06-13T06:29:48.500Z,english_774.wav,0,0,1140,21.0,2.0,Chinese,f,4,0.32341667,45.85609187,1.0399825
WWH,45,0,2024-06-13T06:29:48.500Z,english_165.wav,0,1,1111,21.0,2.0,Chinese,f,0,0.0,-65.85966689,0.99094124
WWH,45,0,2024-06-13T06:29:48.500Z,english_165.wav,0,1,1111,21.0,2.0,Chinese,f,1,0.1,57.4210377,1.25140592
WWH,45,0,2024-06-13T06:29:48.500Z,english_165.wav,0,1,1111,21.0,2.0,Chinese,f,2,0.2,-53.4891742,1.66606931
WWH,45,0,2024-06-13T06:29:48.500Z,english_165.wav,0,1,1111,21.0,2.0,Chinese,f,3,0.3,-32.80877015,0.56557264
WWH,45,0,2024-06-13T06:29:48.500Z,english_165.wav,0,1,1111,21.0,2.0,Chinese,f,4,0.32341667,-23.63509804,1.31427626
WWH,46,0,2024-06-13T06:29:48.500Z,english_651.wav,0,0,983,21.0,2.0,Chinese,f,0,0.0,94.66063372,0.16277223
WWH,46,0,2024-06-13T06:29:48.500Z,english_651.wav,0,0,983,21.0,2.0,Chinese,f,1,0.1,53.93234837,1.71236475
WWH,46,0,2024-06-13T06:29:48.500Z,english_651.wav,0,0,983,21.0,2.0,Chinese,f,2,0.2,-71.35755131,0.37376336
WWH,46,0,2024-06-13T06:29:48.500Z,english_651.wav,0,0,983,21.0,2.0,Chinese,f,3,0.3,50.84025958,0.80998932
WWH,46,0,2024-06-13T06:29:48.500Z,english_651.wav,0,0,983,21.0,2.0,Chinese,f,4,0.32341667,-24.67252949,0.23835763
WWH,47,0,2024-06-13T06:29:48.500Z,english_174.wav,0,0,3511,21.0,2.0,Chinese,f,0,0.0,-14.93169449,0.27768215
WWH,47,0,2024-06-13T06:29:48.500Z,english_174.wav,0,0,3511,21.0,2.0,Chinese,f,1,0.1,-60.50222611,0.13809097
WWH,47,0,2024-06-13T06:29:48.500Z,english_174.wav,0,0,3511,21.0,2.0,Chinese,f,2,0.2,-88.67347191,0.18584848
WWH,47,0,2024-06-13T06:29:48.500Z,english_174.wav,0,0,3511,21.0,2.0,Chinese,f,3,0.3,-20.58504224,1.46718454
WWH,47,0,2024-06-13T06:29:48.500Z,english_174.wav,0,0,3511,21.0,2.0,Chinese,f,4,0.32341667,-52.28073567,0.17567705
WWH,48,0,2024-06-13T06:29:48.500Z,english_140.wav,0,1,887,21.0,2.0,Chinese,f,0,0.0,-63.97366245,1.49783115
WWH,48,0,2024-06-13T06:29:48.500Z,english_140.wav,0,1,887,21.0,2.0,Chinese,f,1,0.1,-84.90656008,1.37250299
WWH,48,0,2024-06-13T06:29:48.500Z,english_140.wav,0,1,887,21.0,2.0,Chinese,f,2,0.2,93.42782744,0.10650492
WWH,48,0,2024-06-13T06:29:48.500Z,english_140.wav,0,1,887,21.0,2.0,Chinese,f,3,0.3,11.57634117,0.84315206
WWH,48,0,2024-06-13T06:29:48.500Z,english_140.wav,0,1,887,21.0,2.0,Chinese,f,4,0.32341667,80.35905055,1.26233419
WWH,49,0,2024-06-13T06:29:48.500Z,english_799.wav,0,0,2573,21.0,2.0,Chinese,f,0,0.0,-48.4958847,1.9233431
WWH,49,0,2024-06-13T06:29:48.500Z,english_799.wav,0,0,2573,21.0,2.0,Chinese,f,1,0.1,-9.52866418,1.11542891
WWH,49,0,2024-06-13T06:29:48.500Z,english_799.wav,0,0,2573,21.0,2.0,Chinese,f,2,0.2,1.94176449,0.95865462
WWH,49,0,2024-06-13T06:29:48.500Z,english_799.wav,0,0,2573,21.0,2.0,Chinese,f,3,0.3,5.71676827,0.6616034
WWH,49,0,2024-06-13T06:29:48.500Z,english_799.wav,0,0,2573,21.0,2.0,Chinese,f,4,0.32341667,30.27282792,1.91183458
WWH,50,1,2024-06-13T06:29:48.500Z,english_585.wav,0,0,2947,21.0,2.0,Chinese,f,0,0.0,-47.47167609,0.91486293
WWH,50,1,2024-06-13T06:29:48.500Z,english_585.wav,0,0,2947,21.0,2.0,Chinese,f,1,0.1,-85.73018253,0.8051019
WWH,50,1,2024-06-13T06:29:48.500Z,english_585.wav,0,0,2947,21.0,2.0,Chinese,f,2,0.2,4.69567907,1.25289508
WWH,50,1,2024-06-13T06:29:48.500Z,english_585.wav,0,0,2947,21.0,2.0,Chinese,f,3,0.3,51.83381109,0.83258124
WWH,50,1,2024-06-13T06:29:48.500Z,english_585.wav,0,0,2947,21.0,2.0,Chinese,f,4,0.32341667,14.12777642,1.43411439
WWH,51,1,2024-06-13T06:29:48.500Z,english_611.wav,0,0,2923,21.0,2.0,Chinese,f,0,0.0,4.04989913,1.48647041
WWH,51,1,2024-06-13T06:29:48.500Z,english_611.wav,0,0,2923,21.0,2.0,Chinese,f,1,0.1,-26.35519993,0.87297853
WWH,51,1,2024-06-13T06:29:48.500Z,english_611.wav,0,0,2923,21.0,2.0,Chinese,f,2,0.2,-41.22744209,0.91907267
WWH,51,1,2024-06-13T06:29:48.500Z,english_611.wav,0,0,2923,21.0,2.0,Chinese,f,3,0.3,-72.41198747,0.12624761
WWH,51,1,2024-06-13T06:29:48.500Z,english_611.wav,0,0,2923,21.0,2.0,Chinese,f,4,0.32341667,-60.09703168,0.964981
WWH,52,1,2024-06-13T06:29:48.500Z,english_339.wav,0,0,1805,21.0,2.0,Chinese,f,0,0.0,-58.67599578,0.13141934
WWH,52,1,2024-06-13T06:29:48.500Z,english_339.wav,0,0,1805,21.0,2.0,Chinese,f,1,0.1,-13.30258388,0.16133177
WWH,52,1,2024-06-13T06:29:48.500Z,english_339.wav,0,0,1805,21.0,2.0,Chinese,f,2,0.2,-52.40820381,1.13500643
WWH,52,1,2024-06-13T06:29:48.500Z,english_339.wav,0,0,1805,21.0,2.0,Chinese,f,3,0.3,11.33062491,0.98717522
WWH,52,1,2024-06-13T06:29:48.500Z,english_339.wav,0,0,1805,21.0,2.0,Chinese,f,4,0.32341667,9.6385593,0.10332776
WWH,53,1,2024-06-13T06:29:48.500Z,english_86.wav,0,1,1227,21.0,2.0,Chinese,f,0,0.0,-48.59393833,1.45450552
WWH,53,1,2024-06-13T06:29:48.500Z,english_86.wav,0,1,1227,21.0,2.0,Chinese,f,1,0.1,77.37095157,1.8635573
WWH,53,1,2024-06-13T06:29:48.500Z,english_86.wav,0,1,1227,21.0,2.0,Chinese,f,2,0.2,44.19816726,1.174515
WWH,53,1,2024-06-13T06:29:48.500Z,english_86.wav,0,1,1227,21.0,2.0,Chinese,f,3,0.3,-99.780271,1.46785746
WWH,53,1,2024-06-13T06:29:48.500Z,english_86.wav,0,1,1227,21.0,2.0,Chinese,f,4,0.32341667,38.96545556,0.99607158
WWH,54,1,2024-06-13T06:29:48.500Z,english_266.wav,0,1,2058,21.0,2.0,Chinese,f,0,0.0,16.70772117,0.81064175
WWH,54,1,2024-06-13T06:29:48.500Z,english_266.wav,0,1,2058,21.0,2.0,Chinese,f,1,0.1,-61.82971906,1.48442032
WWH,54,1,2024-06-13T06:29:48.500Z,english_266.wav,0,1,2058,21.0,2.0,Chinese,f,2,0.2,-31.41060896,1.39445033
WWH,54,1,2024-06-13T06:29:48.500Z,english_266.wav,0,1,2058,21.0,2.0,Chinese,f,3,0.3,-8.94045194,1.01594082
WWH,54,1,2024-06-13T06:29:48.500Z,english_266.wav,0,1,2058,21.0,2.0,Chinese,f,4,0.32341667,-27.43066022,0.75934284
WWH,55,1,2024-06-13T06:29:48.500Z,english_835.wav,0,1,1572,21.0,2.0,Chinese,f,0,0.0,-14.38506183,1.1584592
WWH,55,1,2024-06-13T06:29:48.500Z,english_835.wav,0,1,1572,21.0,2.0,Chinese,f,1,0.1,-85.63264453,0.74788643
WWH,55,1,2024-06-13T06:29:48.500Z,english_835.wav,0,1,1572,21.0,2.0,Chinese,f,2,0.2,-9.08737486,0.99645811
WWH,55,1,2024-06-13T06:29:48.500Z,english_835.wav,0,1,1572,21.0,2.0,Chinese,f,3,0.3,-52.4382226,1.13057998
WWH,55,1,2024-06-13T06:29:48.500Z,english_835.wav,0,1,1572,21.0,2.0,Chinese,f,4,0.32341667,30.89255677,0.17868889
WWH,56,1,2024-06-13T06:29:48.500Z,english_705.wav,0,1,3387,21.0,2.0,Chinese,f,0,0.0,3.76426423,0.9500377
WWH,56,1,2024-06-13T06:29:48.500Z,english_705.wav,0,1,3387,21.0,2.0,Chinese,f,1,0.1,90.96696755,0.74173997
WWH,56,1,2024-06-13T06:29:48.500Z,english_705.wav,0,1,3387,21.0,2.0,Chinese,f,2,0.2,-32.86898574,1.78776637
WWH,56,1,2024-06-13T06:29:48.500Z,english_705.wav,0,1,3387,21.0,2.0,Chinese,f,3,0.3,-21.12550784,0.8178788
WWH,56,1,2024-06-13T06:29:48.500Z,english_705.wav,0,1,3387,21.0,2.0,Chinese,f,4,0.32341667,39.74077299,1.54913024
WWH,57,1,2024-06-13T06:29:48.500Z,english_701.wav,0,1,1944,21.0,2.0,Chinese,f,0,0.0,87.15265727,1.41120649
WWH,57,1,2024-06-13T06:29:48.500Z,english_701.wav,0,1,1944,21.0,2.0,Chinese,f,1,0.1,38.39882515,0.44004622
WWH,57,1,2024-06-13T06:29:48.500Z,english_701.wav,0,1,1944,21.0,2.0,Chinese,f,2,0.2,64.60201562,1.15462264
WWH,57,1,2024-06-13T06:29:48.500Z,english_701.wav,0,1,1944,21.0,2.0,Chinese,f,3,0.3,12.58613119,1.17454355
WWH,57,1,2024-06-13T06:29:48.500Z,english_701.wav,0,1,1944,21.0,2.0,Chinese,f,4,0.32341667,46.94968762,1.38716818
WWH,58,1,2024-06-13T06:29:48.500Z,english_301.wav,0,0,819,21.0,2.0,Chinese,f,0,0.0,-78.18927369,1.31935747
WWH,58,1,2024-06-13T06:29:48.500Z,english_301.wav,0,0,819,21.0,2.0,Chinese,f,1,0.1,-3.52439177,1.41636911
WWH,58,1,2024-06-13T06:29:48.500Z,english_301.wav,0,0,819,21.0,2.0,Chinese,f,2,0.2,-23.22473782,1.38842862
WWH,58,1,2024-06-13T06:29:48.500Z,english_301.wav,0,0,819,21.0,2.0,Chinese,f,3,0.3,-11.7220967,1.25169603
WWH,58,1,2024-06-13T06:29:48.500Z,english_301.wav,0,0,819,21.0,2.0,Chinese,f,4,0.32341667,-5.78047748,1.38740104
WWH,59,1,2024-06-13T06:29:48.500Z,english_131.wav,0,1,1795,21.0,2.0,Chinese,f,0,0.0,-90.65248477,1.67513221
WWH,59,1,2024-06-13T06:29:48.500Z,english_131.wav,0,1,1795,21.0,2.0,Chinese,f,1,0.1,7.0988446,1.62916956
WWH,59,1,2024-06-13T06:29:48.500Z,english_131.wav,0,1,1795,21.0,2.0,Chinese,f,2,0.2,-30.94637352,1.4017665
WWH,59,1,2024-06-13T06:29:48.500Z,english_131.wav,0,1,1795,21.0,2.0,Chinese,f,3,0.3,-31.86179524,1.07276153
WWH,59,1,2024-06-13T06:29:48.500Z,english_131.wav,0,1,1795,21.0,2.0,Chinese,f,4,0.32341667,1.85809033,1.80109071
WWH,60,1,2024-06-13T06:29:48.500Z,english_830.wav,0,0,2230,21.0,2.0,Chinese,f,0,0.0,2.63258607,0.89301132
WWH,60,1,2024-06-13T06:29:48.500Z,english_830.wav,0,0,2230,21.0,2.0,Chinese,f,1,0.1,-31.8387274,1.32560067
WWH,60,1,2024-06-13T06:29:48.500Z,english_830.wav,0,0,2230,21.0,2.0,Chinese,f,2,0.2,-6.78563658,1.08718884
WWH,60,1,2024-06-13T06:29:48.500Z,english_830.wav,0,0,2230,21.0,2.0,Chinese,f,3,0.3,-57.52390495,0.53430446
WWH,60,1,2024-06-13T06:29:48.500Z,english_830.wav,0,0,2230,21.0,2.0,Chinese,f,4,0.32341667,51.13575953,0.53816607
WWH,61,1,2024-06-13T06:29:48.500Z,english_114.wav,0,1,997,21.0,2.0,Chinese,f,0,0.0,32.66189176,0.56529239
WWH,61,1,2024-06-13T06:29:48.500Z,english_114.wav,0,1,997,21.0,2.0,Chinese,f,1,0.1,11.50533392,1.79520186
WWH,61,1,2024-06-13T06:29:48.500Z,english_114.wav,0,1,997,21.0,2.0,Chinese,f,2,0.2,-73.58201401,1.4619954
WWH,61,1,2024-06-13T06:29:48.500Z,english_114.wav,0,1,997,21.0,2.0,Chinese,f,3,0.3,-8.93644113,0.78288211
WWH,61,1,2024-06-13T06:29:48.500Z,english_114.wav,0,1,997,21.0,2.0,Chinese,f,4,0.32341667,-2.4794064,0.66376764
WWH,62,1,2024-06-13T06:29:48.500Z,english_883.wav,0,1,1112,21.0,2.0,Chinese,f,0,0.0,-17.60743744,1.86037562
WWH,62,1,2024-06-13T06:29:48.500Z,english_883.wav,0,1,1112,21.0,2.0,Chinese,f,1,0.1,-37.46625877,0.9331332
WWH,62,1,2024-06-13T06:29:48.500Z,english_883.wav,0,1,1112,21.0,2.0,Chinese,f,2,0.2,55.1108939,1.34322635
WWH,62,1,2024-06-13T06:29:48.500Z,english_883.wav,0,1,1112,21.0,2.0,Chinese,f,3,0.3,87.45591348,0.07818604
WWH,62,1,2024-06-13T06:29:48.500Z,english_883.wav,0,1,1112,21.0,2.0,Chinese,f,4,0.32341667,-90.78539671,1.31446095
WWH,63,1,2024-06-13T06:29:48.500Z,english_680.wav,0,1,1634,21.0,2.0,Chinese,f,0,0.0,93.24972168,1.89994278
WWH,63,1,2024-06-13T06:29:48.500Z,english_680.wav,0,1,1634,21.0,2.0,Chinese,f,1,0.1,21.55707386,1.06559033
WWH,63,1,2024-06-13T06:29:48.500Z,english_680.wav,0,1,1634,21.0,2.0,Chinese,f,2,0.2,-58.84044748,0.79606997
WWH,63,1,2024-06-13T06:29:48.500Z,english_680.wav,0,1,1634,21.0,2.0,Chinese,f,3,0.3,-13.55367876,0.35899559
WWH,63,1,2024-06-13T06:29:48.500Z,english_680.wav,0,1,1634,21.0,2.0,Chinese,f,4,0.32341667,17.98073729,1.50925573
WWH,64,1,2024-06-13T06:29:48.500Z,english_245.wav,0,1,4240,21.0,2.0,Chinese,f,0,0.0,74.89239003,1.30710747
WWH,64,1,2024-06-13T06:29:48.500Z,english_245.wav,0,1,4240,21.0,2.0,Chinese,f,1,0.1,41.98679172,0.93119149
WWH,64,1,2024-06-13T06:29:48.500Z,english_245.wav,0,1,4240,21.0,2.0,Chinese,f,2,0.2,99.42105985,1.84379828
WWH,64,1,2024-06-13T06:29:48.500Z,english_245.wav,0,1,4240,21.0,2.0,Chinese,f,3,0.3,-75.11958538,1.72828743
WWH,64,1,2024-06-13T06:29:48.500Z,english_245.wav,0,1,4240,21.0,2.0,Chinese,f,4,0.32341667,-62.10664415,0.50124118
WWH,65,1,2024-06-13T06:29:48.500Z,english_90.wav,0,1,1213,21.0,2.0,Chinese,f,0,0.0,82.68866707,0.54239523
WWH,65,1,2024-06-13T06:29:48.500Z,english_90.wav,0,1,1213,21.0,2.0,Chinese,f,1,0.1,-81.25370946,1.03335699
WWH,65,1,2024-06-13T06:29:48.500Z,english_90.wav,0,1,1213,21.0,2.0,Chinese,f,2,0.2,56.28719083,1.93576477
WWH,65,1,2024-06-13T06:29:48.500Z,english_90.wav,0,1,1213,21.0,2.0,Chinese,f,3,0.3,-46.43338119,0.74570916
WWH,65,1,2024-06-13T06:29:48.500Z,english_90.wav,0,1,1213,21.0,2.0,Chinese,f,4,0.32341667,-19.93520327,1.11115504
WWH,66,1,2024-06-13T06:29:48.500Z,english_700.wav,0,0,2547,21.0,2.0,Chinese,f,0,0.0,-76.89056698,0.13963816
WWH,66,1,2024-06-13T06:29:48.500Z,english_700.wav,0,0,2547,21.0,2.0,Chinese,f,1,0.1,-93.17552037,0.76842729
WWH,66,1,2024-06-13T06:29:48.500Z,english_700.wav,0,0,2547,21.0,2.0,Chinese,f,2,0.2,51.24439156,0.49149542
WWH,66,1,2024-06-13T06:29:48.500Z,english_700.wav,0,0,2547,21.0,2.0,Chinese,f,3,0.3,89.4516499,1.08714417
WWH,66,1,2024-06-13T06:29:48.500Z,english_700.wav,0,0,2547,21.0,2.0,Chinese,f,4,0.32341667,-68.48659069,1.35188588
WWH,67,1,2024-06-13T06:29:48.500Z,english_364.wav,0,1,2319,21.0,2.0,Chinese,f,0,0.0,19.50953027,1.75500584
WWH,67,1,2024-06-13T06:29:48.500Z,english_364.wav,0,1,2319,21.0,2.0,Chinese,f,1,0.1,48.44847612,1.3553812
WWH,67,1,2024-06-13T06:29:48.500Z,english_364.wav,0,1,2319,21.0,2.0,Chinese,f,2,0.2,-85.20645473,0.86672295
WWH,67,1,2024-06-13T06:29:48.500Z,english_364.wav,0,1,2319,21.0,2.0,Chinese,f,3,0.3,97.47454191,1.42489128
WWH,67,1,2024-06-13T06:29:48.500Z,english_364.wav,0,1,2319,21.0,2.0,Chinese,f,4,0.32341667,-45.42958463,1.19673805
WWH,68,1,2024-06-13T06:29:48.500Z,english_873.wav,0,0,1141,21.0,2.0,Chinese,f,0,0.0,85.43762199,1.00056931
WWH,68,1,2024-06-13T06:29:48.500Z,english_873.wav,0,0,1141,21.0,2.0,Chinese,f,1,0.1,-27.24751419,0.47504393
WWH,68,1,2024-06-13T06:29:48.500Z,english_873.wav,0,0,1141,21.0,2.0,Chinese,f,2,0.2,-8.79829555,0.788147
WWH,68,1,2024-06-13T06:29:48.500Z,english_873.wav,0,0,1141,21.0,2.0,Chinese,f,3,0.3,-97.88620301,0.64075463
WWH,68,1,2024-06-13T06:29:48.500Z,english_873.wav,0,0,1141,21.0,2.0,Chinese,f,4,0.32341667,49.57089273,0.87603086
WWH,69,1,2024-06-13T06:29:48.500Z,english_234.wav,0,0,881,21.0,2.0,Chinese,f,0,0.0,-96.19421376,0.0948498
WWH,69,1,2024-06-13T06:29:48.500Z,english_234.wav,0,0,881,21.0,2.0,Chinese,f,1,0.1,96.13097212,1.36649532
WWH,69,1,2024-06-13T06:29:48.500Z,english_234.wav,0,0,881,21.0,2.0,Chinese,f,2,0.2,-68.61115628,0.00312314
WWH,69,1,2024-06-13T06:29:48.500Z,english_234.wav,0,0,881,21.0,2.0,Chinese,f,3,0.3,58.3624958,0.01269103
WWH,69,1,2024-06-13T06:29:48.500Z,english_234.wav,0,0,881,21.0,2.0,Chinese,f,4,0.32341667,60.51337125,1.76377265
WWH,70,1,2024-06-13T06:29:48.500Z,english_845.wav,0,0,892,21.0,2.0,Chinese,f,0,0.0,-39.21264236,0.82761504
WWH,70,1,2024-06-13T06:29:48.500Z,english_845.wav,0,0,892,21.0,2.0,Chinese,f,1,0.1,99.78041888,0.53375751
WWH,70,1,2024-06-13T06:29:48.500Z,english_845.wav,0,0,892,21.0,2.0,Chinese,f,2,0.2,-59.29104422,1.24236426
WWH,70,1,2024-06-13T06:29:48.500Z,english_845.wav,0,0,892,21.0,2.0,Chinese,f,3,0.3,57.0409613,1.27736464
WWH,70,1,2024-06-13T06:29:48.500Z,english_845.wav,0,0,892,21.0,2.0,Chinese,f,4,0.32341667,-93.6361214,0.79024728
WWH,71,1,2024-06-13T06:29:48.500Z,english_510.wav,0,0,830,21.0,2.0,Chinese,f,0,0.0,-39.77235695,0.97080384
WWH,71,1,2024-06-13T06:29:48.500Z,english_510.wav,0,0,830,21.0,2.0,Chinese,f,1,0.1,-55.9025784,0.1022914
WWH,71,1,2024-06-13T06:29:48.500Z,english_510.wav,0,0,830,21.0,2.0,Chinese,f,2,0.2,42.12378864,1.56878682
WWH,71,1,2024-06-13T06:29:48.500Z,english_510.wav,0,0,830,21.0,2.0,Chinese,f,3,0.3,-5.9333084,1.19302163
WWH,71,1,2024-06-13T06:29:48.500Z,english_510.wav,0,0,830,21.0,2.0,Chinese,f,4,0.32341667,84.8199861,1.45606517
WWH,72,1,2024-06-13T06:29:48.500Z,english_540.wav,0,0,2047,21.0,2.0,Chinese,f,0,0.0,-46.6752609,1.16352469
WWH,72,1,2024-06-13T06:29:48.500Z,english_540.wav,0,0,2047,21.0,2.0,Chinese,f,1,0.1,-93.20209644,0.0234781
WWH,72,1,2024-06-13T06:29:48.500Z,english_540.wav,0,0,2047,21.0,2.0,Chinese,f,2,0.2,64.96419662,0.05926191
WWH,72,1,2024-06-13T06:29:48.500Z,english_540.wav,0,0,2047,21.0,2.0,Chinese,f,3,0.3,-12.16484387,1.47406284
WWH,72,1,2024-06-13T06:29:48.500Z,english_540.wav,0,0,2047,21.0,2.0,Chinese,f,4,0.32341667,-44.34688232,0.60104864
WWH,73,1,2024-06-13T06:29:48.500Z,english_455.wav,0,1,1425,21.0,2.0,Chinese,f,0,0.0,16.09493262,0.21208686
WWH,73,1,2024-06-13T06:29:48.500Z,english_455.wav,0,1,1425,21.0,2.0,Chinese,f,1,0.1,24.58982,1.0305564
WWH,73,1,2024-06-13T06:29:48.500Z,english_455.wav,0,1,1425,21.0,2.0,Chinese,f,2,0.2,-59.31201859,1.53057992
WWH,73,1,2024-06-13T06:29:48.500Z,english_455.wav,0,1,1425,21.0,2.0,Chinese,f,3,0.3,40.79603426,0.62599766
WWH,73,1,2024-06-13T06:29:48.500Z,english_455.wav,0,1,1425,21.0,2.0,Chinese,f,4,0.32341667,-39.30035714,1.43054244
WWH,74,1,2024-06-13T06:29:48.500Z,english_103.wav,0,1,1375,21.0,2.0,Chinese,f,0,0.0,-79.54710498,0.84178061
WWH,74,1,2024-06-13T06:29:48.500Z,english_103.wav,0,1,1375,21.0,2.0,Chinese,f,1,0.1,-41.31314025,1.9706485
WWH,74,1,2024-06-13T06:29:48.500Z,english_103.wav,0,1,1375,21.0,2.0,Chinese,f,2,0.2,-48.58046961,1.55059924
WWH,74,1,2024-06-13T06:29:48.500Z,english_103.wav,0,1,1375,21.0,2.0,Chinese,f,3,0.3,50.88097047,1.14550684
WWH,74,1,2024-06-13T06:29:48.500Z,english_103.wav,0,1,1375,21.0,2.0,Chinese,f,4,0.32341667,21.22320476,1.67039139
WWH,75,1,2024-06-13T06:29:48.500Z,english_477.wav,0,0,1254,21.0,2.0,Chinese,f,0,0.0,9.7496965,0.26828956
WWH,75,1,2024-06-13T06:29:48.500Z,english_477.wav,0,0,1254,21.0,2.0,Chinese,f,1,0.1,70.56003184,0.51901368
WWH,75,1,2024-06-13T06:29:48.500Z,english_477.wav,0,0,1254,21.0,2.0,Chinese,f,2,0.2,34.49551211,0.35677294
WWH,75,1,2024-06-13T06:29:48.500Z,english_477.wav,0,0,1254,21.0,2.0,Chinese,f,3,0.3,-75.0597055,1.39462812
WWH,75,1,2024-06-13T06:29:48.500Z,english_477.wav,0,0,1254,21.0,2.0,Chinese,f,4,0.32341667,-82.15638008,0.55199483
WWH,76,1,2024-06-13T06:29:48.500Z,english_302.wav,0,1,1252,21.0,2.0,Chinese,f,0,0.0,-63.95927305,1.3663617
WWH,76,1,2024-06-13T06:29:48.500Z,english_302.wav,0,1,1252,21.0,2.0,Chinese,f,1,0.1,-82.44028643,1.24112643
WWH,76,1,2024-06-13T06:29:48.500Z,english_302.wav,0,1,1252,21.0,2.0,Chinese,f,2,0.2,-63.33590257,1.83999602
WWH,76,1,2024-06-13T06:29:48.500Z,english_302.wav,0,1,1252,21.0,2.0,Chinese,f,3,0.3,-82.33590521,0.89576132
WWH,76,1,2024-06-13T06:29:48.500Z,english_302.wav,0,1,1252,21.0,2.0,Chinese,f,4,0.32341667,-77.43124585,1.51483357
WWH,77,1,2024-06-13T06:29:48.500Z,english_240.wav,0,1,2574,21.0,2.0,Chinese,f,0,0.0,-96.55121617,1.04823872
WWH,77,1,2024-06-13T06:29:48.500Z,english_240.wav,0,1,2574,21.0,2.0,Chinese,f,1,0.1,73.99435309,1.11556714
WWH,77,1,2024-06-13T06:29:48.500Z,english_240.wav,0,1,2574,21.0,2.0,Chinese,f,2,0.2,-27.17256968,0.68795106
WWH,77,1,2024-06-13T06:29:48.500Z,english_240.wav,0,1,2574,21.0,2.0,Chinese,f,3,0.3,-2.05185553,1.30325309
WWH,77,1,2024-06-13T06:29:48.500Z,english_240.wav,0,1,2574,21.0,2.0,Chinese,f,4,0.32341667,80.37406519,0.86977317
WWH,78,1,2024-06-13T06:29:48.500Z,english_450.wav,0,1,1158,21.0,2.0,Chinese,f,0,0.0,32.75253923,1.28767958
WWH,78,1,2024-06-13T06:29:48.500Z,english_450.wav,0,1,1158,21.0,2.0,Chinese,f,1,0.1,-95.51335644,1.7262356
WWH,78,1,2024-06-13T06:29:48.500Z,english_450.wav,0,1,1158,21.0,2.0,Chinese,f,2,0.2,34.87485597,0.97567272
WWH,78,1,2024-06-13T06:29:48.500Z,english_450.wav,0,1,1158,21.0,2.0,Chinese,f,3,0.3,-23.91285283,1.94639387
WWH,78,1,2024-06-13T06:29:48.500Z,english_450.wav,0,1,1158,21.0,2.0,Chinese,f,4,0.32341667,-8.67870007,1.78958339
WWH,79,1,2024-06-13T06:29:48.500Z,english_737.wav,0,1,2752,21.0,2.0,Chinese,f,0,0.0,21.35751723,1.17499048
WWH,79,1,2024-06-13T06:29:48.500Z,english_737.wav,0,1,2752,21.0,2.0,Chinese,f,1,0.1,61.52152077,1.09581395
WWH,79,1,2024-06-13T06:29:48.500Z,english_737.wav,0,1,2752,21.0,2.0,Chinese,f,2,0.2,-29.75610596,0.62940412
WWH,79,1,2024-06-13T06:29:48.500Z,english_737.wav,0,1,2752,21.0,2.0,Chinese,f,3,0.3,-39.80249708,0.11793022
WWH,79,1,2024-06-13T06:29:48.500Z,english_737.wav,0,1,2752,21.0,2.0,Chinese,f,4,0.32341667,-14.64937497,0.62377861
WWH,80,1,2024-06-13T06:29:48.500Z,english_587.wav,0,1,1138,21.0,2.0,Chinese,f,0,0.0,-33.32102811,0.7972352
WWH,80,1,2024-06-13T06:29:48.500Z,english_587.wav,0,1,1138,21.0,2.0,Chinese,f,1,0.1,46.1287001,1.97425238
WWH,80,1,2024-06-13T06:29:48.500Z,english_587.wav,0,1,1138,21.0,2.0,Chinese,f,2,0.2,-62.23894368,0.99609006
WWH,80,1,2024-06-13T06:29:48.500Z,english_587.wav,0,1,1138,21.0,2.0,Chinese,f,3,0.3,36.67711132,1.18577707
WWH,80,1,2024-06-13T06:29:48.500Z,english_587.wav,0,1,1138,21.0,2.0,Chinese,f,4,0.32341667,-11.53320103,1.64089558
WWH,81,1,2024-06-13T06:29:48.500Z,english_273.wav,0,0,1114,21.0,2.0,Chinese,f,0,0.0,-44.98289573,1.94838534
WWH,81,1,2024-06-13T06:29:48.500Z,english_273.wav,0,0,1114,21.0,2.0,Chinese,f,1,0.1,24.32546199,0.68888608
WWH,81,1,2024-06-13T06:29:48.500Z,english_273.wav,0,0,1114,21.0,2.0,Chinese,f,2,0.2,61.84573583,1.95265796
WWH,81,1,2024-06-13T06:29:48.500Z,english_273.wav,0,0,1114,21.0,2.0,Chinese,f,3,0.3,-1.88803465,1.62060328
WWH,81,1,2024-06-13T06:29:48.500Z,english_273.wav,0,0,1114,21.0,2.0,Chinese,f,4,0.32341667,57.02125087,0.94638053
WWH,82,1,2024-06-13T06:29:48.500Z,english_286.wav,0,0,2019,21.0,2.0,Chinese,f,0,0.0,-94.9495111,0.49849168
WWH,82,1,2024-06-13T06:29:48.500Z,english_286.wav,0,0,2019,21.0,2.0,Chinese,f,1,0.1,-25.05656786,1.27672914
WWH,82,1,2024-06-13T06:29:48.500Z,english_286.wav,0,0,2019,21.0,2.0,Chinese,f,2,0.2,59.61150177,0.14515846
WWH,82,1,2024-06-13T06:29:48.500Z,english_286.wav,0,0,2019,21.0,2.0,Chinese,f,3,0.3,-32.97544875,1.67164973
WWH,82,1,2024-06-13T06:29:48.500Z,english_286.wav,0,0,2019,21.0,2.0,Chinese,f,4,0.32341667,7.58095242,0.86492177
WWH,83,1,2024-06-13T06:29:48.500Z,english_840.wav,0,0,1598,21.0,2.0,Chinese,f,0,0.0,-27.11425843,1.31301797
WWH,83,1,2024-06-13T06:29:48.500Z,english_840.wav,0,0,1598,21.0,2.0,Chinese,f,1,0.1,-47.31494811,0.54280133
WWH,83,1,2024-06-13T06:29:48.500Z,english_840.wav,0,0,1598,21.0,2.0,Chinese,f,2,0.2,-88.66887426,0.14090987
WWH,83,1,2024-06-13T06:29:48.500Z,english_840.wav,0,0,1598,21.0,2.0,Chinese,f,3,0.3,7.86940595,0.11950116
WWH,83,1,2024-06-13T06:29:48.500Z,english_840.wav,0,0,1598,21.0,2.0,Chinese,f,4,0.32341667,87.61758205,1.48166624
WWH,84,1,2024-06-13T06:29:48.500Z,english_550.wav,0,0,1176,21.0,2.0,Chinese,f,0,0.0,19.46608022,0.78600887
WWH,84,1,2024-06-13T06:29:48.500Z,english_550.wav,0,0,1176,21.0,2.0,Chinese,f,1,0.1,-94.3556307,1.03273328
WWH,84,1,2024-06-13T06:29:48.500Z,english_550.wav,0,0,1176,21.0,2.0,Chinese,f,2,0.2,-80.90695222,0.36941932
WWH,84,1,2024-06-13T06:29:48.500Z,english_550.wav,0,0,1176,21.0,2.0,Chinese,f,3,0.3,-65.36230075,0.47038634
WWH,84,1,2024-06-13T06:29:48.500Z,english_550.wav,0,0,1176,21.0,2.0,Chinese,f,4,0.32341667,-18.45722395,0.11798167
WWH,85,1,2024-06-13T06:29:48.500Z,english_360.wav,0,0,1053,21.0,2.0,Chinese,f,0,0.0,-50.57937638,0.73788637
WWH,85,1,2024-06-13T06:29:48.500Z,english_360.wav,0,0,1053,21.0,2.0,Chinese,f,1,0.1,-29.22164644,0.6487653
WWH,85,1,2024-06-13T06:29:48.500Z,english_360.wav,0,0,1053,21.0,2.0,Chinese,f,2,0.2,-88.45421248,0.73193848
WWH,85,1,2024-06-13T06:29:48.500Z,english_360.wav,0,0,1053,21.0,2.0,Chinese,f,3,0.3,93.68039656,1.75347372
WWH,85,1,2024-06-13T06:29:48.500Z,english_360.wav,0,0,1053,21.0,2.0,Chinese,f,4,0.32341667,-2.59092547,1.19277037
WWH,86,1,2024-06-13T06:29:48.500Z,english_236.wav,0,0,3337,21.0,2.0,Chinese,f,0,0.0,14.26564849,0.89253674
WWH,86,1,2024-06-13T06:29:48.500Z,english_236.wav,0,0,3337,21.0,2.0,Chinese,f,1,0.1,60.97219358,0.38957934
WWH,86,1,2024-06-13T06:29:48.500Z,english_236.wav,0,0,3337,21.0,2.0,Chinese,f,2,0.2,-12.39626346,1.55558051
WWH,86,1,2024-06-13T06:29:48.500Z,english_236.wav,0,0,3337,21.0,2.0,Chinese,f,3,0.3,-62.87774076,0.2682718
WWH,86,1,2024-06-13T06:29:48.500Z,english_236.wav,0,0,3337,21.0,2.0,Chinese,f,4,0.32341667,-75.97684705,1.92182597
WWH,87,1,2024-06-13T06:29:48.500Z,english_406.wav,0,0,885,21.0,2.0,Chinese,f,0,0.0,28.09923375,1.43312072
WWH,87,1,2024-06-13T06:29:48.500Z,english_406.wav,0,0,885,21.0,2.0,Chinese,f,1,0.1,-15.10813675,0.8890381
WWH,87,1,2024-06-13T06:29:48.500Z,english_406.wav,0,0,885,21.0,2.0,Chinese,f,2,0.2,-12.43931725,0.60560557
WWH,87,1,2024-06-13T06:29:48.500Z,english_406.wav,0,0,885,21.0,2.0,Chinese,f,3,0.3,-27.33468297,1.13565345
WWH,87,1,2024-06-13T06:29:48.500Z,english_406.wav,0,0,885,21.0,2.0,Chinese,f,4,0.32341667,-62.66931892,1.8467177
WWH,88,1,2024-06-13T06:29:48.500Z,english_821.wav,0,0,1029,21.0,2.0,Chinese,f,0,0.0,-4.04234253,1.62928948
WWH,88,1,2024-06-13T06:29:48.500Z,english_821.wav,0,0,1029,21.0,2.0,Chinese,f,1,0.1,50.39518932,0.78033958
WWH,88,1,2024-06-13T06:29:48.500Z,english_821.wav,0,0,1029,21.0,2.0,Chinese,f,2,0.2,58.18996785,1.56476115
WWH,88,1,2024-06-13T06:29:48.500Z,english_821.wav,0,0,1029,21.0,2.0,Chinese,f,3,0.3,-22.07293427,0.56557752
WWH,88,1,2024-06-13T06:29:48.500Z,english_821.wav,0,0,1029,21.0,2.0,Chinese,f,4,0.32341667,56.43229939,0.93389964
WWH,89,1,2024-06-13T06:29:48.500Z,english_201.wav,0,1,1116,21.0,2.0,Chinese,f,0,0.0,-11.66329209,1.59313322
WWH,89,1,2024-06-13T06:29:48.500Z,english_201.wav,0,1,1116,21.0,2.0,Chinese,f,1,0.1,-73.85436231,1.78385616
WWH,89,1,2024-06-13T06:29:48.500Z,english_201.wav,0,1,1116,21.0,2.0,Chinese,f,2,0.2,-12.5199597,0.57641365
WWH,89,1,2024-06-13T06:29:48.500Z,english_201.wav,0,1,1116,21.0,2.0,Chinese,f,3,0.3,-44.18013019,1.54371285
WWH,89,1,2024-06-13T06:29:48.500Z,english_201.wav,0,1,1116,21.0,2.0,Chinese,f,4,0.32341667,47.68284229,1.11944384
WWH,90,1,2024-06-13T06:29:48.500Z,english_946.wav,0,1,1332,21.0,2.0,Chinese,f,0,0.0,-74.23479435,1.22824298
WWH,90,1,2024-06-13T06:29:48.500Z,english_946.wav,0,1,1332,21.0,2.0,Chinese,f,1,0.1,-11.3601526,0.85784227
WWH,90,1,2024-06-13T06:29:48.500Z,english_946.wav,0,1,1332,21.0,2.0,Chinese,f,2,0.2,36.50675361,0.09585286
WWH,90,1,2024-06-13T06:29:48.500Z,english_946.wav,0,1,1332,21.0,2.0,Chinese,f,3,0.3,-13.94845552,0.43829102
WWH,90,1,2024-06-13T06:29:48.500Z,english_946.wav,0,1,1332,21.0,2.0,Chinese,f,4,0.32341667,-6.97265347,0.86422506
WWH,91,1,2024-06-13T06:29:48.500Z,english_776.wav,0,1,887,21.0,2.0,Chinese,f,0,0.0,29.86548478,0.57139857
WWH,91,1,2024-06-13T06:29:48.500Z,english_776.wav,0,1,887,21.0,2.0,Chinese,f,1,0.1,2.8025705,1.94435619
WWH,91,1,2024-06-13T06:29:48.500Z,english_776.wav,0,1,887,21.0,2.0,Chinese,f,2,0.2,-38.4768188,0.3951066
WWH,91,1,2024-06-13T06:29:48.500Z,english_776.wav,0,1,887,21.0,2.0,Chinese,f,3,0.3,-89.49838949,0.29859462
WWH,91,1,2024-06-13T06:29:48.500Z,english_776.wav,0,1,887,21.0,2.0,Chinese,f,4,0.32341667,30.18488016,1.93939037
WWH,92,1,2024-06-13T06:29:48.500Z,english_879.wav,0,1,1257,21.0,2.0,Chinese,f,0,0.0,-56.32485069,0.53184386
WWH,92,1,2024-06-13T06:29:48.500Z,english_879.wav,0,1,1257,21.0,2.0,Chinese,f,1,0.1,64.67592183,1.34296213
WWH,92,1,2024-06-13T06:29:48.500Z,english_879.wav,0,1,1257,21.0,2.0,Chinese,f,2,0.2,25.82204554,0.44649674
WWH,92,1,2024-06-13T06:29:48.500Z,english_879.wav,0,1,1257,21.0,2.0,Chinese,f,3,0.3,5.66794257,0.79707043
WWH,92,1,2024-06-13T06:29:48.500Z,english_879.wav,0,1,1257,21.0,2.0,Chinese,f,4,0.32341667,-31.65503708,1.19804995
WWH,93,1,2024-06-13T06:29:48.500Z,english_924.wav,0,0,1372,21.0,2.0,Chinese,f,0,0.0,63.64154058,1.83477076
WWH,93,1,2024-06-13T06:29:48.500Z,english_924.wav,0,0,1372,21.0,2.0,Chinese,f,1,0.1,-60.55254199,0.21366754
WWH,93,1,2024-06-13T06:29:48.500Z,english_924.wav,0,0,1372,21.0,2.0,Chinese,f,2,0.2,-47.94670646,1.07859551
WWH,93,1,2024-06-13T06:29:48.500Z,english_924.wav,0,0,1372,21.0,2.0,Chinese,f,3,0.3,-76.50696127,1.9507375
WWH,93,1,2024-06-13T06:29:48.500Z,english_924.wav,0,0,1372,21.0,2.0,Chinese,f,4,0.32341667,44.23103111,1.33476666
WWH,94,1,2024-06-13T06:29:48.500Z,english_355.wav,0,0,1106,21.0,2.0,Chinese,f,0,0.0,33.6784286,1.28512049
WWH,94,1,2024-06-13T06:29:48.500Z,english_355.wav,0,0,1106,21.0,2.0,Chinese,f,1,0.1,30.74796889,1.04729355
WWH,94,1,2024-06-13T06:29:48.500Z,english_355.wav,0,0,1106,21.0,2.0,Chinese,f,2,0.2,71.39310534,0.74339822
WWH,94,1,2024-06-13T06:29:48.500Z,english_355.wav,0,0,1106,21.0,2.0,Chinese,f,3,0.3,38.16266559,0.86152361
WWH,94,1,2024-06-13T06:29:48.500Z,english_355.wav,0,0,1106,21.0,2.0,Chinese,f,4,0.32341667,-39.8799084,1.83215587
WWH,95,1,2024-06-13T06:29:48.500Z,english_675.wav,0,1,1840,21.0,2.0,Chinese,f,0,0.0,-31.75128323,1.35198954
WWH,95,1,2024-06-13T06:29:48.500Z,english_675.wav,0,1,1840,21.0,2.0,Chinese,f,1,0.1,60.52679753,1.32787853
WWH,95,1,2024-06-13T06:29:48.500Z,english_675.wav,0,1,1840,21.0,2.0,Chinese,f,2,0.2,-22.8835824,1.57632911
WWH,95,1,2024-06-13T06:29:48.500Z,english_675.wav,0,1,1840,21.0,2.0,Chinese,f,3,0.3,-6.32596177,0.80140737
WWH,95,1,2024-06-13T06:29:48.500Z,english_675.wav,0,1,1840,21.0,2.0,Chinese,f,4,0.32341667,-61.06491024,0.99818917
WWH,96,1,2024-06-13T06:29:48.500Z,english_823.wav,0,1,1921,21.0,2.0,Chinese,f,0,0.0,24.6891334,1.19409205
WWH,96,1,2024-06-13T06:29:48.500Z,english_823.wav,0,1,1921,21.0,2.0,Chinese,f,1,0.1,86.03794788,0.72053846
WWH,96,1,2024-06-13T06:29:48.500Z,english_823.wav,0,1,1921,21.0,2.0,Chinese,f,2,0.2,45.97308045,0.2138623
WWH,96,1,2024-06-13T06:29:48.500Z,english_823.wav,0,1,1921,21.0,2.0,Chinese,f,3,0.3,39.11596791,1.56743943
WWH,96,1,2024-06-13T06:29:48.500Z,english_823.wav,0,1,1921,21.0,2.0,Chinese,f,4,0.32341667,10.29734006,1.24065623
WWH,97,1,2024-06-13T06:29:48.500Z,english_801.wav,0,0,1123,21.0,2.0,Chinese,f,0,0.0,66.50571345,0.19311528
WWH,97,1,2024-06-13T06:29:48.500Z,english_801.wav,0,0,1123,21.0,2.0,Chinese,f,1,0.1,-53.03260979,0.48683601
WWH,97,1,2024-06-13T06:29:48.500Z,english_801.wav,0,0,1123,21.0,2.0,Chinese,f,2,0.2,-3.89459646,1.16293258
WWH,97,1,2024-06-13T06:29:48.500Z,english_801.wav,0,0,1123,21.0,2.0,Chinese,f,3,0.3,8.32951864,1.55734707
WWH,97,1,2024-06-13T06:29:48.500Z,english_801.wav,0,0,1123,21.0,2.0,Chinese,f,4,0.32341667,-87.46806733,0.63471681
WWH,98,1,2024-06-13T06:29:48.500Z,english_57.wav,0,1,1235,21.0,2.0,Chinese,f,0,0.0,-27.39668164,1.97835384
WWH,98,1,2024-06-13T06:29:48.500Z,english_57.wav,0,1,1235,21.0,2.0,Chinese,f,1,0.1,63.52389761,0.69906452
WWH,98,1,2024-06-13T06:29:48.500Z,english_57.wav,0,1,1235,21.0,2.0,Chinese,f,2,0.2,-55.42033209,0.75389415
WWH,98,1,2024-06-13T06:29:48.500Z,english_57.wav,0,1,1235,21.0,2.0,Chinese,f,3,0.3,40.81906742,0.20375649
WWH,98,1,2024-06-13T06:29:48.500Z,english_57.wav,0,1,1235,21.0,2.0,Chinese,f,4,0.32341667,-12.75543821,1.65585112
WWH,99,1,2024-06-13T06:29:48.500Z,english_309.wav,0,0,1231,21.0,2.0,Chinese,f,0,0.0,59.8258624,0.58100331
WWH,99,1,2024-06-13T06:29:48.500Z,english_309.wav,0,0,1231,21.0,2.0,Chinese,f,1,0.1,73.70427758,0.81024997
WWH,99,1,2024-06-13T06:29:48.500Z,english_309.wav,0,0,1231,21.0,2.0,Chinese,f,2,0.2,-8.71125849,0.10827203
WWH,99,1,2024-06-13T06:29:48.500Z,english_309.wav,0,0,1231,21.0,2.0,Chinese,f,3,0.3,-86.6882155,0.09670208
WWH,99,1,2024-06-13T06:29:48.500Z,english_309.wav,0,0,1231,21.0,2.0,Chinese,f,4,0.32341667,-90.77340978,1.53063904
WWH,100,2,2024-06-13T06:29:48.500Z,english_947.wav,0,1,1689,21.0,2.0,Chinese,f,0,0.0,73.13113362,0.1925557
WWH,100,2,2024-06-13T06:29:48.500Z,english_947.wav,0,1,1689,21.0,2.0,Chinese,f,1,0.1,-55.13077299,1.89478059
WWH,100,2,2024-06-13T06:29:48.500Z,english_947.wav,0,1,1689,21.0,2.0,Chinese,f,2,0.2,59.32217849,0.99662771
WWH,100,2,2024-06-13T06:29:48.500Z,english_947.wav,0,1,1689,21.0,2.0,Chinese,f,3,0.3,-71.25946194,0.61263341
WWH,100,2,2024-06-13T06:29:48.500Z,english_947.wav,0,1,1689,21.0,2.0,Chinese,f,4,0.32341667,39.2274254,0.46373334
WWH,101,2,2024-06-13T06:29:48.500Z,english_141.wav,0,0,956,21.0,2.0,Chinese,f,0,0.0,-85.83390244,1.36546316
WWH,101,2,2024-06-13T06:29:48.500Z,english_141.wav,0,0,956,21.0,2.0,Chinese,f,1,0.1,-83.68236309,0.39424104
WWH,101,2,2024-06-13T06:29:48.500Z,english_141.wav,0,0,956,21.0,2.0,Chinese,f,2,0.2,-69.95552588,1.31629396
WWH,101,2,2024-06-13T06:29:48.500Z,english_141.wav,0,0,956,21.0,2.0,Chinese,f,3,0.3,-14.67715053,0.23786768
WWH,101,2,2024-06-13T06:29:48.500Z,english_141.wav,0,0,956,21.0,2.0,Chinese,f,4,0.32341667,73.76142723,0.2069198
WWH,102,2,2024-06-13T06:29:48.500Z,english_664.wav,0,1,1054,21.0,2.0,Chinese,f,0,0.0,-76.94516773,1.88823832
WWH,102,2,2024-06-13T06:29:48.500Z,english_664.wav,0,1,1054,21.0,2.0,Chinese,f,1,0.1,-6.4858311,1.41396893
WWH,102,2,2024-06-13T06:29:48.500Z,english_664.wav,0,1,1054,21.0,2.0,Chinese,f,2,0.2,46.60528691,0.11773869
WWH,102,2,2024-06-13T06:29:48.500Z,english_664.wav,0,1,1054,21.0,2.0,Chinese,f,3,0.3,9.48323043,1.80376032
WWH,102,2,2024-06-13T06:29:48.500Z,english_664.wav,0,1,1054,21.0,2.0,Chinese,f,4,0.32341667,89.85696022,1.43209877
WWH,103,2,2024-06-13T06:29:48.500Z,english_15.wav,0,0,1520,21.0,2.0,Chinese,f,0,0.0,-84.2209614,0.31323186
WWH,103,2,2024-06-13T06:29:48.500Z,english_15.wav,0,0,1520,21.0,2.0,Chinese,f,1,0.1,62.09656714,0.60538609
WWH,103,2,2024-06-13T06:29:48.500Z,english_15.wav,0,0,1520,21.0,2.0,Chinese,f,2,0.2,55.13992629,0.21165259
WWH,103,2,2024-06-13T06:29:48.500Z,english_15.wav,0,0,1520,21.0,2.0,Chinese,f,3,0.3,-55.71077558,0.62501131
WWH,103,2,2024-06-13T06:29:48.500Z,english_15.wav,0,0,1520,21.0,2.0,Chinese,f,4,0.32341667,77.6678018,0.97290752
WWH,104,2,2024-06-13T06:29:48.500Z,english_303.wav,0,1,851,21.0,2.0,Chinese,f,0,0.0,67.00540241,1.22520816
WWH,104,2,2024-06-13T06:29:48.500Z,english_303.wav,0,1,851,21.0,2.0,Chinese,f,1,0.1,32.95821842,1.22732479
WWH,104,2,2024-06-13T06:29:48.500Z,english_303.wav,0,1,851,21.0,2.0,Chinese,f,2,0.2,-23.67517146,0.54923068
WWH,104,2,2024-06-13T06:29:48.500Z,english_303.wav,0,1,851,21.0,2.0,Chinese,f,3,0.3,-66.94926695,0.8977578
WWH,104,2,2024-06-13T06:29:48.500Z,english_303.wav,0,1,851,21.0,2.0,Chinese,f,4,0.32341667,65.71723135,1.41807679
WWH,105,2,2024-06-13T06:29:48.500Z,english_829.wav,0,0,1199,21.0,2.0,Chinese,f,0,0.0,60.30417439,0.94286345
WWH,105,2,2024-06-13T06:29:48.500Z,english_829.wav,0,0,1199,21.0,2.0,Chinese,f,1,0.1,-26.87459656,0.76756767
WWH,105,2,2024-06-13T06:29:48.500Z,english_829.wav,0,0,1199,21.0,2.0,Chinese,f,2,0.2,59.05286014,1.50609211
WWH,105,2,2024-06-13T06:29:48.500Z,english_829.wav,0,0,1199,21.0,2.0,Chinese,f,3,0.3,-38.64739237,0.33518122
WWH,105,2,2024-06-13T06:29:48.500Z,english_829.wav,0,0,1199,21.0,2.0,Chinese,f,4,0.32341667,68.61732932,1.40687349
WWH,106,2,2024-06-13T06:29:48.500Z,english_235.wav,0,1,1064,21.0,2.0,Chinese,f,0,0.0,-1.09951899,1.56432712
WWH,106,2,2024-06-13T06:29:48.500Z,english_235.wav,0,1,1064,21.0,2.0,Chinese,f,1,0.1,-96.83918407,0.18127978
WWH,106,2,2024-06-13T06:29:48.500Z,english_235.wav,0,1,1064,21.0,2.0,Chinese,f,2,0.2,96.22116446,1.26168206
WWH,106,2,2024-06-13T06:29:48.500Z,english_235.wav,0,1,1064,21.0,2.0,Chinese,f,3,0.3,48.9502898,1.98140435
WWH,106,2,2024-06-13T06:29:48.500Z,english_235.wav,0,1,1064,21.0,2.0,Chinese,f,4,0.32341667,38.18641725,0.52366779
WWH,107,2,2024-06-13T06:29:48.500Z,english_881.wav,0,1,1551,21.0,2.0,Chinese,f,0,0.0,7.28069095,1.60234882
WWH,107,2,2024-06-13T06:29:48.500Z,english_881.wav,0,1,1551,21.0,2.0,Chinese,f,1,0.1,-64.28928902,0.93497238
WWH,107,2,2024-06-13T06:29:48.500Z,english_881.wav,0,1,1551,21.0,2.0,Chinese,f,2,0.2,-2.07432692,0.58107235
WWH,107,2,2024-06-13T06:29:48.500Z,english_881.wav,0,1,1551,21.0,2.0,Chinese,f,3,0.3,51.5536886,1.34691236
WWH,107,2,2024-06-13T06:29:48.500Z,english_881.wav,0,1,1551,21.0,2.0,Chinese,f,4,0.32341667,65.74991707,0.85842561
WWH,108,2,2024-06-13T06:29:48.500Z,english_755.wav,0,0,831,21.0,2.0,Chinese,f,0,0.0,-15.85533995,0.06987403
WWH,108,2,2024-06-13T06:29:48.500Z,english_755.wav,0,0,831,21.0,2.0,Chinese,f,1,0.1,-97.95934782,0.83204773
WWH,108,2,2024-06-13T06:29:48.500Z,english_755.wav,0,0,831,21.0,2.0,Chinese,f,2,0.2,-5.14559719,1.06816443
WWH,108,2,2024-06-13T06:29:48.500Z,english_755.wav,0,0,831,21.0,2.0,Chinese,f,3,0.3,32.74087849,1.42856986
WWH,108,2,2024-06-13T06:29:48.500Z,english_755.wav,0,0,831,21.0,2.0,Chinese,f,4,0.32341667,-56.93437429,0.58130438
WWH,109,2,2024-06-13T06:29:48.500Z,english_779.wav,0,1,823,21.0,2.0,Chinese,f,0,0.0,-66.48303018,1.22216448
WWH,109,2,2024-06-13T06:29:48.500Z,english_779.wav,0,1,823,21.0,2.0,Chinese,f,1,0.1,55.33592885,1.30288261
WWH,109,2,2024-06-13T06:29:48.500Z,english_779.wav,0,1,823,21.0,2.0,Chinese,f,2,0.2,67.38671669,0.25409759
WWH,109,2,2024-06-13T06:29:48.500Z,english_779.wav,0,1,823,21.0,2.0,Chinese,f,3,0.3,65.49052189,1.76174581
WWH,109,2,2024-06-13T06:29:48.500Z,english_779.wav,0,1,823,21.0,2.0,Chinese,f,4,0.32341667,-12.12955258,0.12280057
WWH,110,2,2024-06-13T06:29:48.500Z,english_739.wav,0,1,923,21.0,2.0,Chinese,f,0,0.0,-30.44662447,1.4086692
WWH,110,2,2024-06-13T06:29:48.500Z,english_739.wav,0,1,923,21.0,2.0,Chinese,f,1,0.1,-27.69908881,0.95518545
WWH,110,2,2024-06-13T06:29:48.500Z,english_739.wav,0,1,923,21.0,2.0,Chinese,f,2,0.2,25.08576745,1.0815723
WWH,110,2,2024-06-13T06:29:48.500Z,english_739.wav,0,1,923,21.0,2.0,Chinese,f,3,0.3,-20.92476775,0.08724184
WWH,110,2,2024-06-13T06:29:48.500Z,english_739.wav,0,1,923,21.0,2.0,Chinese,f,4,0.32341667,-46.92266257,1.12979104
WWH,111,2,2024-06-13T06:29:48.500Z,english_943.wav,0,0,1305,21.0,2.0,Chinese,f,0,0.0,-88.39234314,0.07745413
WWH,111,2,2024-06-13T06:29:48.500Z,english_943.wav,0,0,1305,21.0,2.0,Chinese,f,1,0.1,65.27529367,1.64078214
WWH,111,2,2024-06-13T06:29:48.500Z,english_943.wav,0,0,1305,21.0,2.0,Chinese,f,2,0.2,-24.85222093,0.23468741
WWH,111,2,2024-06-13T06:29:48.500Z,english_943.wav,0,0,1305,21.0,2.0,Chinese,f,3,0.3,20.61002448,1.49561498
WWH,111,2,2024-06-13T06:29:48.500Z,english_943.wav,0,0,1305,21.0,2.0,Chinese,f,4,0.32341667,-74.64601709,1.25217021
WWH,112,2,2024-06-13T06:29:48.500Z,english_445.wav,0,1,852,21.0,2.0,Chinese,f,0,0.0,88.00598922,1.42174052
WWH,112,2,2024-06-13T06:29:48.500Z,english_445.wav,0,1,852,21.0,2.0,Chinese,f,1,0.1,96.51328737,1.49122509
WWH,112,2,2024-06-13T06:29:48.500Z,english_445.wav,0,1,852,21.0,2.0,Chinese,f,2,0.2,29.11093561,0.62095286
WWH,112,2,2024-06-13T06:29:48.500Z,english_445.wav,0,1,852,21.0,2.0,Chinese,f,3,0.3,69.6076589,1.14630865
WWH,112,2,2024-06-13T06:29:48.500Z,english_445.wav,0,1,852,21.0,2.0,Chinese,f,4,0.32341667,-59.73938179,1.38538671
WWH,113,2,2024-06-13T06:29:48.500Z,english_322.wav,0,0,876,21.0,2.0,Chinese,f,0,0.0,-27.28438319,0.79345249
WWH,113,2,2024-06-13T06:29:48.500Z,english_322.wav,0,0,876,21.0,2.0,Chinese,f,1,0.1,-98.66999083,0.28651419
WWH,113,2,2024-06-13T06:29:48.500Z,english_322.wav,0,0,876,21.0,2.0,Chinese,f,2,0.2,-54.08694108,1.26482546
WWH,113,2,2024-06-13T06:29:48.500Z,english_322.wav,0,0,876,21.0,2.0,Chinese,f,3,0.3,-7.3933801,0.6947791
WWH,113,2,2024-06-13T06:29:48.500Z,english_322.wav,0,0,876,21.0,2.0,Chinese,f,4,0.32341667,72.49489683,0.74875353
WWH,114,2,2024-06-13T06:29:48.500Z,english_596.wav,0,0,2339,21.0,2.0,Chinese,f,0,0.0,90.29147433,0.88361056
WWH,114,2,2024-06-13T06:29:48.500Z,english_596.wav,0,0,2339,21.0,2.0,Chinese,f,1,0.1,12.52853873,0.63799557
WWH,114,2,2024-06-13T06:29:48.500Z,english_596.wav,0,0,2339,21.0,2.0,Chinese,f,2,0.2,50.53853174,0.09787331
WWH,114,2,2024-06-13T06:29:48.500Z,english_596.wav,0,0,2339,21.0,2.0,Chinese,f,3,0.3,-77.3590695,1.15168959
WWH,114,2,2024-06-13T06:29:48.500Z,english_596.wav,0,0,2339,21.0,2.0,Chinese,f,4,0.32341667,-1.65440801,0.06773829
WWH,115,2,2024-06-13T06:29:48.500Z,english_920.wav,0,1,853,21.0,2.0,Chinese,f,0,0.0,95.7501832,1.54313256
WWH,115,2,2024-06-13T06:29:48.500Z,english_920.wav,0,1,853,21.0,2.0,Chinese,f,1,0.1,-3.19831823,1.33500472
WWH,115,2,2024-06-13T06:29:48.500Z,english_920.wav,0,1,853,21.0,2.0,Chinese,f,2,0.2,-16.96134457,1.12819963
WWH,115,2,2024-06-13T06:29:48.500Z,english_920.wav,0,1,853,21.0,2.0,Chinese,f,3,0.3,-28.81747413,1.72147256
WWH,115,2,2024-06-13T06:29:48.500Z,english_920.wav,0,1,853,21.0,2.0,Chinese,f,4,0.32341667,42.63505928,0.57593815
WWH,116,2,2024-06-13T06:29:48.500Z,english_731.wav,0,1,2898,21.0,2.0,Chinese,f,0,0.0,91.74609406,0.2840719
WWH,116,2,2024-06-13T06:29:48.500Z,english_731.wav,0,1,2898,21.0,2.0,Chinese,f,1,0.1,96.5637085,1.75324284
WWH,116,2,2024-06-13T06:29:48.500Z,english_731.wav,0,1,2898,21.0,2.0,Chinese,f,2,0.2,-58.02596537,1.43086201
WWH,116,2,2024-06-13T06:29:48.500Z,english_731.wav,0,1,2898,21.0,2.0,Chinese,f,3,0.3,21.59328018,1.68336342
WWH,116,2,2024-06-13T06:29:48.500Z,english_731.wav,0,1,2898,21.0,2.0,Chinese,f,4,0.32341667,13.26044458,0.60031718
WWH,117,2,2024-06-13T06:29:48.500Z,english_992.wav,0,0,998,21.0,2.0,Chinese,f,0,0.0,-6.68189934,0.46848529
WWH,117,2,2024-06-13T06:29:48.500Z,english_992.wav,0,0,998,21.0,2.0,Chinese,f,1,0.1,78.76679047,0.9874556
WWH,117,2,2024-06-13T06:29:48.500Z,english_992.wav,0,0,998,21.0,2.0,Chinese,f,2,0.2,-58.5917679,0.57881803
WWH,117,2,2024-06-13T06:29:48.500Z,english_992.wav,0,0,998,21.0,2.0,Chinese,f,3,0.3,-98.64651588,0.88425299
WWH,117,2,2024-06-13T06:29:48.500Z,english_992.wav,0,0,998,21.0,2.0,Chinese,f,4,0.32341667,73.76402904,0.6994588
WWH,118,2,2024-06-13T06:29:48.500Z,english_484.wav,0,0,1062,21.0,2.0,Chinese,f,0,0.0,79.97188672,0.20745104
WWH,118,2,2024-06-13T06:29:48.500Z,english_484.wav,0,0,1062,21.0,2.0,Chinese,f,1,0.1,-84.58904822,1.46214797
WWH,118,2,2024-06-13T06:29:48.500Z,english_484.wav,0,0,1062,21.0,2.0,Chinese,f,2,0.2,70.2960477,0.40821612
WWH,118,2,2024-06-13T06:29:48.500Z,english_484.wav,0,0,1062,21.0,2.0,Chinese,f,3,0.3,-66.44520929,1.23203415
WWH,118,2,2024-06-13T06:29:48.500Z,english_484.wav,0,0,1062,21.0,2.0,Chinese,f,4,0.32341667,-78.91715359,1.26593617
WWH,119,2,2024-06-13T06:29:48.500Z,english_996.wav,0,0,1005,21.0,2.0,Chinese,f,0,0.0,-71.70531914,1.36459419
WWH,119,2,2024-06-13T06:29:48.500Z,english_996.wav,0,0,1005,21.0,2.0,Chinese,f,1,0.1,-47.61419544,0.5051745
WWH,119,2,2024-06-13T06:29:48.500Z,english_996.wav,0,0,1005,21.0,2.0,Chinese,f,2,0.2,48.0330823,1.09957376
WWH,119,2,2024-06-13T06:29:48.500Z,english_996.wav,0,0,1005,21.0,2.0,Chinese,f,3,0.3,34.27821317,0.27950682
WWH,119,2,2024-06-13T06:29:48.500Z,english_996.wav,0,0,1005,21.0,2.0,Chinese,f,4,0.32341667,-72.4662587,0.22836241
WWH,120,2,2024-06-13T06:29:48.500Z,english_181.wav,0,0,1068,21.0,2.0,Chinese,f,0,0.0,-20.89133039,0.39550568
WWH,120,2,2024-06-13T06:29:48.500Z,english_181.wav,0,0,1068,21.0,2.0,Chinese,f,1,0.1,-68.36112581,0.87114476
WWH,120,2,2024-06-13T06:29:48.500Z,english_181.wav,0,0,1068,21.0,2.0,Chinese,f,2,0.2,-21.7912093,0.0214418
WWH,120,2,2024-06-13T06:29:48.500Z,english_181.wav,0,0,1068,21.0,2.0,Chinese,f,3,0.3,7.62752627,1.98777716
WWH,120,2,2024-06-13T06:29:48.500Z,english_181.wav,0,0,1068,21.0,2.0,Chinese,f,4,0.32341667,53.94324841,0.40706026
WWH,121,2,2024-06-13T06:29:48.500Z,english_475.wav,0,1,901,21.0,2.0,Chinese,f,0,0.0,-68.25626322,0.40988158
WWH,121,2,2024-06-13T06:29:48.500Z,english_475.wav,0,1,901,21.0,2.0,Chinese,f,1,0.1,-56.46648788,1.90107213
WWH,121,2,2024-06-13T06:29:48.500Z,english_475.wav,0,1,901,21.0,2.0,Chinese,f,2,0.2,49.77560279,0.54721615
WWH,121,2,2024-06-13T06:29:48.500Z,english_475.wav,0,1,901,21.0,2.0,Chinese,f,3,0.3,-41.74178488,1.80730726
WWH,121,2,2024-06-13T06:29:48.500Z,english_475.wav,0,1,901,21.0,2.0,Chinese,f,4,0.32341667,-60.3255454,0.11427958
WWH,122,2,2024-06-13T06:29:48.500Z,english_658.wav,0,0,944,21.0,2.0,Chinese,f,0,0.0,-80.21976745,0.49170119
WWH,122,2,2024-06-13T06:29:48.500Z,english_658.wav,0,0,944,21.0,2.0,Chinese,f,1,0.1,11.23314836,0.6994793
WWH,122,2,2024-06-13T06:29:48.500Z,english_658.wav,0,0,944,21.0,2.0,Chinese,f,2,0.2,8.94946791,1.18458539
WWH,122,2,2024-06-13T06:29:48.500Z,english_658.wav,0,0,944,21.0,2.0,Chinese,f,3,0.3,17.22411688,0.7091276
WWH,122,2,2024-06-13T06:29:48.500Z,english_658.wav,0,0,944,21.0,2.0,Chinese,f,4,0.32341667,10.67081381,1.7453453
WWH,123,2,2024-06-13T06:29:48.500Z,english_424.wav,0,0,1729,21.0,2.0,Chinese,f,0,0.0,-7.44814198,1.7438251
WWH,123,2,2024-06-13T06:29:48.500Z,english_424.wav,0,0,1729,21.0,2.0,Chinese,f,1,0.1,9.0703424,1.33993463
WWH,123,2,2024-06-13T06:29:48.500Z,english_424.wav,0,0,1729,21.0,2.0,Chinese,f,2,0.2,-65.6005214,0.96535207
WWH,123,2,2024-06-13T06:29:48.500Z,english_424.wav,0,0,1729,21.0,2.0,Chinese,f,3,0.3,79.88163057,0.39557207
WWH,123,2,2024-06-13T06:29:48.500Z,english_424.wav,0,0,1729,21.0,2.0,Chinese,f,4,0.32341667,48.78273262,0.47346175
WWH,124,2,2024-06-13T06:29:48.500Z,english_654.wav,0,0,1219,21.0,2.0,Chinese,f,0,0.0,-97.13147194,0.91673578
WWH,124,2,2024-06-13T06:29:48.500Z,english_654.wav,0,0,1219,21.0,2.0,Chinese,f,1,0.1,-81.37819023,1.23280851
WWH,124,2,2024-06-13T06:29:48.500Z,english_654.wav,0,0,1219,21.0,2.0,Chinese,f,2,0.2,51.48571278,1.64688363
WWH,124,2,2024-06-13T06:29:48.500Z,english_654.wav,0,0,1219,21.0,2.0,Chinese,f,3,0.3,54.00949099,1.75994168
WWH,124,2,2024-06-13T06:29:48.500Z,english_654.wav,0,0,1219,21.0,2.0,Chinese,f,4,0.32341667,-95.1633683,0.20104411
WWH,125,2,2024-06-13T06:29:48.500Z,english_570.wav,0,1,2091,21.0,2.0,Chinese,f,0,0.0,79.72420881,1.67561776
WWH,125,2,2024-06-13T06:29:48.500Z,english_570.wav,0,1,2091,21.0,2.0,Chinese,f,1,0.1,-10.34227762,1.50139893
WWH,125,2,2024-06-13T06:29:48.500Z,english_570.wav,0,1,2091,21.0,2.0,Chinese,f,2,0.2,18.32754659,1.41834695
WWH,125,2,2024-06-13T06:29:48.500Z,english_570.wav,0,1,2091,21.0,2.0,Chinese,f,3,0.3,15.23919529,1.12876239
WWH,125,2,2024-06-13T06:29:48.500Z,english_570.wav,0,1,2091,21.0,2.0,Chinese,f,4,0.32341667,-28.05357781,0.72546523
WWH,126,2,2024-06-13T06:29:48.500Z,english_382.wav,0,0,899,21.0,2.0,Chinese,f,0,0.0,-83.35497559,1.24516413
WWH,126,2,2024-06-13T06:29:48.500Z,english_382.wav,0,0,899,21.0,2.0,Chinese,f,1,0.1,7.83115402,0.59675254
WWH,126,2,2024-06-13T06:29:48.500Z,english_382.wav,0,0,899,21.0,2.0,Chinese,f,2,0.2,77.46115257,0.61036026
WWH,126,2,2024-06-13T06:29:48.500Z,english_382.wav,0,0,899,21.0,2.0,Chinese,f,3,0.3,89.755233,1.95554414
WWH,126,2,2024-06-13T06:29:48.500Z,english_382.wav,0,0,899,21.0,2.0,Chinese,f,4,0.32341667,-36.08570956,1.60845727
WWH,127,2,2024-06-13T06:29:48.500Z,english_891.wav,0,0,1123,21.0,2.0,Chinese,f,0,0.0,21.29241244,0.7419472
WWH,127,2,2024-06-13T06:29:48.500Z,english_891.wav,0,0,1123,21.0,2.0,Chinese,f,1,0.1,-1.23713702,1.09270952
WWH,127,2,2024-06-13T06:29:48.500Z,english_891.wav,0,0,1123,21.0,2.0,Chinese,f,2,0.2,-74.86460599,0.8129571
WWH,127,2,2024-06-13T06:29:48.500Z,english_891.wav,0,0,1123,21.0,2.0,Chinese,f,3,0.3,18.81587233,0.16019775
WWH,127,2,2024-06-13T06:29:48.500Z,english_891.wav,0,0,1123,21.0,2.0,Chinese,f,4,0.32341667,35.3489582,1.17476401
WWH,128,2,2024-06-13T06:29:48.500Z,english_907.wav,0,1,794,21.0,2.0,Chinese,f,0,0.0,13.97638225,0.68575839
WWH,128,2,2024-06-13T06:29:48.500Z,english_907.wav,0,1,794,21.0,2.0,Chinese,f,1,0.1,36.81481791,1.58611259
WWH,128,2,2024-06-13T06:29:48.500Z,english_907.wav,0,1,794,21.0,2.0,Chinese,f,2,0.2,1.21651202,1.59547025
WWH,128,2,2024-06-13T06:29:48.500Z,english_907.wav,0,1,794,21.0,2.0,Chinese,f,3,0.3,35.47405672,0.75888392
WWH,128,2,2024-06-13T06:29:48.500Z,english_907.wav,0,1,794,21.0,2.0,Chinese,f,4,0.32341667,-27.93760057,0.06937964
WWH,129,2,2024-06-13T06:29:48.500Z,english_689.wav,0,0,862,21.0,2.0,Chinese,f,0,0.0,42.02822248,1.89069384
WWH,129,2,2024-06-13T06:29:48.500Z,english_689.wav,0,0,862,21.0,2.0,Chinese,f,1,0.1,-61.92185233,0.33123617
WWH,129,2,2024-06-13T06:29:48.500Z,english_689.wav,0,0,862,21.0,2.0,Chinese,f,2,0.2,-8.45156809,0.5478675
WWH,129,2,2024-06-13T06:29:48.500Z,english_689.wav,0,0,862,21.0,2.0,Chinese,f,3,0.3,15.09500637,0.80334133
WWH,129,2,2024-06-13T06:29:48.500Z,english_689.wav,0,0,862,21.0,2.0,Chinese,f,4,0.32341667,8.33163023,1.42024866
WWH,130,2,2024-06-13T06:29:48.500Z,english_135.wav,0,1,1396,21.0,2.0,Chinese,f,0,0.0,92.53632507,0.8813083
WWH,130,2,2024-06-13T06:29:48.500Z,english_135.wav,0,1,1396,21.0,2.0,Chinese,f,1,0.1,42.68843281,1.60503348
WWH,130,2,2024-06-13T06:29:48.500Z,english_135.wav,0,1,1396,21.0,2.0,Chinese,f,2,0.2,87.27237188,0.22265806
WWH,130,2,2024-06-13T06:29:48.500Z,english_135.wav,0,1,1396,21.0,2.0,Chinese,f,3,0.3,-70.62725941,0.4233462
WWH,130,2,2024-06-13T06:29:48.500Z,english_135.wav,0,1,1396,21.0,2.0,Chinese,f,4,0.32341667,91.37204548,0.99500327
WWH,131,2,2024-06-13T06:29:48.500Z,english_481.wav,0,0,1471,21.0,2.0,Chinese,f,0,0.0,-1.07793215,1.34620279
WWH,131,2,2024-06-13T06:29:48.500Z,english_481.wav,0,0,1471,21.0,2.0,Chinese,f,1,0.1,72.11929458,0.4682023
WWH,131,2,2024-06-13T06:29:48.500Z,english_481.wav,0,0,1471,21.0,2.0,Chinese,f,2,0.2,-0.36002545,1.2575358
WWH,131,2,2024-06-13T06:29:48.500Z,english_481.wav,0,0,1471,21.0,2.0,Chinese,f,3,0.3,11.70252104,1.51306824
WWH,131,2,2024-06-13T06:29:48.500Z,english_481.wav,0,0,1471,21.0,2.0,Chinese,f,4,0.32341667,-16.16595736,1.86086011
WWH,132,2,2024-06-13T06:29:48.500Z,english_230.wav,0,0,907,21.0,2.0,Chinese,f,0,0.0,59.01519707,0.66464778
WWH,132,2,2024-06-13T06:29:48.500Z,english_230.wav,0,0,907,21.0,2.0,Chinese,f,1,0.1,-74.67447784,1.09498554
WWH,132,2,2024-06-13T06:29:48.500Z,english_230.wav,0,0,907,21.0,2.0,Chinese,f,2,0.2,78.11378701,0.24708562
WWH,132,2,2024-06-13T06:29:48.500Z,english_230.wav,0,0,907,21.0,2.0,Chinese,f,3,0.3,26.79367619,1.40152246
WWH,132,2,2024-06-13T06:29:48.500Z,english_230.wav,0,0,907,21.0,2.0,Chinese,f,4,0.32341667,29.92451654,1.02203861
WWH,133,2,2024-06-13T06:29:48.500Z,english_820.wav,0,1,1041,21.0,2.0,Chinese,f,0,0.0,-46.83321603,0.84618107
WWH,133,2,2024-06-13T06:29:48.500Z,english_820.wav,0,1,1041,21.0,2.0,Chinese,f,1,0.1,41.6487922,0.98544532
WWH,133,2,2024-06-13T06:29:48.500Z,english_820.wav,0,1,1041,21.0,2.0,Chinese,f,2,0.2,8.4156442,0.7701051
WWH,133,2,2024-06-13T06:29:48.500Z,english_820.wav,0,1,1041,21.0,2.0,Chinese,f,3,0.3,-54.82963666,1.20043732
WWH,133,2,2024-06-13T06:29:48.500Z,english_820.wav,0,1,1041,21.0,2.0,Chinese,f,4,0.32341667,30.43602938,1.85489027
WWH,134,2,2024-06-13T06:29:48.500Z,english_772.wav,0,1,746,21.0,2.0,Chinese,f,0,0.0,-76.23750274,0.54712598
WWH,134,2,2024-06-13T06:29:48.500Z,english_772.wav,0,1,746,21.0,2.0,Chinese,f,1,0.1,54.42820472,1.66698734
WWH,134,2,2024-06-13T06:29:48.500Z,english_772.wav,0,1,746,21.0,2.0,Chinese,f,2,0.2,26.41325181,1.761061
WWH,134,2,2024-06-13T06:29:48.500Z,english_772.wav,0,1,746,21.0,2.0,Chinese,f,3,0.3,14.10037165,1.80899506
WWH,134,2,2024-06-13T06:29:48.500Z,english_772.wav,0,1,746,21.0,2.0,Chinese,f,4,0.32341667,-75.83605273,1.29882268
WWH,135,2,2024-06-13T06:29:48.500Z,english_75.wav,0,1,1403,21.0,2.0,Chinese,f,0,0.0,-9.18091647,0.92930856
WWH,135,2,2024-06-13T06:29:48.500Z,english_75.wav,0,1,1403,21.0,2.0,Chinese,f,1,0.1,-62.02164907,1.94000482
WWH,135,2,2024-06-13T06:29:48.500Z,english_75.wav,0,1,1403,21.0,2.0,Chinese,f,2,0.2,-12.90623207,1.2183621
WWH,135,2,2024-06-13T06:29:48.500Z,english_75.wav,0,1,1403,21.0,2.0,Chinese,f,3,0.3,15.17089036,0.47349695
WWH,135,2,2024-06-13T06:29:48.500Z,english_75.wav,0,1,1403,21.0,2.0,Chinese,f,4,0.32341667,10.89352922,1.02561006
WWH,136,2,2024-06-13T06:29:48.500Z,english_257.wav,0,1,845,21.0,2.0,Chinese,f,0,0.0,-68.31428674,1.40239735
WWH,136,2,2024-06-13T06:29:48.500Z,english_257.wav,0,1,845,21.0,2.0,Chinese,f,1,0.1,-13.90908686,1.49673114
WWH,136,2,2024-06-13T06:29:48.500Z,english_257.wav,0,1,845,21.0,2.0,Chinese,f,2,0.2,54.08743226,1.07658057
WWH,136,2,2024-06-13T06:29:48.500Z,english_257.wav,0,1,845,21.0,2.0,Chinese,f,3,0.3,-42.73693867,0.27427112
WWH,136,2,2024-06-13T06:29:48.500Z,english_257.wav,0,1,845,21.0,2.0,Chinese,f,4,0.32341667,-1.03846516,1.90516482
WWH,137,2,2024-06-13T06:29:48.500Z,english_392.wav,0,0,1796,21.0,2.0,Chinese,f,0,0.0,-12.90562814,1.13144201
WWH,137,2,2024-06-13T06:29:48.500Z,english_392.wav,0,0,1796,21.0,2.0,Chinese,f,1,0.1,-1.29416779,0.98893381
WWH,137,2,2024-06-13T06:29:48.500Z,english_392.wav,0,0,1796,21.0,2.0,Chinese,f,2,0.2,-53.34155903,0.07204825
WWH,137,2,2024-06-13T06:29:48.500Z,english_392.wav,0,0,1796,21.0,2.0,Chinese,f,3,0.3,-48.65153398,1.52779633
WWH,137,2,2024-06-13T06:29:48.500Z,english_392.wav,0,0,1796,21.0,2.0,Chinese,f,4,0.32341667,-43.47653164,1.32355089
WWH,138,2,2024-06-13T06:29:48.500Z,english_694.wav,0,0,1141,21.0,2.0,Chinese,f,0,0.0,-79.88370205,0.99496101
WWH,138,2,2024-06-13T06:29:48.500Z,english_694.wav,0,0,1141,21.0,2.0,Chinese,f,1,0.1,-58.02841319,0.06406007
WWH,138,2,2024-06-13T06:29:48.500Z,english_694.wav,0,0,1141,21.0,2.0,Chinese,f,2,0.2,-50.54988317,0.5055253
WWH,138,2,2024-06-13T06:29:48.500Z,english_694.wav,0,0,1141,21.0,2.0,Chinese,f,3,0.3,-20.79864769,0.19498426
WWH,138,2,2024-06-13T06:29:48.500Z,english_694.wav,0,0,1141,21.0,2.0,Chinese,f,4,0.32341667,-73.64916114,0.36410653
WWH,139,2,2024-06-13T06:29:48.500Z,english_298.wav,0,0,1661,21.0,2.0,Chinese,f,0,0.0,-71.75530507,0.91890611
WWH,139,2,2024-06-13T06:29:48.500Z,english_298.wav,0,0,1661,21.0,2.0,Chinese,f,1,0.1,76.25876358,0.7322353
WWH,139,2,2024-06-13T06:29:48.500Z,english_298.wav,0,0,1661,21.0,2.0,Chinese,f,2,0.2,11.95102224,0.50601445
WWH,139,2,2024-06-13T06:29:48.500Z,english_298.wav,0,0,1661,21.0,2.0,Chinese,f,3,0.3,79.91037795,0.41160049
WWH,139,2,2024-06-13T06:29:48.500Z,english_298.wav,0,0,1661,21.0,2.0,Chinese,f,4,0.32341667,30.12462174,0.81223035
WWH,140,2,2024-06-13T06:29:48.500Z,english_630.wav,0,0,1349,21.0,2.0,Chinese,f,0,0.0,97.25925287,0.34607754
WWH,140,2,2024-06-13T06:29:48.500Z,english_630.wav,0,0,1349,21.0,2.0,Chinese,f,1,0.1,76.95662127,0.15996234
WWH,140,2,2024-06-13T06:29:48.500Z,english_630.wav,0,0,1349,21.0,2.0,Chinese,f,2,0.2,5.01423186,1.73874617
WWH,140,2,2024-06-13T06:29:48.500Z,english_630.wav,0,0,1349,21.0,2.0,Chinese,f,3,0.3,-27.88706711,0.41181915
WWH,140,2,2024-06-13T06:29:48.500Z,english_630.wav,0,0,1349,21.0,2.0,Chinese,f,4,0.32341667,90.69966072,0.77788697
WWH,141,2,2024-06-13T06:29:48.500Z,english_515.wav,0,0,969,21.0,2.0,Chinese,f,0,0.0,-51.44071002,1.17100165
WWH,141,2,2024-06-13T06:29:48.500Z,english_515.wav,0,0,969,21.0,2.0,Chinese,f,1,0.1,-54.80209221,0.37535268
WWH,141,2,2024-06-13T06:29:48.500Z,english_515.wav,0,0,969,21.0,2.0,Chinese,f,2,0.2,64.47174239,1.31079719
WWH,141,2,2024-06-13T06:29:48.500Z,english_515.wav,0,0,969,21.0,2.0,Chinese,f,3,0.3,-10.56071982,1.40472496
WWH,141,2,2024-06-13T06:29:48.500Z,english_515.wav,0,0,969,21.0,2.0,Chinese,f,4,0.32341667,-39.86348554,0.6392892
WWH,142,2,2024-06-13T06:29:48.500Z,english_295.wav,0,0,1029,21.0,2.0,Chinese,f,0,0.0,-76.51454746,1.12273409
WWH,142,2,2024-06-13T06:29:48.500Z,english_295.wav,0,0,1029,21.0,2.0,Chinese,f,1,0.1,-96.9380047,0.2018376
WWH,142,2,2024-06-13T06:29:48.500Z,english_295.wav,0,0,1029,21.0,2.0,Chinese,f,2,0.2,-72.79782389,1.81703153
WWH,142,2,2024-06-13T06:29:48.500Z,english_295.wav,0,0,1029,21.0,2.0,Chinese,f,3,0.3,-31.86888898,0.31799467
WWH,142,2,2024-06-13T06:29:48.500Z,english_295.wav,0,0,1029,21.0,2.0,Chinese,f,4,0.32341667,-51.47839766,0.71777059
WWH,143,2,2024-06-13T06:29:48.500Z,english_425.wav,0,0,834,21.0,2.0,Chinese,f,0,0.0,52.16022051,1.95369626
WWH,143,2,2024-06-13T06:29:48.500Z,english_425.wav,0,0,834,21.0,2.0,Chinese,f,1,0.1,-4.0342476,0.01224448
WWH,143,2,2024-06-13T06:29:48.500Z,english_425.wav,0,0,834,21.0,2.0,Chinese,f,2,0.2,71.82190917,1.45838463
WWH,143,2,2024-06-13T06:29:48.500Z,english_425.wav,0,0,834,21.0,2.0,Chinese,f,3,0.3,77.8432037,1.1656734
WWH,143,2,2024-06-13T06:29:48.500Z,english_425.wav,0,0,834,21.0,2.0,Chinese,f,4,0.32341667,29.14791909,1.54078916
WWH,144,2,2024-06-13T06:29:48.500Z,english_950.wav,0,1,679,21.0,2.0,Chinese,f,0,0.0,-21.9776243,0.20752278
WWH,144,2,2024-06-13T06:29:48.500Z,english_950.wav,0,1,679,21.0,2.0,Chinese,f,1,0.1,-41.40023943,1.93939622
WWH,144,2,2024-06-13T06:29:48.500Z,english_950.wav,0,1,679,21.0,2.0,Chinese,f,2,0.2,48.01515584,1.55608343
WWH,144,2,2024-06-13T06:29:48.500Z,english_950.wav,0,1,679,21.0,2.0,Chinese,f,3,0.3,-87.95551252,1.49634866
WWH,144,2,2024-06-13T06:29:48.500Z,english_950.wav,0,1,679,21.0,2.0,Chinese,f,4,0.32341667,-39.5252386,0.91783384
WWH,145,2,2024-06-13T06:29:48.500Z,english_65.wav,0,1,843,21.0,2.0,Chinese,f,0,0.0,-46.88015867,0.62230507
WWH,145,2,2024-06-13T06:29:48.500Z,english_65.wav,0,1,843,21.0,2.0,Chinese,f,1,0.1,54.34027197,1.12355997
WWH,145,2,2024-06-13T06:29:48.500Z,english_65.wav,0,1,843,21.0,2.0,Chinese,f,2,0.2,-65.46386729,1.0507031
WWH,145,2,2024-06-13T06:29:48.500Z,english_65.wav,0,1,843,21.0,2.0,Chinese,f,3,0.3,-66.7533487,0.71238348
WWH,145,2,2024-06-13T06:29:48.500Z,english_65.wav,0,1,843,21.0,2.0,Chinese,f,4,0.32341667,-12.18147599,0.41048607
WWH,146,2,2024-06-13T06:29:48.500Z,english_852.wav,0,0,1433,21.0,2.0,Chinese,f,0,0.0,-59.21906832,1.76087743
WWH,146,2,2024-06-13T06:29:48.500Z,english_852.wav,0,0,1433,21.0,2.0,Chinese,f,1,0.1,5.96662808,0.85304022
WWH,146,2,2024-06-13T06:29:48.500Z,english_852.wav,0,0,1433,21.0,2.0,Chinese,f,2,0.2,12.29830648,0.5029047
WWH,146,2,2024-06-13T06:29:48.500Z,english_852.wav,0,0,1433,21.0,2.0,Chinese,f,3,0.3,-98.20735767,0.66544939
WWH,146,2,2024-06-13T06:29:48.500Z,english_852.wav,0,0,1433,21.0,2.0,Chinese,f,4,0.32341667,-0.5186354,0.26669214
WWH,147,2,2024-06-13T06:29:48.500Z,english_332.wav,0,0,2053,21.0,2.0,Chinese,f,0,0.0,-51.41680869,1.58782391
WWH,147,2,2024-06-13T06:29:48.500Z,english_332.wav,0,0,2053,21.0,2.0,Chinese,f,1,0.1,4.985172,0.72138411
WWH,147,2,2024-06-13T06:29:48.500Z,english_332.wav,0,0,2053,21.0,2.0,Chinese,f,2,0.2,88.20327684,1.12265768
WWH,147,2,2024-06-13T06:29:48.500Z,english_332.wav,0,0,2053,21.0,2.0,Chinese,f,3,0.3,-58.40734817,0.23569111
WWH,147,2,2024-06-13T06:29:48.500Z,english_332.wav,0,0,2053,21.0,2.0,Chinese,f,4,0.32341667,68.30800912,1.23583309
WWH,148,2,2024-06-13T06:29:48.500Z,english_815.wav,0,1,1015,21.0,2.0,Chinese,f,0,0.0,-76.1669867,0.29426078
WWH,148,2,2024-06-13T06:29:48.500Z,english_815.wav,0,1,1015,21.0,2.0,Chinese,f,1,0.1,-40.517901,0.96858733
WWH,148,2,2024-06-13T06:29:48.500Z,english_815.wav,0,1,1015,21.0,2.0,Chinese,f,2,0.2,-46.68959253,0.83382199
WWH,148,2,2024-06-13T06:29:48.500Z,english_815.wav,0,1,1015,21.0,2.0,Chinese,f,3,0.3,-79.23468646,1.13727176
WWH,148,2,2024-06-13T06:29:48.500Z,english_815.wav,0,1,1015,21.0,2.0,Chinese,f,4,0.32341667,-63.63497058,0.09357312
WWH,149,2,2024-06-13T06:29:48.500Z,english_340.wav,0,1,831,21.0,2.0,Chinese,f,0,0.0,42.62794877,1.44385011
WWH,149,2,2024-06-13T06:29:48.500Z,english_340.wav,0,1,831,21.0,2.0,Chinese,f,1,0.1,67.09042835,1.29329602
WWH,149,2,2024-06-13T06:29:48.500Z,english_340.wav,0,1,831,21.0,2.0,Chinese,f,2,0.2,-80.28719593,1.71068781
WWH,149,2,2024-06-13T06:29:48.500Z,english_340.wav,0,1,831,21.0,2.0,Chinese,f,3,0.3,-47.97556268,0.48872717
WWH,149,2,2024-06-13T06:29:48.500Z,english_340.wav,0,1,831,21.0,2.0,Chinese,f,4,0.32341667,32.7013797,1.09000269
WWH,150,3,2024-06-13T06:29:48.500Z,english_493.wav,0,1,835,21.0,2.0,Chinese,f,0,0.0,42.62366846,0.72879325
WWH,150,3,2024-06-13T06:29:48.500Z,english_493.wav,0,1,835,21.0,2.0,Chinese,f,1,0.1,-24.95330968,1.87742997
WWH,150,3,2024-06-13T06:29:48.500Z,english_493.wav,0,1,835,21.0,2.0,Chinese,f,2,0.2,82.3526737,1.69463318
WWH,150,3,2024-06-13T06:29:48.500Z,english_493.wav,0,1,835,21.0,2.0,Chinese,f,3,0.3,53.78370402,0.82529142
WWH,150,3,2024-06-13T06:29:48.500Z,english_493.wav,0,1,835,21.0,2.0,Chinese,f,4,0.32341667,-52.5410085,0.10126548
WWH,151,3,2024-06-13T06:29:48.500Z,english_231.wav,0,0,981,21.0,2.0,Chinese,f,0,0.0,-57.04299033,1.30850831
WWH,151,3,2024-06-13T06:29:48.500Z,english_231.wav,0,0,981,21.0,2.0,Chinese,f,1,0.1,-61.30294243,1.06317761
WWH,151,3,2024-06-13T06:29:48.500Z,english_231.wav,0,0,981,21.0,2.0,Chinese,f,2,0.2,11.10207427,1.86768436
WWH,151,3,2024-06-13T06:29:48.500Z,english_231.wav,0,0,981,21.0,2.0,Chinese,f,3,0.3,-1.38864911,1.42169342
WWH,151,3,2024-06-13T06:29:48.500Z,english_231.wav,0,0,981,21.0,2.0,Chinese,f,4,0.32341667,-40.37897369,0.58634772
WWH,152,3,2024-06-13T06:29:48.500Z,english_112.wav,0,0,1016,21.0,2.0,Chinese,f,0,0.0,-98.7507832,1.62855774
WWH,152,3,2024-06-13T06:29:48.500Z,english_112.wav,0,0,1016,21.0,2.0,Chinese,f,1,0.1,-92.72198769,1.23374737
WWH,152,3,2024-06-13T06:29:48.500Z,english_112.wav,0,0,1016,21.0,2.0,Chinese,f,2,0.2,15.54821062,0.76022921
WWH,152,3,2024-06-13T06:29:48.500Z,english_112.wav,0,0,1016,21.0,2.0,Chinese,f,3,0.3,-40.54151432,0.49860071
WWH,152,3,2024-06-13T06:29:48.500Z,english_112.wav,0,0,1016,21.0,2.0,Chinese,f,4,0.32341667,-42.89167932,0.23801633
WWH,153,3,2024-06-13T06:29:48.500Z,english_73.wav,0,1,951,21.0,2.0,Chinese,f,0,0.0,-73.49165063,1.41947215
WWH,153,3,2024-06-13T06:29:48.500Z,english_73.wav,0,1,951,21.0,2.0,Chinese,f,1,0.1,65.54847429,1.68852165
WWH,153,3,2024-06-13T06:29:48.500Z,english_73.wav,0,1,951,21.0,2.0,Chinese,f,2,0.2,-55.11967081,0.59259525
WWH,153,3,2024-06-13T06:29:48.500Z,english_73.wav,0,1,951,21.0,2.0,Chinese,f,3,0.3,68.77466141,0.85140805
WWH,153,3,2024-06-13T06:29:48.500Z,english_73.wav,0,1,951,21.0,2.0,Chinese,f,4,0.32341667,-37.79888894,1.17745107
WWH,154,3,2024-06-13T06:29:48.500Z,english_896.wav,0,0,670,21.0,2.0,Chinese,f,0,0.0,-76.63716622,1.08893336
WWH,154,3,2024-06-13T06:29:48.500Z,english_896.wav,0,0,670,21.0,2.0,Chinese,f,1,0.1,-73.11298951,0.41748987
WWH,154,3,2024-06-13T06:29:48.500Z,english_896.wav,0,0,670,21.0,2.0,Chinese,f,2,0.2,48.53347054,0.32012442
WWH,154,3,2024-06-13T06:29:48.500Z,english_896.wav,0,0,670,21.0,2.0,Chinese,f,3,0.3,-4.46661278,0.63387312
WWH,154,3,2024-06-13T06:29:48.500Z,english_896.wav,0,0,670,21.0,2.0,Chinese,f,4,0.32341667,-44.69533701,1.27766005
WWH,155,3,2024-06-13T06:29:48.500Z,english_243.wav,0,0,789,21.0,2.0,Chinese,f,0,0.0,-74.41503345,0.65151457
WWH,155,3,2024-06-13T06:29:48.500Z,english_243.wav,0,0,789,21.0,2.0,Chinese,f,1,0.1,-16.65530333,0.20623253
WWH,155,3,2024-06-13T06:29:48.500Z,english_243.wav,0,0,789,21.0,2.0,Chinese,f,2,0.2,-1.41224798,0.87153721
WWH,155,3,2024-06-13T06:29:48.500Z,english_243.wav,0,0,789,21.0,2.0,Chinese,f,3,0.3,37.30419975,0.28583671
WWH,155,3,2024-06-13T06:29:48.500Z,english_243.wav,0,0,789,21.0,2.0,Chinese,f,4,0.32341667,-3.40378668,1.90700275
WWH,156,3,2024-06-13T06:29:48.500Z,english_810.wav,0,0,665,21.0,2.0,Chinese,f,0,0.0,44.6757801,0.77700382
WWH,156,3,2024-06-13T06:29:48.500Z,english_810.wav,0,0,665,21.0,2.0,Chinese,f,1,0.1,-98.4252216,1.25917073
WWH,156,3,2024-06-13T06:29:48.500Z,english_810.wav,0,0,665,21.0,2.0,Chinese,f,2,0.2,55.4106213,0.78203472
WWH,156,3,2024-06-13T06:29:48.500Z,english_810.wav,0,0,665,21.0,2.0,Chinese,f,3,0.3,-18.4676839,1.13021068
WWH,156,3,2024-06-13T06:29:48.500Z,english_810.wav,0,0,665,21.0,2.0,Chinese,f,4,0.323416667,0.0259169543,0.14578676
WWH,157,3,2024-06-13T06:29:48.500Z,english_915.wav,0,0,796,21.0,2.0,Chinese,f,0,0.0,40.39704719,0.11203387
WWH,157,3,2024-06-13T06:29:48.500Z,english_915.wav,0,0,796,21.0,2.0,Chinese,f,1,0.1,-77.86782689,0.449249
WWH,157,3,2024-06-13T06:29:48.500Z,english_915.wav,0,0,796,21.0,2.0,Chinese,f,2,0.2,21.84672988,0.02407483
WWH,157,3,2024-06-13T06:29:48.500Z,english_915.wav,0,0,796,21.0,2.0,Chinese,f,3,0.3,-56.0972156,1.6502756
WWH,157,3,2024-06-13T06:29:48.500Z,english_915.wav,0,0,796,21.0,2.0,Chinese,f,4,0.32341667,65.00594456,0.65362707
WWH,158,3,2024-06-13T06:29:48.500Z,english_524.wav,0,0,759,21.0,2.0,Chinese,f,0,0.0,-67.97449296,0.75247726
WWH,158,3,2024-06-13T06:29:48.500Z,english_524.wav,0,0,759,21.0,2.0,Chinese,f,1,0.1,11.07328714,0.25589602
WWH,158,3,2024-06-13T06:29:48.500Z,english_524.wav,0,0,759,21.0,2.0,Chinese,f,2,0.2,-43.89657964,0.70559599
WWH,158,3,2024-06-13T06:29:48.500Z,english_524.wav,0,0,759,21.0,2.0,Chinese,f,3,0.3,-41.15015074,0.70218971
WWH,158,3,2024-06-13T06:29:48.500Z,english_524.wav,0,0,759,21.0,2.0,Chinese,f,4,0.32341667,-33.76804681,0.11352048
WWH,159,3,2024-06-13T06:29:48.500Z,english_954.wav,0,0,1409,21.0,2.0,Chinese,f,0,0.0,-31.7323473,1.78985335
WWH,159,3,2024-06-13T06:29:48.500Z,english_954.wav,0,0,1409,21.0,2.0,Chinese,f,1,0.1,26.42807939,1.38754521
WWH,159,3,2024-06-13T06:29:48.500Z,english_954.wav,0,0,1409,21.0,2.0,Chinese,f,2,0.2,22.25968883,1.54917493
WWH,159,3,2024-06-13T06:29:48.500Z,english_954.wav,0,0,1409,21.0,2.0,Chinese,f,3,0.3,-25.30270181,1.54718362
WWH,159,3,2024-06-13T06:29:48.500Z,english_954.wav,0,0,1409,21.0,2.0,Chinese,f,4,0.32341667,46.97185243,0.09638929
WWH,160,3,2024-06-13T06:29:48.500Z,english_536.wav,0,0,1136,21.0,2.0,Chinese,f,0,0.0,19.16157828,1.0914138
WWH,160,3,2024-06-13T06:29:48.500Z,english_536.wav,0,0,1136,21.0,2.0,Chinese,f,1,0.1,-70.44875328,1.55996729
WWH,160,3,2024-06-13T06:29:48.500Z,english_536.wav,0,0,1136,21.0,2.0,Chinese,f,2,0.2,9.3844651,1.22014226
WWH,160,3,2024-06-13T06:29:48.500Z,english_536.wav,0,0,1136,21.0,2.0,Chinese,f,3,0.3,54.79833109,0.24268308
WWH,160,3,2024-06-13T06:29:48.500Z,english_536.wav,0,0,1136,21.0,2.0,Chinese,f,4,0.32341667,-43.58683919,1.12643869
WWH,161,3,2024-06-13T06:29:48.500Z,english_582.wav,0,0,750,21.0,2.0,Chinese,f,0,0.0,-29.81423477,0.27230029
WWH,161,3,2024-06-13T06:29:48.500Z,english_582.wav,0,0,750,21.0,2.0,Chinese,f,1,0.1,37.42565533,0.84765039
WWH,161,3,2024-06-13T06:29:48.500Z,english_582.wav,0,0,750,21.0,2.0,Chinese,f,2,0.2,79.58894888,1.99526631
WWH,161,3,2024-06-13T06:29:48.500Z,english_582.wav,0,0,750,21.0,2.0,Chinese,f,3,0.3,49.55779855,1.55519667
WWH,161,3,2024-06-13T06:29:48.500Z,english_582.wav,0,0,750,21.0,2.0,Chinese,f,4,0.32341667,54.00509918,1.66653349
WWH,162,3,2024-06-13T06:29:48.500Z,english_678.wav,0,0,820,21.0,2.0,Chinese,f,0,0.0,87.86222938,1.6760541
WWH,162,3,2024-06-13T06:29:48.500Z,english_678.wav,0,0,820,21.0,2.0,Chinese,f,1,0.1,-47.14792626,0.22369522
WWH,162,3,2024-06-13T06:29:48.500Z,english_678.wav,0,0,820,21.0,2.0,Chinese,f,2,0.2,-6.84659798,1.1260271
WWH,162,3,2024-06-13T06:29:48.500Z,english_678.wav,0,0,820,21.0,2.0,Chinese,f,3,0.3,87.67045201,1.53941447
WWH,162,3,2024-06-13T06:29:48.500Z,english_678.wav,0,0,820,21.0,2.0,Chinese,f,4,0.32341667,-51.71213936,1.37136581
WWH,163,3,2024-06-13T06:29:48.500Z,english_176.wav,0,0,722,21.0,2.0,Chinese,f,0,0.0,-62.84257592,0.68193044
WWH,163,3,2024-06-13T06:29:48.500Z,english_176.wav,0,0,722,21.0,2.0,Chinese,f,1,0.1,86.95506575,0.26950978
WWH,163,3,2024-06-13T06:29:48.500Z,english_176.wav,0,0,722,21.0,2.0,Chinese,f,2,0.2,-28.0397163,0.45294908
WWH,163,3,2024-06-13T06:29:48.500Z,english_176.wav,0,0,722,21.0,2.0,Chinese,f,3,0.3,-64.80124174,0.91353321
WWH,163,3,2024-06-13T06:29:48.500Z,english_176.wav,0,0,722,21.0,2.0,Chinese,f,4,0.32341667,-98.66046935,1.10925614
WWH,164,3,2024-06-13T06:29:48.500Z,english_862.wav,0,0,451,21.0,2.0,Chinese,f,0,0.0,97.17644144,0.51253178
WWH,164,3,2024-06-13T06:29:48.500Z,english_862.wav,0,0,451,21.0,2.0,Chinese,f,1,0.1,26.34966999,0.21080737
WWH,164,3,2024-06-13T06:29:48.500Z,english_862.wav,0,0,451,21.0,2.0,Chinese,f,2,0.2,-21.73584106,0.27401534
WWH,164,3,2024-06-13T06:29:48.500Z,english_862.wav,0,0,451,21.0,2.0,Chinese,f,3,0.3,70.49109419,1.91980484
WWH,164,3,2024-06-13T06:29:48.500Z,english_862.wav,0,0,451,21.0,2.0,Chinese,f,4,0.32341667,43.48373212,0.96077188
WWH,165,3,2024-06-13T06:29:48.500Z,english_444.wav,0,1,1456,21.0,2.0,Chinese,f,0,0.0,57.2872587,0.52242118
WWH,165,3,2024-06-13T06:29:48.500Z,english_444.wav,0,1,1456,21.0,2.0,Chinese,f,1,0.1,68.85097071,1.61316948
WWH,165,3,2024-06-13T06:29:48.500Z,english_444.wav,0,1,1456,21.0,2.0,Chinese,f,2,0.2,-30.10164543,0.15196309
WWH,165,3,2024-06-13T06:29:48.500Z,english_444.wav,0,1,1456,21.0,2.0,Chinese,f,3,0.3,-57.0249627,0.44426911
WWH,165,3,2024-06-13T06:29:48.500Z,english_444.wav,0,1,1456,21.0,2.0,Chinese,f,4,0.32341667,-54.19692118,1.48693747
WWH,166,3,2024-06-13T06:29:48.500Z,english_818.wav,0,1,5947,21.0,2.0,Chinese,f,0,0.0,88.49542613,1.4873036
WWH,166,3,2024-06-13T06:29:48.500Z,english_818.wav,0,1,5947,21.0,2.0,Chinese,f,1,0.1,-7.37005163,1.25102077
WWH,166,3,2024-06-13T06:29:48.500Z,english_818.wav,0,1,5947,21.0,2.0,Chinese,f,2,0.2,-1.58613611,0.80764036
WWH,166,3,2024-06-13T06:29:48.500Z,english_818.wav,0,1,5947,21.0,2.0,Chinese,f,3,0.3,-69.41222379,0.80656775
WWH,166,3,2024-06-13T06:29:48.500Z,english_818.wav,0,1,5947,21.0,2.0,Chinese,f,4,0.32341667,14.01707612,1.41859799
WWH,167,3,2024-06-13T06:29:48.500Z,english_565.wav,0,1,2071,21.0,2.0,Chinese,f,0,0.0,-89.95965492,1.93181176
WWH,167,3,2024-06-13T06:29:48.500Z,english_565.wav,0,1,2071,21.0,2.0,Chinese,f,1,0.1,67.55938023,1.29027557
WWH,167,3,2024-06-13T06:29:48.500Z,english_565.wav,0,1,2071,21.0,2.0,Chinese,f,2,0.2,26.6208604,0.36054668
WWH,167,3,2024-06-13T06:29:48.500Z,english_565.wav,0,1,2071,21.0,2.0,Chinese,f,3,0.3,-54.20230035,1.25973455
WWH,167,3,2024-06-13T06:29:48.500Z,english_565.wav,0,1,2071,21.0,2.0,Chinese,f,4,0.32341667,-98.16020256,0.92743077
WWH,168,3,2024-06-13T06:29:48.500Z,english_283.wav,0,0,7786,21.0,2.0,Chinese,f,0,0.0,-27.01977409,1.23470843
WWH,168,3,2024-06-13T06:29:48.500Z,english_283.wav,0,0,7786,21.0,2.0,Chinese,f,1,0.1,-58.6063919,0.41737987
WWH,168,3,2024-06-13T06:29:48.500Z,english_283.wav,0,0,7786,21.0,2.0,Chinese,f,2,0.2,36.15867228,0.64455365
WWH,168,3,2024-06-13T06:29:48.500Z,english_283.wav,0,0,7786,21.0,2.0,Chinese,f,3,0.3,-77.91689069,1.80541824
WWH,168,3,2024-06-13T06:29:48.500Z,english_283.wav,0,0,7786,21.0,2.0,Chinese,f,4,0.32341667,-77.99680679,1.86024907
WWH,169,3,2024-06-13T06:29:48.500Z,english_253.wav,0,0,45058,21.0,2.0,Chinese,f,0,0.0,12.9108365,0.20464585
WWH,169,3,2024-06-13T06:29:48.500Z,english_253.wav,0,0,45058,21.0,2.0,Chinese,f,1,0.1,-70.83420593,1.97412558
WWH,169,3,2024-06-13T06:29:48.500Z,english_253.wav,0,0,45058,21.0,2.0,Chinese,f,2,0.2,-6.13796162,1.12401504
WWH,169,3,2024-06-13T06:29:48.500Z,english_253.wav,0,0,45058,21.0,2.0,Chinese,f,3,0.3,38.03543053,1.75851492
WWH,169,3,2024-06-13T06:29:48.500Z,english_253.wav,0,0,45058,21.0,2.0,Chinese,f,4,0.32341667,-61.21147917,0.77953826
WWH,170,3,2024-06-13T06:29:48.500Z,english_219.wav,0,1,3414,21.0,2.0,Chinese,f,0,0.0,38.40040381,1.09142553
WWH,170,3,2024-06-13T06:29:48.500Z,english_219.wav,0,1,3414,21.0,2.0,Chinese,f,1,0.1,-26.23926727,0.5740428
WWH,170,3,2024-06-13T06:29:48.500Z,english_219.wav,0,1,3414,21.0,2.0,Chinese,f,2,0.2,-57.67558578,1.19056911
WWH,170,3,2024-06-13T06:29:48.500Z,english_219.wav,0,1,3414,21.0,2.0,Chinese,f,3,0.3,50.56926795,1.87089358
WWH,170,3,2024-06-13T06:29:48.500Z,english_219.wav,0,1,3414,21.0,2.0,Chinese,f,4,0.32341667,64.39220397,1.06933149
WWH,171,3,2024-06-13T06:29:48.500Z,english_574.wav,0,0,3956,21.0,2.0,Chinese,f,0,0.0,53.128433,0.28349694
WWH,171,3,2024-06-13T06:29:48.500Z,english_574.wav,0,0,3956,21.0,2.0,Chinese,f,1,0.1,70.24248151,0.66519348
WWH,171,3,2024-06-13T06:29:48.500Z,english_574.wav,0,0,3956,21.0,2.0,Chinese,f,2,0.2,47.13290739,1.25768036
WWH,171,3,2024-06-13T06:29:48.500Z,english_574.wav,0,0,3956,21.0,2.0,Chinese,f,3,0.3,52.31480293,1.43482954
WWH,171,3,2024-06-13T06:29:48.500Z,english_574.wav,0,0,3956,21.0,2.0,Chinese,f,4,0.32341667,-33.06438127,1.23350688
WWH,172,3,2024-06-13T06:29:48.500Z,english_934.wav,0,1,2130,21.0,2.0,Chinese,f,0,0.0,48.23169593,1.38760579
WWH,172,3,2024-06-13T06:29:48.500Z,english_934.wav,0,1,2130,21.0,2.0,Chinese,f,1,0.1,42.81145804,1.74622613
WWH,172,3,2024-06-13T06:29:48.500Z,english_934.wav,0,1,2130,21.0,2.0,Chinese,f,2,0.2,79.06411095,0.2874918
WWH,172,3,2024-06-13T06:29:48.500Z,english_934.wav,0,1,2130,21.0,2.0,Chinese,f,3,0.3,69.44528076,1.61606763
WWH,172,3,2024-06-13T06:29:48.500Z,english_934.wav,0,1,2130,21.0,2.0,Chinese,f,4,0.32341667,88.54940569,1.62058381
WWH,173,3,2024-06-13T06:29:48.500Z,english_527.wav,0,0,1319,21.0,2.0,Chinese,f,0,0.0,-32.70996179,0.06646481
WWH,173,3,2024-06-13T06:29:48.500Z,english_527.wav,0,0,1319,21.0,2.0,Chinese,f,1,0.1,-61.96334317,1.75268105
WWH,173,3,2024-06-13T06:29:48.500Z,english_527.wav,0,0,1319,21.0,2.0,Chinese,f,2,0.2,86.46317242,0.41061726
WWH,173,3,2024-06-13T06:29:48.500Z,english_527.wav,0,0,1319,21.0,2.0,Chinese,f,3,0.3,-18.9429262,1.43024268
WWH,173,3,2024-06-13T06:29:48.500Z,english_527.wav,0,0,1319,21.0,2.0,Chinese,f,4,0.32341667,-59.75355058,0.73468543
WWH,174,3,2024-06-13T06:29:48.500Z,english_448.wav,0,0,1005,21.0,2.0,Chinese,f,0,0.0,0.37188167,1.15390094
WWH,174,3,2024-06-13T06:29:48.500Z,english_448.wav,0,0,1005,21.0,2.0,Chinese,f,1,0.1,-67.82723624,1.58767458
WWH,174,3,2024-06-13T06:29:48.500Z,english_448.wav,0,0,1005,21.0,2.0,Chinese,f,2,0.2,65.77705469,1.13313853
WWH,174,3,2024-06-13T06:29:48.500Z,english_448.wav,0,0,1005,21.0,2.0,Chinese,f,3,0.3,83.31626383,0.27075507
WWH,174,3,2024-06-13T06:29:48.500Z,english_448.wav,0,0,1005,21.0,2.0,Chinese,f,4,0.32341667,-27.56829045,1.20964916
WWH,175,3,2024-06-13T06:29:48.500Z,english_474.wav,0,0,1146,21.0,2.0,Chinese,f,0,0.0,42.88606971,0.87351765
WWH,175,3,2024-06-13T06:29:48.500Z,english_474.wav,0,0,1146,21.0,2.0,Chinese,f,1,0.1,6.82691085,1.08551449
WWH,175,3,2024-06-13T06:29:48.500Z,english_474.wav,0,0,1146,21.0,2.0,Chinese,f,2,0.2,-33.80031927,1.99847166
WWH,175,3,2024-06-13T06:29:48.500Z,english_474.wav,0,0,1146,21.0,2.0,Chinese,f,3,0.3,-97.18672796,0.27470298
WWH,175,3,2024-06-13T06:29:48.500Z,english_474.wav,0,0,1146,21.0,2.0,Chinese,f,4,0.32341667,-4.7462475,0.02962094
WWH,176,3,2024-06-13T06:29:48.500Z,english_54.wav,0,0,810,21.0,2.0,Chinese,f,0,0.0,1.86764875,1.47639799
WWH,176,3,2024-06-13T06:29:48.500Z,english_54.wav,0,0,810,21.0,2.0,Chinese,f,1,0.1,-1.78672474,1.92944336
WWH,176,3,2024-06-13T06:29:48.500Z,english_54.wav,0,0,810,21.0,2.0,Chinese,f,2,0.2,-26.58380414,0.76292987
WWH,176,3,2024-06-13T06:29:48.500Z,english_54.wav,0,0,810,21.0,2.0,Chinese,f,3,0.3,-2.56688864,1.78735236
WWH,176,3,2024-06-13T06:29:48.500Z,english_54.wav,0,0,810,21.0,2.0,Chinese,f,4,0.32341667,-76.29238916,0.80366269
WWH,177,3,2024-06-13T06:29:48.500Z,english_833.wav,0,0,872,21.0,2.0,Chinese,f,0,0.0,18.29317799,0.49951345
WWH,177,3,2024-06-13T06:29:48.500Z,english_833.wav,0,0,872,21.0,2.0,Chinese,f,1,0.1,20.01945042,1.12176851
WWH,177,3,2024-06-13T06:29:48.500Z,english_833.wav,0,0,872,21.0,2.0,Chinese,f,2,0.2,-77.99741705,0.59960618
WWH,177,3,2024-06-13T06:29:48.500Z,english_833.wav,0,0,872,21.0,2.0,Chinese,f,3,0.3,19.36192697,0.50557433
WWH,177,3,2024-06-13T06:29:48.500Z,english_833.wav,0,0,872,21.0,2.0,Chinese,f,4,0.32341667,43.06785988,0.3288339
WWH,178,3,2024-06-13T06:29:48.500Z,english_349.wav,0,0,801,21.0,2.0,Chinese,f,0,0.0,-10.00495534,0.36915768
WWH,178,3,2024-06-13T06:29:48.500Z,english_349.wav,0,0,801,21.0,2.0,Chinese,f,1,0.1,54.31199814,0.83111041
WWH,178,3,2024-06-13T06:29:48.500Z,english_349.wav,0,0,801,21.0,2.0,Chinese,f,2,0.2,48.17968705,1.70147194
WWH,178,3,2024-06-13T06:29:48.500Z,english_349.wav,0,0,801,21.0,2.0,Chinese,f,3,0.3,8.48926652,1.08588898
WWH,178,3,2024-06-13T06:29:48.500Z,english_349.wav,0,0,801,21.0,2.0,Chinese,f,4,0.32341667,42.05620052,0.02584958
WWH,179,3,2024-06-13T06:29:48.500Z,english_880.wav,0,0,881,21.0,2.0,Chinese,f,0,0.0,3.17154152,0.81183988
WWH,179,3,2024-06-13T06:29:48.500Z,english_880.wav,0,0,881,21.0,2.0,Chinese,f,1,0.1,-74.02271749,1.44061269
WWH,179,3,2024-06-13T06:29:48.500Z,english_880.wav,0,0,881,21.0,2.0,Chinese,f,2,0.2,46.15952764,0.42884863
WWH,179,3,2024-06-13T06:29:48.500Z,english_880.wav,0,0,881,21.0,2.0,Chinese,f,3,0.3,4.14106927,1.93838261
WWH,179,3,2024-06-13T06:29:48.500Z,english_880.wav,0,0,881,21.0,2.0,Chinese,f,4,0.32341667,26.36707366,1.4503687
WWH,180,3,2024-06-13T06:29:48.500Z,english_212.wav,0,0,894,21.0,2.0,Chinese,f,0,0.0,-8.03708838,0.69940518
WWH,180,3,2024-06-13T06:29:48.500Z,english_212.wav,0,0,894,21.0,2.0,Chinese,f,1,0.1,72.60121642,1.0039509
WWH,180,3,2024-06-13T06:29:48.500Z,english_212.wav,0,0,894,21.0,2.0,Chinese,f,2,0.2,-98.76374397,1.17731185
WWH,180,3,2024-06-13T06:29:48.500Z,english_212.wav,0,0,894,21.0,2.0,Chinese,f,3,0.3,31.47742107,0.88066499
WWH,180,3,2024-06-13T06:29:48.500Z,english_212.wav,0,0,894,21.0,2.0,Chinese,f,4,0.32341667,53.59344022,0.33624016
WWH,181,3,2024-06-13T06:29:48.500Z,english_189.wav,0,0,858,21.0,2.0,Chinese,f,0,0.0,-22.70456848,0.82906961
WWH,181,3,2024-06-13T06:29:48.500Z,english_189.wav,0,0,858,21.0,2.0,Chinese,f,1,0.1,-12.00888723,0.58408113
WWH,181,3,2024-06-13T06:29:48.500Z,english_189.wav,0,0,858,21.0,2.0,Chinese,f,2,0.2,15.14046376,0.19058783
WWH,181,3,2024-06-13T06:29:48.500Z,english_189.wav,0,0,858,21.0,2.0,Chinese,f,3,0.3,-19.30106293,0.57788611
WWH,181,3,2024-06-13T06:29:48.500Z,english_189.wav,0,0,858,21.0,2.0,Chinese,f,4,0.32341667,-20.57313834,0.32577637
WWH,182,3,2024-06-13T06:29:48.500Z,english_276.wav,0,1,2670,21.0,2.0,Chinese,f,0,0.0,-87.25523595,1.1918401
WWH,182,3,2024-06-13T06:29:48.500Z,english_276.wav,0,1,2670,21.0,2.0,Chinese,f,1,0.1,16.91650801,0.89399115
WWH,182,3,2024-06-13T06:29:48.500Z,english_276.wav,0,1,2670,21.0,2.0,Chinese,f,2,0.2,-40.09372932,0.89701806
WWH,182,3,2024-06-13T06:29:48.500Z,english_276.wav,0,1,2670,21.0,2.0,Chinese,f,3,0.3,3.19229046,1.98333504
WWH,182,3,2024-06-13T06:29:48.500Z,english_276.wav,0,1,2670,21.0,2.0,Chinese,f,4,0.32341667,18.84785296,1.85350493
WWH,183,3,2024-06-13T06:29:48.500Z,english_136.wav,0,0,1566,21.0,2.0,Chinese,f,0,0.0,12.04186247,0.70846626
WWH,183,3,2024-06-13T06:29:48.500Z,english_136.wav,0,0,1566,21.0,2.0,Chinese,f,1,0.1,-56.97950323,1.3229906
WWH,183,3,2024-06-13T06:29:48.500Z,english_136.wav,0,0,1566,21.0,2.0,Chinese,f,2,0.2,32.29793995,0.25119571
WWH,183,3,2024-06-13T06:29:48.500Z,english_136.wav,0,0,1566,21.0,2.0,Chinese,f,3,0.3,40.05814767,1.28510755
